Timestamp,P,Gx,Gy,Gz,Mx,My,Mz,LiAx,LiAy,LiAz,Ax,Ay,Az,earthAx,earthAy,earthAz,Value,Type
0,988.6278686523438,-7.705017924308777E-5,0.0016039416659623384,-3.0900159617885947E-4,-9.701908111572266,22.202054977416992,-39.04328155517578,-0.0031371191143989563,-0.019729644060134888,0.03572273254394531,0.0665434,-0.15600331,9.772699,-0.0057007894,0.006823197,9.774168,0
0,988.5520629882812,4.41144744399935E-4,-2.4253560695797205E-5,5.872274050489068E-4,-7.453451156616211,24.306852340698242,-38.43513488769531,-0.01703624427318573,0.004011407494544983,0.026250839233398438,0.080863774,-0.1560028,9.7750635,0.005862713,9.419322E-4,9.77664,0
0,988.5698852539062,4.1854160372167826E-5,-1.5744115808047354E-4,5.8730598539114E-4,-6.981808185577393,23.9056453704834,-38.484336853027344,-0.012586772441864014,-0.005360737442970276,0.0309906005859375,0.085624516,-0.1560023,9.7679615,0.010736082,-6.6679716E-4,9.769577,0
0,988.5823974609375,-7.569095469079912E-4,-2.906289591919631E-4,4.54226799774915E-4,-7.248910903930664,23.812944412231445,-37.43695831298828,-0.0024215951561927795,-0.019695520401000977,0.04519081115722656,0.083215594,-0.14408548,9.775062,0.01127376,0.011639357,9.7764635,0
0,988.55712890625,0.0011046675499528646,2.8357323026284575E-4,3.597331524360925E-4,-7.329590320587158,24.10652732849121,-38.057579040527344,-0.0024245083332061768,0.004375755786895752,0.03572845458984375,0.08319658,-0.1560014,9.765591,0.007811766,-1.668781E-4,9.767187,0
0,988.593017578125,4.390610265545547E-4,-2.4908833438530564E-4,-1.7282005865126848E-4,-8.3040189743042,24.721555709838867,-37.635475158691406,-0.0025757700204849243,0.009158283472061157,0.030996322631835938,0.08078766,-0.1679173,9.77269,0.001899356,-0.0108895,9.774461,0
0,988.57275390625,3.977044252678752E-5,8.161455043591559E-4,-0.0011048470623791218,-7.638214111328125,24.0279598236084,-37.54351806640625,0.0022382736206054688,0.009278863668441772,0.035736083984375,0.07598883,-0.15838374,9.772688,3.0689873E-4,-4.3542683E-4,9.774266,0
0,988.6155395507812,-2.263620845042169E-4,1.5032599912956357E-4,-1.7266301438212395E-4,-7.5497870445251465,23.847654342651367,-38.00850296020508,0.005077041685581207,-0.009684085845947266,0.05453968048095703,0.07511869,-0.14173807,9.758625,0.0050035045,0.015225619,9.75993,0
0,988.5826416015625,1.6664154827594757E-4,-2.525215386413038E-4,-4.474064917303622E-4,-7.8377838134765625,24.052080154418945,-37.9760856628418,-0.004656493663787842,0.004523932933807373,0.049800872802734375,0.08233029,-0.17510496,9.772831,0.0017242525,-0.018444628,9.774728,0
0,988.5901489257812,-3.681926755234599E-4,0.0014788892585784197,-1.8203438958153129E-4,-7.891480922698975,24.05443000793457,-37.890960693359375,-0.004608117043972015,0.004547938704490662,0.030858993530273438,0.0728125,-0.1655729,9.770468,-0.004399633,-0.0065322816,9.77214,0
0,988.5905151367188,5.635095294564962E-4,-5.184143665246665E-4,-7.14839028660208E-4,-7.5143537521362305,23.827634811401367,-37.16596221923828,0.00486823171377182,0.028335317969322205,0.06873035430908203,0.08002406,-0.1703405,9.758636,0.0012142863,-0.013398677,9.760442,0
0,988.577392578125,-3.689995501190424E-4,-1.188750029541552E-4,-5.818539648316801E-4,-7.3751349449157715,23.747953414916992,-38.260536193847656,8.67992639541626E-5,-1.8505752086639404E-4,0.06399250030517578,0.07289624,-0.15842508,9.753906,-0.002161758,-6.2689185E-5,9.755465,0
0,988.577392578125,-3.689995501190424E-4,-1.188750029541552E-4,-5.818539648316801E-4,-7.564027309417725,24.202688217163086,-37.41120910644531,-0.004420511424541473,-0.009681284427642822,0.05925273895263672,0.0777179,-0.16557603,9.765745,-1.1404045E-4,-0.008046806,9.767455,0
0,988.5880126953125,4.295444814488292E-4,4.1382218478247523E-4,-7.151848985813558E-4,-7.90960693359375,24.142671585083008,-37.662376403808594,0.004973992705345154,-0.009605512022972107,0.06398487091064453,0.07059008,-0.1584272,9.751547,-0.0045789964,4.784912E-4,9.753088,0
0,988.5626220703125,2.9667280614376068E-5,-9.176916792057455E-4,3.499056911095977E-4,-7.170999526977539,23.728246688842773,-38.05988311767578,-0.004634089767932892,-0.014351412653923035,0.05451393127441406,0.08019152,-0.1608115,9.756285,0.0039431825,-0.0044703186,9.757938,0
0,988.5448608398438,6.950534880161285E-4,2.8079532785341144E-4,-4.9741065595299006E-5,-7.130862236022949,23.81855583190918,-38.14834213256836,-0.018950238823890686,-1.4895200729370117E-4,0.021366119384765625,0.0826233,-0.1655791,9.779961,0.0046667065,-0.0092814565,9.781705,0
0,988.5850219726562,2.8860289603471756E-5,-1.186130684800446E-4,2.1640182239934802E-4,-7.700767993927002,24.233304977416992,-38.392723083496094,-0.004553087055683136,-3.914833068847656E-4,0.03082561492919922,0.070715606,-0.16319682,9.772862,-0.005941646,-0.003391564,9.774479,0
0,988.5551147460938,-9.036487899720669E-4,4.140842938795686E-4,-3.164028166793287E-4,-7.452610015869141,24.57069969177246,-37.91181564331055,-7.385015487670898E-5,0.00429166853427887,0.04029273986816406,0.075537294,-0.15366472,9.770498,0.0017531719,0.004297614,9.7719965,0
0,988.5930786132812,-2.3826246615499258E-4,1.4675839338451624E-5,2.1605612710118294E-4,-7.577886581420898,23.6632137298584,-37.83940887451172,-1.1785328388214111E-4,-0.009927317500114441,0.026086807250976562,0.0851388,-0.15604906,9.777604,0.010146424,-8.627176E-4,9.779215,0
0,988.5829467773438,2.9396580066531897E-4,-1.1841655941680074E-4,8.27252515591681E-5,-7.8452558517456055,24.150632858276367,-38.28863525390625,-0.009222738444805145,-0.01011773943901062,0.049747467041015625,0.08757052,-0.15128346,9.758671,0.013557358,0.0028966367,9.760226,0
0,988.5880126953125,2.7246540412306786E-5,-5.178248975425959E-4,-1.8376356456428766E-4,-7.929254531860352,24.22943687438965,-37.35649108886719,0.005041547119617462,0.008733600378036499,0.04027271270751953,0.070883095,-0.16558416,9.763409,-0.0065594837,-0.005388692,9.765064,0
0,988.5804443359375,-9.052626555785537E-4,-7.840752950869501E-4,7.481690845452249E-4,-7.3813605308532715,23.636140823364258,-37.252235412597656,-0.009542949497699738,-0.00539611279964447,0.04974079132080078,0.08048454,-0.14651896,9.756311,0.00830883,0.0097280145,9.757735,0
0,988.59814453125,-2.3987633176147938E-4,9.470434742979705E-4,-5.0951552111655474E-5,-7.317415237426758,24.118314743041992,-38.676021575927734,-2.425462007522583E-4,-7.758736610412598E-4,0.02606487274169922,0.08052641,-0.15843634,9.777619,0.0051180217,-0.0012852252,9.779232,0
0,988.6083374023438,2.6036053895950317E-5,1.4816131442785263E-4,2.1519139409065247E-4,-7.37375020980835,23.64350700378418,-37.638763427734375,0.0041917189955711365,-0.010426566004753113,0.044999122619628906,0.07100868,-0.15367089,9.775256,-0.0022941288,0.0060308725,9.77672,0
1,988.6083374023438,2.5229179300367832E-5,8.140820427797735E-4,-1.846281229518354E-4,-7.593648910522461,24.016775131225586,-37.16481018066406,-4.3173879384994507E-4,-9.852796792984009E-4,0.035523414611816406,0.083000004,-0.16320498,9.77526,0.0062220898,-0.0064668953,9.776971,0
1,988.5702514648438,2.4825683794915676E-5,1.5199824701994658E-5,-4.5111688086763024E-4,-7.893002510070801,24.05295753479004,-37.81365966796875,-0.010176524519920349,-0.015257909893989563,0.049724578857421875,0.080652,-0.14652307,9.753959,0.009240076,0.009605974,9.7553835,0
1,988.565185546875,-5.082095740363002E-4,-5.173663957975805E-4,3.4765779855661094E-4,-7.847213268280029,23.411108016967773,-37.93712615966797,-0.014752998948097229,-0.015550985932350159,0.030775070190429688,0.09025344,-0.15129067,9.768167,0.016744675,0.0026101172,9.769742,0
1,988.57275390625,-2.4229707196354866E-4,-1.178270613308996E-4,8.801165968179703E-4,-7.667292594909668,23.473752975463867,-37.198673248291016,-0.00523095577955246,-0.001023620367050171,0.026041030883789062,0.07356599,-0.1584415,9.770537,-0.0014324784,8.903593E-4,9.7720995,0
1,988.5880126953125,5.562469596043229E-4,1.5396333765238523E-5,-0.0013837411534041166,-7.681938171386719,24.30299186706543,-37.398902893066406,-2.5262683629989624E-4,-0.010356619954109192,0.04024219512939453,0.080777586,-0.15605928,9.782377,0.005835062,0.0010956377,9.783954,0
1,988.577880859375,1.5636987518519163E-4,-3.840119461528957E-4,-5.233479896560311E-5,-8.121757507324219,24.62921714782715,-38.27403259277344,-0.014943011105060577,-0.010437101125717163,0.026035308837890625,0.08798915,-0.15367706,9.803686,0.0137132,0.0014125407,9.805276,0
1,988.58544921875,1.5596626326441765E-4,5.481590633280575E-4,2.138080890290439E-4,-7.272986888885498,24.001211166381836,-37.59823226928711,-0.00994156301021576,0.003916651010513306,0.016561508178710938,0.08086127,-0.16082789,9.772916,0.0046149343,-0.0035791546,9.774573,0
1,988.5905151367188,6.881945300847292E-4,-0.001315986504778266,-1.858387258835137E-4,-7.379700660705566,23.743532180786133,-38.02861785888672,0.009743310511112213,0.00433775782585144,0.030763626098632812,0.07053739,-0.1631924,9.775213,-0.0066818614,-0.003031984,9.776828,0
1,988.5826416015625,5.58488885872066E-4,2.813483006320894E-4,3.482727915979922E-4,-7.38024377822876,24.1118221282959,-38.127071380615234,0.006429426372051239,0.018750861287117004,0.045116424560546875,0.074504405,-0.16793905,9.770405,-0.0041408185,-0.009020239,9.772129,0
1,988.5753784179688,-1.0003353236243129E-4,-0.0014478241791948676,8.89832153916359E-5,-7.359509468078613,23.28847312927246,-38.236053466796875,-0.012208588421344757,-0.024123385548591614,0.04038238525390625,0.086431086,-0.1512555,9.768034,0.01168853,0.003468275,9.76958,0
1,988.5955810546875,5.659761955030262E-4,-3.8259633583948016E-4,6.217092741280794E-4,-7.361032009124756,23.28700065612793,-38.15875244140625,-0.0023887529969215393,-0.010024607181549072,0.04984760284423828,0.07445872,-0.15602155,9.763298,-0.0013130698,0.0026542693,9.764829,0
1,988.5855712890625,-3.659093636088073E-4,-9.152638376690447E-4,-4.398601595312357E-5,-7.275350093841553,23.73588752746582,-38.044254302978516,0.0024296343326568604,0.004680931568145752,0.035653114318847656,0.07682583,-0.15840422,9.763296,1.0921247E-4,-7.0488453E-4,9.764883,0
1,988.5753784179688,5.664163618348539E-4,-3.8266784395091236E-4,-3.102076007053256E-4,-7.261354446411133,24.381284713745117,-38.31512451171875,-0.0019432976841926575,4.6893954277038574E-5,0.021451950073242188,0.07680297,-0.16078694,9.784599,-0.0010451227,-0.0026263148,9.786222,0
1,988.602783203125,3.0032050563022494E-4,1.4992826618254185E-4,-4.432712448760867E-4,-7.335976600646973,23.468496322631836,-38.17323303222656,-0.0018758922815322876,4.3004751205444336E-5,0.035655975341796875,0.08633977,-0.1607864,9.77276,0.008025067,-0.005610153,9.77446,0
1,988.5875244140625,3.4224765840917826E-5,-7.822130573913455E-4,-1.7686100909486413E-4,-6.837458610534668,23.882394790649414,-37.889347076416016,-0.011020898818969727,9.071826934814453E-5,0.06406211853027344,0.07675731,-0.1631691,9.751454,-0.0020274334,-0.005429849,9.753121,0
1,988.5550537109375,8.333925507031381E-4,1.6698846593499184E-5,2.22707079956308E-4,-7.230103969573975,23.462331771850586,-38.266170501708984,0.0031837821006774902,-0.01857130229473114,0.059337615966796875,0.07912439,-0.13933577,9.768023,0.0070278198,0.01659353,9.7693205,0
1,988.5752563476562,-9.849300840869546E-5,-2.4965277407318354E-4,-4.4298835564404726E-4,-7.824223518371582,23.95942497253418,-37.97275161743164,-0.001551792025566101,0.005100920796394348,0.03566551208496094,0.07432175,-0.16078468,9.760918,-0.0037886798,-0.0024382174,9.762525,0
1,988.5850219726562,3.488495713099837E-5,4.1610124753788114E-4,8.973776130005717E-5,-7.4259257316589355,23.64732551574707,-37.630943298339844,0.007690176367759705,0.009875282645225525,0.03567028045654297,0.07429892,-0.16078417,9.770386,-0.0034932364,-0.0024056137,9.771991,0
1,988.603271484375,3.645141259767115E-4,4.865613009314984E-4,5.820619990117848E-4,-7.467585563659668,23.5555477142334,-37.465187072753906,0.021853044629096985,-0.00911945104598999,0.04987812042236328,0.067106366,-0.1512505,9.763282,-0.0073868446,0.008532837,9.764678,0
1,988.5647583007812,-4.3421349255368114E-4,0.0010191574692726135,-3.4994923043996096E-4,-7.519324779510498,24.297422409057617,-37.73157501220703,-0.0020957142114639282,8.887052536010742E-5,0.05934429168701172,0.07425326,-0.16078307,9.758545,-0.003161464,-0.0024547726,9.76015,0
1,988.6153564453125,-4.3399346759542823E-4,-5.787736736238003E-4,3.1593479798175395E-4,-7.53981351852417,24.12034034729004,-37.949012756347656,-0.0018041357398033142,-0.00950215756893158,0.035671234130859375,0.08617991,-0.15601592,9.777481,0.009341683,-0.001009807,9.7791,0
1,988.6052856445312,-3.429950447753072E-5,-9.78283234871924E-4,-6.160764023661613E-4,-7.559759616851807,23.57497215270996,-38.0679931640625,-0.015741534531116486,-0.004752159118652344,0.04513835906982422,0.083767176,-0.15363206,9.760908,0.0074561313,0.0017934442,9.762473,0
1,988.5926513671875,-1.672373036853969E-4,-3.1252927146852016E-4,-4.8282428178936243E-4,-7.758488178253174,23.862943649291992,-37.97723388671875,0.00827769935131073,-0.004687130451202393,0.016735076904296875,0.06940496,-0.1536315,9.784578,-0.006399866,0.0065618306,9.786026,0
1,988.5926513671875,-1.672373036853969E-4,-3.1252927146852016E-4,-4.8282428178936243E-4,-7.857293605804443,24.244768142700195,-38.36927032470703,-0.011054463684558868,-0.024006575345993042,0.06407833099365234,0.08611143,-0.14409788,9.7467,0.012702446,0.010192186,9.748133,0
1,988.5826416015625,-9.659650386311114E-4,2.2006683866493404E-4,-6.158879259601235E-4,-7.643185138702393,24.49774742126465,-38.109130859375,-0.0016437172889709473,-0.00958000123500824,0.0498809814453125,0.08130878,-0.16078027,9.772738,0.0032428242,-0.004065484,9.774398,0
2,988.579833984375,4.989924491383135E-4,2.2003098274581134E-4,4.494699533097446E-4,-7.741585731506348,24.405363082885742,-37.703643798828125,0.0030312612652778625,-0.004854947328567505,0.02147674560546875,0.07650614,-0.14171346,9.775103,0.004598243,0.015570775,9.776417,0
2,988.5899047851562,-2.9973493656143546E-4,7.526270346716046E-4,-2.1622527856379747E-4,-7.764575958251953,23.8570499420166,-37.66801452636719,-0.011177606880664825,-0.014018997550010681,0.04042243957519531,0.08843285,-0.14886273,9.770367,0.013627587,0.004529968,9.77189,0
2,988.592529296875,9.995867731049657E-5,-5.789879942312837E-4,3.1650063465349376E-4,-8.19692325592041,24.0847225189209,-38.2305908203125,-0.020286470651626587,0.005186408758163452,0.04989147186279297,0.09079993,-0.16077854,9.758528,0.011731571,-0.0076006055,9.760265,0
2,988.58740234375,7.659686380065978E-4,-3.1270788167603314E-4,-2.1603668574243784E-4,-7.882486820220947,23.95734977722168,-37.65571594238281,-0.01063448190689087,-0.004458293318748474,0.04989147186279297,0.085997224,-0.160778,9.77273,0.00710842,-0.0057225525,9.774428,0
2,988.6024169921875,-2.990747452713549E-4,-1.7958565149456263E-4,5.0373433623462915E-5,-7.6188645362854,23.309053421020508,-38.2742805480957,0.008573345839977264,0.014470487833023071,0.03095245361328125,0.074024916,-0.17031051,9.777462,-0.007133236,-0.010960504,9.779217,0
2,988.5696411132812,-1.6569701256230474E-4,-3.127793606836349E-4,-8.269021054729819E-5,-7.586038589477539,24.024137496948242,-37.551334381103516,-6.215944886207581E-4,0.014278531074523926,0.04041862487792969,0.08117181,-0.1607769,9.760889,0.0022859592,-0.004002139,9.762549,0
2,988.5897216796875,1.0083912638947368E-4,-4.6499131713062525E-5,1.837200252339244E-4,-7.666175365447998,23.949430465698242,-38.073509216308594,-0.0054360032081604,-0.014114037156105042,0.049892425537109375,0.0739792,-0.15124325,9.756153,-0.0016714893,0.0069604814,9.757603,0
2,988.5542602539062,1.0105926776304841E-4,-1.7969284090213478E-4,4.501302319113165E-4,-7.770525932312012,23.957075119018555,-38.05787658691406,0.002941899001598358,4.564821720123291E-4,0.04980182647705078,0.079817474,-0.15126921,9.753882,0.0039001908,0.0048763454,9.755381,0
2,988.5595092773438,-3.1878764275461435E-5,-4.6570581616833806E-5,3.170665877405554E-4,-7.581472396850586,24.028554916381836,-37.78324890136719,-0.011446401476860046,3.698021173477173E-4,0.05926799774169922,0.0798378,-0.1608028,9.763353,0.0011167955,-0.003989473,9.765002,0
2,988.602294921875,-1.7530395416542888E-4,2.2141207591630518E-4,-3.5312341060489416E-4,-7.576065540313721,24.29681968688965,-37.491844177246094,-0.006934791803359985,-0.009171530604362488,0.04506397247314453,0.089417696,-0.15127017,9.758621,0.013337798,0.0021643788,9.760195,0
2,988.5771484375,-4.234170773997903E-5,8.82858585100621E-5,-2.2004928905516863E-4,-7.565029144287109,23.412622451782227,-39.05847930908203,-0.006762772798538208,2.990812063217163E-4,0.045060157775878906,0.07987839,-0.16080375,9.76099,0.001207279,-0.004001364,9.76264,0
2,988.5693969726562,-4.253728548064828E-5,3.546335210558027E-4,1.7934059724211693E-4,-7.682099342346191,23.776769638061523,-38.522857666015625,-0.006750628352165222,0.005121886730194092,0.045058250427246094,0.08228856,-0.16557081,9.758625,0.0020152852,-0.009359404,9.760371,0
2,988.5794067382812,-1.7589080380275846E-4,-1.779664307832718E-4,-8.705910295248032E-5,-7.831695556640625,24.057973861694336,-38.285301208496094,-0.00226806104183197,0.004584640264511108,0.04031562805175781,0.07991898,-0.16318808,9.758627,7.844195E-4,-0.0062972903,9.760316,0
2,988.5466918945312,-8.418762008659542E-4,4.8785502440296113E-4,-3.5345880314707756E-4,-7.6165008544921875,23.574373245239258,-37.82826232910156,-0.01168784499168396,-1.1228024959564209E-4,0.045047760009765625,0.08710897,-0.14650561,9.768097,0.012622438,0.007918075,9.769571,0
2,988.5947265625,-4.312413511797786E-5,-5.773768061771989E-4,5.785629618912935E-4,-7.4915242195129395,23.849729537963867,-38.325538635253906,0.0027648136019706726,-0.009624242782592773,0.04031085968017578,0.07278985,-0.15365596,9.763365,-0.0033571087,0.00536032,9.764843,0
2,988.5744018554688,8.983822772279382E-5,-3.1102917273528874E-4,-3.5362644121050835E-4,-7.615086555480957,24.682191848754883,-38.278221130371094,-0.006584472954273224,0.014094874262809753,0.04030609130859375,0.08475965,-0.17033936,9.768101,0.0030186847,-0.013836175,9.769941,0
2,988.5740356445312,2.2280047414824367E-4,-5.773132434114814E-4,4.4523735414259136E-4,-7.458315372467041,23.67030143737793,-38.62809371948242,-0.015979349613189697,0.004870295524597168,0.02136993408203125,0.09194967,-0.15604024,9.763369,0.01378764,-0.0026509017,9.765038,0
2,988.586669921875,8.883944828994572E-4,-3.1096560996957123E-4,4.451535060070455E-4,-7.3822021484375,23.372297286987305,-37.77555847167969,-0.006000496447086334,-0.013992011547088623,0.030836105346679688,0.082410365,-0.15127422,9.779942,0.0055664014,0.004953176,9.781455,0
2,988.5587158203125,-4.3906678911298513E-5,-0.0011098815593868494,4.4506965787149966E-4,-8.042898178100586,23.7020206451416,-38.000980377197266,-0.0011076182126998901,0.00498594343662262,0.04976940155029297,0.07048112,-0.15842451,9.75627,-0.007948313,0.0015444607,9.757808,0
2,988.5740356445312,-3.104181378148496E-4,-4.4586253352463245E-5,-8.865935960784554E-4,-7.79321813583374,24.040895462036133,-37.597373962402344,0.013355419039726257,-0.0046482086181640625,0.049765586853027344,0.07528126,-0.15127517,9.765741,-0.0013520699,0.0070898235,9.7671995,0
2,988.561279296875,-5.769298295490444E-4,2.217613800894469E-4,-8.772977162152529E-5,-7.98183536529541,24.707468032836914,-38.14620590209961,0.003642432391643524,-0.018887653946876526,0.049765586853027344,0.077691436,-0.15604217,9.758642,-3.815107E-4,0.0015923977,9.760198,0
2,988.5845947265625,4.881381173618138E-4,-9.76628391072154E-4,3.116601728834212E-4,-7.9814300537109375,24.23326301574707,-37.34867858886719,-0.005792759358882904,0.004921033978462219,0.03555870056152344,0.07771173,-0.15842591,9.768112,-0.0012444425,-4.4173002E-4,9.769707,0
2,988.5712890625,-7.104789256118238E-4,6.212986772879958E-4,-2.21055350266397E-4,-8.2216796875,24.53536033630371,-37.791236877441406,0.008601769804954529,-1.7276406288146973E-4,0.059223175048828125,0.07295221,-0.15365995,9.753911,-0.004200181,0.0056633204,9.755391,0
2,988.5662841796875,-9.769906755536795E-4,-1.7761715571396053E-4,4.4465044629760087E-4,-7.7569661140441895,23.864412307739258,-38.054542541503906,-0.01055242121219635,-2.7170777320861816E-4,0.040282249450683594,0.08970183,-0.16081025,9.787053,0.009468103,-0.005612746,9.788779,0
2,988.5765991210938,8.80773295648396E-5,-4.439012845978141E-4,4.509277641773224E-5,-7.64057731628418,23.76263999938965,-37.98953628540039,0.009101606905460358,-0.005055636167526245,0.05447959899902344,0.070602894,-0.16319402,9.758648,-0.009881642,-0.0024113804,9.7602625,0
3,988.5686645507812,2.2103969240561128E-4,-9.765013819560409E-4,4.444827791303396E-4,-7.8960466384887695,24.05000877380371,-37.6590461730957,-9.101256728172302E-4,-0.005210518836975098,0.04500865936279297,0.07301313,-0.15604465,9.756283,-0.0049385075,0.00368312,9.757802,0
3,988.5712280273438,2.208439982496202E-4,6.214258028194308E-4,4.492508014664054E-5,-7.601120948791504,24.115324020385742,-37.47736358642578,0.01314014196395874,0.018494248390197754,0.04500770568847656,0.070643514,-0.16557826,9.758652,-0.009808008,-0.004647985,9.760307,0
3,988.5484619140625,-8.446151041425765E-4,3.5514155752025545E-4,4.4841261114925146E-5,-7.873056888580322,24.598329544067383,-37.694671630859375,0.003456331789493561,-0.009868964552879333,0.030806541442871094,0.075443625,-0.14651264,9.772858,3.5633333E-4,0.01209113,9.77424,0
3,988.5558471679688,2.204528427682817E-4,4.883313085883856E-4,4.475744208320975E-5,-7.3637776374816895,23.916189193725586,-37.57926940917969,0.003535151481628418,-5.286335945129395E-4,0.030800819396972656,0.07785383,-0.16081275,9.770493,-0.0014843941,-0.0021421313,9.772126,0
3,988.5684814453125,2.2025726502761245E-4,-3.105845826212317E-4,5.773053271695971E-4,-6.887568950653076,23.519399642944336,-37.860389709472656,0.008294947445392609,-3.5002827644348145E-4,0.054474830627441406,0.075484216,-0.15842994,9.75629,-0.0030934494,4.737079E-4,9.757869,0
3,988.588623046875,3.532195114530623E-4,2.2207896108739078E-4,-8.856819476932287E-5,-7.852865695953369,24.14327049255371,-37.90211486816406,-0.0015539303421974182,-0.005102753639221191,0.030801773071289062,0.07789442,-0.15843041,9.772863,-5.921405E-4,-6.553531E-5,9.774458,0
3,988.5155639648438,-1.1930038454011083E-4,-3.5881841904483736E-4,1.4123145956546068E-4,-7.738542079925537,24.40831184387207,-37.858253479003906,0.008202724158763885,0.0044603049755096436,0.035533905029296875,0.072633296,-0.1608019,9.777554,-0.0065580774,-5.5007637E-4,9.779143,0
3,988.5155639648438,-1.1930038454011083E-4,-3.5881841904483736E-4,1.4123145956546068E-4,-8.106813430786133,24.43211555480957,-37.64892578125,-1.6779452562332153E-4,-2.7145445346832275E-4,0.030890464782714844,0.07212162,-0.16078939,9.779874,-0.0072308704,-5.1146746E-4,9.781458,0
3,988.5712890625,1.4681991888210177E-4,4.0687096770852804E-5,-1.2516829883679748E-4,-7.378721714019775,24.11329460144043,-38.204376220703125,0.004243582487106323,-0.005191043019294739,0.03562736511230469,0.07449126,-0.14887254,9.784607,-0.0011066571,0.010336131,9.786016,0
3,988.5657348632812,-3.7860701559111476E-4,-4.920564242638648E-4,1.461842912249267E-4,-7.429375171661377,24.118589401245117,-38.27386474609375,0.004011332988739014,-5.835294723510742E-5,0.021434783935546875,0.064911306,-0.16078831,9.775136,-0.013534674,0.0014671385,9.776665,0
3,988.5506591796875,4.205360892228782E-4,7.063333760015666E-4,2.7942605083808303E-4,-8.293365478515625,24.731870651245117,-38.17660903930664,-0.015072956681251526,-0.009626761078834534,0.03563880920410156,0.09117997,-0.15125473,9.758564,0.014440561,0.0019817203,9.760152,0
3,988.58837890625,6.870475481264293E-4,5.731435958296061E-4,2.795098989736289E-4,-7.917514801025391,23.5031681060791,-37.700721740722656,-0.01499931514263153,-0.0048842281103134155,0.021436691284179688,0.088769734,-0.1584041,9.775132,0.009873567,-0.0035398155,9.7768135,0
3,988.5477294921875,2.1453306544572115E-5,4.399539320729673E-4,2.795936889015138E-4,-7.781585216522217,24.420969009399414,-38.31427001953125,-0.005616366863250732,0.009589165449142456,0.054584503173828125,0.081579804,-0.16793673,9.770395,3.6176853E-4,-0.010786757,9.772173,0
3,988.5452270507812,-3.778248210437596E-4,4.0448387153446674E-5,6.791512714698911E-4,-7.412228107452393,23.66058921813965,-38.326690673828125,-4.5774132013320923E-4,-0.01892547309398651,0.04511451721191406,0.074389815,-0.15363659,9.765659,-0.0025381446,0.0049915016,9.76715,0
3,988.5654296875,1.5500240260735154E-4,-9.274127660319209E-5,5.460771499201655E-4,-8.079012870788574,23.98442268371582,-38.242889404296875,0.004082880914211273,2.2460520267486572E-4,0.0451202392578125,0.07675943,-0.16078581,9.760923,-0.0022600181,-0.0028300136,9.7625475,0
3,988.5176391601562,8.209874504245818E-4,4.038488259539008E-5,-3.8594467332586646E-4,-7.735360145568848,24.51717185974121,-38.711944580078125,0.008742071688175201,2.1442770957946777E-4,0.04512310028076172,0.074349225,-0.16078533,9.768023,-0.0044524,-0.0020040125,9.769628,0
3,988.5275268554688,2.223550109192729E-5,5.729849799536169E-4,-5.19018794875592E-4,-7.681257724761963,24.040616989135742,-37.999534606933594,0.00400707870721817,0.01493886113166809,0.0072574615478515625,0.079108745,-0.16078492,9.791693,-1.142174E-4,-0.0034101307,9.793332,0
3,988.5706176757812,4.219047841615975E-4,-2.2599445946980268E-4,5.463284905999899E-4,-7.570818901062012,24.038869857788086,-38.32438659667969,0.013228736817836761,0.01951935887336731,0.04986763000488281,0.07669854,-0.16793425,9.772753,-0.003987899,-0.009828314,9.774492,0
3,988.5198974609375,2.8894218849018216E-4,1.7344759544357657E-4,2.80096399364993E-4,-7.311464309692383,24.018285751342773,-38.286163330078125,-8.60460102558136E-4,-0.004507273435592651,0.026192665100097656,0.083848,-0.15601738,9.777486,0.006100215,-1.5716255E-4,9.779087,0
3,988.5781860351562,2.301746280863881E-5,-9.293173206970096E-5,1.4710606774315238E-4,-7.372198104858398,24.857240676879883,-38.787803649902344,-0.010514326393604279,-0.009190171957015991,0.035666465759277344,0.08143777,-0.16316672,9.744343,0.0019771438,-0.0069725066,9.746046,0
3,988.56005859375,2.895288052968681E-4,-9.296351345255971E-5,2.8034779825247824E-4,-7.536769866943359,24.123289108276367,-38.10362243652344,-0.005137309432029724,0.005148366093635559,0.04513263702392578,0.06707811,-0.16078289,9.765646,-0.01177207,6.6310167E-6,9.767193,0
3,988.5623168945312,2.8972438303753734E-4,-0.001291416585445404,-5.185161135159433E-4,-7.125616073608398,23.560606002807617,-38.98088073730469,3.4347176551818848E-6,-0.00881052017211914,0.04040336608886719,0.07900733,-0.1512493,9.779848,0.0019182097,0.005658224,9.781335,0
3,988.52685546875,5.562359583564103E-4,-7.5881666271016E-4,-0.0011842220555990934,-7.489160060882568,24.11504554748535,-37.879520416259766,4.552304744720459E-6,-0.004004880785942078,0.049874305725097656,0.07181731,-0.14409895,9.765642,-0.0027804058,0.014284804,9.766958,0
3,988.5672607421875,-5.088322213850915E-4,-7.588483858853579E-4,1.42832868732512E-5,-7.697861671447754,24.13033103942871,-37.8482551574707,0.010032348334789276,-0.013321250677108765,0.054610252380371094,0.07418695,-0.14648183,9.768007,-0.0016191248,0.011292443,9.7693815,0
4,988.5674438476562,0.001089258585125208,-4.925642861053348E-4,1.4752504648640752E-4,-7.718350410461426,23.9532527923584,-38.06568908691406,0.014774240553379059,-0.008447214961051941,0.040411949157714844,0.07177675,-0.15839763,9.777475,-0.0074928403,7.184148E-4,9.779018,0
4,988.5623779296875,4.2366451816633344E-4,4.0035753045231104E-5,1.476088655181229E-4,-7.852865219116211,24.14327049255371,-37.9021110534668,0.010127000510692596,0.005758270621299744,0.021472930908203125,0.0765363,-0.16078039,9.77984,-0.003770709,-0.0028164536,9.78146,0
4,988.5497436523438,2.4386157747358084E-5,-0.001158417435362935,-3.849391941912472E-4,-7.455409526824951,23.567331314086914,-38.08362579345703,0.005775421857833862,0.005852684378623962,0.0167388916015625,0.07890588,-0.15839662,9.789307,-0.0012206435,-0.0010783225,9.790905,0
4,988.5471801757812,-3.7489220267161727E-4,-8.921332773752511E-4,1.4618504792451859E-5,-7.369727611541748,24.016218185424805,-37.9691276550293,0.005614936351776123,0.015358388423919678,0.040413856506347656,0.0741058,-0.16316272,9.768,-0.0069355723,-0.0046690404,9.769641,0
4,988.5497436523438,4.2425101855769753E-4,0.001371519872918725,1.4786020619794726E-4,-7.43904972076416,24.47804069519043,-37.908485412597656,-0.013742335140705109,-0.0036828964948654175,0.04515266418457031,0.08842492,-0.15362911,9.763264,0.00978004,1.6647577E-4,9.764867,0
4,988.5469360351562,-2.4134322302415967E-4,8.388563874177635E-4,2.811019367072731E-4,-7.761096000671387,24.598051071166992,-38.096832275390625,0.010359711945056915,-0.01337289810180664,0.03568077087402344,0.06450561,-0.16077842,9.772732,-0.015337873,6.982982E-4,9.774255,0
4,988.5672607421875,-1.0798982111737132E-4,-4.927546833641827E-4,-5.177619750611484E-4,-7.2813005447387695,23.835912704467773,-38.43410873413086,0.005463913083076477,-0.0037194490432739258,0.030951499938964844,0.07882476,-0.16316117,9.763261,-0.0021891147,-0.0061682016,9.764939,0
4,988.5469360351562,-2.40952183958143E-4,-2.2647056903224438E-4,-1.1820433428511024E-4,-7.412228107452393,23.66058921813965,-38.326690673828125,-0.014348804950714111,0.010631635785102844,0.03563499450683594,0.08896288,-0.1560256,9.772782,0.009631176,-0.002220884,9.774428,0
4,988.5468139648438,-2.436353242956102E-4,3.0659668846055865E-4,-1.1935416841879487E-4,-7.368205547332764,24.017690658569336,-38.04643249511719,-0.009386539459228516,-0.0037734955549240112,0.049834251403808594,0.08418691,-0.14887585,9.768049,0.007003786,0.006130442,9.769542,0
4,988.5672607421875,8.187710191123188E-4,3.07060603518039E-4,2.7889510965906084E-4,-7.783543109893799,23.68144416809082,-37.9627571105957,0.018951930105686188,-0.0034051239490509033,0.05457782745361328,0.06985128,-0.1488759,9.760946,-0.0062844474,0.009825438,9.762325,0
4,988.5418701171875,2.8610246954485774E-4,-6.250391015782952E-4,1.4572142390534282E-4,-7.683758735656738,23.66938591003418,-37.74647521972656,0.00484832376241684,0.001293480396270752,0.05457496643066406,0.08419451,-0.16079243,9.753845,0.0035228767,-0.005904004,9.755532,0
4,988.5341796875,-1.1340779019519687E-4,8.39704240206629E-4,-5.200839950703084E-4,-7.441412925720215,24.21272087097168,-38.35449981689453,-3.3089518547058105E-4,0.010729774832725525,0.030902862548828125,0.07941854,-0.16555901,9.775152,-0.0019945502,-0.008672357,9.776872,0
4,988.5341796875,-1.1344481026753783E-4,1.739205326884985E-4,1.253205118700862E-5,-7.238662242889404,24.29746437072754,-38.77562713623047,-2.9414892196655273E-5,0.015652313828468323,0.026169776916503906,0.079422325,-0.1631759,9.782252,-0.0017271601,-0.006309733,9.783933,0
4,988.5640258789062,1.9676575902849436E-5,-4.91863233037293E-4,1.2516335118561983E-5,-7.783107280731201,24.419492721557617,-38.236961364746094,-4.6916306018829346E-5,0.006011277437210083,0.040370941162109375,0.07942614,-0.16079272,9.763315,-8.878168E-4,-0.0042785704,9.764961,0
4,988.5564575195312,-3.7983368383720517E-4,-3.586993261706084E-4,-5.201311432756484E-4,-7.4167938232421875,23.656164169311523,-38.09477615356445,-0.01441694051027298,-0.00842355191707611,0.049836158752441406,0.08659965,-0.15840949,9.756214,0.006703742,-0.004204586,9.757882,0
4,988.569091796875,4.190768231637776E-4,3.0709634302183986E-4,8.114324882626534E-4,-7.8045759201049805,23.872655868530273,-38.27864074707031,4.329755902290344E-4,0.005832239985466003,0.030893325805664062,0.07943374,-0.16079284,9.768051,-0.0013006311,-0.0038853288,9.769695,0
4,988.5338134765625,-1.1359137715771794E-4,-0.001290793064981699,0.0010777326533570886,-7.328366756439209,23.475862503051758,-38.55975341796875,6.684735417366028E-4,-0.01800571382045746,0.04036140441894531,0.08421737,-0.15364315,9.763317,0.0051793326,0.001464948,9.764888,0
4,988.5338134765625,-1.1359137715771794E-4,-0.001290793064981699,0.0010777326533570886,-7.830311298370361,23.95353126525879,-37.66353225708008,-0.004147462546825409,0.015341565012931824,0.04509449005126953,0.07466155,-0.16079308,9.770419,-0.0060299113,-0.0024371743,9.772025,0
4,988.551513671875,1.949298894032836E-5,7.065879763104022E-4,6.782273994758725E-4,-7.426331520080566,24.12153434753418,-38.42847442626953,0.005591988563537598,-0.00848245620727539,0.049826622009277344,0.08183503,-0.15126003,9.763317,0.0033625327,0.0043532103,9.764831,0
4,988.551513671875,1.949298894032836E-5,7.065879763104022E-4,6.782273994758725E-4,-7.426331520080566,24.12153434753418,-38.42847442626953,0.0054438114166259766,0.005594819784164429,0.040355682373046875,0.084228784,-0.1560267,9.768052,0.0045189187,-4.1340292E-4,9.769659,0
4,988.5667114257812,3.5870703868567944E-5,-3.9784330874681473E-4,-3.264679107815027E-4,-7.162846565246582,23.36732292175293,-38.347957611083984,5.418732762336731E-4,-0.008801162242889404,0.026151657104492188,0.07945278,-0.1536435,9.784622,8.076802E-4,0.0035781413,9.786149,0
4,988.5564575195312,-8.962714346125722E-4,6.674262112937868E-4,-5.927993915975094E-4,-7.810120582580566,23.498472213745117,-37.8709716796875,-0.004491895437240601,-0.004012539982795715,0.04035758972167969,0.07945663,-0.16794325,9.768053,-0.003298642,-0.010425076,9.769813,0
4,988.5717163085938,3.0211301054805517E-4,2.6795832673087716E-4,3.392903308849782E-4,-7.827129364013672,24.06239128112793,-38.51721954345703,0.004668794572353363,0.005553498864173889,0.026157379150390625,0.07468057,-0.15841027,9.772787,-0.0045857523,1.4230609E-5,9.774355,0
4,988.5640258789062,-3.637132467702031E-4,9.33753966819495E-4,-9.923047618940473E-4,-7.5777482986450195,23.76912498474121,-38.53848648071289,-0.009608060121536255,0.015223845839500427,0.02615833282470703,0.09141374,-0.17509331,9.775154,0.0065900106,-0.020881414,9.777124,0
4,988.5537109375,5.683556664735079E-4,1.654349034652114E-6,-3.2653077505528927E-4,-7.15439510345459,23.638532638549805,-38.21116638183594,0.00915093719959259,-0.003984317183494568,0.03562736511230469,0.07229829,-0.1607937,9.775156,-0.0072933044,-0.0016262978,9.776743,0
5,988.5411376953125,4.3516093865036964E-4,8.006079006008804E-4,6.055590929463506E-4,-7.631147384643555,24.403615951538086,-38.02849578857422,-0.005449265241622925,-0.018723994493484497,0.040355682373046875,0.081861734,-0.1464941,9.770422,0.006459752,0.009473205,9.771857,0
5,988.5639038085938,-8.964551379904151E-4,9.337718947790563E-4,-6.024632602930069E-5,-7.591989040374756,24.12415885925293,-37.941192626953125,-0.015019595623016357,0.004853487014770508,0.035617828369140625,0.0770857,-0.16079392,9.770422,-0.0022781007,-0.00250718,9.772047,0
5,988.5589599609375,-8.964915759861469E-4,1.6722187865525484E-6,-6.0262042097747326E-5,-7.760010719299316,23.86147117614746,-37.899932861328125,0.008796341717243195,0.00960192084312439,0.03561687469482422,0.07708952,-0.160794,9.768055,-0.0021812469,-0.0025625974,9.769681,0
5,988.5588989257812,-3.63896950148046E-4,1.3483609654940665E-4,-4.5975169632583857E-4,-7.791558265686035,24.148283004760742,-38.373756408691406,-0.02002609521150589,-0.01453767716884613,0.04508209228515625,0.08904284,-0.15126099,9.765688,0.012343796,0.0030538738,9.767258,0
5,988.535888671875,-2.3081200197339058E-4,1.6900594346225262E-6,4.723224847111851E-4,-7.55160665512085,23.21404457092285,-38.35607147216797,0.013500809669494629,-0.0051375627517700195,0.04507923126220703,0.07231736,-0.15602763,9.765688,-0.005071882,0.0037915707,9.7672,0
5,988.5533447265625,-3.6400696262717247E-4,2.680119941942394E-4,-5.929567851126194E-4,-7.827267646789551,23.95647621154785,-37.81814193725586,-0.015184789896011353,-0.0052157193422317505,0.040343284606933594,0.084270656,-0.1655608,9.768056,0.0034067035,-0.008823112,9.769817,0
5,988.53857421875,3.0174630228430033E-4,4.0117575554177165E-4,-1.9349867943674326E-4,-7.524731636047363,24.02915382385254,-38.022987365722656,-0.010251060128211975,-0.010054051876068115,0.049808502197265625,0.08427447,-0.15602784,9.777525,0.006346168,4.299134E-4,9.779131,0
5,988.5431518554688,-6.303961854428053E-4,-6.640817737206817E-4,-7.261461578309536E-4,-7.420680046081543,23.389379501342773,-38.46348571777344,-0.009849883615970612,0.004166334867477417,0.04041862487792969,0.081055045,-0.15362419,9.763247,0.004277978,0.0035190135,9.764791,0
5,988.5533447265625,-6.280260276980698E-4,2.6942091062664986E-4,-1.8770369933918118E-4,-7.626336097717285,23.40760612487793,-38.586830139160156,0.004813395440578461,0.008856579661369324,0.04041767120361328,0.07146627,-0.15839006,9.772713,-0.0065626707,0.0022100508,9.774256,0
5,988.5481567382812,-2.2729678312316537E-4,-1.3025665248278528E-4,-3.203235100954771E-4,-7.56516695022583,23.30670738220215,-38.359397888183594,4.090741276741028E-4,-0.005808576941490173,0.04514503479003906,0.08338657,-0.14885624,9.770343,0.00748156,0.00805971,9.771826,0
5,988.5609130859375,-2.2701564012095332E-4,2.855667844414711E-6,-7.19676841981709E-4,-7.321437835693359,23.745603561401367,-38.34565734863281,-0.004141032695770264,-0.0010357648134231567,0.03567695617675781,0.0857473,-0.14647223,9.77034,0.010116156,0.00981985,9.771804,0
5,988.5283203125,-9.357644012197852E-5,-6.629797862842679E-4,7.939129136502743E-5,-7.4227447509765625,23.756193161010742,-38.4846305847168,0.009961791336536407,-0.015368402004241943,0.054619789123535156,0.06898886,-0.1393217,9.763235,-0.0034787115,0.021363884,9.764449,0
5,988.5507202148438,-9.329518070444465E-5,1.359222806058824E-4,-7.194358622655272E-4,-7.644462585449219,23.495847702026367,-38.35824966430664,0.019363723695278168,-0.005787760019302368,0.030951499938964844,0.06895962,-0.1583872,9.779803,-0.008953877,0.0034557283,9.781324,0
5,988.558349609375,-0.0010251197963953018,9.348243474960327E-4,-1.8668355187401175E-4,-8.011754989624023,23.8894100189209,-38.32468032836914,0.004938602447509766,-0.006142675876617432,0.030950546264648438,0.07849008,-0.15838648,9.765597,5.522426E-4,5.0365925E-4,9.767198,0
5,988.5380249023438,-4.922068328596652E-4,-2.6364278164692223E-4,-3.197209443897009E-4,-7.8940887451171875,24.78953742980957,-38.01055908203125,-1.0699033737182617E-5,-0.01583591103553772,0.035686492919921875,0.08085084,-0.16315235,9.7703285,0.0014201235,-0.0044811666,9.772025,0
5,988.545654296875,-2.256095758639276E-4,2.627377398312092E-6,-1.864426303654909E-4,-8.00452709197998,24.791288375854492,-37.685707092285156,3.4902989864349365E-4,0.003169521689414978,0.02148151397705078,0.08082163,-0.1631516,9.782163,0.0010464862,-0.0041077137,9.783857,0
5,988.5608520507812,-3.584863734431565E-4,-1.305761543335393E-4,2.131517685484141E-4,-7.655223369598389,24.59187889099121,-38.18976974487305,-0.004325345158576965,0.007969290018081665,0.02621936798095703,0.08079249,-0.16791736,9.763222,-3.6101416E-4,-0.008993283,9.764997,0
5,988.5631713867188,4.126847488805652E-5,-3.9693768485449255E-4,-1.8620153423398733E-4,-7.5738630294799805,24.035921096801758,-38.169776916503906,-0.009044140577316284,-0.0015689581632614136,0.05462837219238281,0.085543126,-0.1583835,9.760851,0.0069487,-0.0013246834,9.762509,0
5,988.54052734375,-3.579240874387324E-4,-3.9698334876447916E-4,-7.18712923116982E-4,-7.59351110458374,24.122690200805664,-37.863887786865234,-0.012988276779651642,0.002767786383628845,0.030945777893066406,0.090293705,-0.16553266,9.77742,0.008962754,-0.008866414,9.779231,0
5,988.5481567382812,-3.576428280211985E-4,-0.0013291345676407218,8.035532664507627E-5,-7.432419300079346,24.115644454956055,-38.11925506591797,-0.003427572548389435,0.0026603490114212036,0.059352874755859375,0.07831505,-0.16553195,9.760847,-0.0026206486,-0.0052873194,9.762563,0
5,988.5430908203125,-9.104568744078279E-5,-2.6391673600301147E-4,-3.189979470334947E-4,-7.429811477661133,23.380537033081055,-37.999656677246094,0.0015167370438575745,-0.01156260073184967,0.030948638916015625,0.07350606,-0.14646502,9.765578,-0.0017286986,0.014417961,9.766942,0
5,988.5303344726562,5.750250420533121E-4,-1.3080440112389624E-4,6.132281851023436E-4,-7.433940887451172,24.114171981811523,-38.04194641113281,0.006381399929523468,-0.006401374936103821,0.026223182678222656,0.07586676,-0.15123086,9.772678,-0.001168292,0.008924127,9.774138,0
5,988.5582275390625,5.753063014708459E-4,2.3078755475580692E-6,-5.2441086154431105E-5,-7.062082767486572,23.725019454956055,-38.30743408203125,0.001569405198097229,-0.010827913880348206,0.04516887664794922,0.07822752,-0.14884688,9.7632065,0.0018395521,0.00999558,9.764649,0
5,988.54052734375,-2.2336008260026574E-4,-9.298432851210237E-4,8.083746070042253E-5,-7.5572590827941895,23.946210861206055,-38.32105255126953,0.006352819502353668,-0.001619681715965271,0.04990196228027344,0.07341856,-0.15599598,9.763203,-0.004744442,0.004905194,9.764722,0
6,988.5709228515625,-2.2307905601337552E-4,1.3537457562051713E-4,-1.8535798881202936E-4,-7.518101215362549,23.666757583618164,-38.23374938964844,0.0017419010400772095,-0.010981723666191101,0.03096771240234375,0.07816923,-0.153612,9.779772,2.4344027E-4,0.0059399605,9.781288,0
6,988.5731811523438,3.0983384931460023E-4,1.3532888260670006E-4,8.107838220894337E-5,-7.409184455871582,23.66353416442871,-38.481300354003906,0.01590219885110855,-0.011196613311767578,0.03570365905761719,0.06619054,-0.14884476,9.7703,-0.009526519,0.013982803,9.771644,0
6,988.5731811523438,3.0983384931460023E-4,1.3532888260670006E-4,8.107838220894337E-5,-7.526115894317627,24.133596420288086,-38.64475631713867,-0.0034716427326202393,0.007999017834663391,0.04044532775878906,0.078110814,-0.16791023,9.767929,-0.0035347845,-0.0079642385,9.769681,0
6,988.5529174804688,-7.551482995040715E-4,9.342309786006808E-4,-4.5143289025872946E-4,-7.623132228851318,23.936769485473633,-37.61749267578125,0.0012671947479248047,0.026874274015426636,0.03571128845214844,0.08286148,-0.17029281,9.767927,3.997367E-4,-0.011499435,9.769757,0
6,988.5706787109375,1.7723842756822705E-4,5.347114056348801E-4,-5.1838462240993977E-5,-7.652477741241455,23.962690353393555,-38.769248962402344,-0.00805220752954483,-0.001950681209564209,0.03570842742919922,0.085222185,-0.1559924,9.775026,0.0067930203,0.0018231571,9.776639,0
6,988.5453491210938,-4.8827013233676553E-4,2.034008502960205E-6,-8.506654994562268E-4,-7.704653263092041,23.96651268005371,-38.761436462402344,0.01583612710237503,-0.0017033964395523071,0.04044914245605469,0.07085359,-0.16314153,9.767921,-0.009094549,-8.956492E-4,9.769537,0
6,988.5654907226562,3.1095888698473573E-4,-2.643275074660778E-4,4.810343380086124E-4,-7.899388790130615,23.41493034362793,-37.92930603027344,0.006231576204299927,-0.011213704943656921,0.04045295715332031,0.06843454,-0.14645793,9.7655525,-0.006369481,0.015478969,9.766877,0
6,988.560302734375,7.107137353159487E-4,-3.975311410613358E-4,8.168094791471958E-5,-7.461359977722168,23.667356491088867,-38.473480224609375,-0.0031678006052970886,0.007910937070846558,0.02625274658203125,0.08074987,-0.16553308,9.767952,-4.431922E-4,-0.0063575506,9.769686,0
6,988.5579223632812,-3.542685299180448E-4,1.3505498645827174E-4,-5.1356502808630466E-5,-7.652615547180176,23.85677146911621,-38.07017517089844,-0.004234813153743744,0.017177894711494446,0.045116424560546875,0.07874966,-0.16077615,9.767988,-5.4956786E-4,-0.0010387003,9.7696295,0
6,988.5399780273438,-5.537550314329565E-4,7.475350284948945E-4,1.2699305079877377E-4,-7.639598846435547,24.13240623474121,-38.16529083251953,-0.004734240472316742,0.0077909380197525024,0.01671600341796875,0.07636225,-0.16792594,9.779824,-0.0046389736,-0.0072841793,9.781561,0
6,988.5399780273438,-5.537550314329565E-4,7.475350284948945E-4,1.2699305079877377E-4,-7.639598846435547,24.13240623474121,-38.16529083251953,-1.3336539268493652E-4,-0.0015332996845245361,0.045126914978027344,0.076364815,-0.1631595,9.770355,-0.0029697306,-0.0031357557,9.772015,0
6,988.530029296875,6.446419865824282E-4,4.8122298903763294E-4,-5.388071294873953E-4,-7.112055778503418,23.46794319152832,-38.97754669189453,8.393824100494385E-5,-0.029659122228622437,0.04513263702392578,0.07636732,-0.14647658,9.760887,0.0017440803,0.012256548,9.762277,0
6,988.5576782226562,0.0014435648918151855,8.175324182957411E-5,3.9328797720372677E-4,-7.698022365570068,23.60411262512207,-38.972206115722656,1.398921012878418E-4,-9.219646453857422E-4,0.030931472778320312,0.07875979,-0.15362652,9.772724,0.0016503148,0.004836902,9.774247,0
6,988.575439453125,2.4511927040293813E-4,-3.1771668000146747E-4,5.264354404062033E-4,-7.692317008972168,24.504514694213867,-38.25592803955078,0.004979126155376434,-0.010353907942771912,0.030931472778320312,0.0811522,-0.15362658,9.775091,0.0038726646,0.004064083,9.776634,0
6,988.5371704101562,1.1191220255568624E-4,-5.840246449224651E-4,3.9325657417066395E-4,-7.720553398132324,24.21415138244629,-37.38775634765625,-0.014351405203342438,0.009001970291137695,0.03567314147949219,0.08354467,-0.16077645,9.763255,0.004072832,-0.0041321367,9.764934,0
6,988.5399780273438,6.445197504945099E-4,6.144008366391063E-4,1.2693018652498722E-4,-7.910586357116699,23.77290916442871,-37.48662567138672,-7.903575897216797E-5,-6.400793790817261E-4,0.03567218780517578,0.07637751,-0.1631598,9.76799,-0.003379194,-0.003922537,9.769651,0
6,988.5402221679688,1.1186330812051892E-4,2.1493103122338653E-4,-8.051858749240637E-4,-7.718894004821777,24.321542739868164,-38.16413879394531,0.01904701441526413,-0.005375728011131287,0.04514026641845703,0.06682041,-0.1488602,9.756154,-0.008160742,0.012289077,9.757507,0
6,988.5399780273438,-1.5447690384462476E-4,2.1493498934432864E-4,-1.3940664939582348E-4,-7.62008810043335,23.93971824645996,-37.77210235595703,-7.009506225585938E-4,0.004333510994911194,0.035678863525390625,0.08594215,-0.15839334,9.760889,0.007770423,-0.0027897954,9.762548,0
6,988.5324096679688,-1.545012346468866E-4,0.0010138865327462554,3.9321460644714534E-4,-7.65704345703125,23.958269119262695,-38.53733444213867,0.004448190331459045,0.008705109357833862,0.054607391357421875,0.07877499,-0.16554327,9.765623,-0.0014645588,-0.00689362,9.767343,0
6,988.5374145507812,-5.539997364394367E-4,-3.176888858433813E-4,-6.269721779972315E-6,-7.730932235717773,24.415678024291992,-38.24477767944336,-0.00994979590177536,0.008563622832298279,0.01673126220703125,0.08355731,-0.16077675,9.784561,0.004481189,-0.0033154637,9.786237,0
6,988.5425415039062,-2.8770818607881665E-4,-1.8452692893333733E-4,-1.3943802332505584E-4,-8.019227027893066,23.987966537475586,-38.637229919433594,-0.005169034004211426,-7.602125406265259E-4,0.04987335205078125,0.07639015,-0.16077681,9.772726,-0.0023186356,-0.0015532225,9.774345,0
6,988.53955078125,7.775310077704489E-4,-5.839968216605484E-4,-6.29061833024025E-6,-7.827810287475586,24.324766159057617,-37.91659164428711,0.004895627498626709,0.004022613167762756,0.040401458740234375,0.07878265,-0.15124379,9.765624,0.0023955535,0.006792441,9.767111,0
6,988.5497436523438,3.7803262239322066E-4,-5.839928635396063E-4,7.926465477794409E-4,-7.796124458312988,24.14386558532715,-38.141841888427734,-0.0046226754784584045,-0.019447162747383118,0.026203155517578125,0.08356497,-0.14171077,9.772726,0.009679858,0.01421842,9.774096,0
6,988.5347900390625,-2.877815277315676E-4,-5.135711398907006E-5,2.6000430807471275E-4,-7.742725372314453,23.509382247924805,-38.65183639526367,0.004855819046497345,-0.014659792184829712,0.05934619903564453,0.066838175,-0.14409415,9.756155,-0.006770272,0.016720265,9.757433,0
6,988.5372314453125,-1.5464815078303218E-4,2.1496281260624528E-4,-8.052698103711009E-4,-7.410162925720215,23.29376792907715,-38.3055419921875,0.019429244101047516,-4.849731922149658E-4,0.03566741943359375,0.06684074,-0.16077705,9.775094,-0.012170795,0.0012566149,9.776638,0
7,988.5447387695312,3.779592807404697E-4,-0.0016492444556206465,-0.0014710697578266263,-7.734954357147217,24.042966842651367,-37.91441345214844,0.010064579546451569,0.0046714842319488525,0.04987621307373047,0.07162303,-0.15601064,9.763258,-0.006438732,0.0038751215,9.764765,0
7,988.5498046875,3.7793483352288604E-4,2.149707288481295E-4,-0.0012047645868733525,-7.502039432525635,23.94533348083496,-38.48347854614258,-0.00435977429151535,0.009321644902229309,0.05460929870605469,0.076405406,-0.16792701,9.763258,-0.005297797,-0.0088838935,9.764997,0
7,988.5548706054688,-2.878794330172241E-4,-3.17657133564353E-4,-6.353540811687708E-6,-7.235212802886963,23.826200485229492,-38.13270568847656,0.010312452912330627,0.023303881287574768,0.04039764404296875,0.07640794,-0.16554387,9.770359,-0.0047848783,-0.0061238706,9.772059,0
7,988.5475463867188,-1.547459396533668E-4,-7.171269389800727E-4,2.5995192117989063E-4,-7.246272087097168,24.290098190307617,-38.38909912109375,-0.003828786313533783,-0.019418716430664062,0.04513263702392578,0.08119026,-0.14886092,9.772728,0.0042767674,0.008445591,9.774194,0
7,988.51708984375,3.778616082854569E-4,6.144564249552786E-4,2.599413855932653E-4,-7.483508110046387,23.382883071899414,-37.91453552246094,4.891306161880493E-4,0.0094071626663208,0.05460929870605469,0.08119282,-0.1631607,9.765626,5.403962E-4,-0.00575988,9.767324,0
7,988.5498046875,-2.8795277466997504E-4,-1.844872604124248E-4,1.2677302584052086E-4,-7.587423324584961,24.12858009338379,-38.17311096191406,3.1404197216033936E-4,-0.009647876024246216,0.04040718078613281,0.0740256,-0.15362759,9.767993,-0.0035615526,0.005630687,9.769481,0
7,988.5244140625,6.441283621825278E-4,7.476222235709429E-4,2.5992048904299736E-4,-7.080208778381348,23.813261032104492,-38.07884979248047,0.00987919420003891,0.004789993166923523,0.040409088134765625,0.07880798,-0.16316082,9.765626,-0.0015108921,-0.005267635,9.767306,0
7,988.5497436523438,0.001176735619083047,2.1499453578144312E-4,5.26225776411593E-4,-7.498697757720947,24.580415725708008,-38.213218688964844,-0.004710495471954346,-0.009296566247940063,0.02620220184326172,0.07651597,-0.1536301,9.7680025,-8.165315E-4,0.0043492913,9.76951,0
7,988.5369873046875,-8.212295942939818E-4,-5.838564247824252E-4,1.264965394511819E-4,-7.974661827087402,23.976781845092773,-38.258522033691406,4.292428493499756E-4,6.458163261413574E-5,0.040398597717285156,0.083692044,-0.16316338,9.7703705,0.0028954744,-0.006554678,9.772089,0
7,988.5598754882812,1.1047866428270936E-4,6.146296509541571E-4,1.263263402506709E-4,-6.977135181427002,22.803720474243164,-38.343597412109375,-0.009222567081451416,0.01892876625061035,0.049864768981933594,0.078918576,-0.17746316,9.763269,-0.005940402,-0.018736556,9.765181,0
7,988.55224609375,-1.558982185088098E-4,-9.832556825131178E-4,1.2630003038793802E-4,-7.802212238311768,24.137975692749023,-37.83262252807617,-0.018210791051387787,0.004602149128913879,0.049859046936035156,0.0908744,-0.16078039,9.763269,0.009916963,-0.006365046,9.765009,0
7,988.534423828125,2.4351448519155383E-4,-7.169299642555416E-4,-1.4004192780703306E-4,-8.149856567382812,24.44477653503418,-38.104942321777344,0.005486346781253815,-0.009470507502555847,0.030925750732421875,0.07415146,-0.15601401,9.777473,-0.0044446103,0.0033088923,9.778997,0
7,988.534423828125,2.4351448519155383E-4,-7.169299642555416E-4,-1.4004192780703306E-4,-7.685823440551758,24.03619956970215,-37.767616271972656,-0.008507438004016876,-0.009360715746879578,0.021454811096191406,0.0813275,-0.15601413,9.779841,0.0020258315,0.0011961013,9.781424,0
7,988.5369873046875,3.766113077290356E-4,-7.169200689531863E-4,1.2624770170077682E-4,-7.645005226135254,23.864137649536133,-38.456695556640625,0.010684281587600708,0.009862437844276428,0.02619171142578125,0.06460449,-0.16316412,9.775107,-0.016182793,-7.73862E-4,9.7766695,0
7,988.5346069335938,5.097082466818392E-4,-5.112041253596544E-5,-6.727260770276189E-4,-7.718351364135742,23.9532527923584,-38.06568908691406,-0.0038995370268821716,4.722028970718384E-4,0.045131683349609375,0.08850992,-0.1631643,9.768006,0.006800903,-0.008341357,9.769764,0
7,988.5620727539062,3.7648907164111733E-4,2.152053639292717E-4,3.92511225072667E-4,-7.613457679748535,23.577322006225586,-37.982872009277344,0.010672703385353088,0.019650563597679138,0.054599761962890625,0.076566756,-0.16793098,9.758539,-0.0063993186,-0.009372458,9.760279,0
7,988.5444946289062,3.7642772076651454E-4,8.205737685784698E-5,1.2616906315088272E-4,-8.038331985473633,23.70644187927246,-38.23289108276367,0.005905650556087494,-0.018547147512435913,0.03566169738769531,0.08135295,-0.15601481,9.770374,0.0018787682,7.226169E-4,9.771958,0
7,988.5547485351562,-2.3107451852411032E-5,-5.837223143316805E-4,5.256165750324726E-4,-7.693295478820801,24.134748458862305,-38.080169677734375,-0.022879503667354584,0.02422727644443512,0.03092479705810547,0.09808856,-0.17031462,9.770376,0.013620229,-0.0178985,9.772327,0
7,988.53955078125,3.7630536826327443E-4,6.147090462036431E-4,-9.391469648107886E-4,-7.8693318367004395,24.338895797729492,-38.44990921020508,-0.003061942756175995,-0.019055798649787903,0.03564643859863281,0.07658577,-0.14886524,9.770376,-8.546896E-4,0.009643465,9.771806,0
7,988.5319213867188,-8.221773314289749E-4,-7.168604643084109E-4,3.9240627666004E-4,-7.934524059295654,24.06709098815918,-38.34697341918945,0.026007577776908875,-0.01441819965839386,0.04984474182128906,0.059862792,-0.1440989,9.768009,-0.016083483,0.019161224,9.769222,0
7,988.5546264648438,-6.890803924761713E-4,-0.001648956211283803,1.2606417294591665E-4,-7.413313865661621,24.39716911315918,-38.523590087890625,0.0026416704058647156,-0.005749121308326721,0.054558753967285156,0.07898837,-0.15601535,9.753807,-0.001321217,0.003029272,9.755374,0
7,988.5570068359375,-0.001621247036382556,-5.836826749145985E-4,-6.729095475748181E-4,-7.7117204666137695,23.590856552124023,-38.276458740234375,-0.0021116212010383606,0.01356080174446106,0.0403594970703125,0.0813846,-0.16554864,9.770378,-0.0021650605,-0.0066847354,9.772117,0
7,988.554443359375,-0.001025086734443903,-0.0017993546789512038,-2.6611099019646645E-4,-8.028358459472656,23.979127883911133,-38.17340087890625,0.007815822958946228,-0.014871656894683838,0.026154518127441406,0.07661116,-0.15601568,9.772745,-0.0041693524,0.0038136542,9.774291,0
7,988.5667724609375,4.0054554119706154E-5,-0.001000387012027204,-0.0013314271345734596,-7.919442653656006,23.97590446472168,-38.42094802856445,0.008503220975399017,0.008926838636398315,0.040350914001464844,0.09095687,-0.16554894,9.777481,0.005893171,-0.009322256,9.779299,0
7,988.5845947265625,3.999355249106884E-5,-0.0013998510548844934,-5.325054517015815E-4,-7.350921154022217,23.66560173034668,-38.79833984375,-0.024361945688724518,0.004047304391860962,0.04034423828125,0.112472355,-0.17269899,9.765646,0.02406272,-0.022250786,9.767764,0
8,988.5519409179688,4.394062561914325E-4,-8.672092808410525E-4,-0.001331479288637638,-7.893408298492432,24.52716636657715,-38.61118698120117,0.004428409039974213,-0.0052583664655685425,0.05928325653076172,0.08140993,-0.15363283,9.760911,-2.0238385E-4,0.0047724694,9.762458,0
8,988.5366821289062,5.725030787289143E-4,0.0011301697231829166,-5.325577221810818E-4,-8.153741836547852,24.177980422973633,-38.473655700683594,-0.014991194009780884,-4.5405328273773193E-4,0.03087902069091797,0.08858597,-0.16316615,9.777483,0.003914427,-0.0066142827,9.779244,0
8,988.567138671875,-9.334762580692768E-5,6.491616659332067E-5,-2.662681508809328E-4,-7.557258605957031,23.94620704650879,-38.32105255126953,0.013500005006790161,-4.2013823986053467E-4,0.03088092803955078,0.07425293,-0.15839978,9.775116,-0.008093789,0.0023851246,9.776679,0
8,988.5697631835938,1.729070208966732E-4,4.643998690880835E-4,3.994954749941826E-4,-7.37817907333374,23.74500846862793,-38.105926513671875,0.013312749564647675,0.013904467225074768,0.059288978576660156,0.0790391,-0.16554971,9.758546,-0.00539257,-0.006259352,9.760266,0
8,988.551513671875,3.060039598494768E-4,5.975677049718797E-4,3.994692815467715E-4,-7.629923343658447,23.772947311401367,-38.530670166015625,-0.0012527406215667725,0.004210487008094788,0.049818992614746094,0.08382523,-0.16554989,9.758547,-6.313287E-4,-0.0075605065,9.760308,0
8,988.5597534179688,-3.5984686110168695E-4,5.975776584818959E-4,2.6628514751791954E-4,-7.656064987182617,24.328031539916992,-38.71309280395508,-0.006039626896381378,0.004132196307182312,0.04034709930419922,0.0814417,-0.15840025,9.758547,-7.2871894E-4,4.3794513E-5,9.760172,0
8,988.56689453125,3.0588137451559305E-4,1.981138630071655E-4,-6.658468628302217E-4,-7.859794616699219,23.873533248901367,-38.116214752197266,0.007906951010227203,-0.014652073383331299,0.026151657104492188,0.06916946,-0.14647596,9.777455,-0.008501252,0.015133366,9.778783,0
8,988.5318603515625,-6.262855604290962E-4,4.644396249204874E-4,-5.327151156961918E-4,-7.476441860198975,23.758543014526367,-38.399505615234375,-0.005715504288673401,0.013565734028816223,0.02620697021484375,0.08794594,-0.17268361,9.779791,0.001539655,-0.015158251,9.781699,0
8,988.55908203125,1.764208427630365E-4,-2.025516441790387E-4,1.365766511298716E-4,-7.8005523681640625,24.245363235473633,-38.609004974365234,-0.01034662127494812,0.028130710124969482,0.03568077087402344,0.09031558,-0.17029972,9.765586,0.0042598415,-0.014079988,9.767478,0
8,988.5468139648438,-8.969934424385428E-5,6.373247015289962E-5,-2.628133515827358E-4,-7.290294647216797,23.9329891204834,-38.66935729980469,-0.0010412856936454773,-0.005459323525428772,0.040416717529296875,0.08312553,-0.17029925,9.770318,-0.0020932443,-0.01173082,9.772148,0
8,988.5597534179688,-8.950388291850686E-5,6.370074697770178E-5,6.693759933114052E-4,-7.437091827392578,25.217565536499023,-38.25999450683594,-9.851902723312378E-4,0.003943577408790588,0.04041576385498047,0.07832545,-0.15838237,9.760847,-0.0032533444,9.949058E-4,9.7624445,0
8,988.5242919921875,-8.930830517783761E-5,1.9682696438394487E-4,1.3682810822501779E-4,-7.6703057289123535,24.68306541442871,-38.11579895019531,0.022982724010944366,-0.005542144179344177,0.016744613647460938,0.07591528,-0.15599863,9.786885,-0.0049922876,0.0044625998,9.788422,0
8,988.549560546875,1.7720327014103532E-4,-2.026786532951519E-4,-5.288778920657933E-4,-7.444457054138184,24.209775924682617,-38.19989013671875,0.0035622939467430115,-0.005510121583938599,0.04989147186279297,0.0806748,-0.1512316,9.756109,0.0013275929,0.0069580525,9.757612,0
8,988.5291137695312,-8.891703328117728E-5,0.0012620269553735852,-5.287939566187561E-4,-7.239779472351074,23.8217830657959,-37.900787353515625,-0.011378206312656403,0.008912473917007446,0.054635047912597656,0.09738383,-0.1655307,9.763208,0.013760187,-0.011681616,9.765081,0
8,988.5343627929688,3.107521333731711E-4,0.0011288373498246074,-3.9555219700559974E-4,-7.854387283325195,24.14179801940918,-37.824806213378906,-0.0018612667918205261,0.00904865562915802,0.040435791015625,0.083024144,-0.16553022,9.7750435,-1.6883202E-4,-0.0075109154,9.7767935,0
8,988.5565795898438,5.77263708692044E-4,5.961738061159849E-4,-1.291524968110025E-4,-7.467990398406982,24.029752731323242,-38.26271438598633,-0.0020139217376708984,-3.770589828491211E-4,0.059378623962402344,0.08300382,-0.14884682,9.7561035,0.0049823094,0.007954538,9.757587,0
8,988.524169921875,7.106172270141542E-4,7.292999653145671E-4,9.361947886645794E-4,-7.4800286293029785,24.123884201049805,-38.343353271484375,0.021396160125732422,-0.004692643880844116,0.030984878540039062,0.071034014,-0.14884634,9.767939,-0.006097531,0.011112839,9.769323,0
8,988.541748046875,4.444970400072634E-4,0.001261899946257472,0.0013357524294406176,-7.534566879272461,23.86238670349121,-38.781551361083984,0.011586427688598633,1.2305378913879395E-4,0.03572559356689453,0.07818344,-0.15837894,9.765569,-0.0018476006,-2.7696788E-4,9.767165,0
8,988.5394287109375,3.115345607511699E-4,4.629205504897982E-4,6.700466037727892E-4,-7.525573253631592,23.76530647277832,-38.546302795410156,-0.008075334131717682,0.009799584746360779,0.04046821594238281,0.092502594,-0.16791148,9.772669,0.009566154,-0.013737947,9.774533,0
8,988.5287475585938,8.44361784402281E-4,0.0015281523810699582,1.374985440634191E-4,-7.2972235679626465,23.663251876831055,-38.88345718383789,-0.017857715487480164,0.02892531454563141,0.054676055908203125,0.09248227,-0.17267756,9.753729,0.008293938,-0.018820316,9.755672,0
8,988.54638671875,1.7876765923574567E-4,1.9654122297652066E-4,8.0337212421E-4,-7.545220851898193,23.852075576782227,-38.24041748046875,-0.003759831190109253,0.010103389620780945,0.04521465301513672,0.08768219,-0.16791053,9.772665,0.0052564256,-0.012813449,9.77449,0
8,988.54638671875,1.7876765923574567E-4,1.9654122297652066E-4,8.0337212421E-4,-7.558781147003174,23.944734573364258,-38.243751525878906,-0.013833589851856232,6.05270266532898E-4,0.03575420379638672,0.0804922,-0.15599366,9.760826,0.0024607144,2.8264523E-4,9.762404,0
8,988.55908203125,4.600099055096507E-5,7.291095098480582E-4,8.035397622734308E-4,-7.900475025177002,24.15151023864746,-38.1262092590332,0.009495541453361511,-0.027857303619384766,0.031027793884277344,0.07330221,-0.1345437,9.772661,0.0024043769,0.022942394,9.773834,0
8,988.55908203125,4.600099055096507E-5,7.291095098480582E-4,8.035397622734308E-4,-7.900475025177002,24.15151023864746,-38.1262092590332,-0.0048562586307525635,-0.0277433842420578,0.04523468017578125,0.082841516,-0.13692646,9.767925,0.010701349,0.017604008,9.769216,0
9,988.5388793945312,4.6392029616981745E-5,-3.362175193615258E-4,-1.2839824194088578E-4,-7.6145429611206055,24.313901901245117,-38.179771423339844,-0.0046802908182144165,0.01980125904083252,0.040500640869140625,0.08521116,-0.16552521,9.77029,0.0045464896,-0.010293409,9.772057,0
9,988.5388793945312,4.6392029616981745E-5,-3.362175193615258E-4,-1.2839824194088578E-4,-7.6145429611206055,24.313901901245117,-38.179771423339844,-0.004483751952648163,-0.0229988694190979,0.04996967315673828,0.08997065,-0.14884181,9.763186,0.013884202,0.003875956,9.764726,0
9,988.5390014648438,-2.1972839022055268E-4,1.9638243247754872E-4,6.706332787871361E-4,-7.763895511627197,23.59467887878418,-38.268638610839844,-0.0048447176814079285,-0.008411586284637451,0.02157115936279297,0.08278066,-0.15122463,9.7631855,0.0066104773,0.0033843815,9.764705,0
9,988.5413818359375,8.45730712171644E-4,-6.996517186053097E-5,4.9273367039859295E-6,-8.257250785827637,24.4494686126709,-37.93470001220703,-2.6420503854751587E-4,-0.0036641210317611694,0.04524803161621094,0.08515024,-0.15122415,9.767919,0.009036735,0.0027448535,9.769456,0
9,988.546630859375,3.1329464400187135E-4,7.289507193490863E-4,5.0111557357013226E-6,-7.873354911804199,23.9661922454834,-38.119544982910156,-0.009704165160655975,0.015660732984542847,0.04998779296875,0.087519884,-0.16790654,9.760815,0.006169714,-0.014116541,9.762639,0
9,988.5617065429688,-8.5983716417104E-5,5.957611138001084E-4,1.3825291534885764E-4,-7.572340965270996,24.03739356994629,-38.2470817565918,0.009571090340614319,0.0011417120695114136,0.040515899658203125,0.07316017,-0.16313948,9.765547,-0.0062258467,-0.004958585,9.76718,0
9,988.5516357421875,4.468435072340071E-4,1.9625548156909645E-4,5.178910214453936E-6,-7.6872076988220215,24.14063835144043,-38.3893928527832,-0.009683839976787567,-0.017837122082710266,0.04525470733642578,0.0898692,-0.13930623,9.765545,0.016998243,0.012614846,9.766928,0
9,988.5292358398438,4.4723477913066745E-4,8.619817672297359E-4,2.7166231302544475E-4,-7.639055252075195,23.76411247253418,-38.06684112548828,-0.004970617592334747,-0.0032533854246139526,0.045271873474121094,0.077804446,-0.1607529,9.77737,-9.165853E-4,-0.004317358,9.779,0
9,988.5414428710938,-7.5053476030007E-4,1.9608609727583826E-4,2.719416515901685E-4,-7.796124458312988,24.14386558532715,-38.141841888427734,-0.00930970162153244,0.010788410902023315,0.04053211212158203,0.08495003,-0.16075231,9.756063,0.005626565,-0.0064888597,9.757753,0
9,988.5311889648438,4.446089733392E-4,3.288883017376065E-4,-3.924136981368065E-4,-7.586742401123047,23.866209030151367,-38.77373504638672,-0.004779122769832611,0.010865211486816406,0.05474090576171875,0.08253604,-0.15598519,9.753695,0.005021408,-0.0013887286,9.755288,0
9,988.5693359375,-7.576787611469626E-4,6.907235365360975E-5,-5.579963326454163E-4,-7.530681610107422,24.129179000854492,-38.412837982177734,-0.009675823152065277,-0.013356626033782959,0.04526996612548828,0.077732146,-0.14883478,9.763161,0.002758015,0.007377997,9.764602,0
9,988.5640258789062,-2.2481451742351055E-4,2.0219251746311784E-4,2.4105096235871315E-4,-7.221652984619141,23.73354148864746,-38.129371643066406,0.01431388407945633,0.005451902747154236,0.04053211212158203,0.07053834,-0.16313381,9.765526,-0.0082853045,-0.003930688,9.7671385,0
9,988.538818359375,4.173372872173786E-5,-0.0015288983704522252,-1.5832320787012577E-4,-7.591446399688721,23.75587272644043,-37.842742919921875,4.4921785593032837E-4,-0.003914430737495422,0.040534019470214844,0.07529402,-0.16074996,9.758421,-0.0035467986,-0.0031164885,9.760032,0
9,988.5564575195312,-2.2434990387409925E-4,6.895919796079397E-5,-8.240133756771684E-4,-7.838326454162598,24.42037010192871,-38.07453918457031,-0.008833207190036774,0.014986082911491394,0.035796165466308594,0.08243966,-0.16074939,9.772623,0.0030318573,-0.0047816634,9.77429,0
9,988.5364379882812,-2.2411742247641087E-4,-4.637103120330721E-4,-2.496608067303896E-5,-7.790036201477051,24.149755477905273,-38.4510612487793,-0.013578355312347412,-0.0038191676139831543,0.04053783416748047,0.08480543,-0.15121569,9.774987,0.008073188,0.0033783019,9.776521,0
9,988.569091796875,0.001107694348320365,3.3519958378747106E-4,3.7460721796378493E-4,-7.475600242614746,24.02238655090332,-37.876190185546875,0.005889296531677246,-0.0032974332571029663,0.06421661376953125,0.07283181,-0.15359832,9.751314,-0.0045003816,0.0038707405,9.752794,0
9,988.5413818359375,8.416109485551715E-4,-9.96417598798871E-4,5.078647518530488E-4,-8.037352561950684,24.076208114624023,-38.40864944458008,0.010460466146469116,-0.007861480116844177,0.04528617858886719,0.07997739,-0.15598105,9.756046,0.0017675944,-7.1386993E-4,9.757621,0
9,988.5338134765625,9.750010212883353E-4,6.880826549604535E-5,1.084906398318708E-4,-7.846096992492676,23.88678550720215,-38.81195831298828,0.0014872550964355469,0.0019123256206512451,0.035820960998535156,0.08712298,-0.160747,9.777348,0.0064479355,-0.00712274,9.779053,0
9,988.5665893554688,4.312803503125906E-5,-9.96493035927415E-4,-2.456770744174719E-5,-6.9757208824157715,23.911535263061523,-38.79356002807617,-0.008023470640182495,0.011419296264648438,0.04055595397949219,0.0870989,-0.16312967,9.767878,0.0060150474,-0.009311169,9.769622,0
9,988.5185546875,-3.56113538146019E-4,3.3504870953038335E-4,-2.446817234158516E-5,-7.989605903625488,24.173879623413086,-38.883628845214844,0.001129351556301117,0.006535753607749939,0.03582572937011719,0.07512522,-0.15597926,9.774977,-0.0030718166,0.0010852367,9.776509,0
9,988.5463256835938,7.093824679031968E-4,6.869505159556866E-5,3.7510518450289965E-4,-8.209641456604004,24.44122886657715,-37.710601806640625,0.0014220774173736572,-0.0026903152465820312,0.04056549072265625,0.07988095,-0.15836193,9.765506,3.7195347E-4,-0.0030308217,9.767116,0
9,988.5665893554688,4.432988353073597E-4,6.865739123895764E-5,-1.5742704272270203E-4,-7.733975887298584,24.412729263305664,-38.090171813964844,-0.0032341182231903076,-0.002796545624732971,0.05950164794921875,0.08463663,-0.15597804,9.763137,0.0056193955,-0.0020761043,9.764748,0
9,988.5313720703125,-2.2225838620215654E-4,-1.9769620848819613E-4,-2.4169450625777245E-5,-7.468533039093018,24.398042678833008,-38.36116409301758,0.001514427363872528,0.002240300178527832,0.02163410186767578,0.07027316,-0.16312732,9.793907,-0.010295432,-0.004459858,9.79551,0
9,988.5440063476562,-2.220261376351118E-4,-6.457598647102714E-5,1.0908814147114754E-4,-7.617885589599609,23.678815841674805,-38.450035095214844,0.001830175518989563,0.007020100951194763,0.04530525207519531,0.07980859,-0.1559769,9.763132,6.982554E-4,-8.4117055E-4,9.764705,0
9,988.5513916015625,8.43469868414104E-4,-0.0012630352284759283,5.086615565232933E-4,-7.377498149871826,23.482629776000977,-38.70655059814453,0.0017757788300514221,0.0024903416633605957,0.05951499938964844,0.07978448,-0.15359302,9.756029,0.0014113318,0.001074642,9.757565,0
10,988.5665893554688,4.4422829523682594E-4,0.0014000858645886183,-2.9018649365752935E-4,-7.75087833404541,23.87030601501465,-38.36376190185547,0.0015687942504882812,0.002358943223953247,0.040579795837402344,0.077370495,-0.15597568,9.772596,-0.0013904031,-1.3783574E-4,9.774148,0
10,988.5689697265625,4.498707130551338E-5,-3.310050815343857E-4,3.7570271524600685E-4,-7.619950294494629,24.045637130737305,-38.4711799621582,0.010980173945426941,0.007070958614349365,0.03584861755371094,0.07495651,-0.16074164,9.765492,-0.004914714,-0.0040914267,9.7671,0
10,988.5463256835938,-6.205703830346465E-4,2.0158907864242792E-4,2.426443388685584E-4,-7.738541603088379,24.408308029174805,-37.858253479003906,-0.0033918023109436035,0.016088321805000305,0.04531097412109375,0.077322304,-0.16789092,9.7678585,-0.0047743265,-0.011026263,9.769599,0
10,988.5487670898438,-0.0012861277209594846,3.347091842442751E-4,-4.2304571252316236E-4,-7.917377471923828,23.609086990356445,-38.399803161621094,0.011000953614711761,0.006108865141868591,0.021635055541992188,0.07251835,-0.17027359,9.779691,-0.010014355,-0.011128366,9.78143,0
10,988.5665283203125,-6.201056530699134E-4,6.835564272478223E-5,-1.5663017984479666E-4,-8.097138404846191,24.072660446166992,-38.01430892944336,-0.0032233670353889465,0.005785256624221802,0.04056835174560547,0.077274084,-0.16073985,9.774955,-0.0024781823,-0.0033229142,9.77658,0
10,988.5687866210938,-3.535575233399868E-4,-4.643138963729143E-4,-2.8968858532607555E-4,-8.207439422607422,24.180326461791992,-38.38853454589844,-0.017002329230308533,-0.0228441059589386,0.06423759460449219,0.08919945,-0.14405634,9.753648,0.013482105,0.008846179,9.755104,0
10,988.5687866210938,-3.535575233399868E-4,-4.643138963729143E-4,-2.8968858532607555E-4,-7.602505207061768,24.219770431518555,-38.09913635253906,0.0071470290422439575,-0.02275434136390686,0.04056835174560547,0.074835956,-0.15358888,9.767849,-0.003366463,0.0041889995,9.769342,0
10,988.553955078125,-6.196408066898584E-4,-0.0012632990255951881,2.4304265389218926E-4,-7.263311862945557,23.641756057739258,-37.96361541748047,0.0021038204431533813,0.015002384781837463,0.04050922393798828,0.08255848,-0.16551884,9.7607975,3.6067702E-4,-0.009137556,9.762546,0
10,988.5687866210938,-4.862506175413728E-4,-8.638631552457809E-4,-2.8948939871042967E-4,-7.729410171508789,24.417150497436523,-38.32208251953125,-0.012256674468517303,0.02943861484527588,0.04524517059326172,0.08733705,-0.17505194,9.7631645,0.0020932741,-0.01974982,9.765104,0
10,988.5612182617188,3.813538933172822E-5,-7.278205011971295E-4,-0.0010885861702263355,-7.5692973136901855,24.04033851623535,-38.40169143676758,0.011222966015338898,-0.008937567472457886,0.040511131286621094,0.08016604,-0.1488358,9.770266,0.0034462605,0.0076464415,9.771725,0
10,988.5338134765625,-2.2884266218170524E-4,0.0015359721146523952,1.0955153265967965E-4,-7.602504730224609,24.21976661682129,-38.09913635253906,0.0017217844724655151,-0.003911316394805908,0.040515899658203125,0.08016479,-0.16313542,9.770266,-9.863358E-4,-0.0062320232,9.771955,0
10,988.5210571289062,4.3695891508832574E-4,3.3754855394363403E-4,-4.2307504918426275E-4,-7.608348369598389,23.21344566345215,-38.116336822509766,-0.007674023509025574,0.010379210114479065,0.04524707794189453,0.08733323,-0.16313542,9.7584305,0.005860215,-0.008489221,9.76018,0
10,988.5588989257812,5.70129428524524E-4,-0.001127190887928009,3.758778912015259E-4,-7.297361373901367,23.557336807250977,-38.18437957763672,-0.0032580867409706116,-0.008494332432746887,0.031050682067871094,0.08494204,-0.15121906,9.7607975,0.0073408633,0.0033310652,9.762335,0
10,988.581298828125,-2.2880599135532975E-4,0.0011364922393113375,3.758831589948386E-4,-7.594895362854004,24.22713279724121,-38.48566436767578,-0.008228756487369537,-0.013201981782913208,0.03578758239746094,0.08255088,-0.15598549,9.777368,0.0037656352,-3.5089254E-4,9.778958,0
10,988.5585327148438,3.7521764170378447E-5,8.701742626726627E-4,-4.230593331158161E-4,-7.740063667297363,24.40683937072754,-37.78094482421875,0.006061851978302002,-0.00864236056804657,0.04051971435546875,0.068210185,-0.15121894,9.775,-0.008465815,0.00853391,9.7764015,0
10,988.5186157226562,1.7069216119125485E-4,6.038564024493098E-4,2.4273566668853164E-4,-7.176544189453125,23.354063034057617,-37.65221405029297,-0.013039357960224152,6.983429193496704E-4,0.045250892639160156,0.087328166,-0.1536022,9.770266,0.009217339,6.057173E-4,9.771859,0
10,988.5487670898438,-6.28243142273277E-4,-3.282511024735868E-4,3.758988168556243E-4,-7.89398193359375,23.683195114135742,-37.637901306152344,0.0011753514409065247,8.921772241592407E-4,0.026317596435546875,0.08015719,-0.15598543,9.76553,0.0017258562,3.119707E-4,9.767105,0
10,988.556396484375,3.7570775020867586E-5,-5.945709417574108E-4,7.753830868750811E-4,-7.626038074493408,24.039743423461914,-38.161956787109375,-0.013144083321094513,0.005980774760246277,0.026323318481445312,0.08732563,-0.16551848,9.775,0.0055866335,-0.011066958,9.776782,0
10,988.5411987304688,5.702149937860668E-4,2.0437478087842464E-4,-5.561911966651678E-4,-7.394783020019531,23.834718704223633,-37.95464324951172,-0.003270380198955536,0.015451684594154358,0.031053543090820312,0.07537484,-0.16551848,9.779734,-0.006065473,-0.0073087066,9.78142,0
10,988.5487670898438,-6.281944806687534E-4,-1.9510110723786056E-4,-2.3554021026939154E-5,-7.45649528503418,24.303911209106445,-38.2805290222168,-0.008083276450634003,-0.003860175609588623,0.059456825256347656,0.080153376,-0.15360208,9.760796,0.0021367818,0.0025885403,9.762332,0
10,988.58154296875,-9.555049473419785E-5,2.043707063421607E-4,-2.898647217079997E-4,-7.774656295776367,24.690710067749023,-38.10016632080078,0.011068165302276611,-0.0038273632526397705,0.06418991088867188,0.080152124,-0.15598531,9.75843,0.0014174376,2.3245811E-4,9.760007,0
10,988.57666015625,8.365675457753241E-4,-3.2826303504407406E-4,3.759302489925176E-4,-7.7278876304626465,24.418622970581055,-38.39938735961914,-0.008282840251922607,0.005855754017829895,0.035788536071777344,0.08254075,-0.16075177,9.772633,0.0024154317,-0.0049901903,9.7743025,0
10,988.5410766601562,3.039477742277086E-4,3.375247470103204E-4,-5.561701254919171E-4,-7.560303211212158,23.943262100219727,-38.16644287109375,-0.01311388611793518,0.006109222769737244,0.035793304443359375,0.075369745,-0.15836851,9.770266,-0.0037392061,-8.8350475E-4,9.771837,0
10,988.5513916015625,1.4131591888144612E-4,2.7095561381429434E-4,-1.399574102833867E-4,-7.61690616607666,24.0485782623291,-38.625789642333984,-0.0038120299577713013,-0.003351062536239624,0.035798072814941406,0.08014831,-0.16075177,9.770264,3.3700466E-4,-0.0047232658,9.771914,0
11,988.5459594726562,1.4132849173620343E-4,9.367434540763497E-4,1.2636365136131644E-4,-7.684706687927246,24.511877059936523,-38.64244842529297,0.010180272161960602,0.006239369511604309,0.04526996612548828,0.072977334,-0.163135,9.772631,-0.0068963934,-0.004999861,9.7742605,0
11,988.5612182617188,2.7449853951111436E-4,4.0410959627479315E-4,-2.731049316935241E-4,-7.562368392944336,24.31007957458496,-38.18758773803711,8.308589458465576E-4,0.01570969820022583,0.05473613739013672,0.082535684,-0.1702848,9.758429,2.2789463E-5,-0.014778569,9.760252,0
11,988.5665283203125,2.7451064670458436E-4,-5.279979668557644E-4,-2.730995765887201E-4,-7.632126331329346,24.033849716186523,-37.85273742675781,-0.008518144488334656,-0.0035898536443710327,0.031058311462402344,0.080144495,-0.15598513,9.770265,0.0017568767,7.393956E-5,9.771838,0
11,988.531005859375,-7.907404215075076E-4,-1.2852612417191267E-4,-1.3993639731779695E-4,-7.852620601654053,23.142839431762695,-38.22853088378906,-0.0036896541714668274,0.01041044294834137,0.045256614685058594,0.08731294,-0.16075166,9.767897,0.0070974324,-0.0065004826,9.769605,0
11,988.563720703125,-3.9125437615439296E-4,-1.2852816144004464E-4,3.9270054548978806E-4,-7.771803379058838,22.955175399780273,-38.30699157714844,-0.0038554370403289795,-0.0036038458347320557,0.026325225830078125,0.08253184,-0.15598501,9.767897,0.00414571,-7.828325E-4,9.76949,0
11,988.5386352539062,6.740211392752826E-4,-3.948459925595671E-4,-6.767979357391596E-6,-7.663131237030029,23.952375411987305,-38.22811508178711,-0.003619074821472168,-0.018015146255493164,0.04999351501464844,0.08014071,-0.1488352,9.767898,0.0038371496,0.0070015937,9.769357,0
11,988.5537719726562,-1.2491416418924928E-4,9.367313468828797E-4,-4.06236678827554E-4,-7.937568664550781,24.06414222717285,-38.19236755371094,0.015241198241710663,-0.008568555116653442,0.05472850799560547,0.07057983,-0.15360172,9.753694,-0.0063535646,0.0051410794,9.755156,0
11,988.5585327148438,8.256116416305304E-6,4.623900167644024E-6,3.927162615582347E-4,-7.941155433654785,24.429487228393555,-38.136207580566406,-0.004026047885417938,0.006187692284584045,0.02633190155029297,0.087323666,-0.1607519,9.777367,0.007323725,-0.0068638623,9.779073,0
11,988.556396484375,9.402982541359961E-4,4.0410796646028757E-4,2.595311962068081E-4,-7.737860679626465,24.145936965942383,-38.45887756347656,-0.004057049751281738,0.0016792267560958862,0.035800933837890625,0.08016947,-0.15121917,9.7655325,0.003358014,0.003957346,9.767032,0
11,988.5484619140625,1.411287230439484E-4,-5.279615288600326E-4,-9.389856713823974E-4,-7.6634297370910645,23.320241928100586,-38.65298843383789,0.010462120175361633,0.0016573518514633179,0.026330947875976562,0.07777953,-0.16313554,9.782103,-0.0027667247,-0.0062976778,9.78377,0
11,988.5487060546875,-2.5834509870037436E-4,2.7098599821329117E-4,-1.4003791147843003E-4,-7.4347825050354,23.850324630737305,-38.565269470214844,-0.00860515981912613,-0.008042111992835999,0.040531158447265625,0.08255935,-0.15121917,9.7631645,0.0054514892,0.0034896135,9.764684,0
11,988.5408935546875,2.7428666362538934E-4,-6.611194694414735E-4,-1.4003802789375186E-4,-7.684164047241211,24.143587112426758,-38.54399871826172,-0.003448382019996643,0.0017054975032806396,0.04053211212158203,0.07538965,-0.16313554,9.770266,-0.0053726137,-0.0057384074,9.7719145,0
11,988.5612182617188,1.411287230439484E-4,-1.2848770711570978E-4,5.257517914287746E-4,-7.790579319000244,24.518049240112305,-38.54951477050781,-0.003735952079296112,0.0019330084323883057,0.02159881591796875,0.08733916,-0.15836899,9.775002,0.0077325962,-0.004841864,9.77667,0
11,988.53857421875,9.40076366532594E-4,5.37301879376173E-4,2.5943591026589274E-4,-7.214585781097412,24.10919761657715,-38.614349365234375,-0.0036314725875854492,0.006834149360656738,0.035803794860839844,0.07777956,-0.15836899,9.7678995,-0.0015958082,-0.0023433864,9.769492,0
11,988.563720703125,4.0744460420683026E-4,-9.274353506043553E-4,-8.058277308009565E-4,-7.706855773925781,24.2274112701416,-38.08350372314453,-0.003477916121482849,0.007033899426460266,0.040541648864746094,0.08255938,-0.17266865,9.7631645,-0.0014963765,-0.017643586,9.765025,0
11,988.563720703125,4.0744460420683026E-4,-9.274353506043553E-4,-8.058277308009565E-4,-7.7921013832092285,24.516576766967773,-38.47220993041992,0.020424984395503998,0.006937876343727112,0.045271873474121094,0.06583005,-0.16075225,9.7678995,-0.013892731,-0.001084894,9.769436,0
11,988.5558471679688,1.411287230439484E-4,4.670262569561601E-6,1.2627796968445182E-4,-7.675169944763184,24.046510696411133,-38.308753967285156,-0.01783611625432968,0.002104654908180237,0.035803794860839844,0.096898764,-0.15836899,9.7584305,0.016641017,-0.008007854,9.760179,0
11,988.5433959960938,-2.5834509870037436E-4,1.3782817404717207E-4,2.5943591026589274E-4,-7.180835247039795,23.561479568481445,-38.81845474243164,-0.003702975809574127,-0.007311776280403137,0.04527473449707031,0.084949255,-0.16313557,9.760798,0.0039926115,-0.009272039,9.762526,0
11,988.5510864257812,8.06918425951153E-4,8.036177605390549E-4,6.589097320102155E-4,-7.207955360412598,23.746801376342773,-38.82511901855469,-0.00875093787908554,0.0019941329956054688,0.05000782012939453,0.084949255,-0.15598573,9.7655325,0.0062912107,-0.0023363829,9.767145,0
11,988.563720703125,-3.915030392818153E-4,2.70986114628613E-4,1.2627796968445182E-4,-7.803053379058838,23.874128341674805,-38.35594177246094,-0.00861317664384842,0.006641939282417297,0.03580284118652344,0.08255935,-0.16313554,9.770266,0.0018359851,-0.008143753,9.771972,0
11,988.5533447265625,-5.246609798632562E-4,-3.9480358827859163E-4,1.2627796968445182E-4,-7.449864387512207,23.941511154174805,-38.491294860839844,0.0013636946678161621,0.0018506795167922974,0.03579902648925781,0.07777956,-0.15121917,9.7655325,4.184246E-4,0.0047061443,9.767011,0
11,988.5560913085938,1.411287230439484E-4,-1.2848773621954024E-4,6.589097320102155E-4,-7.532502174377441,23.495569229125977,-38.760406494140625,0.010572366416454315,-0.003243193030357361,0.045264244079589844,0.08016944,-0.15598573,9.7584305,0.0017066095,-5.0503016E-4,9.760006,0
11,988.5609741210938,-2.5834509870037436E-4,1.3782817404717207E-4,-1.4003791147843003E-4,-7.972596168518066,23.609960556030273,-38.23737716674805,0.010419167578220367,0.015770569443702698,0.04526519775390625,0.063440144,-0.16790213,9.763165,-0.017679121,-0.0067156553,9.764796,0
11,988.5711669921875,-6.578189204446971E-4,1.3782823225483298E-4,-1.4003802789375186E-4,-7.829195022583008,24.42921257019043,-38.53836441040039,0.005774274468421936,0.006357729434967041,0.054734230041503906,0.072999746,-0.15598573,9.753696,-0.0051102694,0.0015327036,9.755217,0
11,988.5584106445312,-2.5834509870037436E-4,-1.284877653233707E-4,7.920676725916564E-4,-8.005911827087402,24.895734786987305,-38.30747985839844,7.090866565704346E-4,0.015389516949653625,0.04999351501464844,0.07777956,-0.15836902,9.7655325,-8.788463E-4,-0.0015877038,9.767126,0
12,988.5609741210938,-1.2518715811893344E-4,6.704599363729358E-4,3.9259385084733367E-4,-7.644164085388184,24.127981185913086,-37.933380126953125,-0.004169955849647522,9.630471467971802E-4,0.05472850799560547,0.08733916,-0.16551884,9.7584305,0.0061071664,-0.011381805,9.760218,0
12,988.5513916015625,-6.578189204446971E-4,2.7098599821329117E-4,6.589097320102155E-4,-7.899931907653809,23.783220291137695,-38.02775573730469,0.014674454927444458,-0.0036294162273406982,0.04999828338623047,0.06583005,-0.15360244,9.760798,-0.010446139,0.0063879043,9.76222,0
12,988.5585327148438,-1.2518715811893344E-4,-2.616456476971507E-4,3.9259385084733367E-4,-8.025996208190918,24.24445152282715,-37.727386474609375,-0.004510857164859772,0.005316123366355896,0.04052162170410156,0.072999775,-0.15836899,9.767899,-0.0048657116,3.25948E-4,9.769456,0
12,988.5358276367188,-7.909768610261381E-4,2.7098599821329117E-4,-6.879970896989107E-6,-7.9918084144592285,24.434782028198242,-38.20569610595703,-0.004910178482532501,6.121993064880371E-4,0.04525947570800781,0.08016947,-0.15836899,9.7678995,0.002315415,-0.002075225,9.76951,0
12,988.5609741210938,-3.915030392818153E-4,9.367757011204958E-4,1.2627785326913E-4,-7.927052021026611,23.968542098999023,-38.034423828125,0.0045797452330589294,-0.0043039470911026,0.031055450439453125,0.07538965,-0.15360244,9.775001,-6.614886E-4,0.00417684,9.776498,0
12,988.55615234375,1.411287230439484E-4,2.7098599821329117E-4,5.257517914287746E-4,-8.29931640625,24.831892013549805,-38.56646728515625,-1.9878149032592773E-4,-0.0043859779834747314,0.04998970031738281,0.08972907,-0.15598573,9.7631645,0.012274941,-0.0027108192,9.764815,0
12,988.5459594726562,-1.2518715811893344E-4,4.041440552100539E-4,-1.4003802789375186E-4,-7.571362018585205,24.407155990600586,-38.42283630371094,-0.00998060405254364,3.769099712371826E-4,0.04052448272705078,0.072999746,-0.15360244,9.7584305,-0.0027440935,0.0045855492,9.7599125,0
12,988.5585327148438,7.970782462507486E-6,1.3782817404717207E-4,1.2627796968445182E-4,-7.701746463775635,23.863542556762695,-38.21696853637695,0.0047333091497421265,-0.00905938446521759,0.03581523895263672,0.082273304,-0.14882894,9.777342,0.007426096,0.006617844,9.778816,0
12,988.5687255859375,5.423169932328165E-4,-2.619240549392998E-4,5.264866631478071E-4,-7.292795658111572,23.561758041381836,-38.416297912597656,-0.004712454974651337,0.005460336804389954,0.0452880859375,0.07987198,-0.15597846,9.758404,0.0028553922,5.5909157E-5,9.759976,0
12,988.545654296875,1.080316724255681E-5,1.3736827531829476E-4,3.9380794623866677E-4,-7.498995780944824,23.948278427124023,-38.638092041015625,0.004899837076663971,-0.01824130117893219,0.04528999328613281,0.07747066,-0.14644508,9.779707,0.003232088,0.010126099,9.781103,0
12,988.5330810546875,1.091329613700509E-5,-7.947551785036922E-4,-8.045663707889616E-4,-7.772047996520996,23.955602645874023,-37.980567932128906,3.0184537172317505E-4,0.005535885691642761,0.031085968017578125,0.079849154,-0.16551094,9.782074,-3.5777688E-4,-0.008643448,9.783797,0
12,988.5559692382812,4.104971303604543E-4,-1.289833162445575E-4,1.2758636148646474E-4,-7.393260478973389,23.8361873626709,-38.031951904296875,-0.013943485915660858,-0.0037997961044311523,0.05002784729003906,0.07983768,-0.15836085,9.756033,0.001774231,-0.0024311244,9.757646,0
12,988.5484619140625,1.2500851880759E-5,-9.450508514419198E-5,-6.465576007030904E-4,-7.794602394104004,24.14533805847168,-38.219146728515625,-0.00471891462802887,-0.013363182544708252,0.04056358337402344,0.08460608,-0.14406098,9.767867,0.010933194,0.009858832,9.769286,0
12,988.5687255859375,-1.2054707622155547E-4,7.04424805007875E-4,-2.4703657254576683E-4,-7.7370195388793945,24.4097843170166,-37.93556213378906,-0.00907403975725174,-0.00399075448513031,0.045291900634765625,0.08459467,-0.15836026,9.765499,0.0062657427,-0.003491953,9.767147,0
12,988.5785522460938,-2.535947714932263E-4,-8.934884099289775E-4,-2.46989366132766E-4,-7.372633934020996,24.119184494018555,-38.51359558105469,-0.003901846706867218,-0.008588477969169617,0.04529285430908203,0.07741359,-0.1631266,9.770233,-0.002372289,-0.005889654,9.771899,0
12,988.5560913085938,8.117785328067839E-4,-9.455857798457146E-5,-1.1378433555364609E-4,-7.64927339553833,24.491857528686523,-37.79991149902344,0.0055188462138175964,0.015516981482505798,0.021628379821777344,0.07979208,-0.15597649,9.774967,0.0020152293,3.9234757E-5,9.776537,0
12,988.5635375976562,4.1241495637223125E-4,3.858143463730812E-5,1.5257869381457567E-4,-7.698702812194824,23.866487503051758,-38.37157440185547,-0.008931174874305725,-0.0035401582717895508,0.03583335876464844,0.082170546,-0.15597613,9.765496,0.0044210963,-9.1318786E-4,9.767086,0
12,988.5787353515625,1.4620897127315402E-4,-3.609101986512542E-4,-1.1368998093530536E-4,-7.738840103149414,23.776174545288086,-38.28312301635742,-0.013464793562889099,-0.0033210963010787964,0.035836219787597656,0.09410864,-0.15597592,9.765495,0.01549652,-0.0047079325,9.76718,0
12,988.5408325195312,5.457929219119251E-4,4.3801957508549094E-4,-1.1364283272996545E-4,-8.061429023742676,24.26447105407715,-38.569923400878906,-0.003841511905193329,0.0014925450086593628,0.026368141174316406,0.0773679,-0.16312547,9.77733,-0.002763329,-0.006203413,9.7789955,0
12,988.5761108398438,-7.856764714233577E-4,-7.604197598993778E-4,-5.130695062689483E-4,-8.026837348937988,23.9805965423584,-38.250709533691406,0.010662943124771118,0.006001219153404236,0.04530048370361328,0.079746366,-0.16550846,9.772595,-0.0011981502,-0.009014443,9.774319,0
12,988.5760498046875,1.3381184544414282E-5,-9.464792674407363E-5,1.527672866359353E-4,-7.553671836853027,23.580862045288086,-38.37721252441406,-0.003474593162536621,0.020106732845306396,0.05003166198730469,0.074955165,-0.17504133,9.78443,-0.008710038,-0.016256183,9.786266,0
12,988.54833984375,1.3491197023540735E-5,3.048080252483487E-4,5.52288256585598E-4,-7.569296836853027,24.040342330932617,-38.40169143676758,0.010692454874515533,-0.013314947485923767,0.02636241912841797,0.07255387,-0.14644165,9.77496,-0.0021038782,0.011639491,9.7763195,0
12,988.5609741210938,-3.858726122416556E-4,5.71106094866991E-4,2.8601958183571696E-4,-7.862295627593994,23.502294540405273,-37.86315155029297,-0.003695748746395111,-0.02756352722644806,0.04056835174560547,0.08449191,-0.14405812,9.765491,0.009848334,0.010120213,9.766909,0
12,988.56591796875,2.800272195599973E-4,-0.0011599649442359805,4.1922469972632825E-4,-7.505084037780762,23.9423885345459,-38.3288688659668,-0.0081673264503479,0.010746195912361145,0.05950736999511719,0.082090646,-0.16789065,9.756021,1.7557293E-4,-0.01219146,9.757803,0
12,988.5358276367188,2.8013711562380195E-4,-4.941931692883372E-4,-1.1336000170558691E-4,-7.807183742523193,24.607763290405273,-38.39823532104492,-0.012330755591392517,0.006042197346687317,0.01689434051513672,0.08685905,-0.16789033,9.786793,0.004179623,-0.012905583,9.788609,0
13,988.5358276367188,2.8013711562380195E-4,-4.941931692883372E-4,-1.1336000170558691E-4,-7.556823253631592,24.684263229370117,-38.59526062011719,-0.002914018929004669,0.005984365940093994,0.031098365783691406,0.077288,-0.1655068,9.777323,-0.0041266903,-0.008010849,9.779026,0
13,988.558349609375,4.1340518509969115E-4,-7.605269784107804E-4,-5.127866170369089E-4,-7.511714458465576,24.304784774780273,-38.11810302734375,-0.002662837505340576,-0.013231456279754639,0.03583049774169922,0.070106864,-0.1535901,9.774955,-0.0076585263,0.005715415,9.776408,0
13,988.5585327148438,-2.52274505328387E-4,-9.475514525547624E-5,-3.7958152825012803E-4,-7.714465618133545,24.22004508972168,-37.69697570800781,0.001886613667011261,0.0011538565158843994,0.05003833770751953,0.074875295,-0.15597309,9.753649,-0.0035745297,0.001438871,9.755183,0
13,988.5787353515625,1.4151271898299456E-5,1.71542982570827E-4,2.8625535196624696E-4,-7.521389484405518,24.664236068725586,-37.75271987915039,-0.002642214298248291,8.973032236099243E-4,0.03109455108642578,0.07964367,-0.15597285,9.789156,7.396955E-4,0.0010009408,9.790723,0
13,988.571044921875,-2.520544803701341E-4,-2.2794876713305712E-4,1.531445304863155E-4,-7.880528450012207,24.696882247924805,-38.007225036621094,0.0019687116146087646,-0.004159659147262573,0.05949974060058594,0.07963222,-0.15597256,9.760748,0.0010607895,7.3467195E-4,9.762319,0
13,988.5635375976562,-9.177341707982123E-4,-9.480866719968617E-5,1.531916786916554E-4,-7.458016872406006,24.30243492126465,-38.203224182128906,0.006946459412574768,0.005199313163757324,0.04529285430908203,0.07723093,-0.15358897,9.760748,-6.8322755E-4,0.0039280504,9.762262,0
13,988.5785522460938,-3.8499239599332213E-4,-2.2798447753302753E-4,-9.120248141698539E-4,-7.279778480529785,23.83738899230957,-38.51141357421875,-0.0027046427130699158,0.009874463081359863,0.01688671112060547,0.077705204,-0.16313376,9.774994,-0.0029962491,-0.0049776733,9.776663,0
13,988.56591796875,-2.5172432651743293E-4,-9.484437759965658E-5,4.1960194357670844E-4,-7.629518032073975,23.298742294311523,-37.7331428527832,-0.0033356472849845886,2.0396709442138672E-4,0.045197486877441406,0.08059895,-0.15361293,9.763205,0.0023741666,0.0032860935,9.764745,0
13,988.5507202148438,-6.510881357826293E-4,-3.6117812851443887E-4,-3.7929852260276675E-4,-7.252796173095703,23.5461483001709,-37.80567169189453,-0.003580152988433838,-0.013974353671073914,0.03099536895751953,0.08301675,-0.15123038,9.772676,0.0055915266,0.004775211,9.774197,0
13,988.5558471679688,1.4040200039744377E-4,-4.940672079101205E-4,2.8089398983865976E-4,-7.691230773925781,23.767934799194336,-38.05902862548828,-0.0032839030027389526,-0.019006237387657166,0.05465888977050781,0.08304465,-0.14408128,9.758474,0.0075745136,0.011692822,9.759881,0
13,988.5478515625,-5.256567383185029E-4,3.8608210161328316E-5,-6.513267871923745E-4,-7.5416340827941895,23.486730575561523,-38.296573638916016,0.0063375309109687805,-0.01422378420829773,0.05939006805419922,0.07351297,-0.15123181,9.760845,-0.0038200691,0.007776782,9.762289,0
13,988.5380249023438,-1.2672075536102057E-4,-8.93410062417388E-4,-3.8524140836670995E-4,-7.106785774230957,23.630292892456055,-37.987060546875,0.0018143057823181152,-0.005046755075454712,0.040442466735839844,0.07354081,-0.15599899,9.756113,-0.0053930692,0.0034870058,9.757636,0
13,988.5534057617188,-0.001325411256402731,-2.2757664555683732E-4,-5.185147165320814E-4,-7.485435962677002,23.855619430541992,-38.63475799560547,0.006499238312244415,-0.01923970878124237,0.03097248077392578,0.080738425,-0.14408328,9.767952,0.0050381776,0.012905687,9.769339,0
13,988.5557250976562,1.390570541843772E-4,-2.2753298981115222E-4,1.4001794625073671E-5,-7.7579450607299805,23.49464988708496,-37.8787841796875,-0.007620483636856079,0.01897318661212921,0.04990673065185547,0.085546136,-0.16791673,9.76322,0.0021844562,-0.011404276,9.765032,0
13,988.5787353515625,5.382618401199579E-4,-2.2748933406546712E-4,-6.519031594507396E-4,-7.7889509201049805,23.413179397583008,-38.25416564941406,0.007038824260234833,-1.9851326942443848E-4,0.04516410827636719,0.080794275,-0.16076763,9.779793,-4.7042035E-4,-0.0026312917,9.781446,0
13,988.5913696289062,-3.9411254692822695E-4,-6.269194418564439E-4,-1.193867065012455E-4,-7.785608291625977,24.048261642456055,-37.98390197753906,0.016479864716529846,0.004490509629249573,0.049896240234375,0.073652476,-0.15600179,9.770327,-0.0056676436,0.0039515197,9.771848,0
13,988.540771484375,2.7140823658555746E-4,-4.937179619446397E-4,-1.1950207408517599E-4,-7.12477445602417,23.824453353881836,-38.457557678222656,-0.002772711217403412,-0.0052271634340286255,0.054625511169433594,0.080850095,-0.15838565,9.758493,4.899204E-4,-6.5654516E-4,9.760113,0
13,988.56591796875,-6.609663832932711E-4,5.715893348678946E-4,1.3540731742978096E-5,-7.703269004821777,23.8620662689209,-38.13966369628906,0.011697620153427124,-6.186962127685547E-4,0.03568267822265625,0.07131839,-0.15838636,9.767965,-0.0085580535,0.0026814789,9.7695055,0
13,988.5761108398438,-7.943934760987759E-4,-8.931043557822704E-4,5.460571846924722E-4,-7.529297351837158,24.02473258972168,-37.79106903076172,-0.007146991789340973,-0.010176122188568115,0.03567695617675781,0.08807558,-0.15123726,9.777435,0.009228343,0.0047843903,9.7789955,0
13,988.5631713867188,4.2852479964494705E-6,-7.599028176628053E-4,1.3310112990438938E-5,-7.373069763183594,23.381132125854492,-38.23938751220703,-0.007143795490264893,-0.005481839179992676,0.026205062866210938,0.08093381,-0.14885469,9.782171,0.0030976962,0.009322643,9.783635,0
13,988.5735473632812,4.016445018351078E-6,9.711941238492727E-4,-0.001052068779245019,-7.855229377746582,23.87795066833496,-38.34812927246094,-0.002682924270629883,-0.024541258811950684,0.03567218780517578,0.0785718,-0.14408876,9.775074,0.0027345307,0.014320493,9.776441,0
13,988.5809326171875,-6.620422936975956E-4,4.386060172691941E-4,-1.2007838813588023E-4,-7.427309989929199,23.75177574157715,-38.252716064453125,-0.00257989764213562,-9.562075138092041E-4,0.016727447509765625,0.08337951,-0.15838908,9.77981,0.0028420724,-3.5895407E-4,9.781447,0
13,988.5681762695312,-6.623113295063376E-4,-7.5977185042575E-4,9.450699435546994E-4,-7.243664264678955,23.554990768432617,-38.269500732421875,0.021218731999397278,-0.0058666616678237915,0.04512977600097656,0.059508383,-0.15362324,9.758509,-0.018450111,0.010852993,9.759876,0
13,988.55322265625,-7.957383058965206E-4,-7.59728136472404E-4,-1.2030889047309756E-4,-7.173362731933594,23.462926864624023,-38.505897521972656,0.007397264242172241,0.013073191046714783,0.049854278564453125,0.07626563,-0.1726902,9.760878,-0.008392908,-0.01193583,9.762693,0
14,988.5709838867188,-1.3021740596741438E-4,-0.0016917899483814836,-6.530559039674699E-4,-8.287714004516602,23.99970817565918,-38.21162414550781,-0.006458662450313568,0.01283419132232666,0.040375709533691406,0.0858531,-0.17745747,9.7585125,-0.0016902052,-0.018874586,9.760486,0
14,988.5405883789062,4.294357495382428E-4,-6.56097021419555E-4,-1.3933947775512934E-4,-7.516035556793213,23.2999324798584,-38.212608337402344,-0.006306223571300507,-0.006059035658836365,0.045108795166015625,0.08110121,-0.15600856,9.767984,4.1814707E-4,0.0030334145,9.7695675,0
14,988.54833984375,2.9692891985177994E-5,-2.565795148257166E-4,3.931769751943648E-4,-7.5829949378967285,24.027082443237305,-37.7059440612793,0.01291908323764801,-0.005942508578300476,0.045105934143066406,0.0715695,-0.15600924,9.775089,-0.008684205,0.006125629,9.77659,0
14,988.5533447265625,5.620555020868778E-4,-2.5653588818386197E-4,3.9306163671426475E-4,-7.86726713180542,23.972082138061523,-38.42876434326172,0.008182033896446228,-9.81658697128296E-4,0.03090381622314453,0.08115703,-0.16077651,9.770357,-0.0012746751,-0.0017099977,9.772017,0
14,988.5634155273438,5.617869319394231E-4,-2.564922033343464E-4,-2.7284317184239626E-4,-7.774954319000244,24.058568954467773,-38.5250358581543,-0.011023662984371185,-9.818673133850098E-4,0.049839019775390625,0.090744555,-0.15362741,9.758524,0.010114608,0.0020318627,9.760149,0
14,988.5432739257812,-2.3742974735796452E-4,1.43025245051831E-4,2.5967322289943695E-4,-7.558781147003174,23.944734573364258,-38.243751525878906,-0.0014719069004058838,-0.010499536991119385,0.035633087158203125,0.08360273,-0.14647819,9.77273,0.005409073,0.011191428,9.774178,0
14,988.5656127929688,4.2809080332517624E-4,-2.5640486273914576E-4,-4.0623173117637634E-4,-7.506904125213623,23.308774948120117,-38.67643737792969,-0.005886487662792206,-0.010417163372039795,0.054566383361816406,0.08841044,-0.15362872,9.758529,0.0074503794,0.0027891248,9.760135,0
14,988.5634155273438,1.6150600276887417E-4,-2.563612360972911E-4,-4.06346982344985E-4,-7.375134468078613,23.747953414916992,-38.260536193847656,-0.005255609750747681,-0.014834240078926086,0.04044532775878906,0.08280742,-0.15360858,9.765554,0.0021865722,0.0041399,9.767113,0
14,988.5787353515625,4.316446138545871E-4,4.088078858330846E-4,6.60554738715291E-4,-7.601281642913818,23.589101791381836,-38.60131072998047,-9.060278534889221E-4,0.004270374774932861,0.040450096130371094,0.082801074,-0.15599166,9.7750225,0.0018626172,0.0018442571,9.776618,0
14,988.5530395507812,-2.3007509298622608E-4,0.0013402528129518032,-2.6980647817254066E-4,-7.9605584144592285,23.51582908630371,-38.15673828125,-0.001106061041355133,-4.007667303085327E-4,0.04045391082763672,0.082794726,-0.15837474,9.770288,0.001297459,-6.197095E-4,9.771922,0
14,988.5530395507812,-2.3007509298622608E-4,0.0013402528129518032,-2.6980647817254066E-4,-7.181813716888428,23.19171714782715,-38.6427001953125,0.0036146417260169983,-0.004984334111213684,0.05939674377441406,0.0803985,-0.14884152,9.7608185,0.0017665736,0.008844271,9.7622795,0
14,988.5659790039062,4.357757279649377E-4,-2.576524275355041E-4,5.29167358763516E-4,-7.229125022888184,23.832094192504883,-38.441925048828125,-0.005814835429191589,-6.012618541717529E-5,0.04519462585449219,0.08278203,-0.15837444,9.7655525,0.0011388902,-0.0010171682,9.767187,0
14,988.5559692382812,7.021526107564569E-4,5.412853206507862E-4,3.960356116294861E-4,-7.606390476226807,23.952974319458008,-38.46784973144531,0.013626843690872192,-0.014150276780128479,0.021523475646972656,0.07321608,-0.1440747,9.779756,-0.0043743216,0.015565082,9.781077,0
14,988.5557250976562,3.0274002347141504E-4,-5.239881575107574E-4,-2.697278978303075E-4,-7.1588239669799805,23.74003028869629,-38.678321838378906,0.008974581956863403,-0.004447340965270996,0.05466651916503906,0.07798958,-0.16075744,9.7513485,-0.004638899,-0.0023284853,9.752985,0
14,988.5481567382812,4.359589656814933E-4,-7.903139921836555E-4,3.960879403166473E-4,-7.578589916229248,23.505285263061523,-39.061805725097656,0.013879328966140747,0.009752750396728516,0.035727500915527344,0.058863997,-0.16552384,9.772653,-0.024460765,-5.3980947E-4,9.7742,0
14,988.5504150390625,3.6546261981129646E-5,-6.57165888696909E-4,3.961142210755497E-4,-7.881507873535156,24.327112197875977,-37.83147048950195,0.018731601536273956,-0.014358952641487122,0.04519176483154297,0.06602734,-0.14407422,9.772652,-0.0109483935,0.01809235,9.773914,0
14,988.5761108398438,-2.2970850113779306E-4,8.613860700279474E-6,-6.691232556477189E-4,-7.980749607086182,23.970884323120117,-37.949302673339844,0.009806528687477112,0.009345397353172302,0.03571605682373047,0.0755806,-0.16314025,9.770285,-0.008353546,-0.002748087,9.7719345,0
14,988.5659790039062,-3.6274350713938475E-4,-0.001722459215670824,-0.0020006499253213406,-7.804574966430664,23.872655868530273,-38.27864074707031,-0.027592644095420837,0.009171679615974426,0.04517650604248047,0.09469348,-0.16075684,9.758448,0.010106584,-0.0061571,9.760223,0
14,988.5659790039062,-3.6274350713938475E-4,-0.001722459215670824,-0.0020006499253213406,-7.804574966430664,23.872655868530273,-38.27864074707031,-0.018005795776844025,0.023489490151405334,0.030973434448242188,0.09946692,-0.16313995,9.763182,0.013722055,-0.009707704,9.765038,0
14,988.53564453125,3.6791316233575344E-5,-0.0013229954056441784,-0.0010685180313885212,-7.769547462463379,24.32683753967285,-38.23362731933594,-0.0037677809596061707,-0.009741634130477905,0.045180320739746094,0.089901,-0.14884014,9.775017,0.008938637,0.0068016946,9.776557,0
14,988.5530395507812,3.685255069285631E-5,2.7488998603075743E-4,-1.363864867016673E-4,-7.554651260375977,23.21109962463379,-38.20145797729492,0.005589619278907776,-0.009518176317214966,0.049920082092285156,0.07794514,-0.16552295,9.772649,-0.0073078573,-0.0058710724,9.774359,0
14,988.5405883789062,3.6974670365452766E-5,5.411860183812678E-4,7.957714842632413E-4,-7.551851749420166,24.214475631713867,-38.02964782714844,-0.004343152046203613,-0.004743814468383789,0.05465888977050781,0.08510849,-0.14883979,9.760813,0.004812196,0.00766854,9.762315,0
14,988.545654296875,0.0011022993130609393,0.0010738077107816935,1.3000803301110864E-4,-7.298745632171631,23.661779403686523,-38.80615234375,0.0047796741127967834,-0.013710156083106995,0.03573322296142578,0.07076275,-0.14168979,9.76318,-0.006623041,0.018055499,9.764446,0
14,988.5504150390625,3.0341267120093107E-4,5.411661113612354E-4,0.0010621397523209453,-7.604325771331787,23.586156845092773,-38.44670104980469,0.009533077478408813,-0.0089617520570755,0.03100109100341797,0.07553619,-0.14407296,9.775015,-0.0025566798,0.014646336,9.776357,0
14,988.5432739257812,1.7031596507877111E-4,-0.0013230550102889538,-3.0975788831710815E-6,-7.853164196014404,23.51112937927246,-38.32698059082031,0.0053126513957977295,6.866306066513062E-4,0.03573322296142578,0.0826996,-0.163139,9.777381,-0.0021167807,-0.005568281,9.77909,0
15,988.5659790039062,-7.61728617362678E-4,-5.241171456873417E-4,-1.3622932601720095E-4,-7.50369930267334,23.837942123413086,-37.707096099853516,-0.008828461170196533,6.140470504760742E-4,0.030996322631835938,0.08508313,-0.16075553,9.779747,7.944703E-4,-0.0038642585,9.781437,0
15,988.5656127929688,0.001102543668821454,4.079784848727286E-4,1.3011269038543105E-4,-7.8191142082214355,23.595548629760742,-38.10621643066406,-0.008867256343364716,-0.008686944842338562,0.049938201904296875,0.09463641,-0.1512223,9.758443,0.012810262,0.0016097873,9.760065,0
15,988.55322265625,-9.581667836755514E-5,-5.241370527073741E-4,2.6329688262194395E-4,-8.395650863647461,24.37269401550293,-38.13983154296875,-0.037454232573509216,0.02495872974395752,0.04994392395019531,0.10657957,-0.17267169,9.763176,0.016966477,-0.022692263,9.7652445,0
15,988.5659790039062,9.695078479126096E-4,2.7480069547891617E-4,0.0010622707195580006,-8.015341758728027,24.254758834838867,-38.268516540527344,-0.014289498329162598,-0.012897521257400513,0.04522132873535156,0.094623744,-0.15598859,9.758441,0.011315113,-0.0033645332,9.760139,0
15,988.5558471679688,7.032532012090087E-4,0.002005843911319971,0.0015949286753311753,-7.739926338195801,24.512754440307617,-38.48002624511719,-0.005115114152431488,0.020598143339157104,0.04522514343261719,0.073108286,-0.16313823,9.770277,-0.010553256,-0.0039577037,9.771907,0
15,988.5380859375,3.0384038109332323E-4,0.002138991840183735,0.0018612706335261464,-7.790717124938965,24.41213035583496,-37.850433349609375,0.03692539036273956,-0.017775550484657288,0.059433937072753906,0.051592827,-0.14645515,9.75844,-0.025050351,0.018162236,9.759627,0
15,988.5684204101562,-8.94519966095686E-4,9.405607706867158E-4,0.0017281391192227602,-7.260130405426025,23.750619888305664,-38.81730270385742,0.012869931757450104,-0.017918705940246582,0.040495872497558594,0.07070571,-0.14645498,9.770275,-0.0068182684,0.01264818,9.771619,0
15,988.54833984375,-4.94985026307404E-4,8.445116691291332E-6,5.297436146065593E-4,-7.472418785095215,24.13124656677246,-38.72987747192383,-0.005883902311325073,0.015515640377998352,0.02635478973388672,0.08200818,-0.15120567,9.772583,0.0028916001,0.0047223717,9.7740965,0
15,988.5783081054688,5.722183850593865E-4,8.06748284958303E-4,4.002343339379877E-4,-7.155481338500977,24.375112533569336,-38.40806198120117,0.017771966755390167,-0.008151039481163025,0.04530048370361328,0.070026994,-0.1512049,9.767846,-0.00845959,0.007760048,9.769261,0
15,988.5631713867188,-9.251682786270976E-5,4.07103420002386E-4,1.3437040615826845E-4,-7.224261283874512,24.46864891052246,-38.24897003173828,0.008101195096969604,0.006151214241981506,0.05003929138183594,0.07716495,-0.15597068,9.763109,-0.0027645305,0.00108549,9.76466,0
15,988.5735473632812,4.0947285015136003E-5,1.4073788770474494E-4,1.345015480183065E-4,-7.510192394256592,24.306257247924805,-38.19540786743164,-0.001582808792591095,0.020266562700271606,0.04530525207519531,0.08430296,-0.17026956,9.767841,1.1043064E-4,-0.01441896,9.769679,0
15,988.5431518554688,-6.245367112569511E-4,0.0012059517903253436,4.009483673144132E-4,-7.652317523956299,24.488908767700195,-37.645301818847656,-0.016196399927139282,-0.013488754630088806,0.040572166442871094,0.07949138,-0.15596907,9.7654705,7.7428296E-5,8.997321E-4,9.767039,0
15,988.5834350585938,-2.2475741570815444E-4,5.401124944910407E-4,-1.3155245687812567E-4,-7.4324188232421875,24.115644454956055,-38.11925506591797,-0.0021375268697738647,-0.004227772355079651,0.031103134155273438,0.08423948,-0.15596832,9.774937,0.004965294,-1.02713704E-4,9.776543,0
15,988.580810546875,-0.001156557584181428,0.0010726945474743843,5.343684460967779E-4,-7.124911785125732,23.718534469604492,-37.75847625732422,0.0023498907685279846,-0.00899544358253479,0.059515953063964844,0.07703808,-0.15358426,9.76073,-9.1341883E-4,0.0038773268,9.762242,0
15,988.5530395507812,-6.50672591291368E-5,0.0012399950064718723,8.480588439851999E-5,-7.202548027038574,24.015066146850586,-38.533714294433594,0.016334928572177887,0.005203738808631897,0.059520721435546875,0.072226554,-0.15835007,9.74889,-0.0064287987,5.951971E-4,9.750441,0
15,988.5452880859375,-6.476155249401927E-5,4.409978282637894E-4,8.49368516355753E-5,-7.8256072998046875,24.063867568969727,-38.59452438354492,0.011652633547782898,0.01013416051864624,0.04532051086425781,0.06741503,-0.16311581,9.763092,-0.012590757,-0.002493769,9.764678,0
15,988.558349609375,6.013343227095902E-4,-9.168352698907256E-5,8.506805170327425E-5,-7.508127689361572,23.939443588256836,-38.17426300048828,0.006625555455684662,4.0818750858306885E-4,0.04532337188720703,0.07933283,-0.15596516,9.767822,0.001218453,0.0010028481,9.769388,0
15,988.5910034179688,-6.414990639314055E-5,-3.580490592867136E-4,-3.1427486101165414E-4,-7.7129435539245605,24.22151756286621,-37.77428436279297,0.020999498665332794,-0.00436227023601532,0.040592193603515625,0.062571764,-0.15834768,9.75835,-0.015452173,0.0036231726,9.759823,0
15,988.54833984375,-1.970019075088203E-4,4.4084893306717277E-4,-4.782789619639516E-5,-7.728867053985596,24.048860549926758,-38.2236328125,0.0017998293042182922,0.005267426371574402,0.012190818786621094,0.07926941,-0.16311349,9.78202,-8.836109E-4,-0.005677864,9.783698,0
15,988.54833984375,-1.970019075088203E-4,4.4084893306717277E-4,-4.782789619639516E-5,-7.342469692230225,23.93681526184082,-38.66154098510742,0.002034716308116913,0.010068044066429138,0.035864830017089844,0.06967807,-0.15834619,9.770182,-0.008833647,0.0016070455,9.77171,0
15,988.5580444335938,2.0277785370126367E-4,-9.183245128951967E-5,7.512507145293057E-4,-7.867809772491455,24.34037208557129,-38.52721405029297,0.0065548717975616455,0.010034769773483276,0.05954170227050781,0.06486654,-0.16787843,9.758342,-0.015979486,-0.0063156784,9.759987,0
15,988.5380249023438,-6.323255365714431E-5,-9.188204421661794E-5,-3.138819010928273E-4,-7.7454705238342285,24.13857078552246,-38.072357177734375,0.0066031962633132935,-0.032774582505226135,0.059546470642089844,0.07678434,-0.13451184,9.751238,0.005105866,0.021770403,9.75244,0
15,988.5506591796875,2.0338880131021142E-4,5.73857978451997E-4,-1.8059287685900927E-4,-7.2813005447387695,23.835912704467773,-38.43410873413086,0.006503671407699585,8.617788553237915E-4,0.05481910705566406,0.074362755,-0.15357725,9.758337,-0.0026121307,0.0040780306,9.759829,0
15,988.5756225585938,2.036942751146853E-4,-2.2513928706757724E-4,-1.8046185141429305E-4,-7.838326454162598,24.42037010192871,-38.07453918457031,-0.0029309019446372986,0.015219032764434814,0.03588581085205078,0.074330986,-0.16787614,9.770169,-0.007090749,-0.009364113,9.771888,0
16,988.5604858398438,3.371576895006001E-4,-4.915047320537269E-4,-4.7172943595796824E-5,-7.583974361419678,23.657323837280273,-37.530189514160156,0.01167711615562439,0.010641127824783325,0.05009174346923828,0.0719094,-0.15834226,9.765432,-0.0067978688,2.1974742E-4,9.766979,0
16,988.5530395507812,3.374637453816831E-4,-3.583964426070452E-4,4.855898441746831E-4,-7.490001678466797,23.8512020111084,-38.4028434753418,-0.002430930733680725,0.005800202488899231,0.05482769012451172,0.076657504,-0.15834148,9.7654295,-0.0024351645,-0.0010393262,9.767014,0
16,988.5634765625,4.709275090135634E-4,-6.247619749046862E-4,-3.1322683207690716E-4,-7.570276260375977,23.670576095581055,-38.22593688964844,0.016744397580623627,-0.00384463369846344,0.031154632568359375,0.06706613,-0.15357412,9.767794,-0.010095425,0.0066230595,9.769225,0
16,988.580810546875,-6.139877950772643E-5,-6.248115678317845E-4,2.1953589748591185E-4,-7.803191184997559,23.768213272094727,-37.656864166259766,-0.0024219900369644165,7.961243391036987E-4,0.0500946044921875,0.07420415,-0.16310649,9.753588,-0.0060757753,-0.004817337,9.75523,0
16,988.5482788085938,-5.937247187830508E-4,1.740864827297628E-4,-4.6648900024592876E-5,-7.852865695953369,24.143266677856445,-37.90211486816406,0.007044568657875061,0.005380004644393921,0.045360565185546875,0.076562345,-0.1559559,9.763054,-0.0014983993,0.0015739948,9.7646,0
16,988.5833129882812,-6.078690057620406E-5,4.087889101356268E-5,-4.4599175453186035E-4,-7.629380226135254,23.404661178588867,-38.432220458984375,-0.0024307146668434143,5.009621381759644E-4,0.05956459045410156,0.076530576,-0.16548817,9.76305,-0.0043176915,-0.007452965,9.764748,0
16,988.5780029296875,-0.0015249133575707674,4.40253468696028E-4,4.8637588042765856E-4,-7.214884281158447,23.477060317993164,-39.039222717285156,0.0066286176443099976,6.5267086029052734E-6,0.045360565185546875,0.066939294,-0.1607209,9.765415,-0.011491472,2.500713E-4,9.76696,0
16,988.5405883789062,-4.593443009071052E-4,0.0011059935204684734,8.703302592039108E-5,-7.293338298797607,23.9300479888916,-38.514747619628906,0.0018081143498420715,-0.009755700826644897,0.035892486572265625,0.07697266,-0.15596594,9.77256,-4.0306337E-4,0.002223149,9.774107,0
16,988.5634765625,7.117557106539607E-5,5.737046012654901E-4,3.5244383616372943E-4,-7.217087268829346,23.73796272277832,-38.361289978027344,-0.004348427057266235,-1.3665854930877686E-4,0.04053974151611328,0.07986671,-0.15359505,9.765505,0.0034110267,0.0033736825,9.767037,0
16,988.572998046875,-3.379356930963695E-4,8.419029181823134E-4,-1.8118059961125255E-4,-7.970095634460449,23.981199264526367,-38.49043655395508,-0.004511669278144836,0.019034400582313538,0.026337623596191406,0.084655344,-0.1726615,9.777342,0.0021888968,-0.016260028,9.77922,0
16,988.5507202148438,8.603999740444124E-4,3.092849219683558E-4,-5.80690975766629E-4,-7.482934474945068,24.226850509643555,-38.887821197509766,0.004879578948020935,-0.00927877426147461,0.050014495849609375,0.075104654,-0.15836208,9.763139,-0.0023234915,-3.2241642E-4,9.764711,0
16,988.5430908203125,4.608405870385468E-4,-4.89648780785501E-4,-5.807277630083263E-4,-7.234233379364014,24.195959091186523,-38.3084602355957,0.010033853352069855,0.0050013065338134766,0.03580760955810547,0.075113535,-0.15836222,9.77971,-0.0027235523,7.323921E-5,9.7812805,0
16,988.5580444335938,-2.050345647148788E-4,-8.891087491065264E-4,-1.81290612090379E-4,-7.591308116912842,23.861791610717773,-38.54181671142578,7.758066058158875E-4,2.4884939193725586E-6,0.050004005432128906,0.08468199,-0.16551225,9.753672,0.00411682,-0.009710163,9.755437,0
16,988.5585327148438,-0.0010040677152574062,-4.896210157312453E-4,-4.816934233531356E-5,-7.994309425354004,24.06354331970215,-37.95263671875,-0.003749348223209381,0.009461790323257446,0.049999237060546875,0.08469093,-0.16074593,9.774978,0.005197147,-0.004704684,9.776664,0
16,988.54052734375,4.605838912539184E-4,-3.564491344150156E-4,-3.145218943245709E-4,-7.814548492431641,23.5999698638916,-38.33812713623047,-0.003962866961956024,0.004851281642913818,0.031064987182617188,0.079919934,-0.15597962,9.774979,0.0022973754,0.0010998249,9.776549,0
16,988.5558471679688,4.604983259923756E-4,0.0011083021527156234,4.843890783376992E-4,-7.908084869384766,24.14414405822754,-37.73968505859375,5.772337317466736E-4,7.955729961395264E-5,0.040535926818847656,0.07753894,-0.15597983,9.779713,2.3641996E-4,0.0018575937,9.781263,0
16,988.5609130859375,-3.3853488275781274E-4,-3.564213984645903E-4,-1.8143747001886368E-4,-7.876696586608887,23.331106185913086,-38.38980484008789,0.010182321071624756,0.009406015276908875,0.04999828338623047,0.070378125,-0.16551317,9.763144,-0.009500388,-0.005006328,9.764795,0
16,988.5533447265625,-3.3862056443467736E-4,-3.5640751593746245E-4,2.179998264182359E-4,-7.0395283699035645,23.5352840423584,-38.06885528564453,-0.008683636784553528,-0.009994566440582275,0.04998970031738281,0.08472639,-0.15359701,9.753675,0.007684484,0.002267301,9.755252,0
16,988.5685424804688,-0.001004495657980442,-9.007772314362228E-5,-4.835269646719098E-5,-7.688867568969727,24.03325080871582,-37.613006591796875,-0.0039091333746910095,0.004153192043304443,0.04051971435546875,0.08234537,-0.160747,9.7678795,0.0033092536,-0.0035876334,9.769547,0
16,988.5608520507812,-7.382655167020857E-4,7.088837446644902E-4,2.1792645566165447E-4,-7.524731636047363,24.02915382385254,-38.02298355102539,-0.004279389977455139,-0.010200083255767822,0.049988746643066406,0.0799644,-0.14168103,9.758411,0.0070630647,0.015127584,9.759755,0
16,988.5478515625,-7.25613790564239E-5,5.757397739216685E-4,2.1788981393910944E-4,-7.739383220672607,24.144468307495117,-38.38157272338867,0.005028232932090759,-0.005275651812553406,0.05946159362792969,0.06563386,-0.1559809,9.76078,-0.010629145,0.0055824667,9.76224,0
16,988.5606079101562,4.5998493442311883E-4,1.7627989291213453E-4,2.1785317221656442E-4,-7.938111305236816,24.432435989379883,-38.29081726074219,0.009912855923175812,-4.856586456298828E-4,0.054726600646972656,0.065642685,-0.1535979,9.751311,-0.009960171,0.0077358186,9.752733,0
16,988.5507202148438,7.262151339091361E-4,3.0945168691687286E-4,-1.8165743676945567E-4,-8.177818298339844,24.366247177124023,-38.63492965698242,-0.004902936518192291,-0.004660367965698242,0.040535926818847656,0.07999104,-0.15836467,9.758413,0.002474958,-0.0017822534,9.760026,0
16,988.5528564453125,8.592875092290342E-4,7.089393911883235E-4,-4.85360505990684E-5,-7.702725887298584,23.493772506713867,-38.04121398925781,-0.004752300679683685,0.009512931108474731,0.026328086853027344,0.07522008,-0.1535983,9.77972,-7.754378E-4,0.0047822893,9.781215,0
16,988.540283203125,-6.055354024283588E-4,-6.226261612027884E-4,-9.806782472878695E-4,-7.71987247467041,23.951780319213867,-37.98838806152344,-0.009706951677799225,-9.803473949432373E-5,0.021592140197753906,0.08956835,-0.16313158,9.784454,0.010222094,-0.008487612,9.786216,0
17,988.5580444335938,6.016873521730304E-5,4.4265130418352783E-4,-3.149252734147012E-4,-7.733976364135742,24.41273307800293,-38.09016799926758,-0.009293854236602783,-1.0500848293304443E-4,0.049994468688964844,0.08718732,-0.15598197,9.763151,0.009739755,-0.001204431,9.76478,0
17,988.5656127929688,3.2639881828799844E-4,-7.557562785223126E-4,2.1766970166936517E-4,-7.627560138702393,24.038267135620117,-38.08465576171875,6.890669465065002E-4,0.0048920512199401855,0.059464454650878906,0.08719623,-0.15359898,9.753683,0.01000879,7.864833E-4,9.755277,0
17,988.5656127929688,4.594714264385402E-4,-0.0012883740710094571,-3.149986732751131E-4,-7.570276260375977,23.670576095581055,-38.22593688964844,0.005614914000034332,-0.00947137176990509,0.04525566101074219,0.072865665,-0.14883266,9.767887,-0.002494149,0.009972855,9.769288,0
17,988.5526733398438,-1.9100832287222147E-4,1.1370165157131851E-4,-5.658371956087649E-4,-7.510192394256592,24.306257247924805,-38.19540786743164,6.60628080368042E-4,-0.023807331919670105,0.03578758239746094,0.07526448,-0.13929977,9.767889,0.002960883,0.018347278,9.769155,0
17,988.5526733398438,-1.9100832287222147E-4,1.1370165157131851E-4,-5.658371956087649E-4,-7.890363693237305,24.53011131286621,-38.76579666137695,0.005516752600669861,0.004846170544624329,0.0310516357421875,0.06810364,-0.15598296,9.765522,-0.008985307,0.004569784,9.767,0
17,988.5578002929688,-4.5741000212728977E-4,-1.944229006767273E-5,-3.324227873235941E-5,-7.936589241027832,24.433908462524414,-38.36812210083008,0.00493205338716507,-0.00472615659236908,0.05472850799560547,0.07050246,-0.15121652,9.772624,-0.004753992,0.008338913,9.774043,0
17,988.580810546875,-3.243375103920698E-4,1.1372941662557423E-4,-4.3275271309539676E-4,-7.693295478820801,24.134748458862305,-38.080169677734375,0.01919131726026535,-1.1660158634185791E-4,0.04999065399169922,0.06334162,-0.16551639,9.763156,-0.01577217,-0.002990678,9.764751,0
17,988.55029296875,2.082086866721511E-4,0.0013121648225933313,-2.996314433403313E-4,-7.791994094848633,23.41023063659668,-38.099552154541016,3.61613929271698E-4,0.004249557852745056,0.03579425811767578,0.082310796,-0.16074623,9.772611,0.003808489,-0.003686726,9.774278,0
17,988.5707397460938,-9.902984602376819E-4,-4.188744933344424E-4,-3.3352349419146776E-5,-7.2245588302612305,23.83650779724121,-38.6738395690918,-0.014322899281978607,-0.005025789141654968,0.031064987182617188,0.0942629,-0.15359639,9.774979,0.017552828,-5.0641596E-4,9.776623,0
17,988.55029296875,7.583177648484707E-5,-1.526993582956493E-4,-5.656126304529607E-4,-7.491631031036377,24.95606803894043,-38.69819641113281,0.004578426480293274,0.00474819540977478,0.021602630615234375,0.067976505,-0.16074635,9.784447,-0.00957158,1.4531612E-4,9.785997,0
17,988.54833984375,7.63674033805728E-5,0.0010456350864842534,-2.99067294690758E-4,-7.636012077331543,23.767061233520508,-38.22145080566406,0.009349480271339417,0.00946114957332611,0.040538787841796875,0.06558913,-0.17027946,9.767877,-0.014593761,-0.008581236,9.769567,0
17,988.5733032226562,7.421324262395501E-4,5.130073986947536E-4,3.667120181489736E-4,-7.631147384643555,24.40361213684082,-38.02849578857422,0.009761959314346313,-0.005210459232330322,0.04526329040527344,0.0679816,-0.16789629,9.763144,-0.0119742155,-0.0064413995,9.764814,0
17,988.5584106445312,-4.5631336979568005E-4,-9.517259895801544E-4,-1.659303088672459E-4,-7.874876976013184,23.9647159576416,-38.04224395751953,4.988908767700195E-4,0.004112616181373596,0.021585464477539062,0.07515377,-0.15836318,9.770245,-0.0024336837,8.7063015E-4,9.771818,0
17,988.5656127929688,-5.688855890184641E-5,-4.1908625280484557E-4,-2.9910908779129386E-4,-7.706175327301025,23.965036392211914,-38.68412780761719,0.010080195963382721,0.004000023007392883,0.04998970031738281,0.07276645,-0.16074659,9.763144,-0.005490398,-7.2336197E-4,9.764737,0
17,988.5656127929688,-5.688855890184641E-5,-4.1908625280484557E-4,-2.9910908779129386E-4,-7.706175327301025,23.965036392211914,-38.68412780761719,0.005500435829162598,-0.014692708849906921,0.049994468688964844,0.07754877,-0.15359677,9.753675,0.00111093,0.0041359514,9.755192,0
17,988.5757446289062,8.751681307330728E-4,-6.853941595181823E-4,-3.281421959400177E-5,-7.496089935302734,23.845312118530273,-38.093624114990234,-0.00434374064207077,-2.1786987781524658E-4,0.026328086853027344,0.077551305,-0.16074671,9.784449,-9.89072E-4,-0.0023657829,9.786076,0
17,988.52783203125,3.425120376050472E-4,0.001311978790909052,1.0033324360847473E-4,-7.504540920257568,23.574098587036133,-38.23042297363281,-0.009425528347492218,-1.5215575695037842E-4,0.05947113037109375,0.082333684,-0.15836348,9.7702465,0.0045826323,-0.0019241571,9.771875,0
17,988.5681762695312,7.419614121317863E-4,9.125090437009931E-4,1.0032276622951031E-4,-7.390216827392578,23.839139938354492,-38.186561584472656,0.018915876746177673,-0.014025211334228516,0.04527568817138672,0.063216984,-0.1464472,9.7678795,-0.010042084,0.014773205,9.769165,0
