Timestamp,P,Gx,Gy,Gz,Mx,My,Mz,LiAx,LiAy,LiAz,Ax,Ay,Az,Value,Type
0,990.4869384765625,5.403153481893241E-4,-8.03838949650526E-4,-4.0515841101296246E-4,6.825021743774414,20.22832489013672,-13.269796371459961,-0.017462506890296936,0.004915192723274231,0.036281585693359375,0.07590181,-0.16241905,9.763923,0
0,990.2228393554688,0.005970142316073179,0.002142527839168906,-4.6904984628781676E-4,1.7495064735412598,21.534154891967773,-13.410913467407227,0.14626488089561462,-0.24470672011375427,0.011615753173828125,0.078189015,-0.14573357,9.773381,0
0,990.2830200195312,-2.872907789424062E-4,4.113139002583921E-4,1.971642777789384E-4,1.6717326641082764,21.72477149963379,-13.487070083618164,0.15079361200332642,-0.25387129187583923,0.01638317108154297,0.080476165,-0.15288094,9.780474,0
0,990.3158569335938,-1.5314226038753986E-4,8.106269524432719E-4,-4.6820100396871567E-4,1.5273823738098145,21.74802017211914,-14.082056045532227,0.1455078274011612,-0.24372968077659607,0.03063488006591797,0.08754307,-0.15287837,9.770995,0
0,990.3158569335938,-1.5314226038753986E-4,8.106269524432719E-4,-4.6820100396871567E-4,1.6190147399902344,22.096881866455078,-13.577699661254883,0.1497364193201065,-0.2574407458305359,0.021213531494140625,0.07788074,-0.13619289,9.775721,0
0,990.305908203125,5.136375548318028E-4,8.10466124676168E-4,6.48552377242595E-5,1.5333328247070312,21.647994995117188,-13.692201614379883,0.1633853167295456,-0.24725186824798584,0.02126789093017578,0.0658285,-0.1433402,9.780446,0
0,990.3284301757812,9.141020709648728E-4,0.0014760950580239296,-6.005100440233946E-4,1.4024052619934082,21.472667694091797,-13.584787368774414,0.1533374786376953,-0.24178341031074524,0.0355224609375,0.075285345,-0.15048757,9.7709675,0
0,990.3182983398438,-1.501713413745165E-4,5.43828762602061E-4,3.3201996120624244E-4,1.187211036682129,21.956266403198242,-14.041826248168945,0.1478857696056366,-0.25546616315841675,0.016638755798339844,0.08235234,-0.14333513,9.77806,0
0,990.3084106445312,7.829243550077081E-4,8.099838742054999E-4,-4.665033193305135E-4,1.504148244857788,22.200130462646484,-13.720010757446289,0.14758336544036865,-0.2358018159866333,0.040352821350097656,0.0870294,-0.1504825,9.770948,0
0,990.3283081054688,-2.8134870808571577E-4,0.0010761389276012778,-7.323947502300143E-4,1.7580955028533936,21.911285400390625,-13.973196029663086,0.1516450196504593,-0.2348712980747223,0.030950546264648438,0.07497713,-0.15286323,9.766204,0
0,990.3256225585938,9.180631022900343E-4,0.0010759782744571567,-3.3249653642997146E-4,1.211287498474121,21.76799774169922,-13.880548477172852,0.1602860540151596,-0.22955486178398132,0.02627086639404297,0.06531477,-0.15762731,9.763827,0
0,990.315673828125,6.527372170239687E-4,9.426595643162727E-4,-3.3207214437425137E-4,1.3476219177246094,22.21159553527832,-13.696565628051758,0.1318214237689972,-0.23873817920684814,0.021556854248046875,0.07955146,-0.15047494,9.773288,0
0,990.3206787109375,3.874117974191904E-4,5.43024914804846E-4,-4.648056928999722E-4,1.3066434860229492,21.857437133789062,-14.131429672241211,0.13647957146167755,-0.257161945104599,0.02633190155029297,0.08488941,-0.14095548,9.770971,0
0,990.3460083007812,-5.437034415081143E-4,-3.892413224093616E-4,-1.9806541968137026E-4,1.8052687644958496,21.164993286132812,-13.474885940551758,0.14944018423557281,-0.2659614086151123,0.040452003479003906,0.08787745,-0.13382033,9.761558,0
0,990.3457641601562,6.411645445041358E-4,1.4322868082672358E-5,4.6748548629693687E-4,1.764183521270752,21.917179107666016,-14.282415390014648,0.12519612908363342,-0.23207387328147888,0.021549224853515625,0.09021789,-0.15765193,9.768655,0
0,990.3204345703125,2.421675599180162E-4,1.474034652346745E-4,-6.494190893135965E-5,1.4335482120513916,21.660057067871094,-13.908487319946289,0.15327110886573792,-0.2405012845993042,0.021615028381347656,0.07821888,-0.15288416,9.766283,0
0,990.3080444335938,3.7580233765766025E-4,4.136419156566262E-4,-5.973692750558257E-4,1.1780786514282227,21.94742774963379,-13.577993392944336,0.14837069809436798,-0.23557424545288086,-0.0020437240600585938,0.078169435,-0.152883,9.78995,0
0,990.3076782226562,2.4312123423442245E-4,9.461963782086968E-4,-3.3084905589930713E-4,2.124408006668091,21.14795684814453,-13.831010818481445,0.15222331881523132,-0.2348773181438446,0.026416778564453125,0.07811993,-0.15526494,9.77811,0
0,990.3506469726562,-4.2219163151457906E-4,2.803291426971555E-4,-3.3064474700950086E-4,1.670210838317871,21.723299026489258,-13.409761428833008,0.137557253241539,-0.22497734427452087,0.021709442138671875,0.08285028,-0.15764704,9.778106,0
0,990.3355102539062,-2.88556853774935E-4,5.465676658786833E-4,-6.412455695681274E-5,1.2866969108581543,21.312068939208984,-14.25041389465332,0.14698049426078796,-0.2483525276184082,0.026472091674804688,0.0804109,-0.13619635,9.775733,0
0,990.3002319335938,-4.212379571981728E-4,-2.5245739379897714E-4,-3.302360128145665E-4,0.759995698928833,22.240373611450195,-12.914834976196289,0.14207012951374054,-0.22406363487243652,0.031232833862304688,0.08275133,-0.1552614,9.770994,0
0,990.3153686523438,6.445024046115577E-4,4.132548638153821E-4,6.944211781956255E-5,1.0611472129821777,22.41749382019043,-13.741449356079102,0.12230286002159119,-0.2230950891971588,0.026556015014648438,0.09226146,-0.16717657,9.778091,0
0,990.3078002929688,5.118213011883199E-4,4.1317747673019767E-4,2.0280436729080975E-4,1.6207809448242188,21.097929000854492,-13.981424331665039,0.1408623605966568,-0.24140098690986633,0.021869659423828125,0.07309282,-0.15525892,9.770986,0
0,990.3050537109375,1.1282431660220027E-4,4.1310006054118276E-4,3.361667040735483E-4,1.6890175342559814,21.372684478759766,-14.238973617553711,0.15491823852062225,-0.24554920196533203,0.03137493133544922,0.07304329,-0.14334133,9.775716,0
0,990.3304443359375,-1.5301472740247846E-4,1.4670677774120122E-4,-3.294186608400196E-4,1.6241235733032227,21.73301124572754,-13.71116828918457,0.1496044397354126,-0.2260221540927887,0.04088020324707031,0.084943354,-0.15525654,9.770976,0
1,990.345458984375,3.8009387208148837E-4,4.1294528637081385E-4,3.3657540916465223E-4,1.3863444328308105,21.194087982177734,-13.335054397583008,0.13916964828968048,-0.23492664098739624,0.007788658142089844,0.07772416,-0.1385723,9.782807,0
1,990.2899169921875,-1.890311250463128E-5,0.0012118155136704445,-6.269404548220336E-5,1.6081995964050293,21.560352325439453,-14.160516738891602,0.13397625088691711,-0.2390708327293396,0.026765823364257812,0.080064595,-0.14333764,9.763865,0
1,990.3353881835938,2.478896058164537E-4,-2.529992489144206E-4,-3.2880561775527894E-4,1.41292142868042,21.377059936523438,-13.426836013793945,0.13382284343242645,-0.23825159668922424,0.02207183837890625,0.08479494,-0.14095318,9.780432,0
1,990.3051147460938,3.8152438355609775E-4,2.795550972223282E-4,3.371884813532233E-4,1.3849596977233887,21.298532485961914,-13.956827163696289,0.13819169998168945,-0.22800445556640625,0.03158378601074219,0.07757577,-0.15763494,9.77806,0
1,990.3250732421875,5.151591612957418E-4,8.12109443359077E-4,-3.283968835603446E-4,1.232020378112793,20.944652557373047,-13.989538192749023,0.14222179353237152,-0.21785014867782593,0.031630516052246094,0.072746515,-0.14810064,9.770953,0
1,990.30224609375,1.1616217670962214E-4,1.4624233881477267E-4,-8.608242496848106E-4,1.4817006587982178,21.283525466918945,-13.585931777954102,0.13239778578281403,-0.22168037295341492,0.03641223907470703,0.08703643,-0.15524921,9.768582,0
1,990.3223876953125,2.4979683803394437E-4,1.4616496628150344E-4,-1.948302669916302E-4,1.3527312278747559,21.84772300720215,-13.830026626586914,0.1271670162677765,-0.23071187734603882,0.03171348571777344,0.08220717,-0.14809817,9.76621,0
1,990.3298950195312,-1.4920037938281894E-4,0.001211351016536355,-1.94625899894163E-4,1.4880867004394531,21.921554565429688,-13.470285415649414,0.13580766320228577,-0.2252333164215088,0.03176689147949219,0.08215767,-0.15286353,9.768573,0
1,990.3399047851562,2.507503959350288E-4,1.2852207873947918E-5,2.050522598437965E-4,1.0526959896087646,22.146282196044922,-13.87824821472168,0.14031310379505157,-0.2387486696243286,0.02707386016845703,0.08210823,-0.14809582,9.785139,0
1,990.3248901367188,6.507010548375547E-4,6.785644800402224E-4,-6.105928332544863E-5,1.3132739067077637,21.495037078857422,-14.342195510864258,0.1397859752178192,-0.2234700620174408,0.017661094665527344,0.084448636,-0.15047777,9.775664,0
1,990.3070678710938,3.8486142875626683E-4,5.453291814774275E-4,-5.934867076575756E-4,1.4952607154846191,21.19086456298828,-13.582601547241211,0.11051957309246063,-0.22311094403266907,0.036629676818847656,0.08917901,-0.14809331,9.766192,0
1,990.3070678710938,3.8486142875626683E-4,5.453291814774275E-4,-5.934867076575756E-4,1.200770378112793,21.863605499267578,-14.038492202758789,0.1338060349225998,-0.24147149920463562,0.03194141387939453,0.079569936,-0.14570883,9.775656,0
1,990.3500366210938,-2.80451204162091E-4,9.447255870327353E-4,4.71981184091419E-4,1.2314777374267578,21.312942504882812,-14.087987899780273,0.12364183366298676,-0.22184959053993225,0.03199195861816406,0.08420572,-0.15523842,9.770909,0
1,990.3497314453125,3.8397981552407146E-4,0.001346455654129386,7.792329415678978E-5,1.0322070121765137,21.96920394897461,-14.095682144165039,0.1227998286485672,-0.22536367177963257,0.01313018798828125,0.08176255,-0.15047053,9.770904,0
1,990.3069458007812,5.180964362807572E-4,6.805103039368987E-4,4.7780797467567027E-4,0.8370654582977295,21.891828536987305,-14.06108283996582,0.1319984495639801,-0.22923925518989563,0.013177871704101562,0.07931939,-0.15046921,9.780368,0
1,990.3069458007812,5.180964362807572E-4,6.805103039368987E-4,4.7780797467567027E-4,0.8370654582977295,21.891828536987305,-14.06108283996582,0.12235638499259949,-0.21954044699668884,0.008454322814941406,0.07687622,-0.15523449,9.789832,0
1,990.3121337890625,-6.265707779675722E-4,3.670607111416757E-5,1.6546124243177474E-4,1.59822678565979,21.28766632080078,-14.220010757446289,0.12652672827243805,-0.21852430701255798,0.03692054748535156,0.08399266,-0.15761647,9.77089,0
1,990.3121337890625,-6.265707779675722E-4,3.670607111416757E-5,1.6546124243177474E-4,1.59822678565979,21.28766632080078,-14.220010757446289,0.13577698171138763,-0.2182975709438324,0.01800251007080078,0.07676971,-0.1528486,9.785088,0
1,990.3092651367188,4.3920616735704243E-4,3.66227759514004E-5,1.6568118007853627E-4,1.5330348014831543,21.015857696533203,-14.117074966430664,0.13100923597812653,-0.22234603762626648,0.04170703887939453,0.083886206,-0.15046403,9.761411,0
1,990.3370971679688,4.075901233591139E-5,-0.0010288073681294918,4.3243711115792394E-4,1.1030504703521729,21.50885009765625,-14.23362922668457,0.1255815476179123,-0.21683737635612488,0.046492576599121094,0.079053104,-0.15046272,9.763774,0
1,990.3370971679688,4.075901233591139E-5,-0.0010288073681294918,4.3243711115792394E-4,1.1030504703521729,21.50885009765625,-14.23362922668457,0.12045218050479889,-0.20693153142929077,0.03704833984375,0.07899985,-0.15761122,9.770869,0
1,990.31201171875,5.744172958657146E-4,5.689211538992822E-4,1.6656119260005653E-4,1.0467453002929688,22.246307373046875,-14.268106460571289,0.1293332725763321,-0.2057865858078003,0.027645111083984375,0.0813365,-0.1599932,9.773232,0
1,990.31201171875,5.744172958657146E-4,5.689211538992822E-4,1.6656119260005653E-4,1.0467453002929688,22.246307373046875,-14.268106460571289,0.1337929219007492,-0.21519392728805542,0.018192291259765625,0.08367312,-0.15284207,9.785063,0
1,990.3065795898438,-6.229773862287402E-4,3.612274304032326E-5,3.3843243727460504E-5,1.5405371189117432,22.129566192626953,-14.876253128051758,0.1336042582988739,-0.20494389533996582,0.008759498596191406,0.07884008,-0.15760735,9.782691,0
2,990.3065795898438,4.3325620936229825E-5,-2.302765060449019E-4,4.335370904300362E-4,1.8591041564941406,21.2685604095459,-14.259088516235352,0.1141238808631897,-0.21842870116233826,0.03721332550048828,0.09073633,-0.15283945,9.761382,0
2,990.3041381835938,-2.224771014880389E-4,-9.720190428197384E-5,-4.983484977856278E-4,1.7342638969421387,21.099124908447266,-14.46088981628418,0.1280457228422165,-0.2038525640964508,0.037235260009765625,0.07395375,-0.15045488,9.773213,0
2,990.3064575195312,-3.5512165050022304E-4,0.00110113644041121,-3.649706777650863E-4,1.183868408203125,21.321184158325195,-14.312089920043945,0.12273840606212616,-0.21267178654670715,0.013607978820800781,0.08346009,-0.1480703,9.782677,0
2,990.2888793945312,5.774972960352898E-4,1.6894738655537367E-4,-9.843474254012108E-5,1.4140379428863525,21.852739334106445,-14.301675796508789,0.12254829704761505,-0.21656450629234314,0.027853965759277344,0.09057653,-0.14330241,9.770835,0
2,990.2762451171875,-3.540949837770313E-4,-6.300836103037E-4,-6.308464799076319E-4,1.3586809635162354,21.747699737548828,-13.44017219543457,0.12704722583293915,-0.22080901265144348,0.03261852264404297,0.0809637,-0.14806768,9.768464,0
2,990.3187866210938,3.122079942841083E-4,-3.638510825112462E-4,3.014790709130466E-4,1.3687915802001953,22.126300811767578,-14.079751968383789,0.11703896522521973,-0.20524999499320984,0.023215293884277344,0.08330035,-0.15283296,9.773193,0
2,990.2987670898438,3.1272138585336506E-4,1.686973264440894E-4,-2.3093269555829465E-4,1.4752068519592285,21.751840591430664,-14.074243545532227,0.11694830656051636,-0.19078972935676575,0.009022712707519531,0.08563697,-0.16236475,9.78029,0
2,990.3012084960938,-6.188709521666169E-4,-2.3085980501491576E-4,3.5603210562840104E-5,1.3698782920837402,21.38971710205078,-13.882852554321289,0.11183387041091919,-0.2095211148262024,0.03745460510253906,0.09036353,-0.15521362,9.766082,0
2,990.27587890625,-7.515156175941229E-4,8.343203808180988E-4,-7.63124437071383E-4,1.6673047542572021,21.82626724243164,-13.954233169555664,0.11590917408466339,-0.21347114443778992,0.02803802490234375,0.08792034,-0.15997887,9.775546,0
2,990.293701171875,4.7945446567609906E-5,4.347632057033479E-4,-3.6343061947263777E-4,1.559068202972412,21.567119598388672,-14.307310104370117,0.12982550263404846,-0.19396570324897766,0.018599510192871094,0.08069742,-0.155211,9.77554,0
2,990.3114013671875,-8.836467750370502E-4,-6.305836723186076E-4,-2.3005265393294394E-4,1.3768072128295898,21.65945816040039,-13.668752670288086,0.13444706797599792,-0.21271637082099915,0.013885498046875,0.07347444,-0.14805984,9.782638,0
2,990.3160400390625,-8.418571087531745E-5,7.009124965406954E-4,-6.293064216151834E-4,1.5369195938110352,21.282649993896484,-13.748361587524414,0.12450842559337616,-0.19781681895256042,0.023389816284179688,0.07581106,-0.15044183,9.773164,0
2,990.3010864257812,4.489592101890594E-4,-0.0012965400237590075,5.69335010368377E-4,1.6913809776306152,21.638002395629883,-13.79295539855957,0.11966925859451294,-0.20639607310295105,0.028166770935058594,0.08053726,-0.1575903,9.766058,0
2,990.2959594726562,-4.826328658964485E-4,4.344299086369574E-4,-6.288664881139994E-4,1.605454683303833,22.189542770385742,-13.581037521362305,0.13330385088920593,-0.19146716594696045,0.03294658660888672,0.07331395,-0.16712213,9.784989,0
2,990.2933349609375,4.33648528996855E-5,8.358677150681615E-4,-8.40648717712611E-5,1.4599874019622803,21.737110137939453,-13.301191329956055,0.11344024538993835,-0.21464627981185913,0.01878833770751953,0.08760008,-0.14805457,9.775516,0
2,990.3035888671875,1.770365342963487E-4,5.694684805348516E-4,4.931323928758502E-5,1.3541150093078613,21.7432804107666,-13.208253860473633,0.1275099217891693,-0.20434162020683289,0.04249858856201172,0.077987194,-0.14567,9.770777,0
2,990.2833251953125,3.107078664470464E-4,1.6991127631627023E-4,-8.362461812794209E-5,1.3672699928283691,22.124826431274414,-14.002450942993164,0.11742466688156128,-0.18926718831062317,0.03307533264160156,0.07315409,-0.15996838,9.768405,0
2,990.2830200195312,3.112217236775905E-4,-7.622776320204139E-4,3.1606931588612497E-4,1.0657129287719727,22.421913146972656,-13.973363876342773,0.12693272531032562,-0.19322305917739868,0.014173507690429688,0.07549071,-0.1575838,9.780236,0
2,990.2830200195312,3.112217236775905E-4,-7.622776320204139E-4,3.1606931588612497E-4,1.6221961975097656,22.205745697021484,-14.431390762329102,0.11666634678840637,-0.18808096647262573,0.037878990173339844,0.08260712,-0.1647323,9.773129,0
2,990.2782592773438,-2.2089664707891643E-4,5.692184204235673E-4,5.82605367526412E-4,1.3458008766174316,21.577987670898438,-14.044130325317383,0.1352761834859848,-0.2015106976032257,0.03792762756347656,0.070604324,-0.14566478,9.766023,0
2,990.2781982421875,-4.86698787426576E-4,3.6503246519714594E-5,-8.296428131870925E-5,1.046309471130371,21.50825309753418,-13.993898391723633,0.106186643242836,-0.1962071657180786,0.009554862976074219,0.08250058,-0.15043002,9.784957,0
2,990.2930908203125,4.6446482883766294E-5,8.353674784302711E-4,5.0413800636306405E-5,1.509256362915039,21.836261749267578,-13.853475570678711,0.10113875567913055,-0.21001240611076355,0.03325653076171875,0.077667475,-0.15519527,9.770747,0
2,990.2855224609375,-3.525135980453342E-4,-4.962952225469053E-4,5.0633883802220225E-5,1.3361268043518066,21.937437057495117,-13.678750991821289,0.12450933456420898,-0.21869182586669922,0.033303260803222656,0.07522431,-0.15042743,9.775477,0
2,990.27783203125,-3.5200032289139926E-4,4.3572692084126174E-4,-8.230394450947642E-5,1.1635398864746094,21.670324325561523,-13.405572891235352,0.11457416415214539,-0.20404088497161865,0.023860931396484375,0.084730625,-0.14804283,9.777841,0
2,990.2930908203125,-4.846444062422961E-4,3.616968751884997E-5,-6.147155654616654E-4,1.4093341827392578,21.74240493774414,-13.370683670043945,0.12432599067687988,-0.18891066312789917,0.033362388610839844,0.077507615,-0.15519139,9.768366,0
3,990.3104858398438,1.8217242904938757E-4,-0.001162418513558805,7.173040066845715E-4,1.5197725296020508,21.74065399169922,-13.695535659790039,0.10023099184036255,-0.20696130394935608,0.02867603302001953,0.091793776,-0.1504235,9.782565,0
3,990.3104858398438,1.8217242904938757E-4,-0.001162418513558805,7.173040066845715E-4,1.5197725296020508,21.74065399169922,-13.695535659790039,0.10009855031967163,-0.20646575093269348,0.042903900146484375,0.07979095,-0.14565566,9.758887,0
3,990.29052734375,-8.362994412891567E-5,-4.967121640220284E-4,3.1805032631382346E-4,1.288219928741455,21.31353759765625,-14.327722549438477,0.1189081072807312,-0.19152715802192688,0.028734207153320312,0.077347785,-0.1623373,9.765985,0
3,990.2828369140625,3.1635750201530755E-4,1.6899415641091764E-4,-7.469930569641292E-4,1.2409083843231201,21.95391845703125,-14.126947402954102,0.13781127333641052,-0.18605941534042358,0.038238525390625,0.06534499,-0.16471925,9.768347,0
3,990.275146484375,8.50016251206398E-4,-3.638043417595327E-4,-7.465528906323016E-4,1.2212600708007812,22.040687561035156,-13.82105827331543,0.10814334452152252,-0.20363226532936096,0.024117469787597656,0.07963109,-0.14565167,9.770709,0
3,990.3080444335938,5.537960678339005E-4,9.704447584226727E-4,-2.839273074641824E-4,1.6021122932434082,21.554460525512695,-13.851297378540039,0.13149893283843994,-0.19342559576034546,0.03362751007080078,0.0700182,-0.1528002,9.775437,0
3,990.3003540039062,-1.1148033081553876E-4,3.0457170214504004E-4,6.483983597718179E-4,1.388439655303955,22.039531707763672,-14.385644912719727,0.1265271157026291,-0.17870739102363586,0.033649444580078125,0.07235485,-0.16471532,9.7706995,0
3,990.2928466796875,4.2166540515609086E-4,-8.939331746660173E-4,-1.717123086564243E-5,1.7662477493286133,21.55036163330078,-14.261270523071289,0.11230604350566864,-0.20623445510864258,0.024224281311035156,0.07947123,-0.14803103,9.777797,0
3,990.2801513671875,-2.4361113901250064E-4,-8.940165280364454E-4,1.1620679288171232E-4,1.396592617034912,21.678606033325195,-14.673715591430664,0.1312164068222046,-0.19619616866111755,0.033718109130859375,0.07463816,-0.150413,9.765955,0
3,990.2998657226562,2.3218715796247125E-5,-2.283101639477536E-4,2.49584874836728E-4,1.0971002578735352,21.60887336730957,-14.623483657836914,0.14485284686088562,-0.1908518373966217,0.019556045532226562,0.06502527,-0.1480284,9.775418,0
3,990.2900390625,-2.4258389021269977E-4,0.0011031859321519732,-1.6510894056409597E-5,1.3830318450927734,21.77126693725586,-14.67704963684082,0.129730686545372,-0.1993863582611084,0.038550376892089844,0.07692146,-0.15041038,9.763579,0
3,990.297607421875,-1.0891209240071476E-4,3.041548188775778E-4,-1.494487514719367E-4,1.316455364227295,21.60390281677246,-15.195886611938477,0.12454457581043243,-0.17529147863388062,0.005431175231933594,0.067308605,-0.1623255,9.789613,0
3,990.2901000976562,1.5791718033142388E-4,4.372294060885906E-4,-4.155444912612438E-4,1.4965152740478516,21.7724609375,-15.156515121459961,0.11912648379802704,-0.21238118410110474,0.029158592224121094,0.07684681,-0.13610888,9.763571,0
3,990.2874755859375,1.5820263070054352E-4,3.0402501579374075E-4,-1.491063740104437E-4,1.4352078437805176,21.76744270324707,-14.68486213684082,0.11387807130813599,-0.19260895252227783,0.04812908172607422,0.079217255,-0.1456416,9.763569,0
3,990.2850341796875,2.109739580191672E-5,4.3844987521879375E-4,9.252538438886404E-4,1.3509104251861572,21.214111328125,-14.177591323852539,0.12296313047409058,-0.18703821301460266,0.04343700408935547,0.0696069,-0.15040687,9.773033,0
3,990.272216796875,4.210601618979126E-4,5.715283332392573E-4,1.2651571887545288E-4,0.9133167266845703,21.69974136352539,-13.907625198364258,0.12692995369434357,-0.18142840266227722,0.03875160217285156,0.071946084,-0.15278894,9.768294,0
3,990.2847900390625,6.878649583086371E-4,3.051331441383809E-4,-6.722224643453956E-4,1.0021800994873047,22.25749397277832,-14.646814346313477,0.10281965136528015,-0.18047675490379333,0.029326438903808594,0.08384484,-0.15755418,9.770658,0
3,990.2973022460938,4.220381670165807E-4,-6.27051864285022E-4,3.932507534045726E-4,1.3333277702331543,20.934064865112305,-13.850557327270508,0.11208023130893707,-0.19382360577583313,0.02937030792236328,0.08140421,-0.14325333,9.768285,0
3,990.2745971679688,2.893691707868129E-4,-9.449943900108337E-5,1.2714441982097924E-4,1.3917288780212402,21.04205322265625,-14.866670608520508,0.12590241432189941,-0.1881323754787445,0.053089141845703125,0.06462419,-0.15040186,9.76118,0
3,990.2822875976562,4.230162885505706E-4,7.043688092380762E-4,-5.384357064031065E-4,1.173351764678955,21.41678810119629,-14.470029830932617,0.1256064772605896,-0.1872817873954773,0.02472400665283203,0.057403713,-0.1480174,9.777745,0
3,990.2870483398438,2.4031411157920957E-5,-2.278161991853267E-4,3.9387945435009897E-4,1.678065538406372,20.730236053466797,-14.122709274291992,0.1157388836145401,-0.16765987873077393,0.03895759582519531,0.07169241,-0.15754923,9.76117,0
3,990.2821655273438,-2.4179552565328777E-4,-4.942114464938641E-4,6.604049121960998E-4,1.3734650611877441,21.024375915527344,-13.93901252746582,0.09637689590454102,-0.19068220257759094,0.015322685241699219,0.08359116,-0.1503982,9.768267,0
3,990.2694091796875,2.9181435820646584E-4,3.8261525332927704E-5,-4.0443940088152885E-4,1.5380363464355469,21.75832748413086,-14.623193740844727,0.12446503341197968,-0.17042756080627441,0.015382766723632812,0.06203133,-0.16231328,9.780099,0
3,990.2694091796875,2.9181435820646584E-4,3.8261525332927704E-5,-4.0443940088152885E-4,1.5380363464355469,21.75832748413086,-14.623193740844727,0.11943128705024719,-0.18887069821357727,0.039084434509277344,0.061980575,-0.14801243,9.76589,0
3,990.28955078125,2.923034189734608E-4,4.3765598093159497E-4,3.9471781929023564E-4,1.206017017364502,21.605653762817383,-14.871034622192383,0.1235211044549942,-0.16919726133346558,0.05806159973144531,0.06670964,-0.16707733,9.761151,0
4,990.3096313476562,1.6012359992600977E-4,-7.609241874888539E-4,3.951369726564735E-4,1.2716152667999268,21.403255462646484,-14.176443099975586,0.10899350047111511,-0.1773987114429474,0.043914794921875,0.07382864,-0.15754303,9.770616,0
4,990.3096313476562,1.6012359992600977E-4,-7.609241874888539E-4,3.951369726564735E-4,1.4908323287963867,21.2923641204834,-14.049764633178711,0.11363694071769714,-0.18137329816818237,0.039214134216308594,0.07616776,-0.1527752,9.768244,0
4,990.3096313476562,1.6012359992600977E-4,-7.609241874888539E-4,3.951369726564735E-4,1.4908323287963867,21.2923641204834,-14.049764633178711,0.10411825776100159,-0.16659489274024963,0.02976512908935547,0.090456456,-0.16230711,9.772973,0
4,990.2973022460938,1.606125442776829E-4,-6.278457585722208E-4,-6.69916975311935E-4,0.9405746459960938,21.620338439941406,-14.600034713745117,0.10902024805545807,-0.1654735803604126,0.03927421569824219,0.07845619,-0.15992251,9.772969,0
4,990.2841796875,1.615906658116728E-4,-2.2853068367112428E-4,-2.700239419937134E-4,1.6444520950317383,21.383869171142578,-14.617681503295898,0.09892769157886505,-0.18787768483161926,0.03934001922607422,0.08796507,-0.1408551,9.763495,0
4,990.29443359375,6.947113433852792E-4,-9.545210923533887E-5,-4.029723349958658E-4,1.4186038970947266,21.857158660888672,-14.533590316772461,0.1083185225725174,-0.17273715138435364,0.01570606231689453,0.07357493,-0.1503869,9.780061,0
4,990.29443359375,6.947113433852792E-4,-9.545210923533887E-5,-4.029723349958658E-4,1.4186038970947266,21.857158660888672,-14.533590316772461,0.10819007456302643,-0.16774803400039673,0.025186538696289062,0.07113433,-0.152769,9.780057,0
4,990.3019409179688,2.9572649509646E-4,-6.281632231548429E-4,6.625007372349501E-4,1.6362996101379395,21.744792938232422,-14.329607009887695,0.11273083090782166,-0.1814498007297516,0.03468513488769531,0.07586336,-0.14800116,9.765849,0
4,990.3065795898438,-3.695741470437497E-4,-2.287688257638365E-4,-3.079388989135623E-6,1.2630572319030762,22.238388061523438,-14.685892105102539,0.12180881202220917,-0.17572790384292603,0.03473186492919922,0.07103282,-0.14799997,9.765843,0
4,990.276611328125,-5.022429395467043E-4,-9.569026587996632E-5,-2.691856352612376E-4,1.135577917098999,21.591796875,-13.935556411743164,0.09752994775772095,-0.17011457681655884,0.039505958557128906,0.07815179,-0.16229835,9.768207,0
4,990.304443359375,8.298252942040563E-4,-2.2892758715897799E-4,-2.660235622897744E-6,1.7838306427001953,21.830408096313477,-14.58830451965332,0.10209342837333679,-0.16911646723747253,0.01587677001953125,0.07332125,-0.15038076,9.770569,0
4,990.322021484375,8.303142385557294E-4,-9.58490272751078E-5,-1.356084831058979E-4,1.4493107795715332,21.306495666503906,-14.58308219909668,0.09652456641197205,-0.1829165816307068,0.030117034912109375,0.08760995,-0.15276274,9.76583,0
4,990.2968139648438,3.1855684937909245E-5,5.698612658306956E-4,6.635485915467143E-4,1.4422447681427002,20.93083953857422,-14.098108291625977,0.09138663113117218,-0.1629030406475067,0.015956878662109375,0.085169286,-0.15276155,9.78713,0
4,990.2891845703125,-2.3348219110630453E-4,-9.608718391973525E-5,6.639678031206131E-4,1.4608056545257568,21.58065414428711,-14.600893020629883,0.11962532997131348,-0.17676693201065063,0.034923553466796875,0.07555896,-0.14084384,9.770555,0
4,990.3142700195312,-6.324670976027846E-4,3.6991346860304475E-5,-1.3477029278874397E-4,1.0789742469787598,21.69711685180664,-14.394906997680664,0.09510773420333862,-0.16132771968841553,0.044447898864746094,0.08506781,-0.15514234,9.761082,0
4,990.3218994140625,4.3328540050424635E-4,3.032279491890222E-4,-5.340345669537783E-4,1.4196901321411133,21.12057876586914,-14.336687088012695,0.10422253608703613,-0.17527124285697937,0.03973674774169922,0.063508004,-0.14084134,9.761077,0
4,990.3195190429688,3.430063952691853E-5,7.026222301647067E-4,-1.34351197630167E-4,1.2119674682617188,21.505626678466797,-14.481176376342773,0.08468128740787506,-0.16043874621391296,0.02556324005126953,0.08496636,-0.15275654,9.775275,0
4,990.2891235351562,-2.315262972842902E-4,-3.627206024248153E-4,3.9849014137871563E-4,1.349388599395752,21.21263885498047,-14.100290298461914,0.10365448892116547,-0.16413646936416626,0.030344009399414062,0.07296616,-0.15275526,9.7776375,0
4,990.309326171875,-2.883251872844994E-4,-8.690679678693414E-4,2.0979784312658012E-4,1.3017785549163818,21.220882415771484,-14.32438850402832,0.10812976956367493,-0.17345917224884033,0.039826393127441406,0.0800851,-0.14083764,9.772899,0
4,990.3065795898438,-6.873099482618272E-4,1.9611624884419143E-4,7.684942102059722E-5,1.4412956237792969,21.773338317871094,-14.994089126586914,0.08876208961009979,-0.15362513065338135,0.03986167907714844,0.08481416,-0.1599026,9.761059,0
4,990.3067626953125,2.452845801599324E-4,-3.3659490873105824E-4,-5.609888467006385E-5,1.354933738708496,21.586820602416992,-14.507959365844727,0.11220961809158325,-0.18130874633789062,0.035175323486328125,0.075203836,-0.14321843,9.772889,0
4,990.2786254882812,-2.868581213988364E-4,-2.0351634884718806E-4,7.430583355017006E-4,1.2966704368591309,21.584753036499023,-14.190923690795898,0.10267707705497742,-0.15750724077224731,0.039910316467285156,0.07754299,-0.15513358,9.765783,0
4,990.3064575195312,-5.526850582100451E-4,-3.367536701261997E-4,3.4379400312900543E-4,0.9183187484741211,22.442214965820312,-14.413747787475586,0.07820571959018707,-0.14675813913345337,0.030500411987304688,0.09422159,-0.1622822,9.765779,0
4,990.3140258789062,1.1359358904883265E-4,-7.051719876471907E-5,7.768769864924252E-5,1.042180061340332,22.24188995361328,-14.036188125610352,0.09720019996166229,-0.1560070812702179,0.035247802734375,0.07983142,-0.15274778,9.768142,0
5,990.2989501953125,-1.9075407180935144E-5,-7.05965212546289E-5,7.789727533236146E-5,1.018103837966919,22.430152893066406,-14.197465896606445,0.09669287502765656,-0.16011685132980347,0.02581501007080078,0.0797807,-0.15274659,9.777606,0
5,990.2913208007812,-2.8490222757682204E-4,1.9563999376259744E-4,4.775806737598032E-4,1.3662910461425781,21.755064010620117,-13.826696395874023,0.07726876437664032,-0.15466266870498657,0.044785499572753906,0.08450979,-0.15751186,9.765765,0
5,990.3140869140625,-1.51255342643708E-4,6.240265793167055E-5,-8.53789271786809E-4,1.042180061340332,22.24188804626465,-14.036191940307617,0.09629246592521667,-0.16846075654029846,0.03060626983642578,0.07728934,-0.14559427,9.7728615,0
5,990.2863159179688,-2.8392422245815396E-4,-6.034665275365114E-4,-8.535796077921987E-4,1.36338472366333,21.8580322265625,-14.371164321899414,0.10527192056179047,-0.153298020362854,0.03065013885498047,0.07723862,-0.15750936,9.777591,0
5,990.2863159179688,2.4919648421928287E-4,7.280335994437337E-4,-5.870542954653502E-4,1.3388726711273193,21.308246612548828,-14.258234024047852,0.0808066874742508,-0.16715475916862488,0.04961681365966797,0.09152728,-0.14559177,9.77522,0
5,990.2987670898438,-8.155780960805714E-4,5.947962636128068E-4,-1.873707806225866E-4,1.129084825515747,22.06011199951172,-14.423868179321289,0.10398279130458832,-0.13789433240890503,0.030717849731445312,0.06757754,-0.15750685,9.77048,0
5,990.2910766601562,3.8333231350407004E-4,-6.037045968696475E-4,7.449444383382797E-4,1.1335129737854004,21.958614349365234,-13.956701278686523,0.08487793803215027,-0.15133076906204224,0.04021930694580078,0.08425611,-0.15035585,9.772843,0
5,990.2986450195312,-1.5163503121584654E-5,-3.375475062057376E-4,-3.199000784661621E-4,1.4179232120513916,22.11953353881836,-13.932962417602539,0.09436984360218048,-0.15526551008224487,0.049724578857421875,0.08420539,-0.15750438,9.765737,0
5,990.2986450195312,-1.5163503121584654E-5,-3.375475062057376E-4,-3.199000784661621E-4,1.5650193691253662,21.46709442138672,-13.917451858520508,0.09389004111289978,-0.16855695843696594,0.021364212036132812,0.074595034,-0.14082024,9.779935,0
5,990.2986450195312,-1.5163503121584654E-5,-3.375475062057376E-4,-3.199000784661621E-4,1.5650193691253662,21.46709442138672,-13.917451858520508,0.0983276218175888,-0.1586146056652069,0.02611827850341797,0.07693422,-0.14796877,9.782298,0
5,990.3187255859375,-4.136592033319175E-4,-2.0454834157135338E-4,-1.8632298451848328E-4,1.612222671508789,21.933059692382812,-14.490884780883789,0.09833218157291412,-0.16256174445152283,0.045090675354003906,0.07927337,-0.14320102,9.760989,0
5,990.285888671875,-1.4685437781736255E-4,-8.704174542799592E-4,7.459921762347221E-4,1.6498589515686035,21.65213394165039,-14.326272964477539,0.10169669985771179,-0.15230539441108704,0.05448436737060547,0.07559496,-0.1503779,9.763457,0
5,990.30615234375,-2.4800305254757404E-5,-3.3563305623829365E-4,-4.9001770094037056E-5,1.5659973621368408,21.83685874938965,-14.093206405639648,0.09645779430866241,-0.14218997955322266,0.03557777404785156,0.080347955,-0.15276048,9.7729225,0
5,990.30615234375,-2.4800305254757404E-5,-3.3563305623829365E-4,-4.9001770094037056E-5,1.5659973621368408,21.83685874938965,-14.093206405639648,0.0962599366903305,-0.15635272860527039,0.03558635711669922,0.08271107,-0.14322677,9.765819,0
5,990.2808837890625,-2.9496802017092705E-4,1.976241183001548E-4,-9.827581234276295E-4,1.2777023315429688,21.409147262573242,-14.485658645629883,0.0960087925195694,-0.15087631344795227,0.05455303192138672,0.07312465,-0.15752575,9.761083,0
5,990.2808227539062,3.7133845034986734E-4,-0.0012671973090618849,6.153585854917765E-4,1.512300968170166,21.839204788208008,-14.008085250854492,0.09098488092422485,-0.16389811038970947,0.030928611755371094,0.08026755,-0.13845882,9.770549,0
5,990.2808227539062,3.7133845034986734E-4,-0.0012671973090618849,6.153585854917765E-4,1.512300968170166,21.839204788208008,-14.008085250854492,0.08115945756435394,-0.13974884152412415,0.026210784912109375,0.082630664,-0.15752444,9.775281,0
5,990.2987060546875,1.0528077837079763E-4,3.306562139187008E-4,-7.161102257668972E-4,1.5554823875427246,21.93246078491211,-14.251153945922852,0.09023667871952057,-0.14380040764808655,0.03571319580078125,0.08499375,-0.15752378,9.765809,0
5,990.2656860351562,-2.73602781817317E-5,-6.890148506499827E-5,3.493748954497278E-4,1.050875186920166,21.512672424316406,-14.22581672668457,0.08023370802402496,-0.1523902714252472,0.026284217834472656,0.08257705,-0.14322343,9.768174,0
5,990.2656860351562,-2.73602781817317E-5,-6.890148506499827E-5,3.493748954497278E-4,1.050875186920166,21.512672424316406,-14.22581672668457,0.08940421044826508,-0.13301917910575867,0.031037330627441406,0.08016032,-0.16467223,9.770538,0
5,990.2885131835938,-6.928917719051242E-4,-6.01575244218111E-4,-7.157779764384031E-4,1.3764019012451172,22.133665084838867,-14.466279983520508,0.07903909683227539,-0.16087836027145386,0.031076431274414062,0.082523465,-0.14083883,9.763434,0
5,990.2858276367188,2.3973069619387388E-4,9.962361073121428E-4,-3.1608270364813507E-4,1.054218053817749,22.147754669189453,-13.95555305480957,0.09241591393947601,-0.14561757445335388,0.04059410095214844,0.08249664,-0.14322141,9.768167,0
5,990.2957763671875,-5.589586216956377E-4,9.96194314211607E-4,8.35019163787365E-5,1.6051554679870605,21.55740737915039,-14.00590705871582,0.0877804309129715,-0.14533522725105286,0.050072669982910156,0.0753001,-0.1575205,9.756328,0
5,990.2957763671875,-2.6068417355418205E-5,-0.0014006906421855092,8.361265645362437E-5,1.8431801795959473,21.095901489257812,-14.708436965942383,0.08275160193443298,-0.15377992391586304,0.02170848846435547,0.08005312,-0.15036997,9.782364,0
5,990.285888671875,1.0734784882515669E-4,-3.354690852575004E-4,4.83197218272835E-4,1.4746639728546143,22.120132446289062,-14.172693252563477,0.11114022135734558,-0.13905486464500427,0.031195640563964844,0.06568688,-0.15275264,9.770526,0
6,990.2831420898438,-2.918675309047103E-4,-0.0011344585800543427,8.38340783957392E-5,1.2876763343811035,21.68183135986328,-14.426168441772461,0.08274631202220917,-0.1481635570526123,0.031206130981445312,0.08716917,-0.14798537,9.78236,0
6,990.262939453125,-2.5293207727372646E-5,-3.355529624968767E-4,-4.4868685654364526E-4,1.312593936920166,21.75741195678711,-13.741571426391602,0.09669354557991028,-0.15681222081184387,0.045447349548339844,0.07041308,-0.14560142,9.768155,0
6,990.2932739257812,-5.576667608693242E-4,-6.019108113832772E-4,-4.4857614557258785E-4,1.5596113204956055,21.198829650878906,-14.208856582641602,0.09189434349536896,-0.14194127917289734,0.035999298095703125,0.07516608,-0.14798406,9.770518,0
6,990.2957763671875,-2.9109243769198656E-4,-0.0010014264844357967,8.831139421090484E-4,1.038294792175293,21.975095748901367,-14.404901504516602,0.05303175747394562,-0.14661026000976562,0.01707744598388672,0.09186858,-0.1479834,9.777617,0
6,990.3259887695312,-0.001489255460910499,7.295846007764339E-4,4.837508895434439E-4,1.4004778861999512,21.94540023803711,-14.305009841918945,0.09091749787330627,-0.1556178629398346,-0.07758712768554688,0.072722554,-0.15989915,9.820226,0
6,990.2957763671875,-1.5741796232759953E-4,-4.688786866609007E-4,3.5070363082922995E-4,1.164656162261963,22.146005630493164,-14.280405044555664,0.09087875485420227,-0.13585540652275085,0.04079627990722656,0.07747555,-0.14798203,9.77288,0
6,990.3057250976562,0.0014379279455170035,2.494753571227193E-4,4.7465652460232377E-4,1.5326292514801025,21.490062713623047,-14.91459846496582,0.0808965414762497,-0.13961690664291382,0.012431144714355469,0.077448726,-0.16228113,9.768142,0
6,990.295654296875,7.723965682089329E-4,1.1627536150626838E-4,2.0845135441049933E-4,1.2415883541107178,21.691543579101562,-14.727571487426758,0.0898841917514801,-0.15275108814239502,0.03615093231201172,0.07025224,-0.1408309,9.76814,0
6,990.300537109375,0.0011721287155523896,2.4939136346802115E-4,6.080358871258795E-4,1.2338404655456543,21.578264236450195,-13.641969680786133,0.08932195603847504,-0.14656198024749756,0.022003173828125,0.07022542,-0.14559689,9.772872,0
6,990.2830810546875,5.065974546596408E-4,-4.1644019074738026E-4,7.55148648750037E-5,1.020711898803711,21.695045471191406,-14.07786750793457,0.09376150369644165,-0.1318196952342987,0.04569530487060547,0.07497841,-0.14797947,9.765767,0
6,990.2979125976562,5.068557802587748E-4,1.1614958930294961E-4,-5.7532277423888445E-5,1.3186814785003662,21.7633056640625,-14.050790786743164,0.08881445229053497,-0.12143146991729736,0.03152275085449219,0.074781656,-0.1527412,9.763382,0
6,990.2957763671875,1.0764040052890778E-4,-1.5020830323919654E-4,-1.9057959434576333E-4,1.3237898349761963,21.39943504333496,-14.184259414672852,0.09321631491184235,-0.1348809003829956,0.026862144470214844,0.0841341,-0.1527361,9.770465,0
6,990.2953491210938,-1.588903833180666E-4,2.5135406758636236E-4,2.1738404757343233E-4,1.2544679641723633,21.861257553100586,-14.123613357543945,0.0828610360622406,-0.12020668387413025,0.036360740661621094,0.07453388,-0.15273514,9.765726,0
6,990.2855224609375,-6.907398346811533E-4,1.1806916154455394E-4,-3.149124386254698E-4,1.2840890884399414,22.047176361083984,-14.370012283325195,0.08721591532230377,-0.12458878755569458,0.03164863586425781,0.07449332,-0.15035081,9.760988,0
6,990.2855224609375,-6.907398346811533E-4,1.1806916154455394E-4,-3.149124386254698E-4,1.2840890884399414,22.047176361083984,-14.370012283325195,0.09675051271915436,-0.1338830590248108,0.036393165588378906,0.067283034,-0.15511641,9.77282,0
6,990.2928466796875,-5.571907386183739E-4,-5.47784089576453E-4,-1.815868599805981E-4,0.8439946174621582,22.16156768798828,-13.846979141235352,0.08229847252368927,-0.1284521520137787,0.031683921813964844,0.088751525,-0.15273213,9.704169,0
6,990.2904663085938,-0.001355355721898377,0.0011831421870738268,-3.144094080198556E-4,1.289198398590088,21.683303833007812,-14.503473281860352,0.10500836372375488,-0.1517941653728485,0.0648651123046875,0.0695917,-0.15749767,9.843829,0
6,990.2904663085938,-0.001355355721898377,0.0011831421870738268,-3.144094080198556E-4,1.289198398590088,21.683303833007812,-14.503473281860352,0.09557856619358063,-0.1366671323776245,0.05068683624267578,0.07911074,-0.14796361,9.770442,0
6,990.290283203125,5.092467181384563E-4,-4.148166626691818E-4,4.847058735322207E-4,1.5120019912719727,21.207069396972656,-14.432954788208008,0.07606065273284912,-0.14535394310951233,0.050724029541015625,0.08146006,-0.14796254,9.765704,0
6,990.290283203125,5.092467181384563E-4,-4.148166626691818E-4,4.847058735322207E-4,1.5120019912719727,21.207069396972656,-14.432954788208008,0.09012213349342346,-0.12601211667060852,0.02233123779296875,0.074249774,-0.15272817,9.779904,0
6,990.2776489257812,3.768706228584051E-4,-1.546986459288746E-5,-1.8074855324812233E-4,1.669614315032959,20.459022521972656,-14.259500503540039,0.0945097804069519,-0.11989393830299377,0.04132080078125,0.07659906,-0.15272716,9.7727995,0
6,990.2776489257812,3.768706228584051E-4,-1.546986459288746E-5,-1.8074855324812233E-4,1.669614315032959,20.459022521972656,-14.259500503540039,0.0752050131559372,-0.12935292720794678,0.031859397888183594,0.07655847,-0.15987599,9.775163,0
6,990.27783203125,-2.881363034248352E-4,-1.4875475608278066E-4,-4.725522012449801E-5,1.3398516178131104,21.678009033203125,-14.433984756469727,0.08419327437877655,-0.11855101585388184,0.027177810668945312,0.07651791,-0.14795864,9.772792,0
6,990.2977905273438,5.112024955451488E-4,2.5065551744773984E-4,-7.128772558644414E-4,1.251966953277588,21.490020751953125,-13.870553970336914,0.0787418931722641,-0.1181468665599823,0.050876617431640625,0.07647732,-0.15272412,9.756217,0
7,990.2977905273438,5.112024955451488E-4,2.5065551744773984E-4,-7.128772558644414E-4,1.251966953277588,21.490020751953125,-13.870553970336914,0.08347570896148682,-0.11302617192268372,0.04615592956542969,0.07404685,-0.15510646,9.770416,0
7,990.2928466796875,-5.536698736250401E-4,7.832238916307688E-4,8.623799658380449E-5,1.3258552551269531,21.032615661621094,-14.163110733032227,0.059221044182777405,-0.12208831310272217,0.013037681579589844,0.090735555,-0.15510544,9.777514,0
7,990.3028564453125,5.119848065078259E-4,-1.578735827933997E-5,-4.4622612767852843E-4,1.4235749244689941,21.387372970581055,-13.967973709106445,0.08294376730918884,-0.1167294979095459,0.04146862030029297,0.078745484,-0.16225427,9.763308,0
7,990.3204956054688,2.4645135272294283E-4,-8.14861967228353E-4,-4.641702980734408E-5,1.359499216079712,21.591243743896484,-14.739870071411133,0.06849254667758942,-0.12068742513656616,0.03676605224609375,0.076314956,-0.16463661,9.770406,0
7,990.3229370117188,-4.189473111182451E-4,-4.1545165004208684E-4,-4.6249362640082836E-5,1.2258260250091553,22.04510498046875,-14.052972793579102,0.06779980659484863,-0.13422968983650208,0.06520938873291016,0.08105418,-0.1551024,9.74673,0
7,990.297607421875,3.8039148785173893E-4,9.160642512142658E-4,-3.1239757663570344E-4,1.607764720916748,20.822296142578125,-13.886312484741211,0.09157589077949524,-0.12441733479499817,0.022611618041992188,0.06906411,-0.15271819,9.777499,0
7,990.3002319335938,-1.5184888616204262E-4,5.165268667042255E-4,-5.78545848838985E-4,1.1856892108917236,21.95479393005371,-13.964521408081055,0.05755576491355896,-0.12391495704650879,0.041576385498046875,0.08097303,-0.15986702,9.765659,0
7,990.2899780273438,-1.8299557268619537E-5,2.501474809832871E-4,4.868854011874646E-4,1.3708570003509521,21.759483337402344,-14.058610916137695,0.07598637044429779,-0.11373183131217957,0.0416107177734375,0.06659299,-0.1622493,9.7680235,0
7,990.2899780273438,1.1524953879415989E-4,0.0015816634986549616,8.757927571423352E-5,1.3624062538146973,21.488269805908203,-14.195405960083008,0.08969148993492126,-0.12247326970100403,0.060584068298339844,0.08089185,-0.14318213,9.758552,0
7,990.2850952148438,5.151145160198212E-4,-1.4945340808480978E-4,-4.5410997699946165E-5,1.3509111404418945,21.214113235473633,-14.177595138549805,0.07950899004936218,-0.13582578301429749,0.018016815185546875,0.06890175,-0.14794758,9.784587,0
7,990.264892578125,-1.5028403140604496E-4,-1.495168689871207E-4,-3.115592116955668E-4,0.9866616725921631,21.610628128051758,-14.298635482788086,0.060132354497909546,-0.09753268957138062,0.036965370178222656,0.08798033,-0.1670129,9.758544,0
7,990.3076782226562,-1.4989287592470646E-4,5.162092857062817E-4,-3.11391573632136E-4,1.6389071941375732,21.009687423706055,-14.210012435913086,0.07877397537231445,-0.12067273259162903,0.04173088073730469,0.07379109,-0.15033361,9.768025,0
7,990.2950439453125,-5.503406282514334E-4,6.495254347100854E-4,-8.444406557828188E-4,1.3920269012451172,21.67418670654297,-14.441804885864258,0.07311785221099854,-0.1533428132534027,0.03225898742675781,0.085902184,-0.13842121,9.779878,0
7,990.3076782226562,-2.114451490342617E-5,-4.143980913795531E-4,2.2261968115344644E-4,1.2364792823791504,22.055416107177734,-14.594110488891602,0.0583033561706543,-0.12900477647781372,0.037016868591308594,0.08587682,-0.14795372,9.765672,0
7,990.3001098632812,-2.0900042727589607E-5,0.0014497734373435378,6.221982184797525E-4,1.2868342399597168,21.417985916137695,-14.949495315551758,0.07208998501300812,-0.14287316799163818,0.06071186065673828,0.07868171,-0.14080322,9.7562,0
7,990.280029296875,-5.532872164621949E-4,1.1815430480055511E-4,8.96713463589549E-5,1.1833252906799316,21.689472198486328,-14.410539627075195,0.08103257417678833,-0.0949963927268982,0.03705787658691406,0.07626647,-0.16940191,9.777503,0
7,990.2824096679688,-1.5356880612671375E-4,7.839043973945081E-4,8.977606194093823E-5,0.8842391967773438,21.145536422729492,-13.562776565551758,0.07606528699398041,-0.12291163206100464,0.05128765106201172,0.078630984,-0.1503351,9.763297,0
7,990.2824096679688,-6.859562126919627E-4,-0.0010803465265780687,-1.7643498722463846E-4,1.1501171588897705,21.8689022064209,-14.107980728149414,0.07120230793952942,-0.13198137283325195,0.013426780700683594,0.076215744,-0.14795122,9.772763,0
7,990.2900390625,3.795520169660449E-4,-5.47754461877048E-4,3.563015488907695E-4,1.1004431247711182,22.24395751953125,-14.353227615356445,0.07573875784873962,-0.11251500248908997,0.051319122314453125,0.08097017,-0.15986696,9.763292,0
7,990.2748413085938,-2.8599321376532316E-4,3.843114245682955E-4,-1.7622538143768907E-4,1.241152286529541,20.953489303588867,-14.453367233276367,0.07527294754981995,-0.10230851173400879,0.032410621643066406,0.0785549,-0.1598663,9.775126,0
7,990.3178100585938,5.054796347394586E-4,-2.7224686346016824E-4,3.7572046858258545E-4,1.4706411361694336,21.747421264648438,-13.842325210571289,0.07971803843975067,-0.11571064591407776,0.04191112518310547,0.07135981,-0.1503326,9.765655,0
7,990.3202514648438,5.05724223330617E-4,5.266610532999039E-4,-4.2312240111641586E-4,1.4611048698425293,22.212787628173828,-14.176027297973633,0.06488481163978577,-0.11528900265693665,0.037199974060058594,0.07372436,-0.1527153,9.76802,0
7,990.3101196289062,1.0673943324945867E-4,0.001725003239698708,-5.560707068070769E-4,1.4407224655151367,20.929367065429688,-14.02079963684082,0.07300892472267151,-0.11416539549827576,0.046723365783691406,0.073699,-0.14794806,9.763284,0
7,990.32275390625,-2.9249003273434937E-4,5.265420768409967E-4,-1.5649208216927946E-4,1.128542184829712,22.428401947021484,-14.522317886352539,0.06293389201164246,-0.113666832447052,0.03728008270263672,0.0808433,-0.14556414,9.76328,0
7,990.2772216796875,-2.592956298030913E-5,-8.050771430134773E-4,3.7624442484229803E-4,1.8812532424926758,21.55302619934082,-14.81804084777832,0.06768710911273956,-0.13691258430480957,0.051502227783203125,0.073648244,-0.14794683,9.75381,0
8,990.2772216796875,-2.592956298030913E-5,-8.050771430134773E-4,3.7624442484229803E-4,1.8812532424926758,21.55302619934082,-14.81804084777832,0.06265965104103088,-0.12729620933532715,0.02783679962158203,0.07362285,-0.14556295,9.770377,0
8,990.2772216796875,-2.592956298030913E-5,-8.050771430134773E-4,3.7624442484229803E-4,1.768610954284668,21.815677642822266,-13.815256118774414,0.07625222206115723,-0.12669673562049866,0.04680442810058594,0.0759874,-0.13841245,9.75854,0
8,990.2974853515625,-5.58316707611084E-4,-1.3932707952335477E-4,-2.894404751714319E-4,1.6454310417175293,21.753633499145508,-14.793436050415039,0.0714753121137619,-0.10678228735923767,0.03262615203857422,0.087911546,-0.15509477,9.777474,0
8,990.3026123046875,3.742780245374888E-4,-5.388802383095026E-4,3.765588626265526E-4,1.3287925720214844,22.141904830932617,-14.690378189086914,0.06651513278484344,-0.12458956241607666,0.027932167053222656,0.08071643,-0.14794436,9.775105,0
8,990.282470703125,7.739962311461568E-4,-4.057620535604656E-4,-5.554419476538897E-4,1.252946138381958,21.859786987304688,-14.046308517456055,0.061983078718185425,-0.10957092046737671,0.04215431213378906,0.085470885,-0.15032703,9.7609,0
8,990.282470703125,7.739962311461568E-4,-4.057620535604656E-4,-5.554419476538897E-4,1.252946138381958,21.859786987304688,-14.046308517456055,0.06172740459442139,-0.10943207144737244,0.05163288116455078,0.083055615,-0.15270966,9.753795,0
8,990.3101196289062,3.7476696888916194E-4,-0.0013379072770476341,6.430842913687229E-4,1.5680627822875977,21.47003936767578,-14.072061538696289,0.0660964846611023,-0.1183951199054718,0.032718658447265625,0.07825047,-0.15270898,9.772731,0
8,990.3225708007812,-2.9077837825752795E-4,6.594221340492368E-4,7.76347063947469E-4,1.3362643718719482,22.043354034423828,-14.377824783325195,0.07060667872428894,-0.10849827527999878,0.03746986389160156,0.08300489,-0.15509167,9.775096,0
8,990.300048828125,-2.4217675672844052E-5,2.5990858557634056E-4,1.1066213482990861E-4,1.0038089752197266,21.15262222290039,-14.351461410522461,0.0607280433177948,-0.11277380585670471,0.02801990509033203,0.07103002,-0.15747437,9.782195,0
8,990.2973022460938,-2.37286149058491E-5,-1.3964466052129865E-4,3.771876508835703E-4,1.3754229545593262,21.763900756835938,-14.290529251098633,0.06499384343624115,-0.12166091799736023,0.05172252655029297,0.07817435,-0.15270716,9.767989,0
8,990.2973022460938,-2.37286149058491E-5,-1.3964466052129865E-4,3.771876508835703E-4,1.3754229545593262,21.763900756835938,-14.290529251098633,0.06483995914459229,-0.11667999625205994,0.07066822052001953,0.073369175,-0.1431734,9.749051,0
8,990.2948608398438,-1.566421997267753E-4,2.597894344944507E-4,1.1097648530267179E-4,1.534449577331543,22.123676300048828,-14.567033767700195,0.06401421129703522,-0.12078779935836792,0.023344039916992188,0.08064175,-0.14555922,9.767997,0
8,990.2874145507812,-2.929729234892875E-4,3.9412936894223094E-4,-4.167873994447291E-4,1.2084870338439941,20.76462745666504,-14.052362442016602,0.05890071392059326,-0.1153537929058075,0.03757190704345703,0.08301139,-0.14555874,9.765628,0
8,990.3050537109375,-1.5991998952813447E-4,2.6098848320543766E-4,3.821152786258608E-4,1.7562754154205322,21.277673721313477,-14.320764541625977,0.06322035193443298,-0.09577083587646484,0.042326927185058594,0.08538097,-0.15747467,9.767993,0
8,990.3050537109375,2.397495263721794E-4,2.609567600302398E-4,-1.5043275197967887E-4,1.383873701095581,22.035114288330078,-14.153726577758789,0.07260651886463165,-0.09952378273010254,0.032891273498535156,0.07341117,-0.15747413,9.770358,0
8,990.300048828125,5.062607815489173E-4,-5.380226066336036E-4,-1.7191050574183464E-5,1.1843047142028809,22.05923843383789,-14.58629035949707,0.05352061986923218,-0.09919184446334839,0.03289985656738281,0.0829505,-0.1574736,9.770356,0
8,990.2947998046875,1.0698239202611148E-4,-1.3858055172022432E-4,2.492086496204138E-4,0.7472538948059082,22.176576614379883,-14.217874526977539,0.062426403164863586,-0.10331106185913086,0.037665367126464844,0.0805403,-0.1622397,9.767987,0
8,990.300048828125,-1.591377949807793E-4,2.608615322969854E-4,-4.1649723425507545E-4,1.0121221542358398,21.317916870117188,-13.515584945678711,0.04781530797481537,-0.1077767014503479,0.042410850524902344,0.09246957,-0.15270612,9.758517,0
8,990.2947998046875,3.7368942867033184E-4,0.001059777452610433,-2.8325547464191914E-4,1.1732139587402344,21.31087303161621,-13.770952224731445,0.04229791462421417,-0.09270504117012024,0.028242111206054688,0.085279584,-0.15747216,9.756148,0
8,990.3073120117188,-2.919049293268472E-4,2.607980277389288E-4,-1.5001371502876282E-4,1.1892757415771484,21.589447021484375,-14.02067756652832,0.0515105277299881,-0.10641816258430481,0.03299903869628906,0.08764917,-0.15032181,9.7656145,0
8,990.2947387695312,1.0776458657346666E-4,2.6076630456373096E-4,-4.162457771599293E-4,1.292646884918213,21.212045669555664,-13.860559463500977,0.05620945990085602,-0.08710286021232605,0.023538589477539062,0.08045918,-0.16700423,9.770347,0
8,990.2847290039062,-2.5197892682626843E-5,-6.713709444738925E-4,-5.493200151249766E-4,1.5802383422851562,21.481822967529297,-14.690500259399414,0.046402573585510254,-0.07709604501724243,0.03776073455810547,0.08043891,-0.1717703,9.765611,0
8,990.2922973632812,3.7447139038704336E-4,1.2754501949530095E-4,-8.155521936714649E-4,1.0523979663848877,21.514144897460938,-14.303117752075195,0.05575750768184662,-0.1097506582736969,0.018846511840820312,0.082808524,-0.15032032,9.775078,0
8,990.29248046875,-1.579647941980511E-4,1.2751315080095083E-4,-1.6520731151103973E-5,0.9519317150115967,21.78858184814453,-13.918771743774414,0.059901729226112366,-0.1043553352355957,0.02834320068359375,0.075618535,-0.15270314,9.76324,0
8,990.30224609375,1.0854643187485635E-4,5.269552930258214E-4,-6.822266150265932E-4,1.2028355598449707,21.496788024902344,-14.017343521118164,0.04545395076274872,-0.1038113534450531,0.03782939910888672,0.08276796,-0.14555275,9.765605,0
9,990.2744750976562,-2.4415930965915322E-5,-4.051820724271238E-4,2.4996278807520866E-4,1.203378677368164,21.12849998474121,-13.918893814086914,0.04084685444831848,-0.098763108253479,0.028367042541503906,0.0827477,-0.15270206,9.775072,0
9,990.2821044921875,5.084114382043481E-4,-6.715297349728644E-4,-2.8258515521883965E-4,1.6760005950927734,21.0970516204834,-14.143854141235352,0.07384689152240753,-0.09288525581359863,0.05207633972167969,0.068387985,-0.1503183,9.765601,0
9,990.2796020507812,3.754488134291023E-4,-1.3892962306272238E-4,1.1697242734953761E-4,1.5138225555419922,21.840679168701172,-14.085390090942383,0.05430708825588226,-0.09250663220882416,0.04736042022705078,0.073147506,-0.14555126,9.775068,0
9,990.2796020507812,-4.23303252318874E-4,2.605124027468264E-4,1.1705618817359209E-4,1.8045649528503418,21.007061004638672,-14.697286605834961,0.054126545786857605,-0.11136406660079956,0.05210399627685547,0.07551712,-0.14555079,9.767964,0
9,990.264404296875,2.428774896543473E-4,-4.053407465107739E-4,2.50381650403142E-4,1.2777035236358643,21.40914535522461,-14.485658645629883,0.06847463548183441,-0.10103374719619751,0.052127838134765625,0.07549685,-0.14793354,9.756127,0
9,990.264404296875,2.428774896543473E-4,-4.053407465107739E-4,2.50381650403142E-4,1.2777035236358643,21.40914535522461,-14.485658645629883,0.05373598635196686,-0.09588955342769623,0.03320503234863281,0.08264625,-0.15269956,9.777431,0
9,990.2721557617188,-2.89558811346069E-4,5.267331725917757E-4,5.167813505977392E-4,1.2976493835449219,21.95451545715332,-14.366678237915039,0.04865485429763794,-0.09571315348148346,0.014279365539550781,0.0778462,-0.14793253,9.78453,0
9,990.2896728515625,-2.3047352442517877E-5,1.2722752580884844E-4,-1.4892453327775002E-4,1.691518783569336,21.74391746520996,-14.492036819458008,0.03863413631916046,-0.09965382516384125,0.042716026306152344,0.08977538,-0.1431655,9.76559,0
9,990.28955078125,-1.995895872823894E-4,3.162954526487738E-4,-2.5517179165035486E-4,0.7646989822387695,22.350709915161133,-13.845830917358398,0.05746923387050629,-0.08020521700382233,0.03326225280761719,0.070635885,-0.159848,9.767956,0
9,990.2947387695312,-1.9939400954172015E-4,-8.32100777188316E-5,-3.882460296154022E-4,1.2634625434875488,21.764179229736328,-13.888364791870117,0.043143704533576965,-0.0940062403678894,0.03327655792236328,0.087344944,-0.15746424,9.777423,0
9,990.2947387695312,-1.9939400954172015E-4,-8.32100777188316E-5,-3.882460296154022E-4,1.2634625434875488,21.764179229736328,-13.888364791870117,0.047718510031700134,-0.08899237215518951,0.042756080627441406,0.077843636,-0.15031576,9.770327,0
9,990.3073120117188,4.6641071094200015E-4,1.8310334417037666E-4,-5.213974509388208E-4,1.3481650352478027,21.843303680419922,-13.598112106323242,0.032970741391181946,-0.07890434563159943,0.04276084899902344,0.09702593,-0.15985042,9.770332,0
9,990.3073120117188,4.6641071094200015E-4,1.8310334417037666E-4,-5.213974509388208E-4,1.3481650352478027,21.843303680419922,-13.598112106323242,0.05653482675552368,-0.09278710186481476,0.0711822509765625,0.07550287,-0.1550835,9.751393,0
9,990.2694702148438,-8.676345460116863E-4,-2.1591545373667032E-4,8.123605512082577E-4,1.4406147003173828,22.03571319580078,-14.393457412719727,0.06082238256931305,-0.08309806883335114,0.047524452209472656,0.0683192,-0.1598498,9.760861,0
9,990.2871704101562,1.9776378758251667E-4,4.498523776419461E-4,1.466285903006792E-4,1.3564553260803223,21.58829689025879,-14.585260391235352,0.06545604765415192,-0.08716103434562683,0.028606414794921875,0.07547492,-0.15508285,9.772696,0
9,990.2846069335938,6.474019028246403E-5,3.166725509800017E-4,-2.527876349631697E-4,1.396592617034912,21.678606033325195,-14.673715591430664,0.04119876027107239,-0.09147141873836517,0.028623580932617188,0.08502057,-0.1526992,9.767961,0
9,990.2896728515625,-6.828317418694496E-5,3.1665078131482005E-4,-2.5272989296354353E-4,1.046745777130127,22.246307373046875,-14.268106460571289,0.06016737222671509,-0.08193068206310272,0.052300453186035156,0.073057115,-0.1526989,9.763225,0
9,990.2517700195312,-0.0010001198388636112,5.02912444062531E-5,-1.1945675942115486E-4,1.261397361755371,22.130996704101562,-13.909513473510742,0.026570066809654236,-0.09613202512264252,0.03810405731201172,0.09455228,-0.15269855,9.76559,0
9,990.2517700195312,-0.0010001198388636112,5.02912444062531E-5,-1.1945675942115486E-4,1.261397361755371,22.130996704101562,-13.909513473510742,0.05024932324886322,-0.10548071563243866,0.047580718994140625,0.08258879,-0.14078179,9.76559,0
9,990.2794189453125,-7.335348054766655E-4,5.024755955673754E-5,0.0010790800442919135,1.1681056022644043,21.67474365234375,-13.637483596801758,0.05014491081237793,-0.10005350410938263,0.033397674560546875,0.07779506,-0.15508112,9.763221,0
9,990.2693481445312,3.3186341170221567E-4,-6.155640003271401E-4,8.12821788713336E-4,1.2299556732177734,21.31147003173828,-14.010683059692383,0.04526449739933014,-0.09026987850666046,0.038140296936035156,0.07778108,-0.14793095,9.765586,0
9,990.2919921875,-4.669500049203634E-4,-4.8242794582620263E-4,-1.1922602425329387E-4,1.2649836540222168,21.765653610229492,-13.965669631958008,0.054701149463653564,-0.0706309974193573,0.038158416748046875,0.07776713,-0.16223034,9.763218,0
9,990.2792358398438,1.989745069295168E-4,-3.4929177490994334E-4,1.4714739518240094E-4,1.3754229545593262,21.763900756835938,-14.290521621704102,0.05447082221508026,-0.08923617005348206,0.042908668518066406,0.07775316,-0.15269685,9.765584,0
9,990.312255859375,4.654247313737869E-4,3.164760419167578E-4,4.135209892410785E-4,1.3714003562927246,21.391191482543945,-13.960161209106445,0.06381675601005554,-0.08868357539176941,0.042926788330078125,0.07295939,-0.14554664,9.76795,0
10,990.312255859375,-2.0023004617542028E-4,-4.824934294447303E-4,1.4104851288720965E-5,1.2141928672790527,21.665029525756836,-13.336084365844727,0.04901142418384552,-0.1071448028087616,0.028746604919433594,0.08011514,-0.14554629,9.77505,0
10,990.302001953125,6.622006185352802E-5,3.1643244437873363E-4,8.131100912578404E-4,1.3547959327697754,21.480907440185547,-13.808881759643555,0.04836985468864441,-0.0878339409828186,0.03349590301513672,0.07532138,-0.1550791,9.767947,0
10,990.2767944335938,1.9951257854700089E-4,0.0011153582017868757,5.468519520945847E-4,1.276181697845459,21.407672882080078,-14.408357620239258,0.05299128592014313,-0.08265507221221924,0.03824424743652344,0.080087245,-0.15031222,9.770313,0
10,990.2869262695312,-5.993004888296127E-4,-3.494010306894779E-4,2.8059372561983764E-4,1.2469961643218994,21.959808349609375,-14.436166763305664,0.062360286712646484,-0.10607506334781647,0.028789520263671875,0.07290357,-0.14316198,9.777413,0
10,990.2894287109375,-6.653426680713892E-5,-3.4942285856232047E-4,-6.514543201774359E-4,0.9513888359069824,22.156871795654297,-14.017221450805664,0.06189325451850891,-0.0818692296743393,0.052478790283203125,0.07766944,-0.1503115,9.760841,0
10,990.2994995117188,1.999163068830967E-4,8.489767205901444E-4,-6.513965781778097E-4,1.2385444641113281,21.6885986328125,-14.572961807250977,0.03761787712574005,-0.08617521822452545,0.05249595642089844,0.077655494,-0.14792785,9.76084,0
10,990.2667846679688,-4.6573905274271965E-4,4.4948112918064E-4,6.802404532209039E-4,0.9715800285339355,21.701812744140625,-14.224664688110352,0.046972036361694336,-0.08593019843101501,0.038303375244140625,0.07764149,-0.16461053,9.775043,0
10,990.2792358398438,-5.987623007968068E-4,4.9985479563474655E-5,-1.1864953557960689E-4,1.3794455528259277,22.136611938476562,-14.620889663696289,0.041756123304367065,-0.09496724605560303,0.02411937713623047,0.082407355,-0.14316064,9.782142,0
10,990.2992553710938,-6.599631160497665E-5,4.996362258680165E-5,4.1403996874578297E-4,1.1480531692504883,22.235715866088867,-14.129129409790039,0.05098237097263336,-0.10415196418762207,0.038336753845214844,0.08239335,-0.14077699,9.770306,0
10,990.2691650390625,6.729655433446169E-5,4.494155873544514E-4,5.472555058076978E-4,1.5095021724700928,20.835830688476562,-14.179895401000977,0.05538444221019745,-0.07487691938877106,0.04309368133544922,0.07520971,-0.15507632,9.772672,0
10,990.299560546875,7.332204841077328E-4,7.157095824368298E-4,1.468139817006886E-5,1.5831451416015625,21.37885284423828,-14.146036148071289,0.05043692886829376,-0.08386567234992981,0.043109893798828125,0.070415944,-0.14315963,9.763202,0
10,990.2919311523438,-7.313818205147982E-4,-0.0010153654729947448,2.810549922287464E-4,1.4869475364685059,21.025569915771484,-14.418478012084961,0.055119335651397705,-0.09780991077423096,0.03363227844238281,0.07059246,-0.13839734,9.763217,0
10,990.2337036132812,-1.997572835534811E-4,-7.488861447200179E-4,5.469393217936158E-4,1.1124811172485352,22.149826049804688,-14.272584915161133,0.049870848655700684,-0.09266607463359833,0.03838348388671875,0.0753659,-0.15508017,9.775052,0
10,990.274169921875,-6.720935925841331E-5,-3.493132535368204E-4,2.8036200092174113E-4,1.351346731185913,21.952167510986328,-14.451799392700195,0.04956988990306854,-0.0780562162399292,0.04786396026611328,0.084919155,-0.15031344,9.767951,0
10,990.2843627929688,0.005925020202994347,-0.0028793341480195522,1.4098506653681397E-5,1.1400060653686523,21.490299224853516,-13.46839714050293,0.05976945161819458,-0.08436207473278046,0.06213665008544922,0.075353205,-0.15031335,9.753747,0
10,990.5065307617188,-9.991312399506569E-4,7.159205269999802E-4,-7.848230889067054E-4,1.285611629486084,22.048646926879883,-14.447317123413086,0.04014603793621063,-0.07955193519592285,0.03373908996582031,0.08490652,-0.15031317,9.777418,0
10,990.5065307617188,-9.991312399506569E-4,7.159205269999802E-4,-7.848230889067054E-4,1.285611629486084,22.048646926879883,-14.447317123413086,0.0391538143157959,-0.08535046875476837,0.014790534973144531,0.08251023,-0.15269631,9.779784,0
10,990.213623046875,-0.0039285458624362946,0.0023138057440519333,4.1362468618899584E-4,1.3452587127685547,21.946273803710938,-14.142580032348633,0.06199657917022705,-0.0755106657743454,0.03848457336425781,0.070554405,-0.16222927,9.765581,0
10,990.213623046875,-0.0039285458624362946,0.0023138057440519333,4.1362468618899584E-4,1.3452587127685547,21.946273803710938,-14.142580032348633,0.0635470449924469,-0.08273647725582123,0.057456016540527344,0.07771778,-0.14554611,9.763213,0
10,990.2086181640625,6.625405512750149E-5,0.0015148483216762543,-2.521389105822891E-4,1.658172607421875,21.817432403564453,-13.490400314331055,0.05278095602989197,-0.0738580971956253,0.038519859313964844,0.07293162,-0.15984568,9.760846,0
10,990.3399047851562,0.005525791086256504,-0.004210953135043383,-3.8527059950865805E-4,1.6944248676300049,21.640949249267578,-13.947565078735352,0.04729580879211426,-0.07925896346569061,0.04324913024902344,0.068145454,-0.15507892,9.770314,0
10,990.3222045898438,-0.004993625916540623,0.0035121976397931576,1.4229532098397613E-5,1.6051554679870605,21.55740737915039,-14.005903244018555,0.06615695357322693,-0.08845944702625275,0.033791542053222656,0.058579504,-0.14792892,9.775048,0
10,990.1884155273438,-5.993521772325039E-4,-2.16234679101035E-4,1.4741360791958869E-4,1.4735476970672607,21.644451141357422,-13.297861099243164,0.041695162653923035,-0.0785953551530838,0.03854179382324219,0.082472205,-0.15507862,9.770312,0
10,990.2537841796875,-8.989879861474037E-4,-1.0942771041300148E-4,2.9310642275959253E-5,1.4078121185302734,21.74093246459961,-13.293375015258789,0.04141645133495331,-0.06829424202442169,0.03856468200683594,0.08007592,-0.15269521,9.767944,0
10,990.2793579101562,2.994945098180324E-4,0.0013552997261285782,-1.0382113396190107E-4,1.634096622467041,22.00569725036621,-13.651674270629883,0.04143798351287842,-0.08693158626556396,0.03857421875,0.075289786,-0.1431619,9.770312,0
11,990.304443359375,1.6645880532450974E-4,-2.4261543876491487E-4,9.61494748480618E-4,0.920926570892334,21.707107543945312,-14.294145584106445,0.04060284048318863,-0.09540446102619171,0.04334545135498047,0.08245319,-0.14316174,9.760842,0
11,990.304443359375,1.6645880532450974E-4,-2.4261543876491487E-4,9.61494748480618E-4,0.920926570892334,21.707107543945312,-14.294145584106445,0.03564225137233734,-0.07134716212749481,0.02914905548095703,0.080056936,-0.1526947,9.772677,0
11,990.2562866210938,4.3289692257530987E-4,9.557861485518515E-4,-2.3687430075369775E-4,1.3185439109802246,21.657386779785156,-13.351716995239258,0.044846318662166595,-0.07081317901611328,0.03863716125488281,0.08722025,-0.15269452,9.77031,0
11,990.2943725585938,-9.967360529117286E-5,5.563024315051734E-4,-6.363219581544399E-4,1.6383647918701172,21.377975463867188,-14.308465957641602,0.058587513864040375,-0.07039095461368561,0.048122406005859375,0.0776543,-0.1526944,9.7703085,1
11,990.251220703125,1.6670351033098996E-4,-1.0949722491204739E-4,-2.3682191385887563E-4,1.715893268585205,22.18779182434082,-13.905885696411133,0.04897034913301468,-0.06025421619415283,0.05760669708251953,0.075258076,-0.15269423,9.75137,1
11,990.276611328125,0.001098870299756527,-0.0017074025236070156,1.6267821774818003E-4,1.8949732780456543,21.986589431762695,-13.690759658813477,0.32493263483047485,-0.053283095359802246,0.033942222595214844,-0.068142354,-0.17652693,9.779777,1
11,990.2562866210938,-2.3264807532541454E-4,-0.00330530758947134,-0.3057011067867279,1.4455864429473877,21.565921783447266,-13.827844619750977,0.5598681569099426,0.7171061038970947,0.005261421203613281,-0.0084011555,-0.016847074,9.812917,1
11,990.2515258789062,-0.0898478776216507,-0.013691635802388191,-0.852580726146698,0.3253922462463379,21.096385955810547,-13.55076789855957,-0.05501781404018402,0.0976342260837555,-0.038555145263671875,0.33573836,-0.40055475,9.855527,1
11,990.1758422851562,-0.08598624914884567,-0.007300065830349922,-0.08359358459711075,-0.0886678695678711,21.76203727722168,-13.217981338500977,-0.35872596502304077,0.15265995264053345,-0.19154071807861328,0.36202097,-0.5054189,10.059106,1
11,990.2285766601562,-0.13472197949886322,0.06846679747104645,0.15342757105827332,0.7220611572265625,21.889162063598633,-13.504312515258789,-0.11823717504739761,0.17286482453346252,-0.13515567779541016,-0.1565941,-0.12171087,9.263724,1
11,990.2208862304688,-0.13299088180065155,0.21787001192569733,0.31414923071861267,0.8077425956726074,22.33804702758789,-13.389814376831055,0.14665067195892334,-0.27376049757003784,-0.28021717071533203,0.077609956,-0.3028399,10.295825,1
11,990.2586669921875,-0.585594654083252,-0.30810388922691345,0.15143026411533356,0.7807836532592773,23.04958724975586,-12.272531509399414,0.3749917447566986,-0.12139225006103516,-0.23102569580078125,-0.14704719,-0.63411546,9.874461,1
11,990.2841186523438,-0.6444503664970398,-0.025010110810399055,-0.05403241887688637,0.9708151817321777,23.49083709716797,-12.173666000366211,0.5596879124641418,-0.2497164011001587,-0.15303993225097656,-0.17573236,-0.8843595,9.791608,1
11,990.2765502929688,-0.8725498914718628,-0.08892593532800674,-0.4143577516078949,0.26875829696655273,24.360912322998047,-11.808454513549805,-0.4214175343513489,-0.10237646102905273,0.18583202362060547,0.57469046,-1.3610151,9.552522,1
11,990.2942504882812,-0.820618212223053,-0.12993858754634857,-0.24937506020069122,-0.05106210708618164,24.640323638916016,-10.851709365844727,-0.08283576369285583,-0.41147303581237793,-0.11954593658447266,0.42173046,-1.0059063,9.812913,1
11,990.2916870117188,-0.808101236820221,0.029318299144506454,-0.06095655634999275,-0.527653694152832,25.931625366210938,-9.54509162902832,0.5527164936065674,0.27123069763183594,0.2159738540649414,-0.07537548,-2.1284304,9.41759,1
11,990.2815551757812,-0.8218165040016174,0.14196990430355072,-0.09970549494028091,-0.35781145095825195,26.827926635742188,-9.238794326782227,0.012669280171394348,0.24043655395507812,0.5591039657592773,0.1898973,-2.7480826,9.315799,1
11,990.2588500976562,-0.6467137932777405,0.21613885462284088,-0.11062441766262054,-0.8654088973999023,28.037757873535156,-8.307550430297852,0.7010965943336487,-0.1518232822418213,0.08229255676269531,-0.3836855,-2.4763885,9.417588,1
11,990.32177734375,-0.6785385012626648,0.08883987367153168,-0.3162202537059784,-1.1556086540222168,28.50308609008789,-7.597202301025391,0.22553537786006927,0.010565996170043945,0.20096969604492188,0.108627945,-2.824347,9.273189,1
11,990.3043212890625,-0.6118262410163879,0.15941356122493744,-0.6300734281539917,-1.2870793342590332,28.696044921875,-7.588233947753906,-0.36199885606765747,-0.20618677139282227,-0.6922445297241211,0.1564196,-2.8934622,10.035426,1
11,990.3041381835938,-0.9146273732185364,0.15208986401557922,-0.4435192048549652,-2.048814296722412,28.45623779296875,-6.456026077270508,0.45697709918022156,-0.2770729064941406,-0.07462692260742188,0.013019145,-3.4868984,8.690856,1
11,990.2991943359375,-1.4111732244491577,0.26647254824638367,-0.672950267791748,-2.612173557281494,30.035228729248047,-5.460809707641602,-0.48533016443252563,-0.028581619262695312,0.23031139373779297,0.44797492,-3.9158888,9.249515,1
11,990.2688598632812,-1.0278115272521973,0.17272932827472687,-0.41289278864860535,-3.3997511863708496,30.982643127441406,-4.086149215698242,0.3508792519569397,-0.35294294357299805,-0.5089559555053711,-0.36937785,-3.9778533,8.835254,1
11,990.3243408203125,-1.5291509628295898,0.1764577329158783,-0.34205275774002075,-3.435842990875244,31.685344696044922,-2.505037307739258,-0.08985459804534912,-0.3308553695678711,0.7856631278991699,0.333247,-4.809617,7.781847,1
12,990.3243408203125,-1.5291509628295898,0.1764577329158783,-0.34205275774002075,-4.265218257904053,32.43505859375,-0.26553916931152344,-0.237450510263443,-0.10935211181640625,0.12169265747070312,0.46229535,-4.809617,8.534617,1
12,990.2942504882812,-0.9678902626037598,0.11121034622192383,-0.20490005612373352,-4.207200527191162,33.43755340576172,-0.25615692138671875,-0.6823598742485046,-0.3631143569946289,0.2914924621582031,0.6391418,-5.2100077,8.340506,1
12,990.279052734375,-0.5054327249526978,-0.351380318403244,0.4871217906475067,-3.8899645805358887,34.31355285644531,0.4905281066894531,-0.13394153118133545,1.6698346138000488,-1.0589590072631836,-0.12563318,-6.375431,8.965447,1
12,990.4201049804688,-0.2624194324016571,-0.2918587625026703,0.7576987147331238,-2.7434916496276855,34.333927154541016,-0.3032054901123047,0.6075511574745178,-0.32590389251708984,2.235830783843994,-1.0839902,-4.921631,6.2455306,1
12,990.4404907226562,0.21188923716545105,1.0487754344940186,0.3993707597255707,-1.2930984497070312,34.32253646850586,-0.6800098419189453,-0.3633612394332886,-0.7245702743530273,-0.6418132781982422,0.4574902,-3.5965278,9.973874,1
12,990.4632568359375,-0.034186579287052155,-0.1646929383277893,1.121086835861206,-0.0483098030090332,35.961936950683594,-0.4288616180419922,-0.47954726219177246,-1.589101791381836,-1.7615327835083008,-0.4841375,-4.5879717,9.843677,1
12,990.32177734375,-0.024066511541604996,-1.3945395946502686,1.2730200290679932,0.14933347702026367,36.410545349121094,-0.7165241241455078,0.7279343605041504,0.7953915596008301,-0.20572185516357422,-0.8975969,-4.9502296,8.465964,1
12,990.3394165039062,0.6190864443778992,0.06154237315058708,-0.6279426217079163,-1.1200757026672363,35.32770538330078,-1.2273921966552734,0.7237909436225891,-0.9570479393005371,-0.25122547149658203,-0.43635216,-3.653726,10.262671,1
12,990.3923950195312,0.7860665321350098,-0.13326771557331085,-0.1756051480770111,-1.8122663497924805,33.2053337097168,-2.3052730560302734,0.07438181340694427,0.1462574005126953,-0.6265239715576172,0.13779569,-4.545086,9.408164,1
12,990.3065795898438,0.9751508831977844,-0.8599106669425964,-0.15576457977294922,-2.8146796226501465,33.321537017822266,-4.236181259155273,0.08563949167728424,0.6138675212860107,-0.8842620849609375,-0.07728939,-4.2114277,9.945519,1
12,990.3466796875,0.9559706449508667,-0.40371060371398926,0.053557347506284714,-3.9209532737731934,31.44452667236328,-6.804298400878906,0.37922143936157227,-0.18851161003112793,-1.2175064086914062,0.22145444,-3.3391476,10.191709,1
12,990.30126953125,1.364898681640625,-0.35923582315444946,0.2682079076766968,-4.036715984344482,29.651363372802734,-8.221223831176758,-0.3966217637062073,-0.33590149879455566,0.1312112808227539,0.27164847,-2.6336975,9.408165,1
12,990.2785034179688,0.6627566814422607,0.38072288036346436,0.04969571530818939,-3.9150805473327637,29.29163360595703,-8.98875617980957,0.04226245731115341,-0.23326992988586426,-0.9248056411743164,0.28121424,-2.6670632,10.511282,1
12,990.293701171875,0.6303992867469788,0.1767248809337616,-0.008361167274415493,-3.966735363006592,28.50686264038086,-10.70551872253418,-0.23655536770820618,-0.11873197555541992,-0.8405570983886719,0.21669295,-2.4001365,10.080451,1
12,990.2607421875,1.0284082889556885,-0.0018398927059024572,-0.17147968709468842,-4.20138692855835,26.444236755371094,-11.934385299682617,-0.1894357055425644,-0.19867420196533203,-0.06323432922363281,0.3457538,-1.7232854,9.633052,1
12,990.2454223632812,0.8185513019561768,0.11587173491716385,-0.24724656343460083,-4.622292995452881,25.313507080078125,-13.266061782836914,0.13562455773353577,-0.13108599185943604,-0.8259305953979492,-0.17523873,-2.24999,10.939747,1
12,990.2656860351562,0.84971022605896,0.007081707939505577,-0.24458342790603638,-4.960315227508545,23.628292083740234,-14.655054092407227,0.39105474948883057,0.5119179487228394,-0.01749897003173828,-0.3831541,-2.188025,10.364518,1
12,990.2430419921875,1.1225508451461792,0.5150792598724365,-0.0400528609752655,-3.993274211883545,21.58516502380371,-16.840078353881836,0.46931028366088867,0.16429126262664795,0.7475919723510742,-0.5552209,-1.1250831,9.436575,1
12,990.1951904296875,0.8162874579429626,0.43731504678726196,0.04543451592326164,-3.620872974395752,20.82772445678711,-17.007112503051758,0.052837640047073364,0.2267688512802124,-1.0098037719726562,-0.60540277,-1.0440516,10.790616,1
12,990.2506713867188,0.9366621375083923,0.16221073269844055,0.046100277453660965,-3.2339863777160645,18.714828491210938,-18.097864151000977,0.8636746406555176,0.9692388772964478,-0.7695226669311523,-1.0714276,-1.0416687,10.352683,1
12,990.24560546875,0.982601523399353,0.3265276551246643,0.2511634826660156,-2.8714213371276855,17.790620803833008,-19.023466110229492,-0.28095224499702454,-0.4195990562438965,0.14192962646484375,-0.18237789,0.5384449,9.654359,1
12,990.2127685546875,0.9740794897079468,0.05541808530688286,0.10255920141935349,-2.570758819580078,15.597126007080078,-20.327165603637695,0.3250292241573334,0.6813010573387146,-0.36117076873779297,-0.83959484,-0.2909362,10.257997,1
12,990.2279663085938,0.9963167905807495,-0.10250721871852875,-0.03126455843448639,-3.1994175910949707,13.639183044433594,-20.731599807739258,-0.2534238398075104,-0.055995821952819824,-0.6353654861450195,-0.24928296,0.9888841,10.2485285,1
12,990.2506103515625,1.0064367055892944,0.0779218003153801,0.01653912104666233,-2.0053892135620117,12.018753051757812,-22.052522659301758,-0.25976893305778503,0.6543868780136108,1.1574831008911133,-0.25166675,0.78868866,8.186696,1
12,990.2127685546875,0.9530402421951294,-0.25444039702415466,-0.0068967086263000965,-2.698941707611084,10.421138763427734,-21.929147720336914,0.20527738332748413,-0.5231904983520508,-0.44873714447021484,-0.6722834,1.0699154,11.851125,1
13,990.2807006835938,0.779002845287323,-1.0436674356460571,-0.12301045656204224,-4.305369853973389,8.44314193725586,-22.18174171447754,0.8753003478050232,1.942488431930542,-0.826481819152832,-0.7774329,1.2486612,9.673299,1
13,990.3287963867188,0.984332263469696,-0.04152084141969681,0.24610333144664764,-4.655951976776123,7.640652656555176,-21.926790237426758,-0.12481836974620819,-0.9175219535827637,0.9594650268554688,0.17614403,3.0337365,9.39397,1
13,990.2352294921875,0.9268079996109009,-0.8926663994789124,-0.0448467954993248,-5.492767810821533,5.32969856262207,-22.201509475708008,0.5049656629562378,0.09296393394470215,-1.1578235626220703,0.25979674,2.7501261,10.047318,1
13,990.2073364257812,0.4623529613018036,-0.12807348370552063,-0.21262584626674652,-7.393857479095459,2.7062721252441406,-21.139177322387695,0.2650637626647949,0.15410470962524414,-2.0270824432373047,0.4223162,3.0385027,11.06995,1
13,990.2073364257812,0.4623529613018036,-0.12807348370552063,-0.21262584626674652,-7.393857479095459,2.7062721252441406,-21.139177322387695,-0.0189703106880188,0.756375789642334,-1.2019195556640625,0.7760277,2.4307663,10.312447,1
13,990.21240234375,0.7510393857955933,-0.15257452428340912,-0.05776319280266762,-7.789844036102295,1.6511192321777344,-21.786256790161133,-0.31203287839889526,0.11997699737548828,-1.033625602722168,0.967226,3.384078,10.158578,1
13,990.192138671875,0.8935182690620422,-0.4405951499938965,-0.25683432817459106,-8.171184539794922,-0.23327159881591797,-22.23310661315918,0.08416223526000977,0.06803679466247559,-1.5498733520507812,0.6923934,3.353095,10.613082,1
13,990.1972045898438,0.8497092723846436,-0.22501243650913239,-0.3708175718784332,-8.493562698364258,-1.9576606750488281,-21.77459144592285,0.12226319313049316,1.2142422199249268,-0.6316490173339844,0.7560538,3.0742726,8.81393,1
13,990.1869506835938,1.2208203077316284,-0.18399976193904877,-0.359632283449173,-9.020944595336914,-5.138452529907227,-20.968313217163086,0.1212310791015625,0.09274816513061523,-0.3760337829589844,0.8531196,4.509029,8.285958,1
13,990.1869506835938,1.2208203077316284,-0.18399976193904877,-0.359632283449173,-9.020944595336914,-5.138452529907227,-20.968313217163086,0.09695738554000854,1.0332865715026855,-0.6023845672607422,0.77179825,3.9584932,8.854081,1
13,990.1716918945312,1.0426690578460693,-0.44179582595825195,-0.40103140473365784,-9.878089904785156,-7.100256443023682,-20.336515426635742,0.30366605520248413,0.6894931793212891,-0.3130006790161133,0.43714738,4.29692,8.761754,1
13,990.1871337890625,1.0967317819595337,-0.21875634789466858,-0.4608190655708313,-10.434656143188477,-9.728915214538574,-19.558046340942383,0.22944915294647217,1.098952293395996,-0.46596717834472656,0.49683022,4.6758633,8.321448,1
13,990.201904296875,0.9932687878608704,-0.13180431723594666,-0.44071194529533386,-10.447023391723633,-11.479179382324219,-18.9918155670166,0.7223140001296997,1.15114164352417,-0.6007561683654785,0.43462807,4.797412,8.423233,1
13,990.2046508789062,1.1611814498901367,-0.32661446928977966,-0.33778056502342224,-10.344524383544922,-13.332691192626953,-18.283281326293945,0.1934717893600464,0.589841365814209,-0.48948144912719727,0.19796312,5.5815125,7.98056,1
13,990.2045288085938,0.8274883031845093,0.1375739872455597,-0.2192697525024414,-9.927993774414062,-14.83936595916748,-17.797399520874023,0.5323436260223389,1.318075180053711,-1.1111407279968262,0.07123363,5.17159,8.21254,1
13,990.1968383789062,0.7515890002250671,0.4639439880847931,-0.19103999435901642,-9.609428405761719,-15.700371742248535,-17.180238723754883,0.3582172095775604,1.2067923545837402,-0.003207683563232422,0.3412279,5.9866724,6.6525474,1
13,990.1817016601562,1.2567907571792603,-0.019019942730665207,-0.1577502191066742,-9.077646255493164,-18.204814910888672,-17.577543258666992,-0.5516120195388794,0.0661931037902832,-0.280458927154541,1.1393905,6.978118,7.55918,1
13,990.143798828125,1.029757022857666,0.3841822147369385,0.0427858904004097,-8.652122497558594,-19.80856704711914,-16.856416702270508,-0.46796751022338867,0.9476509094238281,-0.9221529960632324,0.042360723,6.110606,6.9721074,1
13,990.1917724609375,1.5566643476486206,0.09536243230104446,-0.4674748182296753,-7.905017375946045,-23.48264503479004,-14.600992202758789,-0.04307902604341507,0.8457298278808594,1.6489224433898926,0.17374063,7.0591526,4.496008,1
13,990.1639404296875,1.1131157875061035,0.3318507969379425,-0.21607233583927155,-7.595881938934326,-24.98462677001953,-13.944868087768555,-0.3699139654636383,0.4701857566833496,-0.3062252998352051,0.27883172,8.0339155,5.651197,1
13,990.1737670898438,0.9629144072532654,-0.17108681797981262,-0.4026263356208801,-7.051063060760498,-26.793128967285156,-12.614267349243164,0.18322305381298065,1.333763599395752,-1.5005173683166504,-0.5409694,6.949525,6.29507,1
13,990.1939697265625,1.491418719291687,-0.7298176288604736,-0.4841187298297882,-7.47461462020874,-29.192970275878906,-10.09904670715332,0.12051088362932205,0.9422931671142578,0.1371312141418457,-0.06544359,7.638294,4.5646396,1
13,990.1334228515625,1.3677157163619995,-0.4360713064670563,-0.20688363909721375,-7.68362283706665,-30.601778030395508,-7.59788703918457,0.18033383786678314,1.1352262496948242,-0.04903125762939453,-0.5960665,7.5429645,4.408398,1
13,990.1610717773438,1.0149809122085571,-0.25484347343444824,-0.099691241979599,-8.023441314697266,-32.500301361083984,-7.511419296264648,-0.11824320256710052,0.3832530975341797,-0.6554927825927734,0.8640989,8.78942,4.8936687,1
13,990.1736450195312,0.5740956664085388,0.38657820224761963,0.18673177063465118,-7.98800802230835,-32.52032470703125,-6.668882369995117,-1.014382243156433,0.8540840148925781,-0.6604757308959961,0.31913656,8.022007,4.043837,1
14,990.20654296875,1.0021990537643433,0.4158729016780853,-0.1577475666999817,-7.126410961151123,-34.611183166503906,-6.140413284301758,-0.3530306816101074,0.5961875915527344,-0.14277172088623047,0.4600761,8.79419,3.7195244,1
14,990.143310546875,1.056528091430664,0.3421032726764679,-0.16879941523075104,-7.020272731781006,-35.19747543334961,-4.736745834350586,-1.2253108024597168,0.2876911163330078,-0.6335599422454834,0.68944204,9.058736,3.1016784,1
14,990.1409301757812,1.3649224042892456,0.31107738614082336,-0.4794566333293915,-5.858341693878174,-36.95476150512695,-3.735189437866211,-0.5898071527481079,1.1531848907470703,0.455987811088562,-0.71349525,8.238891,1.7713048,1
14,990.1281127929688,1.6121975183486938,0.01000717468559742,-0.6971696019172668,-5.311976909637451,-38.34148406982422,-0.6588649749755859,1.6862976551055908,1.3474454879760742,0.8288149237632751,-1.8631027,8.303241,0.8078476,1
14,990.1229858398438,1.391954779624939,-0.035799261182546616,-0.1971612274646759,-4.667074680328369,-39.529911041259766,1.3128890991210938,-0.6163461208343506,0.848114013671875,0.717195987701416,-0.013383269,9.127856,0.4338237,1
14,990.1304321289062,1.0613242387771606,0.03717119246721268,-0.03151249885559082,-4.80023717880249,-40.65660095214844,3.1699752807617188,-0.6336480379104614,0.5773258209228516,0.47390395402908325,-0.41734135,9.039676,0.7841637,1
14,990.1328735351562,0.7280306220054626,0.16167376935482025,-0.2806507647037506,-4.254001140594482,-41.35728454589844,4.050615310668945,0.03736603260040283,0.3608388900756836,-0.27116984128952026,-0.7806712,9.063511,1.0966285,1
14,990.162841796875,0.696739137172699,0.47912219166755676,-0.26826679706573486,-2.7526865005493164,-41.9541015625,5.239906311035156,-1.2990036010742188,0.3631477355957031,-0.014528244733810425,-0.06376526,9.740363,-0.36157405,1
14,990.1805419921875,0.9418835639953613,0.7363831996917725,-0.4960997402667999,-1.8795428276062012,-42.13823699951172,6.501852035522461,-0.8861739635467529,0.6247062683105469,0.9347519278526306,-1.1990334,9.08258,-1.367641,1
14,990.1658325195312,1.5473531484603882,-0.3971904218196869,-1.0405824184417725,-0.9502291679382324,-43.165740966796875,8.497347831726074,1.0517956018447876,0.6185359954833984,1.9216866493225098,-2.0666323,9.185063,-2.0233617,1
14,990.1756591796875,0.9057989716529846,-0.4186289608478546,-0.882124125957489,0.8233187198638916,-43.613426208496094,10.328822135925293,-1.6801905632019043,-0.4423990249633789,-0.2179468274116516,-0.9577826,9.723685,-0.79242265,1
14,990.190673828125,0.331755667924881,0.34489861130714417,-1.1537660360336304,2.6733620166778564,-45.25361251831055,11.987335205078125,0.07564425468444824,0.4386148452758789,1.0949254035949707,-2.9701447,8.825191,-2.4707751,1
14,990.1932983398438,0.6614553928375244,-0.13127432763576508,-1.4300684928894043,5.127285957336426,-44.90552520751953,12.666606903076172,0.5815632343292236,1.0301008224487305,0.4813166856765747,-4.253587,7.8599644,-1.2374685,1
14,990.1881713867188,0.5461412072181702,-0.6762898564338684,-1.3080955743789673,7.310764312744141,-45.28522491455078,14.122997283935547,0.43056416511535645,0.9546270370483398,-0.5469750761985779,-4.0935283,8.098293,-1.2351072,1
14,990.19580078125,0.6133866310119629,-0.26136985421180725,-0.885052502155304,8.99311637878418,-45.343711853027344,15.175909042358398,-0.09078550338745117,0.7384986877441406,0.6350240707397461,-3.9860473,8.012498,-2.160689,1
14,990.19580078125,0.6133866310119629,-0.26136985421180725,-0.885052502155304,10.70160961151123,-45.957279205322266,16.41124153137207,0.06903457641601562,0.5343751907348633,0.04446542263031006,-4.399565,7.96245,-1.703825,1
14,990.1653442382812,0.5998051166534424,-0.18094253540039062,-0.827128529548645,12.818809509277344,-45.87220764160156,17.773664474487305,-0.9653854370117188,0.01839160919189453,-0.18081259727478027,-3.854732,8.160264,-2.4092574,1
14,990.1753540039062,0.6413509845733643,-0.18440476059913635,-0.8287262320518494,14.11172103881836,-45.82159423828125,19.41909408569336,-0.5028285980224609,0.7283844947814941,1.442077398300171,-4.6434646,7.4524317,-3.4792387,1
14,990.1476440429688,0.4677142798900604,0.24409732222557068,-1.2032990455627441,18.90287971496582,-45.655784606933594,20.287763595581055,0.9757766723632812,0.569732666015625,0.6251301765441895,-6.0129423,7.2736874,-3.1833444,1
14,990.1476440429688,0.4677142798900604,0.24409732222557068,-1.2032990455627441,18.90287971496582,-45.655784606933594,20.287763595581055,0.44877195358276367,0.6259832382202148,-0.8142151832580566,-5.6377926,7.2212563,-2.0305228,1
14,990.1476440429688,0.11697687953710556,0.15661244094371796,-1.1865206956863403,20.69664764404297,-45.34626007080078,20.840065002441406,-1.3803610801696777,0.01422882080078125,0.5227992534637451,-4.8874283,7.28084,-2.9868784,1
14,990.1878662109375,0.11431436240673065,0.10334917157888412,-0.960684597492218,22.730262756347656,-44.864627838134766,21.037399291992188,-0.48651981353759766,0.3494138717651367,0.9491226673126221,-6.0752745,6.6754894,-3.966906,1
14,990.1801147460938,0.1594555377960205,0.2049485743045807,-1.1420456171035767,24.979507446289062,-44.12854766845703,21.417572021484375,0.2319655418395996,0.8181777000427246,0.6165626049041748,-6.1781044,6.4466963,-2.7217636,1
14,990.1801147460938,0.08542033284902573,0.23397690057754517,-1.1927783489227295,27.26791000366211,-43.67192077636719,21.885046005249023,-1.0549745559692383,-0.039198875427246094,0.33795642852783203,-6.0897427,6.234586,-3.4934776,1
15,990.1878051757812,-0.3598591983318329,0.25102099776268005,-0.8288574814796448,28.785316467285156,-42.77789306640625,21.75287628173828,-0.5477538108825684,0.37405967712402344,1.4441494941711426,-6.4028845,5.781765,-3.2875366,1
15,990.1825561523438,-0.12589944899082184,-0.31516677141189575,-1.0546928644180298,32.583248138427734,-40.8544807434082,20.97809600830078,-0.29731225967407227,1.093930721282959,-2.0121233463287354,-7.2513647,4.9523854,-0.8990356,1
15,990.2051391601562,-0.026429850608110428,0.12731698155403137,-1.055757761001587,34.57854461669922,-39.829551696777344,21.611452102661133,-0.2632880210876465,0.34310054779052734,0.6136281490325928,-7.2777185,5.0501013,-3.476925,1
15,990.1622314453125,0.6803731322288513,-0.4487243890762329,-0.976528525352478,35.928226470947266,-38.566078186035156,21.945415496826172,-1.2723503112792969,0.34876346588134766,-0.08016729354858398,-6.044594,4.8379908,-2.8401535,1
15,990.1317749023438,0.534565806388855,-0.6718971729278564,-1.218875765800476,38.05833435058594,-37.09903335571289,22.840063095092773,0.5351638793945312,0.9474225044250488,1.5291399955749512,-10.0705385,3.3460333,-3.1714664,1
15,990.1467895507812,0.24200798571109772,-0.5629723072052002,-1.5554943084716797,40.27755355834961,-36.07465744018555,22.66910171508789,2.6285781860351562,0.850409984588623,0.04439592361450195,-11.146035,3.112473,-2.830593,1
15,990.167236328125,0.41178077459335327,-0.6692318320274353,-0.7789186835289001,41.695613861083984,-34.43052673339844,22.04644203186035,1.0785131454467773,0.9481790065765381,2.5026192665100098,-9.80056,3.179206,-4.3550754,1
15,990.1897583007812,-0.028438957408070564,-0.7173018455505371,-0.3309752941131592,41.94749450683594,-34.35254669189453,21.772113800048828,1.3802976608276367,0.7429141998291016,0.7379143238067627,-10.192545,3.2793047,-1.736953,1
15,990.1669311523438,-0.39568817615509033,-0.7362103462219238,-0.19715139269828796,41.93268585205078,-34.04952621459961,20.44793128967285,1.0694026947021484,0.22447824478149414,-0.17131471633911133,-9.3991375,3.8798914,-1.7961366,1
15,990.1820678710938,-0.2245798408985138,-0.3067760765552521,0.02801886573433876,42.0863037109375,-33.95802307128906,19.88001251220703,-1.0949163436889648,-0.4072377681732178,0.580291748046875,-7.781215,4.3470154,-2.1370175,1
15,990.1871337890625,-0.13283362984657288,-0.48147937655448914,-0.03669572249054909,42.269248962402344,-34.31273651123047,18.64082908630371,-0.5943136215209961,-0.3596179485321045,0.1762620210647583,-8.443258,4.2135525,-1.2067107,1
15,990.1820068359375,-0.21139641106128693,-0.12115403264760971,-0.15893453359603882,42.18498229980469,-33.65380859375,18.07636833190918,-0.5646295547485352,-0.13574004173278809,-0.03280282020568848,-8.462419,3.9966753,-1.4529035,1
15,990.2047119140625,-0.11112809181213379,-7.793212425895035E-4,-0.21699124574661255,42.76598358154297,-33.3201904296875,17.50541114807129,0.3472566604614258,0.2334272861480713,0.1845453977584839,-9.600052,3.4652052,-1.2422262,1
15,990.1920776367188,-0.15214034914970398,0.07285695523023605,-0.2343016117811203,43.10810852050781,-32.788909912109375,17.113666534423828,0.9071903228759766,0.3526904582977295,0.22407710552215576,-9.521226,3.522405,-1.3700588,1
15,990.1871337890625,-0.21246051788330078,0.2783195674419403,0.0051165372133255005,43.09563446044922,-33.432830810546875,17.307235717773438,-0.2586326599121094,0.11826777458190918,0.28648078441619873,-8.656121,3.806016,-1.6422908,1
15,990.2047119140625,-0.023109521716833115,0.08550682663917542,0.030949342995882034,43.22254180908203,-33.630210876464844,17.530181884765625,0.21114730834960938,0.09414505958557129,0.290408730506897,-9.110244,3.6797032,-1.6635993,1
15,990.1742553710938,-0.05919492989778519,0.20348471403121948,0.06610321253538132,42.95601272583008,-32.878944396972656,17.604278564453125,-0.3237466812133789,-0.003275156021118164,0.5123616456985474,-8.450671,3.8941994,-1.5949543,1
15,990.1766357421875,-0.082364022731781,0.2028188556432724,0.10671653598546982,42.70261001586914,-32.95838928222656,17.95591163635254,-0.5275173187255859,0.2157423496246338,-0.3599511384963989,-8.52002,3.684472,-1.2990576,1
15,990.1464233398438,0.1625138223171234,0.1679314225912094,-0.0020733207929879427,42.655540466308594,-33.31843566894531,17.830265045166016,0.3966522216796875,0.031653642654418945,0.9373376369476318,-9.148604,3.7798038,-2.2151685,1
15,990.2069702148438,0.12043630331754684,0.12878292798995972,0.06916634738445282,42.78480529785156,-33.25049591064453,18.499229431152344,-0.0659341812133789,-0.09682989120483398,0.3464878797531128,-8.976571,3.8703694,-1.812748,1
15,990.2069702148438,0.12043630331754684,0.12878292798995972,0.06916634738445282,42.46468734741211,-33.60322570800781,19.031103134155273,-0.49963951110839844,0.1272141933441162,0.01825106143951416,-8.393476,3.789339,-1.8293221,1
15,990.1742553710938,-0.0682477205991745,0.033974334597587585,0.028819823637604713,42.30555725097656,-32.856651306152344,18.934955596923828,0.2882804870605469,0.4490017890930176,0.22051000595092773,-9.165455,3.5843778,-1.8529978,1
15,990.1742553710938,-0.0682477205991745,0.033974334597587585,0.028819823637604713,42.712005615234375,-33.52967071533203,18.98868751525879,0.2145557403564453,0.2268071174621582,0.3261528015136719,-8.847639,3.9323373,-1.7725167,1
15,990.1942749023438,-0.25706490874290466,0.06753000617027283,0.1685028374195099,42.442378997802734,-34.413917541503906,18.466102600097656,0.016208648681640625,0.22800135612487793,0.058188438415527344,-8.7592535,3.88229,-1.5713083,1
15,990.1942749023438,-0.25706490874290466,0.06753000617027283,0.1685028374195099,42.119686126708984,-32.81926727294922,17.806644439697266,-0.31597328186035156,0.10623550415039062,-0.04304957389831543,-8.450995,3.9752388,-1.2659428,1
16,990.2017822265625,-0.23296290636062622,0.014666236937046051,0.09193719178438187,42.16808319091797,-34.196231842041016,17.802772521972656,-0.2657642364501953,0.047954559326171875,-0.07434582710266113,-8.632669,4.096787,-1.5713155,1
16,990.206787109375,-0.12603668868541718,-0.07148700952529907,0.0222957581281662,41.83734130859375,-33.34701156616211,17.804048538208008,0.08494186401367188,0.1106569766998291,-0.0634986162185669,-8.852581,3.9204254,-1.2612158,1
16,990.1967163085938,-0.161190003156662,0.09282982349395752,-0.07530884444713593,42.35368347167969,-33.65348815917969,17.434478759765625,-0.15531253814697266,0.17122602462768555,-0.19390082359313965,-8.699668,3.8441615,-1.2138754,1
16,990.20654296875,-0.2787680923938751,0.055945008993148804,-0.09142078459262848,42.728450775146484,-34.145606994628906,17.713462829589844,0.1970806121826172,0.43761754035949707,-0.0762932300567627,-8.98117,3.6677866,-1.3085172,1
16,990.1837768554688,-0.19847343862056732,-0.009169287048280239,-0.05666640028357506,42.27438735961914,-33.4643440246582,17.435630798339844,-0.11610984802246094,0.2983405590057373,-0.14384496212005615,-8.779877,3.7702541,-1.3487102,1
16,990.1713256835938,-0.23655621707439423,0.08004647493362427,-0.01884937845170498,42.1422119140625,-33.429317474365234,16.222198486328125,0.35587501525878906,0.29022860527038574,0.07180416584014893,-9.045152,3.8798847,-1.4623356,1
16,990.1786499023438,-0.21832393109798431,0.11040814965963364,-0.0293732900172472,42.628257751464844,-33.659339904785156,16.699649810791016,-0.17249584197998047,0.0028295516967773438,0.03723406791687012,-8.736851,4.041948,-1.4765384,1
16,990.1837768554688,-0.16585975885391235,0.07458867877721786,-6.111913826316595E-4,42.696495056152344,-33.38458251953125,16.442106246948242,0.1493825912475586,0.14868497848510742,0.0972905158996582,-8.763137,4.018115,-1.5499213,1
16,990.1861572265625,-0.16293029487133026,0.12385713309049606,-0.02111753076314926,42.638912200927734,-33.64902114868164,16.15851593017578,-0.35501956939697266,0.004331111907958984,0.1526331901550293,-8.555211,4.0753136,-1.5215145,0
16,990.1912231445312,-0.25680676102638245,0.13863767683506012,-0.012728611007332802,42.57499694824219,-32.9189338684082,16.51056671142578,0.08573436737060547,0.1297309398651123,0.0444943904876709,-8.758348,4.046714,-1.4599669,0
16,990.1912841796875,-0.23110726475715637,0.10122030228376389,0.0067124320194125175,42.65193176269531,-33.37339401245117,16.063396453857422,-0.12098503112792969,0.08092021942138672,-0.059372663497924805,-8.720106,4.013348,-1.3865833,0
16,990.2188110351562,-0.22444941103458405,0.12399031221866608,0.018163999542593956,42.89329528808594,-33.1998176574707,15.631124496459961,-0.12937068939208984,0.10431146621704102,0.15565907955169678,-8.595828,4.0562468,-1.5475528,0
16,990.21630859375,-0.20713892579078674,0.04822344332933426,0.041599784046411514,42.468963623046875,-33.43898391723633,15.479555130004883,-0.045327186584472656,0.1680469512939453,0.017238974571228027,-8.71532,4.0776963,-1.4457626,0
16,990.2060546875,-0.2504153251647949,0.1061471551656723,0.05797819420695305,42.61910629272461,-34.088478088378906,15.3404541015625,0.08385944366455078,0.09756326675415039,-0.3582078218460083,-8.772673,4.049097,-0.9060402,0
16,990.2288208007812,-0.1674579381942749,0.046492401510477066,0.07076133787631989,42.99596405029297,-33.73515319824219,14.56884765625,-0.28816986083984375,0.2481551170349121,-0.3479781150817871,-8.392674,3.9895148,-1.1545961,0
16,990.2138061523438,0.0013862964697182178,0.020260293036699295,0.05491552874445915,42.60209655761719,-33.524559020996094,14.69420337677002,-0.16391277313232422,0.32074975967407227,-0.1987820863723755,-8.6818495,4.0538635,-1.3013623,0
16,990.1910400390625,-0.013793746940791607,0.09829085320234299,0.033743396401405334,42.64872741699219,-33.90256118774414,15.0940580368042,0.19462299346923828,0.18490314483642578,-0.07166039943695068,-8.896936,4.0824623,-1.4149877,0
16,990.2062377929688,-0.21779175102710724,0.2725945711135864,0.13281288743019104,41.7852783203125,-33.657569885253906,15.28976058959961,-0.12902259826660156,0.13312673568725586,-0.1994004249572754,-8.526498,4.244526,-1.3202993,0
16,990.2186889648438,-0.2207212746143341,0.12798509001731873,0.2081802636384964,41.415626525878906,-33.52932357788086,14.877313613891602,-0.24196434020996094,0.18415307998657227,-0.130393385887146,-8.36159,4.1706433,-1.4126197,0
16,990.1631469726562,-0.23070812225341797,0.11213929951190948,0.19513076543807983,41.50391387939453,-33.81554412841797,15.111409187316895,-0.1683502197265625,0.43657398223876953,-0.3734318017959595,-8.371146,4.1372776,-0.7947796,0
16,990.19091796875,-0.1787765920162201,-0.0031754726078361273,0.1955302506685257,41.269752502441406,-33.507545471191406,14.359626770019531,0.0862283706665039,0.4587874412536621,-1.2294341325759888,-8.380702,4.5043025,-0.9368114,0
16,990.2032470703125,0.19739456474781036,-0.20344500243663788,0.1895381063222885,41.07156753540039,-33.58787155151367,14.548835754394531,-0.4889106750488281,0.45832109451293945,0.37958478927612305,-7.835801,4.4709363,-1.1096168,0
16,990.1754150390625,-0.04428713023662567,-0.38693666458129883,0.07555489242076874,40.569862365722656,-34.110633850097656,15.118640899658203,-0.6212148666381836,-0.24396514892578125,-1.0102859735488892,-8.079567,4.8808603,-0.27872846,0
16,990.1831665039062,-0.08849561214447021,-0.0925244390964508,-0.01991935819387436,40.70082092285156,-32.723045349121094,13.939486503601074,-0.3308448791503906,-0.2590951919555664,-0.516502857208252,-8.15843,5.0238566,-0.7758405,0
17,990.188232421875,0.11523601412773132,-0.15470917522907257,-0.05826885998249054,40.05064392089844,-32.488922119140625,13.87200927734375,-0.4901609420776367,-0.8157792091369629,-0.24657535552978516,-8.146478,5.364665,-0.9462788,0
17,990.208251953125,0.3553197383880615,-0.3007834255695343,-0.21073471009731293,40.311927795410156,-32.982234954833984,14.630455017089844,-0.48320484161376953,-0.5244855880737305,0.014747977256774902,-8.344834,4.8498774,-1.5309775,0
17,990.165283203125,0.23068387806415558,0.10960932821035385,-0.3102037310600281,40.44839859008789,-32.43272399902344,14.115365982055664,-0.13422107696533203,-0.27771806716918945,0.3980703353881836,-8.638788,4.542434,-1.4362891,0
17,990.2032470703125,0.07781852036714554,0.09016828238964081,-0.2766479551792145,40.73267364501953,-32.37772750854492,14.83818531036377,1.0437841415405273,0.330920934677124,0.12263166904449463,-9.917382,3.9156318,-1.6517041,0
17,990.1979370117188,0.18660850822925568,-0.05417491868138313,-0.11432841420173645,40.604244232177734,-32.18181610107422,14.692543029785156,0.9025125503540039,0.39907383918762207,0.4260510206222534,-9.317832,4.04672,-1.8931875,0
17,990.1851196289062,-0.10327407717704773,0.05208475887775421,0.26863476634025574,40.17534637451172,-32.42539978027344,14.77288818359375,-0.0946035385131836,0.2740163803100586,0.9776664972305298,-8.517549,4.146826,-1.9689684,0
17,990.1851196289062,-0.10327407717704773,0.05208475887775421,0.26863476634025574,39.68291473388672,-32.83340835571289,14.179784774780273,0.09180736541748047,0.49941205978393555,0.07955610752105713,-8.833036,4.0800943,-1.3392947,0
17,990.1953735351562,-0.28276705741882324,-0.025680121034383774,0.3483980596065521,38.8753662109375,-32.85166931152344,13.612434387207031,0.36518287658691406,0.35765504837036133,-0.05591893196105957,-9.002742,4.3613224,-0.89899695,0
17,990.1826171875,-0.21272577345371246,-0.040061213076114655,0.3112470805644989,38.08732986450195,-33.0626106262207,13.438274383544922,0.5205669403076172,0.5328125953674316,-0.11812794208526611,-8.866538,4.4352045,-1.3061578,0
17,990.2180786132812,-0.06159130483865738,-0.06962230801582336,0.34427034854888916,37.54508972167969,-33.201473236083984,13.299003601074219,0.24454116821289062,0.053252220153808594,0.3260596990585327,-8.646689,4.833212,-1.3937461,0
17,990.2206420898438,0.09327159076929092,0.0054787397384643555,0.39620205760002136,37.12572479248047,-33.910438537597656,13.71304702758789,0.8721857070922852,0.8852748870849609,0.4997715950012207,-9.000417,4.5758185,-1.3156304,0
17,990.1952514648438,0.1398770809173584,-0.22954505681991577,0.31697311997413635,36.43388748168945,-33.76809310913086,13.811328887939453,-0.4020709991455078,-0.4332141876220703,-0.6632093787193298,-7.9225917,5.2669697,-0.65044856,0
17,990.2052001953125,-0.1256396472454071,-0.1877335011959076,0.36038273572921753,35.74686050415039,-34.621761322021484,13.351273536682129,-0.21526336669921875,0.10534048080444336,0.5612062811851501,-8.23569,5.1644893,-1.3440409,0
17,990.1776733398438,-0.1731768399477005,-0.007038215175271034,0.2619791030883789,36.047874450683594,-34.550559997558594,13.223737716674805,0.37592506408691406,0.25402116775512695,-0.06396090984344482,-8.465143,4.969061,-0.34981784,0
17,990.1876220703125,-0.0994071215391159,-0.12621457874774933,0.03561069071292877,36.228179931640625,-35.38242721557617,12.93669319152832,0.03859424591064453,0.13183259963989258,-0.33096253871917725,-8.254852,5.0596266,-0.7877523,0
17,990.195068359375,-0.11232322454452515,-0.23087677359580994,-0.06412451714277267,36.16494369506836,-34.914710998535156,12.688116073608398,0.0842580795288086,0.30379581451416016,0.03906887769699097,-8.62531,4.8189154,-0.9416224,0
17,990.1799926757812,-0.21578651666641235,0.08550643175840378,-0.14095649123191833,36.779693603515625,-35.128807067871094,11.913053512573242,0.4464759826660156,0.32239818572998047,0.09174096584320068,-8.577534,4.81415,-0.7640842,0
17,990.1900634765625,-0.33602797985076904,0.11386903375387192,-0.004336339421570301,36.81928634643555,-34.670204162597656,11.726150512695312,-0.037624359130859375,0.30977439880371094,-0.06636786460876465,-8.314666,4.8522825,-0.76171887,0
17,990.1922607421875,-0.4805041253566742,0.3747254014015198,0.016303231939673424,36.56425094604492,-33.644779205322266,11.782432556152344,0.08680152893066406,0.28429317474365234,-0.13710904121398926,-8.350535,4.8236837,-0.67650163,0
17,990.1721801757812,-0.38010281324386597,0.2487579733133316,-0.020048795267939568,37.192012786865234,-33.583248138427734,10.912252426147461,-0.014546394348144531,0.32100391387939453,-0.164392352104187,-8.305149,4.828451,-0.75462127,0
17,990.1922607421875,-0.30193892121315,0.21307159960269928,-0.04801187664270401,36.80683898925781,-34.10186767578125,10.847983360290527,0.06629657745361328,0.3672327995300293,0.3312408924102783,-8.395986,4.7259703,-1.254103,0
17,990.1544189453125,-0.3798360824584961,0.2094763070344925,-0.0645233690738678,37.100379943847656,-33.93210983276367,10.407896041870117,0.03898048400878906,0.19419240951538086,0.2002282738685608,-8.508333,4.9595323,-0.83511007,0
17,990.17724609375,-0.48529696464538574,0.12971465289592743,-0.057865384966135025,37.31158447265625,-33.5761604309082,10.12356948852539,0.6110286712646484,0.2819666862487793,-0.08664995431900024,-8.833383,4.904717,-0.6149622,0
17,990.1922607421875,-0.5163225531578064,0.18177936971187592,-3.4106592647731304E-4,37.46824645996094,-33.48170471191406,9.401042938232422,-0.1530141830444336,0.008111000061035156,-0.17044055461883545,-8.037565,5.178795,-0.5865578,0
17,990.1770629882812,-0.42497602105140686,0.1419651359319687,0.06171061843633652,37.38841247558594,-32.92427444458008,9.303743362426758,-0.17105388641357422,0.043099403381347656,-0.019549787044525146,-8.171422,5.252677,-0.43742603,0
18,990.1920776367188,-0.4402889907360077,0.1094745546579361,0.06823545694351196,37.343299865722656,-32.5447998046875,8.826583862304688,-0.05100250244140625,-0.22491216659545898,-0.5088982582092285,-8.137984,5.5458207,0.03364528,0
18,990.166748046875,-0.407931387424469,0.0961587205529213,0.13920871913433075,37.44170379638672,-32.452415466308594,8.421092987060547,-0.36731815338134766,-0.5245761871337891,-0.9211201071739197,-7.8727274,5.917613,0.37215322,0
18,990.1870727539062,-0.3167179822921753,0.2012203186750412,0.12149882316589355,37.64263153076172,-33.00128936767578,7.652402877807617,-0.16828441619873047,-0.677757740020752,-0.5802958011627197,-7.956395,6.0701427,0.23958795,0
18,990.184326171875,-0.15959139168262482,0.16912920773029327,0.01603780686855316,37.30982208251953,-31.785245895385742,7.632532119750977,-0.37029504776000977,-0.6147994995117188,-0.8148277401924133,-7.903839,5.8413486,0.045475364,0
18,990.1767578125,0.018174665048718452,0.1998886615037918,-0.13509635627269745,37.745216369628906,-32.00997543334961,8.040494918823242,-0.09127616882324219,-0.2289714813232422,-0.5180101990699768,-8.191128,5.3766217,-0.1912907,0
18,990.1865844726562,0.13841694593429565,0.1600743681192398,-0.22790026664733887,38.33064270019531,-31.777854919433594,7.936700820922852,-0.11967754364013672,0.04833173751831055,-0.16085189580917358,-8.14815,5.0906296,-0.6718365,0
18,990.201904296875,0.17636847496032715,0.157011479139328,-0.21125487983226776,38.41230010986328,-31.701675415039062,8.381567001342773,-0.22429656982421875,0.19721126556396484,0.0018097758293151855,-8.222278,4.7927203,-0.8825213,0
18,990.1766357421875,0.09620777517557144,0.19149930775165558,-0.21804577112197876,38.760677337646484,-30.638282775878906,8.804550170898438,0.2990379333496094,0.48574399948120117,-0.16434162855148315,-8.762437,4.563927,-0.8209777,0
18,990.2119750976562,0.002198666799813509,0.22785136103630066,-0.16118714213371277,38.812278747558594,-31.486080169677734,9.770018577575684,0.4465169906616211,0.4052577018737793,-0.08577108383178711,-8.752917,4.544862,-0.8848958,0
18,990.2044067382812,-0.07117096334695816,0.1913660168647766,-0.054660625755786896,39.37846374511719,-31.64139175415039,10.76963996887207,0.1644906997680664,0.45505809783935547,-0.3166269063949585,-8.523528,4.6354275,-0.8422899,0
18,990.1990356445312,-0.13721692562103271,0.25807809829711914,0.0031300820410251617,39.764854431152344,-31.753435134887695,10.331732749938965,0.11240863800048828,0.27815675735473633,-0.06614971160888672,-8.516398,4.666411,-0.88016886,0
18,990.178955078125,-0.15492653846740723,0.12998010218143463,-0.04653766006231308,39.72279357910156,-31.371013641357422,9.699962615966797,0.2706422805786133,0.3878211975097656,-0.5017275810241699,-8.621594,4.623513,-0.66002274,0
18,990.178955078125,-0.15492653846740723,0.12998010218143463,-0.04653766006231308,40.100791931152344,-30.121707916259766,9.876550674438477,0.09115123748779297,0.3025069236755371,-0.18817555904388428,-8.509309,4.6258974,-0.9038483,0
18,990.2091674804688,-0.15931996703147888,0.07631731778383255,-0.01684310846030712,40.20623016357422,-30.865930557250977,10.057818412780762,0.1115884780883789,0.30491113662719727,-0.7318951487541199,-8.495011,4.6544976,-0.4682868,0
18,990.2091674804688,-0.15931996703147888,0.07631731778383255,-0.01684310846030712,40.20623016357422,-30.865930557250977,10.057818412780762,-6.246566772460938E-4,0.1948261260986328,-0.7390159368515015,-8.203484,4.933342,-0.5345722,0
18,990.2037963867188,-0.1806248426437378,0.09043199568986893,0.04148023948073387,39.89980697631836,-31.205400466918945,9.89394760131836,-0.3625369071960449,-0.10646486282348633,-0.27557092905044556,-8.100759,5.1454544,-0.77603054,0
18,990.18896484375,-0.07915809750556946,0.10867457091808319,0.09101516753435135,40.057857513427734,-31.215396881103516,9.793193817138672,0.15610218048095703,-0.10309505462646484,-0.368147075176239,-8.530981,5.1383057,-0.6387365,0
18,990.1862182617188,-0.028557687997817993,0.03850027173757553,0.014848986640572548,39.827980041503906,-31.11481475830078,10.20765209197998,-0.029038429260253906,-0.29604673385620117,-0.3559655547142029,-8.189265,5.4147673,-0.8423196,0
18,990.1937255859375,-0.042006250470876694,0.031709153205156326,0.0338907428085804,39.77678680419922,-30.74122428894043,10.039712905883789,-0.28567028045654297,-0.44605016708374023,-0.08218860626220703,-8.143898,5.4576674,-0.8825658,0
18,990.2012329101562,-0.041340071707963943,0.0038790814578533173,0.06345196813344955,39.727657318115234,-30.734458923339844,9.892919540405273,0.18936443328857422,-0.10528945922851562,-0.42280328273773193,-8.643428,5.0215287,-0.64111483,0
18,990.1835327148438,-0.12256602942943573,-0.02514941431581974,-0.08129054307937622,40.303245544433594,-30.669103622436523,9.030555725097656,0.11020565032958984,0.15109491348266602,-0.40067410469055176,-8.304103,4.852317,-0.8186587,0
18,990.2063598632812,-0.0667724460363388,-0.009836314246058464,-0.1661119908094406,40.648529052734375,-31.241228103637695,8.856857299804688,-0.1784534454345703,0.17441129684448242,0.19432485103607178,-8.347161,4.7140875,-1.2139852,0
18,990.1908569335938,0.0410858690738678,0.03224153444170952,-0.08781494945287704,40.59857940673828,-31.078001022338867,10.00976848602295,0.14960098266601562,0.30342817306518555,-0.004528522491455078,-8.469087,4.6616564,-1.1595433,0
18,990.1909790039062,0.04561363160610199,0.03690199926495552,-0.09726899117231369,40.76934051513672,-31.44449806213379,9.38902473449707,-0.33141613006591797,0.05981636047363281,0.2032337188720703,-8.015046,4.9023685,-1.4081032,0
18,990.208740234375,0.031100193038582802,0.03916555643081665,0.058392975479364395,40.176883697509766,-30.840015411376953,8.906059265136719,-0.43679141998291016,0.046396732330322266,0.5078058242797852,-7.917101,4.976251,-1.5880144,0
19,990.1934204101562,-0.022428905591368675,0.024384958669543266,0.04960471764206886,40.46724319458008,-30.77911949157715,9.319658279418945,-0.3514432907104492,-0.2346343994140625,0.10353362560272217,-8.1895895,5.2050467,-1.202164,0
19,990.2059326171875,-0.013773247599601746,0.023186473175883293,0.018445927649736404,40.937904357910156,-31.55009651184082,9.446212768554688,0.07754325866699219,-0.2903447151184082,-0.13673663139343262,-8.364094,5.3647275,-1.1382535,0
19,990.196044921875,0.09301980584859848,0.01533009298145771,0.06052400544285774,40.5463981628418,-31.074180603027344,10.017585754394531,-0.23665809631347656,-0.46665191650390625,0.5620832443237305,-8.115584,5.4719763,-1.5477831,0
19,990.1681518554688,0.1402912735939026,-0.09412579983472824,0.023239945992827415,40.09785461425781,-31.231000900268555,10.403818130493164,-0.08783435821533203,-0.3647441864013672,0.10917484760284424,-8.227888,5.390944,-1.3157952,0
19,990.190673828125,0.16106398403644562,-0.04805316403508186,-0.03335213661193848,40.28218078613281,-31.690153121948242,9.786405563354492,-0.4488210678100586,-0.36769914627075195,0.30375850200653076,-7.8693767,5.238414,-1.5477786,0
19,990.1856689453125,0.16572216153144836,0.013865675777196884,-0.10631950199604034,40.78124237060547,-31.644550323486328,10.168739318847656,-0.3668041229248047,-0.02143239974975586,0.5136305093765259,-8.094063,4.8618565,-1.7584629,0
19,990.2080688476562,0.09874407202005386,0.05514458194375038,-0.1807546466588974,40.702247619628906,-30.82326889038086,10.594762802124023,-0.2032785415649414,0.17572259902954102,0.436883807182312,-8.29485,4.568714,-1.6874502,0
19,990.1954345703125,0.15280653536319733,-0.01662760227918625,-0.1515928953886032,41.19905471801758,-32.14932632446289,10.903736114501953,-0.10823631286621094,0.40169286727905273,0.36637258529663086,-8.314005,4.385203,-1.8365871,0
19,990.193115234375,0.3211185038089752,-0.07481767237186432,-0.04706376791000366,41.2998161315918,-31.791622161865234,10.944263458251953,-0.3070640563964844,0.26015758514404297,1.0315901041030884,-8.110899,4.5615654,-2.3668437,0
19,990.1956176757812,0.3092678189277649,-0.08933195471763611,0.03815745934844017,40.61406707763672,-31.64339828491211,10.73332405090332,-0.29102611541748047,0.14493227005004883,0.8585994243621826,-8.239989,4.6354485,-2.1537988,0
19,990.2055053710938,0.297550231218338,-0.12089043855667114,0.08196656405925751,40.649497985839844,-31.663415908813477,11.575862884521484,-0.15157318115234375,0.0806117057800293,0.5373910665512085,-8.249584,4.7546134,-2.0070355,0
19,990.2030029296875,0.3992832601070404,-0.1826757788658142,0.1482793688774109,40.62941360473633,-32.31470489501953,12.155957221984863,-0.3233318328857422,-0.004837512969970703,0.5531452894210815,-8.065598,4.8856945,-2.0567498,0
19,990.2030029296875,0.46652835607528687,-0.22262321412563324,0.14588266611099243,40.505958557128906,-32.58858108520508,12.575929641723633,-0.47609424591064453,-0.11125898361206055,0.7661198377609253,-7.979596,4.9476604,-2.0946283,0
19,990.2002563476562,0.4505497217178345,-0.24193118512630463,0.06945016235113144,40.31842803955078,-32.658592224121094,12.22400188446045,-0.045368194580078125,0.019479751586914062,0.546334981918335,-8.436103,4.761766,-2.0094125,0
19,990.2102661132812,0.41406479477882385,-0.185339093208313,0.03589450567960739,39.992759704589844,-33.385498046875,13.16354751586914,-0.06489753723144531,0.031696319580078125,0.5782612562179565,-8.3477125,4.726017,-2.0970023,0
19,990.2229614257812,0.37797972559928894,-0.25937503576278687,-0.021895747631788254,40.03192138671875,-33.664955139160156,13.250849723815918,0.522247314453125,0.4483504295349121,0.38772690296173096,-8.768371,4.404276,-1.9810126,0
19,990.2229614257812,0.37797972559928894,-0.25937503576278687,-0.021895747631788254,40.03192138671875,-33.664955139160156,13.250849723815918,0.650172233581543,0.48530149459838867,0.3254585266113281,-9.136451,4.2755795,-1.8934293,0
19,990.220458984375,0.31339842081069946,-0.19133137166500092,0.013391253538429737,39.824607849121094,-33.754112243652344,13.903887748718262,0.4857492446899414,0.5316734313964844,0.1649305820465088,-8.766051,4.29703,-1.5525553,0
19,990.220458984375,0.23909667134284973,-0.2039814293384552,0.05759983882308006,39.66188049316406,-32.64219284057617,13.863899230957031,-0.10007858276367188,0.31696414947509766,0.2798175811767578,-8.319177,4.437644,-1.6709187,0
19,990.2229614257812,0.281174898147583,-0.22235728800296783,0.014190496876835823,39.53690719604492,-32.91754913330078,14.361176490783691,-0.17041778564453125,0.40657854080200195,0.13287794589996338,-8.297702,4.301798,-1.5643978,0
19,990.225341796875,0.36453211307525635,-0.26763105392456055,-0.023093579337000847,39.46519088745117,-33.93330383300781,15.047538757324219,-0.29039859771728516,0.42411231994628906,0.33516669273376465,-8.226041,4.2660494,-1.7395742,0
19,990.225341796875,0.36453211307525635,-0.26763105392456055,-0.023093579337000847,39.95648193359375,-34.4212760925293,14.692447662353516,0.0569305419921875,0.5100836753845215,0.545329213142395,-8.711226,4.1611867,-1.9265864,0
19,990.2050170898438,0.3609371781349182,-0.23966793715953827,-0.02202817052602768,39.807861328125,-33.77031326293945,14.754243850708008,0.44182777404785156,0.5186309814453125,0.4027611017227173,-8.916794,4.163571,-1.6922367,0
19,990.2076416015625,0.1335037648677826,-0.06350002437829971,-0.02735433727502823,39.40141296386719,-33.09729766845703,14.70051097869873,0.3498039245605469,0.45015668869018555,0.14693140983581543,-8.88815,4.216004,-1.5431061,0
20,990.2050170898438,-0.06170542165637016,0.022519942373037338,0.012859503738582134,39.24542999267578,-33.45411682128906,14.822410583496094,0.2961759567260742,0.44771718978881836,-0.027744293212890625,-8.713723,4.2684364,-1.4058117,0
20,990.199951171875,-0.058642446994781494,0.003611459396779537,0.01206070277839899,39.267982482910156,-33.64385986328125,15.060991287231445,-0.08873939514160156,0.27324533462524414,0.22935760021209717,-8.415021,4.4138174,-1.595191,0
20,990.187255859375,0.008336339145898819,-0.04086335375905037,0.01112874411046505,39.322227478027344,-34.01449966430664,15.074319839477539,0.13348674774169922,0.3773045539855957,0.19919908046722412,-8.692285,4.2827377,-1.438959,0
20,990.187255859375,8.088935283012688E-5,-0.0014486550353467464,-0.023359015583992004,39.26439666748047,-33.27851486206055,15.117149353027344,0.03944206237792969,0.2267165184020996,0.023945331573486328,-8.498738,4.4567184,-1.4981422,0
20,990.1922607421875,-0.06716352701187134,0.06406499445438385,-0.038006242364645004,39.42700958251953,-33.284088134765625,14.784480094909668,0.03569793701171875,0.21800708770751953,0.31713056564331055,-8.628082,4.466258,-1.7159513,0
20,990.1971435546875,-0.02575106732547283,0.09655547887086868,-0.009377137757837772,39.62323760986328,-33.94329833984375,14.946784019470215,0.26114368438720703,0.1817913055419922,0.30211079120635986,-8.718944,4.413828,-1.7301587,0
20,990.1793212890625,-0.18806974589824677,0.1816432923078537,-0.023752423003315926,39.9401741027832,-33.69942855834961,15.268596649169922,-0.019324302673339844,0.21148395538330078,0.23361670970916748,-8.47522,4.425745,-1.6899204,0
20,990.1846313476562,-0.2716924846172333,0.23384113609790802,-0.010569598525762558,39.6285400390625,-32.56867980957031,14.865532875061035,0.04770660400390625,0.3424644470214844,0.17041301727294922,-8.632998,4.306582,-1.6212757,0
20,990.1669921875,-0.22015993297100067,0.14023101329803467,-0.05544363707304001,39.94919967651367,-32.58424758911133,14.432109832763672,0.2786083221435547,0.30136632919311523,0.06603538990020752,-8.764489,4.363782,-1.5715687,0
20,990.2119750976562,-0.15877367556095123,0.13290727138519287,-0.0182923823595047,40.097816467285156,-33.2352180480957,14.37031364440918,0.16721248626708984,0.22393178939819336,0.14803087711334229,-8.544663,4.4924803,-1.7065034,0
20,990.1895751953125,-0.11017058044672012,0.1695256382226944,0.04588993266224861,40.25282287597656,-33.24814987182617,14.424169540405273,-0.23321533203125,0.052765846252441406,0.22455012798309326,-8.207733,4.6688437,-1.7609532,0
20,990.2149047851562,-0.10724066942930222,0.15421238541603088,0.044159065932035446,40.1451301574707,-33.87559127807617,14.169541358947754,-0.21611309051513672,0.010207176208496094,0.029999136924743652,-8.241238,4.7212768,-1.6141908,0
20,990.1895751953125,-0.11403128504753113,0.15807390213012695,0.029911356046795845,39.80495834350586,-33.66734313964844,14.209775924682617,-0.3101835250854492,-0.062281131744384766,-0.009406566619873047,-8.121788,4.78086,-1.6307656,0
20,990.1865844726562,-0.1314745396375656,0.1587396115064621,0.016462594270706177,39.765254974365234,-33.01960372924805,14.024023056030273,-0.27113914489746094,-0.024580955505371094,0.03488314151763916,-8.172022,4.7427287,-1.6520745,0
20,990.2069091796875,-0.1321398913860321,0.12957796454429626,-0.026680389419198036,40.30956268310547,-33.24755859375,14.184438705444336,-0.12457275390625,0.019350051879882812,-0.09447944164276123,-8.418227,4.6712317,-1.5763283,0
20,990.2194213867188,-0.12161996215581894,0.11626209318637848,-0.06502968072891235,40.287010192871094,-33.05781936645508,13.945858001708984,0.21555233001708984,0.12577104568481445,-0.20449864864349365,-8.640534,4.5902014,-1.5100508,0
20,990.214599609375,-0.1214863732457161,0.11879202723503113,-0.04199317842721939,40.33516311645508,-33.43434143066406,14.268407821655273,0.10868358612060547,0.12966585159301758,-0.11301565170288086,-8.542594,4.5759025,-1.6852279,0
20,990.206787109375,-0.1156269758939743,0.11772669851779938,-0.005507711786776781,40.428993225097656,-33.34638214111328,14.094833374023438,-0.014444351196289062,0.12558889389038086,0.07467877864837646,-8.363397,4.6331024,-1.7751856,0
20,990.2244262695312,-0.1854013055562973,0.11359872668981552,0.03790196403861046,40.29296112060547,-33.15784454345703,14.335716247558594,-0.10877037048339844,-0.009441375732421875,0.1517777442932129,-8.251117,4.766567,-1.7586195,0
20,990.18408203125,-0.30284616351127625,0.12917812168598175,0.075852170586586,40.30556869506836,-32.40800476074219,13.443069458007812,-0.31488990783691406,-0.06796598434448242,-0.18436896800994873,-8.05997,4.9310145,-1.4721923,0
