Timestamp,P,Gx,Gy,Gz,Mx,My,Mz,LiAx,LiAy,LiAz,Ax,Ay,Az,earthAx,earthAy,earthAz,Value,Type
0,988.4219360351562,0.004173843655735254,-0.0017822034424170852,7.772526005282998E-4,-8.914987564086914,21.93732261657715,-37.994285583496094,1.676619291305542,1.1400309801101685,-0.15218067169189453,0.081786394,-0.15835,9.75836,-1.5902022,-1.2384424,9.549602,0
0,988.4219360351562,0.004173843655735254,-0.0017822034424170852,7.772526005282998E-4,-4.470494270324707,27.151166915893555,-36.44377136230469,1.6790587902069092,1.15266752243042,-0.17996978759765625,0.07215446,-0.16549815,9.782024,-1.589464,-1.261466,9.570943,0
0,988.4219360351562,0.0014442398678511381,0.0011762457434087992,-2.1656282478943467E-4,-4.26665735244751,26.499326705932617,-36.66798400878906,1.6758782863616943,1.1369026899337769,-0.14134597778320312,0.069692254,-0.15357994,9.763081,-1.5944004,-1.2357905,9.553894,0
0,988.4330444335938,2.4651538114994764E-4,6.435007089748979E-4,-2.1626421948894858E-4,-4.295543670654297,27.6835994720459,-36.27092742919922,1.6826438903808594,1.1299304962158203,-0.17373371124267578,0.06484014,-0.15357818,9.770177,-1.5914117,-1.2425344,9.560735,0
0,988.4481811523438,0.001179317943751812,9.097035508602858E-4,7.161402609199286E-4,-4.2220916748046875,26.48813819885254,-36.28927993774414,1.6559315919876099,1.1329110860824585,-0.16828632354736328,0.079107225,-0.14642657,9.774904,-1.5967308,-1.206214,9.5693245,0
0,988.4378662109375,-9.50512127019465E-4,3.7695851642638445E-4,1.8380704568699002E-4,-4.729305744171143,26.803457260131836,-36.38353729248047,1.6628473997116089,1.1262272596359253,-0.1817951202392578,0.08381474,-0.1488081,9.774898,-1.565992,-1.236511,9.570604,0
0,988.4474487304688,2.486062003299594E-4,-2.2628402803093195E-5,5.835796473547816E-4,-4.306657314300537,26.51493263244629,-37.27861022949219,1.646202564239502,1.1384210586547852,-0.16694164276123047,0.078962564,-0.16072269,9.789094,-1.5797007,-1.2356603,9.583117,0
0,988.4855346679688,-9.484211914241314E-4,-8.218023576773703E-4,7.173349731601775E-4,-4.044800758361816,26.865591049194336,-37.493446350097656,1.651329755783081,1.1163511276245117,-0.18001079559326172,0.0717206,-0.14642127,9.777251,-1.563184,-1.2434653,9.572433,0
0,988.4903564453125,5.170130170881748E-4,6.42821891233325E-4,-2.144718891941011E-4,-4.289754390716553,27.057355880737305,-37.00502014160156,1.6550288200378418,1.1198010444641113,-0.17493820190429688,0.07881802,-0.14641948,9.784346,-1.5691248,-1.2234759,9.581338,0
0,988.4724731445312,-5.475536454468966E-4,-9.551865514367819E-4,4.51616506325081E-4,-4.547043800354004,26.71111488342285,-37.0220947265625,1.6522927284240723,1.108349323272705,-0.16949844360351562,0.0811356,-0.14165117,9.770136,-1.5714332,-1.2029033,9.569004,0
0,988.4872436523438,-1.4738296158611774E-4,-6.889838259667158E-4,-8.0716738011688E-5,-4.085916996002197,26.405515670776367,-37.22924041748047,1.6490572690963745,1.106081485748291,-0.1686687469482422,0.076283485,-0.14403267,9.772497,-1.5531387,-1.2292155,9.571054,0
0,988.4618530273438,-9.456336265429854E-4,0.0013082721270620823,5.853717448189855E-4,-4.49359130859375,27.709196090698242,-36.780792236328125,1.6412363052368164,1.1132497787475586,-0.15366268157958984,0.076211214,-0.14403088,9.7748575,-1.5737987,-1.1971158,9.574156,0
0,988.469482421875,-2.7914729434996843E-4,2.4289556313306093E-4,0.001384617993608117,-4.440330505371094,26.968793869018555,-36.591712951660156,1.6523349285125732,1.1249076128005981,-0.16226673126220703,0.06896919,-0.15832873,9.774851,-1.5745366,-1.2118379,9.572346,0
0,988.47412109375,-0.0010773979593068361,-1.5669144340790808E-4,-6.124524516053498E-4,-4.242687225341797,27.417402267456055,-36.879371643066406,1.6490064859390259,1.1130558252334595,-0.17562484741210938,0.073676705,-0.15356044,9.781946,-1.560328,-1.215286,9.581438,0
0,988.46435546875,-1.445953967049718E-4,2.4266925174742937E-4,-7.952208397909999E-5,-4.410846710205078,27.048795700073242,-36.13903045654297,1.622104287147522,1.1015018224716187,-0.1701335906982422,0.073604345,-0.1487921,9.7772045,-1.567752,-1.1938801,9.578001,0
0,988.4591064453125,-2.770565915852785E-4,-6.895494880154729E-4,-4.7869718400761485E-4,-4.370571613311768,27.245019912719727,-36.92655944824219,1.6431939601898193,1.1084736585617065,-0.1693592071533203,0.06636238,-0.14640708,9.779566,-1.5668885,-1.1970534,9.580067,0
0,988.461669921875,-5.426756106317043E-4,5.087588215246797E-4,4.537070053629577E-4,-4.680717468261719,27.164979934692383,-36.3351936340332,1.639922022819519,1.0968316793441772,-0.168548583984375,0.06390017,-0.15117185,9.784292,-1.5824871,-1.1790547,9.584616,0
0,988.45361328125,-1.425048103556037E-4,-1.5714397886767983E-4,7.203216082416475E-4,-3.994147300720215,26.860292434692383,-37.4239616394043,1.631800889968872,1.094525933265686,-0.15350627899169922,0.07577741,-0.14640354,9.7771845,-1.5327309,-1.2146317,9.58102,0
0,988.4484252929688,-2.749660052359104E-4,1.0905880481004715E-4,-7.832754636183381E-5,-4.304836273193359,27.148542404174805,-36.93104553222656,1.6189943552017212,1.087130069732666,-0.15265274047851562,0.0804849,-0.1392519,9.772444,-1.541251,-1.1827452,9.578737,0
0,988.4609985351562,-1.4111131895333529E-4,-2.4212233256548643E-5,5.512911593541503E-5,-3.820857048034668,27.285329818725586,-36.47473907470703,1.615729570388794,1.1037025451660156,-0.15181255340576172,0.06607318,-0.15593304,9.77007,-1.5358269,-1.2161396,9.573151,0
0,988.4534301757812,-1.404142240062356E-4,-2.9064121190458536E-4,4.549016011878848E-4,-4.263314723968506,27.134408950805664,-36.397727966308594,1.617177128791809,1.0872403383255005,-0.1604623794555664,0.07556051,-0.14878143,9.77243,-1.5416998,-1.1839204,9.578607,0
0,988.4584350585938,2.597564598545432E-4,1.0871945414692163E-4,9.878320852294564E-4,-4.764142990112305,28.08775520324707,-36.37633514404297,1.6187691688537598,1.1040369272232056,-0.1501913070678711,0.06879485,-0.16547431,9.770101,-1.5652306,-1.1699042,9.574362,0
0,988.4354858398438,-8.129631169140339E-6,-9.562892373651266E-4,3.2136947265826166E-4,-4.611502170562744,27.80949592590332,-36.76849365234375,1.614693284034729,1.096978783607483,-0.15422344207763672,0.08117688,-0.16071834,9.779608,-1.5436134,-1.1741632,9.587061,0
0,988.4705200195312,5.153920501470566E-4,-1.5332276234403253E-4,5.874190828762949E-4,-4.158825874328613,27.23267936706543,-37.11243438720703,1.6018818616867065,1.0802136659622192,-0.14867115020751953,0.078752816,-0.15595098,9.777239,-1.522588,-1.1928298,9.585605,0
1,988.4526977539062,-5.49541087821126E-4,-2.021837281063199E-5,-7.822905899956822E-5,-3.970752239227295,26.93440055847168,-36.66205978393555,1.6219878196716309,1.1013610363006592,-0.1808786392211914,0.057209432,-0.16309996,9.779602,-1.5653311,-1.1652204,9.584491,0
1,988.4453735351562,2.497363602742553E-4,3.7920178147032857E-4,4.545440897345543E-4,-4.7629194259643555,27.457090377807617,-36.878509521484375,1.6085015535354614,1.1039156913757324,-0.1515636444091797,0.07629439,-0.16548242,9.781966,-1.5153661,-1.2004448,9.590759,0
1,988.432373046875,3.8322468753904104E-4,0.0014444120461121202,1.8836971139535308E-4,-4.092548370361328,26.767911911010742,-37.018470764160156,1.599819540977478,1.1062861680984497,-0.14117717742919922,0.07626015,-0.16548158,9.772495,-1.52297,-1.1803703,9.582389,0
1,988.4625244140625,-4.15393034927547E-4,1.1277879821136594E-4,4.548270080704242E-4,-4.300408363342285,27.047040939331055,-36.46388626098633,1.600864291191101,1.0748810768127441,-0.15445232391357422,0.06905615,-0.15118106,9.7819605,-1.5381485,-1.1523374,9.592736,0
1,988.4578857421875,-4.150628810748458E-4,7.785150082781911E-4,-4.771372186951339E-4,-4.545766353607178,27.7130184173584,-36.772979736328125,1.5827572345733643,1.0676651000976562,-0.15828895568847656,0.08097145,-0.15118022,9.774855,-1.5204806,-1.1499532,9.588689,0
1,988.4448852539062,9.168465621769428E-4,-9.525918867439032E-4,-7.43311655241996E-4,-4.483075141906738,27.613588333129883,-36.62285232543945,1.584225058555603,1.0746817588806152,-0.13852977752685547,0.06898767,-0.15117939,9.767752,-1.5323654,-1.1410993,9.580519,0
1,988.44970703125,-1.4808692503720522E-4,-4.2001373367384076E-4,4.5525142922997475E-4,-4.657589435577393,27.819211959838867,-37.06990051269531,1.5665338039398193,1.0817288160324097,-0.1755809783935547,0.08568275,-0.15356185,9.79142,-1.4999335,-1.1641778,9.607171,0
1,988.4822998046875,-4.1407253593206406E-4,-5.53225283510983E-4,-4.767126520164311E-4,-4.166979789733887,27.593610763549805,-36.824363708496094,1.581755518913269,1.074233889579773,-0.13676738739013672,0.066529274,-0.15356101,9.765377,-1.5072345,-1.1641626,9.57933,0
1,988.4517822265625,-2.805847907438874E-4,-1.538050128147006E-4,-6.097291479818523E-4,-4.155782699584961,27.235628128051758,-37.26704406738281,1.5682697296142578,1.0526167154312134,-0.13110923767089844,0.08083445,-0.14402707,9.767742,-1.5151595,-1.11865,9.5858755,0
1,988.4644165039062,-1.4709634706377983E-4,-1.5385865117423236E-4,-2.1011376520618796E-4,-4.78330135345459,26.17366600036621,-36.723289489746094,1.564411997795105,1.0642298460006714,-0.13018417358398438,0.08319014,-0.1607091,9.760637,-1.5002759,-1.1406237,9.578671,0
1,988.4746704101562,5.190231604501605E-4,3.787195309996605E-4,5.63435023650527E-5,-4.634897232055664,27.735387802124023,-37.5303955078125,1.5650594234466553,1.0518988370895386,-0.13867473602294922,0.07120639,-0.14164208,9.7701025,-1.503596,-1.1296128,9.588703,0
1,988.4746704101562,5.190231604501605E-4,3.787195309996605E-4,5.63435023650527E-5,-4.4155731201171875,26.518156051635742,-37.03105926513672,1.5615335702896118,1.0684465169906616,-0.16150188446044922,0.08312163,-0.16070743,9.784304,-1.4690202,-1.1729591,9.603724,0
1,988.4669799804688,-2.795940963551402E-4,5.11823920533061E-4,4.559587687253952E-4,-3.869743585586548,26.29167366027832,-36.94795227050781,1.5718498229980469,1.0657662153244019,-0.12741661071777344,0.06874797,-0.15355678,9.774832,-1.5111619,-1.1199048,9.593635,0
1,988.4592895507812,-4.1242223232984543E-4,-6.866511539556086E-4,-3.428473719395697E-4,-4.692617416381836,27.365026473999023,-37.11491394042969,1.5535271167755127,1.0583057403564453,-0.15488719940185547,0.078273356,-0.16070576,9.781929,-1.4986849,-1.1245162,9.602474,0
1,988.4668579101562,-3.178528277203441E-5,3.2202008878812194E-4,-2.332294825464487E-4,-4.7025909423828125,27.092344284057617,-37.174400329589844,1.5498673915863037,1.0457758903503418,-0.13977718353271484,0.07345924,-0.1583217,9.77009,-1.4923893,-1.125603,9.59119,0
1,988.4640502929688,2.3486040299758315E-4,-2.1066516637802124E-4,2.995437534991652E-4,-4.45236873626709,27.062929153442383,-36.67234802246094,1.5264900922775269,1.0384918451309204,-0.15775585174560547,0.08059469,-0.14878769,9.78429,-1.4784052,-1.1219798,9.608146,0
1,988.4765014648438,2.3519067326560616E-4,5.882289842702448E-4,3.336934605613351E-5,-4.340950965881348,27.430936813354492,-37.17295837402344,1.5370025634765625,1.0498651266098022,-0.14736080169677734,0.06861091,-0.16070323,9.772451,-1.4684515,-1.1500787,9.594389,0
1,988.4613037109375,3.6900892155244946E-4,-8.76615580637008E-4,3.3652293495833874E-5,-4.421523571014404,26.61817741394043,-37.420921325683594,1.5334645509719849,1.0473556518554688,-0.12285614013671875,0.07574636,-0.16070239,9.772448,-1.4740454,-1.1262885,9.596403,0
1,988.4534912109375,-3.013497916981578E-5,-0.0014093008358031511,-7.651539635844529E-4,-4.509514808654785,27.536535263061523,-37.23014831542969,1.5386743545532227,1.0398139953613281,-0.1313323974609375,0.08049193,-0.15116848,9.765343,-1.471353,-1.103963,9.592061,0
1,988.4865112304688,-2.980482531711459E-5,8.543304284103215E-4,-3.6553858080878854E-4,-4.546607971191406,27.44917106628418,-37.296302795410156,1.539328932762146,1.0178513526916504,-0.13983917236328125,0.073287964,-0.13925125,9.777176,-1.4782506,-1.0887623,9.604546,0
1,988.4635620117188,3.6999915027990937E-4,-4.7730252845212817E-4,-2.3223907919600606E-4,-4.37584114074707,27.082670211791992,-37.91704559326172,1.5354256629943848,1.0485894680023193,-0.15314292907714844,0.0756436,-0.15355004,9.781907,-1.4622035,-1.1137003,9.609195,0
1,988.4534912109375,2.3717136355116963E-4,-6.105140782892704E-4,-0.0010310453362762928,-4.339428901672363,27.43241310119629,-37.25026321411133,1.521895408630371,1.055486798286438,-0.12856388092041016,0.08516896,-0.16784884,9.770068,-1.4500529,-1.1185105,9.598746,0
1,988.4383544921875,2.3750151740387082E-4,3.215378965251148E-4,1.6751763178035617E-4,-4.343015670776367,27.797758102416992,-37.1941032409668,1.5180342197418213,1.0289719104766846,-0.13240528106689453,0.07796502,-0.14878179,9.7819,-1.4580692,-1.0959381,9.611803,0
1,988.4685668945312,4.989940789528191E-4,-0.001671583391726017,1.710088981781155E-4,-4.476987838745117,27.619482040405273,-36.93207550048828,1.5171175003051758,1.0200532674789429,-0.1452789306640625,0.06359136,-0.15593083,9.77953,-1.4740628,-1.0919013,9.607416,0
1,988.4356079101562,6.32482289802283E-4,-0.0010058472398668528,3.799248952418566E-5,-4.339428901672363,27.432409286499023,-37.25026321411133,1.5005993843078613,0.9994721412658691,-0.14478015899658203,0.07550663,-0.1440136,9.770059,-1.4510713,-1.0843968,9.60203,0
2,988.45849609375,2.3333862191066146E-4,3.256784984841943E-4,1.7129193292930722E-4,-4.617888450622559,27.17146873474121,-36.88414764404297,1.4962050914764404,1.0254195928573608,-0.12487316131591797,0.075472355,-0.15116258,9.765322,-1.4575033,-1.0723093,9.597703,0
2,988.4655151367188,1.0051083518192172E-4,-7.384881610050797E-5,-7.606722647324204E-4,-4.586882591247559,27.252939224243164,-36.50877380371094,1.504515528678894,1.0307005643844604,-0.12349224090576172,0.07543808,-0.15592833,9.774786,-1.4564066,-1.0728275,9.607516,0
2,988.4533081054688,3.671566373668611E-4,-3.4021830651909113E-4,-2.278989413753152E-4,-4.203827857971191,26.505815505981445,-37.21693801879883,1.4976749420166016,1.0054305791854858,-0.11828899383544922,0.07301396,-0.14639433,9.765315,-1.4355478,-1.0841552,9.599582,0
2,988.4658203125,1.0117102647200227E-4,-6.065877387300134E-4,-2.2775749675929546E-4,-4.327826499938965,26.6002254486084,-36.895416259765625,1.491528868675232,1.0013107061386108,-0.14531517028808594,0.077759504,-0.1463935,9.784249,-1.4367772,-1.0734303,9.619899,0
2,988.4603881835938,3.678169450722635E-4,-7.397993467748165E-4,-4.939319333061576E-4,-4.561147212982178,27.172067642211914,-37.123878479003906,1.4893505573272705,1.023534893989563,-0.1353445053100586,0.07533541,-0.16545887,9.779511,-1.4418992,-1.0775841,9.614137,0
2,988.44775390625,3.6814709892496467E-4,1.9225262803956866E-4,3.0515724210999906E-4,-4.613758087158203,26.437833786010742,-36.84185791015625,1.4753899574279785,1.011258602142334,-0.11070919036865234,0.082470834,-0.15115838,9.765306,-1.4317567,-1.055182,9.603516,0
2,988.4379272460938,2.3531907936558127E-4,5.904119461774826E-5,-8.931227494031191E-4,-4.138092517852783,26.409337997436523,-37.22142791748047,1.4808571338653564,1.0084234476089478,-0.13346004486083984,0.077656806,-0.14877428,9.78424,-1.4170339,-1.0765593,9.622501,0
2,988.4755249023438,-1.6382435569539666E-4,-6.068021757528186E-4,-0.0012924550101161003,-4.103064060211182,26.863515853881836,-37.176414489746094,1.4906909465789795,1.0102964639663696,-0.12300395965576172,0.07284272,-0.16068979,9.788971,-1.4179943,-1.0851902,9.626357,0
2,988.4677124023438,5.022952682338655E-4,3.252497990615666E-4,-2.2705004084855318E-4,-4.346495628356934,27.056753158569336,-36.76528549194336,1.4719436168670654,0.997786819934845,-0.14096546173095703,0.07758826,-0.15353908,9.777132,-1.4193403,-1.0580678,9.617062,0
2,988.4652099609375,-3.000622382387519E-5,-7.400672766380012E-4,3.9407284930348396E-5,-4.495656490325928,28.076013565063477,-36.80194091796875,1.4629491567611694,0.994428813457489,-0.11631488800048828,0.07277423,-0.15115501,9.765293,-1.4417647,-1.0188477,9.605851,0
2,988.4652099609375,-2.959921839646995E-4,-2.0748909446410835E-4,3.954872954636812E-5,-5.023796081542969,27.4762020111084,-36.83942794799805,1.4684970378875732,0.9771758317947388,-0.12014389038085938,0.07273996,-0.1392378,9.767656,-1.4359429,-1.0078664,9.610102,0
2,988.460205078125,-5.619776784442365E-4,-0.0014059641398489475,-3.597835311666131E-4,-4.816754341125488,27.3535213470459,-36.09431076049805,1.4545707702636719,0.9979052543640137,-0.1191720962524414,0.08226532,-0.15591992,9.7747555,-1.4161325,-1.0310084,9.6181345,0
2,988.4598388671875,-2.901599509641528E-5,3.250353620387614E-4,-3.596420865505934E-4,-4.746315002441406,27.36737632751465,-37.02978515625,1.4546451568603516,0.995186984539032,-0.12291622161865234,0.07506138,-0.16068561,9.791323,-1.4038504,-1.057672,9.633899,0
2,988.4747924804688,7.702618022449315E-4,1.9182392861694098E-4,-3.595007583498955E-4,-4.214588642120361,27.60184669494629,-37.0484619140625,1.4500917196273804,0.968585729598999,-0.1030120849609375,0.0726372,-0.15353496,9.758179,-1.4143652,-1.0212286,9.602476,0
2,988.45751953125,0.0010369077790528536,-7.454556180164218E-5,-9.304331615567207E-5,-4.663677215576172,27.813318252563477,-36.76068115234375,1.4506239891052246,0.9844042658805847,-0.12572574615478516,0.06782317,-0.15830062,9.772379,-1.4191622,-1.0209259,9.616274,0
2,988.4547119140625,-4.274993552826345E-4,-3.409149940125644E-4,-4.923756932839751E-4,-4.703271865844727,27.354719161987305,-36.57377624511719,1.441377878189087,0.9717298150062561,-0.11527824401855469,0.072568715,-0.14876671,9.765274,-1.3937427,-1.0289073,9.611806,0
2,988.4649047851562,-5.603273748420179E-4,7.242948631756008E-4,-2.2591825108975172E-4,-4.187063217163086,26.942319869995117,-36.24427032470703,1.426993489265442,0.9828808903694153,-0.12371444702148438,0.08448398,-0.15591569,9.779474,-1.3980836,-1.0076565,9.628062,0
2,988.4746704101562,-4.2683916399255395E-4,3.247675485908985E-4,-7.584085687994957E-4,-4.815093994140625,27.460912704467773,-36.87069320678711,1.4273862838745117,0.960540771484375,-0.10853958129882812,0.07250023,-0.14876504,9.772369,-1.3966653,-1.008044,9.620799,0
2,988.4546508789062,1.0612263577058911E-4,-8.737075258977711E-4,5.733123398385942E-4,-4.565712928771973,27.167646408081055,-36.891963958740234,1.4224735498428345,0.9765089154243469,-0.12644290924072266,0.07485592,-0.16068055,9.7771,-1.3896207,-1.0172163,9.625867,0
2,988.4546508789062,1.0612263577058911E-4,-8.737075258977711E-4,5.733123398385942E-4,-4.666338920593262,26.915861129760742,-37.631568908691406,1.4178622961044312,0.9543137550354004,-0.13019084930419922,0.07482165,-0.14638005,9.784199,-1.3850497,-1.0026852,9.635033,0
2,988.439208984375,1.0645267320796847E-4,8.572920341975987E-4,-7.581255631521344E-4,-4.520466327667236,26.894086837768555,-37.11388397216797,1.4172194004058838,0.9466994404792786,-0.11016654968261719,0.07000759,-0.14637919,9.769993,-1.3834921,-0.99696,9.621388,0
2,988.4797973632812,3.7309882463887334E-4,1.914488966576755E-4,-2.25352356210351E-4,-4.48685359954834,26.240453720092773,-36.6189079284668,1.3981914520263672,0.9576391577720642,-0.11862373352050781,0.07715887,-0.15114535,9.777092,-1.3802593,-0.98817015,9.6300955,0
2,988.4721069335938,-2.6044959668070078E-5,0.00218876451253891,-9.205297101289034E-5,-4.650553226470947,26.98261070251465,-36.48313903808594,1.4080708026885986,0.9308220744132996,-0.10348701477050781,0.07953131,-0.13922848,9.774724,-1.3659492,-0.98363674,9.630034,0
2,988.4722290039062,-2.9203068697825074E-4,-4.7444802476093173E-4,-4.913853481411934E-4,-4.483916282653809,27.34974479675293,-37.14617156982422,1.3842483758926392,0.9466763138771057,-0.11196231842041016,0.086668044,-0.15829392,9.777088,-1.3505931,-1.0037267,9.632884,0
2,988.461669921875,-2.9508420266211033E-4,6.0746853705495596E-5,-4.893774166703224E-4,-4.389538764953613,27.069414138793945,-37.22129821777344,1.4036624431610107,0.9481930136680603,-0.1015329360961914,0.06990576,-0.15352653,9.767616,-1.3563209,-1.0024298,9.622388,0
3,988.4566040039062,5.041810218244791E-4,-7.246265886351466E-5,5.760223139077425E-4,-4.26554012298584,26.975004196166992,-37.54281997680664,1.3891834020614624,0.9401252865791321,-0.10997486114501953,0.084212184,-0.14637597,9.777082,-1.3312644,-1.0026591,9.635471,0
3,988.4591064453125,-3.938970039598644E-4,8.476307266391814E-4,-2.5231135077774525E-4,-4.181816577911377,26.684370040893555,-37.076812744140625,1.398714542388916,0.9418923854827881,-0.10899162292480469,0.06505999,-0.15114166,9.774712,-1.3529811,-0.9938947,9.630871,0
3,988.4562377929688,5.894748028367758E-6,4.863133653998375E-5,-1.1901726247742772E-4,-4.544841289520264,26.45021629333496,-37.70002746582031,1.3939714431762695,0.9433495402336121,-0.10326290130615234,0.067416936,-0.16305722,9.779444,-1.3554256,-0.99002576,9.635939,0
3,988.4713745117188,6.720020319335163E-4,8.475273498333991E-4,1.4276825822889805E-5,-4.289211273193359,26.689062118530273,-36.90656661987305,1.3935959339141846,0.9449874758720398,-0.09749126434326172,0.07216376,-0.15590663,9.762869,-1.339903,-0.9830562,9.6219225,0
3,988.4588012695312,6.529910024255514E-6,5.811598966829479E-4,4.138869699090719E-4,-4.118145942687988,26.954702377319336,-37.102439880371094,1.3792718648910522,0.9274067878723145,-0.09650325775146484,0.076910615,-0.15113921,9.769968,-1.3262255,-0.98288095,9.630998,0
3,988.4765014648438,1.4000601368024945E-4,-4.8415519995614886E-4,5.471811164170504E-4,-4.666177749633789,27.44208335876465,-36.50762176513672,1.3743257522583008,0.9337556958198547,-0.1333751678466797,0.06970787,-0.15113841,9.784168,-1.3518813,-0.9513806,9.644944,0
3,988.4286499023438,-1.259918208234012E-4,8.473725174553692E-4,-7.842620834708214E-4,-4.714766502380371,27.0805606842041,-36.55596160888672,1.3650437593460083,0.9114952683448792,-0.10876750946044922,0.074454725,-0.14398782,9.781797,-1.3440626,-0.938584,9.64481,0
3,988.4789428710938,-3.919901209883392E-4,-7.505742833018303E-4,-5.17809996381402E-4,-3.955073833465576,28.10748863220215,-35.88629150390625,1.3699761629104614,0.9131484627723694,-0.08888721466064453,0.06486213,-0.1511368,9.772326,-1.3284378,-0.96846104,9.634456,0
3,988.4788818359375,6.735909846611321E-4,1.8147967057302594E-4,0.0010802214965224266,-4.218611240386963,27.229135513305664,-36.71809387207031,1.345908522605896,0.9099931120872498,-0.08316326141357422,0.06960893,-0.14160289,9.76759,-1.3224635,-0.9497987,9.632221,0
3,988.4686889648438,5.407510907389224E-4,9.80375800281763E-4,5.477259401232004E-4,-4.303857326507568,27.518301010131836,-37.10680389404297,1.3407564163208008,0.906852126121521,-0.10108375549316406,0.07435578,-0.15113519,9.784157,-1.3165418,-0.95469624,9.649528,0
3,988.4713134765625,6.742270779795945E-4,5.808503483422101E-4,6.810200866311789E-4,-4.477423667907715,26.88142967224121,-36.657867431640625,1.3502321243286133,0.8990323543548584,-0.0906524658203125,0.06237328,-0.15113439,9.760481,-1.3275317,-0.9396568,9.625405,0
3,988.473876953125,5.413868348114192E-4,-2.181488962378353E-4,-2.509491750970483E-4,-4.627723693847656,27.00470542907715,-37.64271545410156,1.3549935817718506,0.9010276794433594,-0.09919261932373047,0.067120135,-0.14875032,9.774681,-1.3211073,-0.93417114,9.641215,0
3,988.4436645507812,9.411782375536859E-4,1.8127326620742679E-4,1.486607943661511E-4,-4.368506908416748,26.878202438354492,-36.90541458129883,1.3311398029327393,0.9167149662971497,-0.09349632263183594,0.07186696,-0.1582826,9.769944,-1.3063976,-0.9458357,9.637465,0
3,988.4637451171875,-1.2376724043861032E-4,-8.50941869430244E-5,0.001214060466736555,-4.4386701583862305,27.07618522644043,-37.36809539794922,1.3407014608383179,0.8990951776504517,-0.09727096557617188,0.06944409,-0.14636542,9.779409,-1.3066967,-0.9301282,9.648341,0
3,988.4813232421875,-3.897651913575828E-4,-7.509354618377984E-4,1.4893320621922612E-4,-4.169885635375977,27.696577072143555,-37.36882781982422,1.3312535285949707,0.9005164504051208,-0.10579586029052734,0.0694111,-0.14636455,9.77704,-1.2948052,-0.9362345,9.646952,0
3,988.4711303710938,-2.5628943694755435E-4,7.137501961551607E-4,-1.172464108094573E-4,-4.582179069519043,27.363279342651367,-37.43976593017578,1.3120307922363281,0.9067729115486145,-0.09536266326904297,0.07415795,-0.1630467,9.772303,-1.2965375,-0.93169755,9.64266,0
3,988.476318359375,4.0981784695759416E-4,-7.510386640205979E-4,-1.171102630905807E-4,-4.683485984802246,27.373868942260742,-37.578739166259766,1.3219115734100342,0.8798230886459351,-0.08026981353759766,0.06695527,-0.14397968,9.777035,-1.303357,-0.90578467,9.648649,0
3,988.4685668945312,-1.224959851242602E-4,-2.1845853189006448E-4,-3.832898801192641E-4,-4.442395210266113,27.335607528686523,-36.612857818603516,1.3170347213745117,0.8953778743743896,-0.07456111907958984,0.06214249,-0.15112872,9.762827,-1.2985114,-0.9120344,9.634396,0
3,988.4758911132812,1.4413805911317468E-4,1.8096377607434988E-4,6.821098504588008E-4,-4.364483833312988,27.250913619995117,-37.235782623291016,1.2978483438491821,0.8682922720909119,-0.08308219909667969,0.07644892,-0.14397807,9.767558,-1.2913052,-0.88604313,9.642573,0
3,988.46826171875,6.770875188522041E-4,-7.511934381909668E-4,-2.4985952768474817E-4,-4.8286542892456055,27.553571701049805,-36.874027252197266,1.312398910522461,0.879537045955658,-0.09639549255371094,0.07163614,-0.15589364,9.774656,-1.2930781,-0.8943324,9.64891,0
3,988.4783935546875,1.4477333752438426E-4,-3.517712466418743E-4,9.486981434747577E-4,-4.806100368499756,27.36383628845215,-36.63544464111328,1.3029751777648926,0.8810977935791016,-0.08601951599121094,0.06921321,-0.14874302,9.772287,-1.2793403,-0.90003484,9.647682,0
3,988.4783935546875,5.445649730972946E-4,-4.8498075921088457E-4,-1.1642917525023222E-4,-4.447258949279785,26.69905662536621,-36.805816650390625,1.292419195175171,0.8781856298446655,-0.08038711547851562,0.0817633,-0.151141,9.767608,-1.2607266,-0.8993886,9.645588,0
3,988.4859008789062,6.750107859261334E-4,7.138810469768941E-4,1.4872441533952951E-4,-4.522830009460449,26.628767013549805,-37.559898376464844,1.2872889041900635,0.8845760226249695,-0.06049060821533203,0.08175564,-0.16067393,9.753404,-1.2551495,-0.9022633,9.631818,0
3,988.48095703125,9.338975651189685E-4,7.182280533015728E-4,1.5080638695508242E-4,-4.539977073669434,27.086774826049805,-37.5070686340332,1.2776989936828613,0.8626956939697266,-0.06907367706298828,0.08174807,-0.14875738,9.760505,-1.2540374,-0.8847046,9.640588,0
4,988.4736938476562,0.001466602785512805,-4.8020522808656096E-4,-1.1547806207090616E-4,-4.525576114654541,27.257963180541992,-36.98041534423828,1.2872309684753418,0.8737547993659973,-0.0870981216430664,0.06740105,-0.16067357,9.760504,-1.2646223,-0.89150757,9.6386595,0
4,988.4780883789062,-2.643772168084979E-4,1.8557245493866503E-4,-2.48604454100132E-4,-4.599326133728027,27.8212833404541,-37.38693618774414,1.277259349822998,0.8703802824020386,-0.08138847351074219,0.06978333,-0.15114023,9.760503,-1.2599633,-0.8747672,9.640663,0
4,988.4705200195312,-1.3114581815898418E-4,8.513502543792129E-4,1.5090074157342315E-4,-4.649872779846191,26.720232009887695,-37.08376693725586,1.2677358388900757,0.8383498787879944,-0.08994770050048828,0.074555516,-0.1439903,9.77944,-1.2511874,-0.86850953,9.6614685,0
4,988.4705200195312,-1.3114581815898418E-4,8.513502543792129E-4,1.5090074157342315E-4,-4.65179967880249,27.192968368530273,-37.803993225097656,1.2392722368240356,0.8592048287391663,-0.07489395141601562,0.088887274,-0.14875661,9.777073,-1.2371657,-0.86264956,9.661595,0
4,988.4781494140625,-1.3107247650623322E-4,-8.797147311270237E-4,0.0010830378159880638,-4.74965763092041,26.732290267944336,-37.300048828125,1.253122329711914,0.8460954427719116,-0.0644378662109375,0.076930225,-0.15113969,9.762869,-1.2382777,-0.86553305,9.646756,0
4,988.450927734375,2.6847468689084053E-4,5.237883306108415E-5,-1.1535210069268942E-4,-4.572099685668945,26.52961540222168,-37.00761413574219,1.2529876232147217,0.8429471850395203,-0.08247184753417969,0.067362994,-0.15113954,9.76997,-1.2364724,-0.87347317,9.653387,0
4,988.4530639648438,2.6854791212826967E-4,9.844725718721747E-4,1.783709740266204E-5,-4.3458147048950195,26.79438591003418,-37.36591339111328,1.2385547161102295,0.8349345326423645,-0.07210254669189453,0.08169478,-0.14398946,9.779438,-1.2274446,-0.8513308,9.666098,0
4,988.4708251953125,4.017794271931052E-4,1.8551296670921147E-4,1.7868645954877138E-5,-4.527534008026123,26.518434524536133,-36.62890625,1.2479039430618286,0.8458049297332764,-0.07117557525634766,0.07212752,-0.15113916,9.774702,-1.2296638,-0.8569666,9.66056,0
4,988.4630737304688,-1.3077922631055117E-4,-7.466045208275318E-4,-1.1525792069733143E-4,-4.52100944519043,27.262380599975586,-37.21233367919922,1.242806077003479,0.8187326788902283,-0.07498550415039062,0.06973004,-0.14160581,9.774702,-1.2313929,-0.83800524,9.6618395,0
4,988.4755249023438,-1.3070565182715654E-4,4.518050991464406E-4,-3.815422533079982E-4,-4.64044189453125,27.3612117767334,-37.12272644042969,1.2232342958450317,0.8300602436065674,-0.07880115509033203,0.08167195,-0.15113883,9.772333,-1.2112577,-0.8481281,9.661342,0
4,988.478271484375,6.68388674966991E-4,5.849391454830766E-4,-3.8147950544953346E-4,-5.087466239929199,27.205862045288086,-36.81379699707031,1.227451205253601,0.8506140112876892,-0.08731842041015625,0.079274476,-0.15828843,9.779435,-1.2265145,-0.8272978,9.668502,0
4,988.4529418945312,1.3583037070930004E-4,0.001117559033446014,-3.814480733126402E-4,-4.9338459968566895,27.297365188598633,-37.3817138671875,1.2177597284317017,0.8425583839416504,-0.08642768859863281,0.081656694,-0.15113841,9.788903,-1.2146498,-0.82619274,9.679575,0
4,988.46826171875,-2.6357010938227177E-4,-6.135060684755445E-4,1.8057296983897686E-5,-4.347879886627197,27.16119956970215,-37.387062072753906,1.2178453207015991,0.8106080293655396,-0.07136249542236328,0.07686928,-0.13445528,9.784168,-1.1985646,-0.82879806,9.676285,0
4,988.4806518554688,2.691349945962429E-4,1.8542961333878338E-4,1.5124666970223188E-4,-4.480329513549805,26.984403610229492,-37.20233917236328,1.2031259536743164,0.8312663435935974,-0.05624961853027344,0.081641495,-0.15828781,9.767596,-1.1909548,-0.84122574,9.659794,0
4,988.460693359375,9.349979227408767E-4,5.848915316164494E-4,1.8120103050023317E-5,-4.872677326202393,27.196470260620117,-37.15428161621094,1.2126117944717407,0.8141022324562073,-0.06487751007080078,0.06729448,-0.15113787,9.758127,-1.2107697,-0.8137319,9.649887,0
4,988.4833984375,1.3486374518834054E-4,-8.034240454435349E-5,-8.370901923626661E-5,-4.826696395874023,28.293100357055664,-37.22554016113281,1.2078322172164917,0.820024311542511,-0.06873035430908203,0.06489694,-0.15113764,9.774697,-1.2095817,-0.8126794,9.666862,0
4,988.4680786132812,-5.308528197929263E-4,-3.466701600700617E-4,5.821121158078313E-4,-4.771232604980469,27.291799545288086,-37.714385986328125,1.2032932043075562,0.8166147470474243,-0.09156990051269531,0.072059035,-0.15828733,9.77943,-1.1956748,-0.8209834,9.67284,0
4,988.46533203125,2.681683690752834E-4,-0.0016782614402472973,3.1582769588567317E-4,-4.598783493041992,27.452993392944336,-37.288482666015625,1.1891250610351562,0.808498203754425,-0.06233024597167969,0.084000945,-0.15352054,9.777062,-1.1762894,-0.816618,9.673213,0
4,988.4935913085938,1.925945980474353E-6,1.859377953223884E-4,-7.494045421481133E-4,-4.384973049163818,27.073835372924805,-37.453216552734375,1.1747487783432007,0.7956393361091614,-0.047271728515625,0.08160347,-0.1511371,9.751022,-1.1645172,-0.8178061,9.648162,0
4,988.485595703125,-1.3115876936353743E-4,1.8592586275190115E-4,1.8273259047418833E-4,-4.875583171844482,27.299436569213867,-37.698753356933594,1.1745392084121704,0.8206978440284729,-0.05585289001464844,0.074426115,-0.16781984,9.767593,-1.1817342,-0.81322163,9.663424,0
4,988.4931640625,-2.6424325187690556E-4,5.853878101333976E-4,8.485537255182862E-4,-5.099068641662598,28.038049697875977,-37.168643951416016,1.1788482666015625,0.8026476502418518,-0.0880594253540039,0.0791983,-0.14637013,9.779428,-1.1812239,-0.77697146,9.678116,0
4,988.4555053710938,-7.968016434460878E-4,-2.1357182413339615E-4,-4.8299413174390793E-4,-4.458318710327148,27.162954330444336,-37.06220626831055,1.164719820022583,0.8085445165634155,-0.05408668518066406,0.0791907,-0.16543622,9.77706,-1.1602775,-0.8158611,9.675363,0
4,988.47314453125,-0.0010630441829562187,-0.001145689282566309,-8.348893607035279E-5,-4.638920307159424,27.362680435180664,-37.200035095214844,1.1885547637939453,0.7766022682189941,-0.07217979431152344,0.062453806,-0.13683666,9.781794,-1.1777147,-0.77714986,9.680658,0
4,988.4757690429688,2.686084189917892E-4,4.521941300481558E-4,-2.1661550272256136E-4,-4.927896499633789,27.197343826293945,-36.99185562133789,1.1647651195526123,0.7733539342880249,-0.04295921325683594,0.07917547,-0.13921984,9.7604885,-1.1623207,-0.7620748,9.662351,0
4,988.4526977539062,2.3661123123019934E-6,-4.7992338659241796E-4,-8.342601358890533E-5,-4.590630531311035,27.092069625854492,-37.576560974121094,1.1549028158187866,0.7794724702835083,-0.07522773742675781,0.076777935,-0.14636944,9.774691,-1.1512234,-0.78199494,9.676522,0
5,988.4730224609375,2.4392211344093084E-6,5.853282054886222E-4,1.829212997108698E-4,-4.311765670776367,26.87880516052246,-37.14514923095703,1.150329351425171,0.7856152653694153,-0.0649566650390625,0.076770335,-0.1582856,9.777058,-1.1412652,-0.7987603,9.67891,0
5,988.4730224609375,-5.301189376041293E-4,-7.462630746886134E-4,1.8295273184776306E-4,-4.827973365783691,27.291196823120117,-37.47465133666992,1.136170506477356,0.777331531047821,-0.07834815979003906,0.08632237,-0.14875238,9.79126,-1.1420468,-0.7676912,9.695604,0
5,988.4630126953125,-0.0010626772418618202,-4.799591260962188E-4,3.161421336699277E-4,-5.002625942230225,27.390905380249023,-37.22262191772461,1.1407082080841064,0.7930436730384827,-0.03962230682373047,0.076755136,-0.16305174,9.762853,-1.1487913,-0.76816416,9.666228,0
5,988.4805908203125,6.68449210934341E-4,3.189767012372613E-4,4.985765554010868E-5,-4.365462779998779,26.881147384643555,-37.060028076171875,1.1217879056930542,0.7561553120613098,-0.06722640991210938,0.08152729,-0.1463687,9.779422,-1.1438228,-0.74536955,9.685105,0
5,988.4779663085938,-7.962146773934364E-4,-4.799829621333629E-4,4.493629967328161E-4,-5.091894626617432,27.30735969543457,-37.28096008300781,1.131362795829773,0.7762941122055054,-0.056926727294921875,0.08151969,-0.15590157,9.762852,-1.1247958,-0.76857626,9.668937,0
5,988.4578857421875,1.3818891602568328E-4,5.227577639743686E-5,3.171899006702006E-4,-4.286572456359863,27.16621971130371,-37.85870361328125,1.138988971710205,0.7668033838272095,-0.04619312286376953,0.06896514,-0.15350346,9.769897,-1.1217921,-0.77511346,9.675742,0
5,988.4578857421875,1.3818891602568328E-4,5.227577639743686E-5,3.171899006702006E-4,-4.286572456359863,27.16621971130371,-37.85870361328125,1.136425256729126,0.7745946645736694,-0.04576396942138672,0.07371944,-0.16303597,9.7651615,-1.1084744,-0.79009426,9.671476,0
5,988.457763671875,-1.286872720811516E-4,1.8773635383695364E-4,-3.4442171454429626E-4,-4.099882125854492,26.972379684448242,-38.03009796142578,1.1172510385513306,0.7523385882377625,-0.059165000915527344,0.07847375,-0.14396913,9.774627,-1.1091375,-0.75584126,9.683427,0
5,988.4957275390625,1.3787447824142873E-4,4.5401236275210977E-4,5.5157579481601715E-5,-4.299727439880371,26.784669876098633,-37.064510345458984,1.1122119426727295,0.74906986951828,-0.048867225646972656,0.07605833,-0.14396848,9.765156,-1.1146456,-0.73813653,9.674581,0
5,988.47802734375,2.712785208132118E-4,4.5397243229672313E-4,-2.1105282939970493E-4,-4.666040420532227,27.548002243041992,-37.20669937133789,1.1025904417037964,0.755407989025116,-0.052806854248046875,0.08081263,-0.15588422,9.769888,-1.0926462,-0.7661513,9.679911,0
5,988.4780883789062,1.383662165608257E-4,5.870904424227774E-4,-7.435793522745371E-4,-4.208798885345459,26.97559928894043,-37.782554626464844,1.1024564504623413,0.7663511037826538,-0.07093334197998047,0.08078712,-0.15826692,9.779354,-1.1061151,-0.7406251,9.68996,0
5,988.4579467773438,5.454261554405093E-6,-6.113708950579166E-4,1.8863164586946368E-4,-4.783408164978027,27.280012130737305,-37.095947265625,1.116935133934021,0.7537493109703064,-0.051239013671875,0.06403226,-0.15826626,9.767516,-1.1134467,-0.741449,9.676984,0
5,988.4579467773438,5.454261554405093E-6,-6.113708950579166E-4,1.8863164586946368E-4,-4.595877170562744,27.350019454956055,-36.7440185546875,1.0925887823104858,0.7551582455635071,-0.04092884063720703,0.07834619,-0.1606489,9.774616,-1.0966405,-0.7384654,9.68644,0
5,988.4579467773438,1.3885818771086633E-4,5.87010697927326E-4,5.557906115427613E-5,-4.648052215576172,27.35384178161621,-36.73619842529297,1.0832839012145996,0.7421229481697083,-0.044899940490722656,0.08071053,-0.15588175,9.760409,-1.0911332,-0.7247562,9.673705,0
5,988.4732666015625,1.3910405687056482E-4,-7.881899364292622E-5,3.220003563910723E-4,-4.8189802169799805,27.194120407104492,-37.23940658569336,1.0833840370178223,0.7339094281196594,-0.05359649658203125,0.073515356,-0.15111457,9.765142,-1.0986285,-0.70974475,9.678611,0
5,988.440185546875,-3.930358507204801E-4,-4.783726471941918E-4,5.885270657017827E-4,-4.798490524291992,27.371198654174805,-37.02197265625,1.0765495300292969,0.7384405732154846,-0.04773998260498047,0.0782696,-0.16064699,9.776976,-1.0870761,-0.72252667,9.6911,0
5,988.440185546875,-3.930358507204801E-4,-4.783726471941918E-4,5.885270657017827E-4,-4.798490524291992,27.371198654174805,-37.02197265625,1.0884100198745728,0.7320284843444824,-0.037876129150390625,0.06868452,-0.15111332,9.769872,-1.0827817,-0.72142106,9.684268,0
5,988.478271484375,1.398417807649821E-4,-7.447284297086298E-4,-7.429472170770168E-4,-4.412230491638184,27.153234481811523,-36.76080322265625,1.0692459344863892,0.7283942699432373,-0.04181957244873047,0.082998425,-0.15111275,9.767502,-1.0658133,-0.7142896,9.684402,0
5,988.4706420898438,-9.251758456230164E-4,7.199689862318337E-4,5.610601510852575E-5,-4.517667770385742,27.897462844848633,-36.94207000732422,1.0689561367034912,0.7252111434936523,-0.04102897644042969,0.071023375,-0.15826188,9.772234,-1.0741634,-0.7169826,9.688073,0
5,988.4553833007812,2.7373756165616214E-4,-2.1221645874902606E-4,-3.4315709490329027E-4,-4.4331254959106445,27.450368881225586,-37.77576446533203,1.0592998266220093,0.7409073710441589,-0.040256500244140625,0.07816762,-0.16302778,9.760395,-1.0563703,-0.7243675,9.677673,0
5,988.47314453125,7.667316822335124E-6,3.2037548953667283E-4,-7.673579966649413E-5,-4.458723068237305,27.637155532836914,-37.85973358154297,1.0593212842941284,0.7091990113258362,-0.03477954864501953,0.07575217,-0.13681118,9.760393,-1.0547631,-0.69391996,9.679653,0
5,988.49072265625,-1.2524452176876366E-4,5.4019561503082514E-5,-7.663044380024076E-5,-4.118689060211182,27.322996139526367,-37.200889587402344,1.0499430894851685,0.7153770327568054,-0.052982330322265625,0.08528632,-0.15826,9.779329,-1.036944,-0.7217983,9.69904,0
5,988.4808349609375,-9.239462669938803E-4,-3.45494132488966E-4,-8.754727896302938E-4,-4.570577621459961,26.531091690063477,-37.08491897583008,1.03575599193573,0.7119281888008118,-0.019102096557617188,0.08765066,-0.14872624,9.75802,-1.0391723,-0.69049263,9.679469,0
5,988.483154296875,1.4156298129819334E-4,-2.1237609325908124E-4,-4.7589349560439587E-4,-4.03276252746582,26.771451950073242,-37.412811279296875,1.050099492073059,0.6899734735488892,-0.027851104736328125,0.07089585,-0.14872564,9.7627535,-1.0380878,-0.7078181,9.682966,0
6,988.4705200195312,2.749669074546546E-4,4.533735918812454E-4,-7.63142597861588E-5,-4.3532867431640625,26.892934799194336,-37.678466796875,1.035815715789795,0.7101953029632568,-0.036566734313964844,0.08042991,-0.15825815,9.760384,-1.031052,-0.7026787,9.681931,0
6,988.4781494140625,-7.900508353486657E-4,-2.1245586685836315E-4,-6.0884072445333E-4,-4.3031768798828125,27.25593376159668,-37.707427978515625,1.0360581874847412,0.7019869685173035,-0.04058361053466797,0.0804044,-0.15110768,9.76985,-1.026719,-0.6939448,9.692448,0
6,988.4708251953125,-6.566469091922045E-4,1.86978024430573E-4,9.891600348055363E-4,-4.1337714195251465,27.414182662963867,-37.12691879272461,1.0172370672225952,0.6937085390090942,-0.03513622283935547,0.0827688,-0.15110703,9.767481,-1.0175781,-0.6933284,9.69109,0
6,988.4808349609375,-9.227169211953878E-4,-7.451674900949001E-4,1.9031768897548318E-4,-4.3855156898498535,27.442121505737305,-37.55166244506836,1.0312306880950928,0.6906462907791138,-0.029646873474121094,0.0684039,-0.15110643,9.767479,-1.0318772,-0.6825005,9.690232,0
6,988.46826171875,7.45385535992682E-4,0.0011907505104318261,9.881284786388278E-4,-4.61484432220459,27.174413681030273,-37.03875732421875,1.002823829650879,0.6921003460884094,-0.014744758605957031,0.082717806,-0.15110578,9.760374,-1.0193238,-0.66844964,9.685491,0
6,988.470458984375,6.124735809862614E-4,-4.071846487931907E-4,7.219179533421993E-4,-4.800853729248047,27.105878829956055,-37.467987060546875,1.0029231309890747,0.7032785415649414,-0.042448997497558594,0.0830217,-0.16541292,9.77224,-1.0194405,-0.6749269,9.697222,0
6,988.47314453125,-3.1938625033944845E-4,-7.750699296593666E-6,5.6233606301248074E-5,-4.644327640533447,27.094411849975586,-37.49143600463867,1.0122196674346924,0.7002459168434143,-0.046584129333496094,0.07378602,-0.16065429,9.767534,-1.0202912,-0.67172086,9.692459,0
6,988.4706420898438,2.0785094238817692E-4,-5.395067273639143E-4,-4.7871016431599855E-4,-4.406984329223633,26.89528465270996,-37.593345642089844,1.007712483406067,0.6874557733535767,-0.022233009338378906,0.071397394,-0.14635463,9.760433,-1.0119318,-0.6618422,9.686617,0
6,988.45556640625,-5.91898919083178E-4,-5.393765750341117E-4,1.8673593876883388E-4,-4.493346691131592,26.708768844604492,-37.107215881347656,1.0126360654830933,0.6938673257827759,-0.016815185546875,0.06900877,-0.16303764,9.767534,-1.0142919,-0.6701976,9.693199,0
6,988.4859008789062,6.065105553716421E-4,2.595731057226658E-4,1.8673064187169075E-4,-4.639899253845215,26.992918014526367,-37.02427673339844,0.9936213493347168,0.661984920501709,-0.035060882568359375,0.07856965,-0.14158823,9.760432,-1.0027466,-0.6395918,9.689051,0
6,988.4833984375,-5.929113831371069E-5,-6.7409127950668335E-6,1.8672540318220854E-4,-4.370326995849609,26.244596481323242,-37.25297927856445,0.9891703128814697,0.6779381632804871,-0.039139747619628906,0.07379109,-0.15350462,9.777003,-0.99897546,-0.6585237,9.705009,0
6,988.4832763671875,2.0701205357909203E-4,-0.0010720023419708014,-2.1275359904393554E-4,-4.438127517700195,26.7078914642334,-37.26964569091797,0.9898867607116699,0.6657501459121704,-0.043288230895996094,0.076182276,-0.15112133,9.784104,-0.9976665,-0.6472217,9.713038,0
6,988.4708251953125,4.733159439638257E-4,-0.0012051583034917712,5.35570434294641E-5,-4.515059471130371,27.162351608276367,-36.822471618652344,0.9806787967681885,0.6815047264099121,-0.05209922790527344,0.07379365,-0.16065453,9.786472,-0.9974255,-0.6513838,9.715305,0
6,988.4630737304688,-3.25643690302968E-4,-1.3989285798743367E-4,5.355180473998189E-5,-4.593376159667969,27.72125816345215,-36.99707794189453,0.9523412585258484,0.6544817090034485,-0.018309593200683594,0.090524256,-0.15350474,9.7628,-0.9811253,-0.62879884,9.69464,0
6,988.4610595703125,-5.934049841016531E-5,5.258987657725811E-4,3.1986241810955107E-4,-4.897433757781982,27.64710807800293,-36.71493148803711,0.9669029712677002,0.6512300372123718,-0.03185081481933594,0.08096585,-0.14635493,9.7628,-0.9837631,-0.6214055,9.6946535,0
6,988.4635620117188,-3.2566837035119534E-4,-4.062047228217125E-4,-2.1277449559420347E-4,-4.801290035247803,26.367826461791992,-37.193782806396484,0.9618754386901855,0.6576527953147888,-0.021680831909179688,0.07618737,-0.15827127,9.765168,-0.9709935,-0.65018034,9.696588,0
6,988.4708251953125,3.401093417778611E-4,9.25376545637846E-4,5.3536088671535254E-5,-4.195376396179199,26.77702522277832,-37.08014678955078,0.9762917757034302,0.6593551635742188,-0.030487060546875,0.0690189,-0.13920517,9.7628,-0.9718959,-0.62965643,9.695119,0
6,988.4431762695312,7.378088776022196E-5,3.927468787878752E-4,1.8668884877115488E-4,-4.184723377227783,26.787336349487305,-37.62127685546875,0.9620277285575867,0.6515281796455383,-0.029829025268554688,0.07857978,-0.1558881,9.781738,-0.97185826,-0.62600935,9.714757,0
6,988.46826171875,-4.5886298175901175E-4,-5.393567262217402E-4,4.529994330368936E-4,-4.5983781814575195,26.978788375854492,-36.49095916748047,0.9626050591468811,0.6483758091926575,-0.029222488403320312,0.07141137,-0.15112157,9.765167,-0.97052866,-0.62082946,9.698406,0
6,988.4635009765625,4.7323061153292656E-4,-6.7229848355054855E-6,3.1983625376597047E-4,-4.523510932922363,26.891141891479492,-36.95927429199219,0.9679620265960693,0.6404322385787964,-0.03808784484863281,0.07141262,-0.16065468,9.77227,-0.9647625,-0.63140464,9.705605,0
6,988.48095703125,-5.941372364759445E-5,-0.0016046162927523255,-4.791165702044964E-4,-4.421767711639404,27.61860466003418,-37.09449768066406,0.9449267387390137,0.6471434235572815,-0.03279876708984375,0.07619369,-0.15588821,9.779371,-0.94380254,-0.6437194,9.713964,0
6,988.48095703125,-5.941372364759445E-5,-0.0016046162927523255,-4.791165702044964E-4,-3.7661805152893066,27.652746200561523,-36.735618591308594,0.9308527112007141,0.6488696932792664,-0.017971038818359375,0.08097476,-0.1582715,9.762802,-0.9421449,-0.6284998,9.69852,0
6,988.4609985351562,2.068900503218174E-4,-9.388246107846498E-4,4.529837460722774E-4,-4.200485706329346,27.140897750854492,-36.946678161621094,0.936458170413971,0.6361336708068848,-0.02686786651611328,0.07619622,-0.16065477,9.777004,-0.94879746,-0.6217271,9.712603,0
6,988.4736938476562,2.0687805954366922E-4,-2.730328997131437E-4,5.861364188604057E-4,-4.432284355163574,27.71421241760254,-37.25244140625,0.9365280270576477,0.6328909397125244,-0.012015342712402344,0.07141769,-0.15827157,9.767536,-0.95409286,-0.60580206,9.703484,0
6,988.4786987304688,-3.2576615922152996E-4,-6.725047715008259E-4,3.198152990080416E-4,-4.649574279785156,27.35236930847168,-36.658897399902344,0.9274387359619141,0.6297368407249451,-0.016149520874023438,0.07380885,-0.15588833,9.767536,-0.94622505,-0.60213166,9.704464,0
7,988.4786987304688,-5.920943804085255E-4,5.259186727926135E-4,-3.4597970079630613E-4,-4.650959014892578,27.456815719604492,-37.280670166015625,0.9182621240615845,0.6175774931907654,-0.034506797790527344,0.07620004,-0.13920541,9.77227,-0.9419026,-0.5792814,9.710803,0
7,988.4813232421875,6.063152104616165E-4,-4.061849322170019E-4,3.1980485073290765E-4,-4.715852737426758,27.8171443939209,-36.75286102294922,0.9191063642501831,0.6147794127464294,-0.024498939514160156,0.07859117,-0.14635529,9.767536,-0.932492,-0.58804107,9.706546,0
7,988.47119140625,4.7314492985606194E-4,-2.730249834712595E-4,1.8664170056581497E-4,-4.50065803527832,27.333539962768555,-36.29582214355469,0.9151062965393066,0.6308012008666992,-0.02867889404296875,0.07859245,-0.1654215,9.777005,-0.93748164,-0.5927759,9.715612,0
7,988.4534912109375,-8.584588067606091E-4,-2.730209962464869E-4,-3.4600053913891315E-4,-4.759332656860352,27.09174919128418,-36.934669494628906,0.9201161861419678,0.6227822303771973,-0.028059959411621094,0.06425434,-0.16542156,9.777005,-0.9442959,-0.59352857,9.714801,0
7,988.4786987304688,4.7310825902968645E-4,-2.7301901718601584E-4,-3.460058942437172E-4,-4.538156509399414,27.720380783081055,-37.159507751464844,0.9154958724975586,0.6150027513504028,-0.013246536254882812,0.07381517,-0.15350516,9.765169,-0.9235625,-0.5864481,9.705186,0
7,988.4713134765625,-3.258518408983946E-4,0.0013248781906440854,-2.1285313414409757E-4,-4.425110340118408,26.9835262298584,-37.36476135253906,0.9012399911880493,0.5975226163864136,-0.012624740600585938,0.0739274,-0.14397483,9.774649,-0.91746855,-0.5773935,9.715698,0
7,988.4715576171875,-6.007589399814606E-5,-1.3977143680676818E-4,-7.992674363777041E-5,-4.276737213134766,27.332983016967773,-37.100135803222656,0.906212568283081,0.604195773601532,-0.040480613708496094,0.07643622,-0.15112753,9.781761,-0.90917426,-0.585707,9.723267,0
7,988.4713745117188,-1.948836725205183E-4,-6.34568277746439E-6,-3.4694967325776815E-4,-4.097114086151123,26.76349449157715,-36.78655242919922,0.8924070000648499,0.6200865507125854,-0.0020341873168945312,0.08361605,-0.15827765,9.760456,-0.8932447,-0.5928007,9.703053,0
7,988.4283447265625,-6.182363722473383E-5,-5.389614962041378E-4,3.1879814923740923E-4,-4.487939834594727,26.977033615112305,-36.8158073425293,0.8881973028182983,0.6077117323875427,0.007981300354003906,0.078846395,-0.15827794,9.755724,-0.9014001,-0.57727754,9.698435,0
7,988.4713745117188,8.701839251443744E-4,-1.394718128722161E-4,3.187561815138906E-4,-4.163147926330566,26.227842330932617,-37.206947326660156,0.898422360420227,0.5907854437828064,0.003772735595703125,0.07407674,-0.14397858,9.746256,-0.89404505,-0.57040226,9.68974,0
7,988.4562377929688,-6.201921496540308E-5,-8.052457123994827E-4,-4.8023334238678217E-4,-4.076487064361572,27.04648780822754,-37.2681999206543,0.8658384084701538,0.5973222255706787,-0.014644622802734375,0.086036384,-0.14636205,9.762827,-0.8780605,-0.5736784,9.707808,0
7,988.4967041015625,2.0419852808117867E-4,-0.0010715456446632743,-2.1395948715507984E-4,-4.449324131011963,27.06587028503418,-36.82695770263672,0.8712515830993652,0.6136454939842224,-0.018850326538085938,0.08365667,-0.15589543,9.772297,-0.88592035,-0.56772196,9.717095,0
7,988.4591064453125,-4.6168873086571693E-4,6.59523531794548E-4,3.186304238624871E-4,-4.328912258148193,27.33680534362793,-37.092323303222656,0.8667230010032654,0.5869500637054443,-0.013545989990234375,0.08844662,-0.15351237,9.767563,-0.8733646,-0.56672925,9.713534,0
7,988.4638061523438,7.366347126662731E-4,-6.25033862888813E-6,-2.1404330618679523E-4,-3.9064011573791504,26.942365646362305,-37.28831481933594,0.8676111698150635,0.5839361548423767,-0.01776885986328125,0.08606687,-0.14159624,9.765198,-0.86315536,-0.56436765,9.712005,0
7,988.4815063476562,-6.241060327738523E-5,-0.001204655971378088,-4.804012132808566E-4,-4.331413269042969,26.965566635131836,-36.839256286621094,0.867889404296875,0.586014986038208,-0.00301361083984375,0.06695777,-0.16304596,9.765198,-0.8876075,-0.567989,9.709773,0
7,988.481689453125,8.695970755070448E-4,0.0010590448509901762,3.1850457889959216E-4,-4.174344539642334,26.585813522338867,-36.764251708984375,0.8397225141525269,0.5784284472465515,-0.030885696411132812,0.088477075,-0.14874656,9.760464,-0.8586228,-0.5552501,9.708299,0
7,988.47900390625,-4.620802355930209E-4,3.9327109698206186E-4,-6.136429728940129E-4,-4.055454254150391,26.855276107788086,-36.95231628417969,0.8449512720108032,0.5705491900444031,-0.011397361755371094,0.081317484,-0.14874674,9.774668,-0.86027366,-0.5564841,9.7223015,0
7,988.4591064453125,-0.0014651728561148047,-5.443434929475188E-5,9.669805876910686E-6,-4.471036911010742,27.51945686340332,-36.54221725463867,0.8598253726959229,0.5674416422843933,-0.010857582092285156,0.06937814,-0.15113027,9.758099,-0.8749319,-0.54124975,9.705138,0
7,988.4612426757812,-2.668494125828147E-4,-4.538922803476453E-4,2.7594377752393484E-4,-4.664656162261963,27.443552017211914,-36.584922790527344,0.8508747220039368,0.5739315748214722,-0.015067100524902344,0.064608485,-0.15113063,9.765202,-0.8799222,-0.5322258,9.712294,0
7,988.4717407226562,2.656845608726144E-4,0.0010108608985319734,-1.2357195373624563E-4,-4.811071395874023,27.8336238861084,-37.2010612487793,0.8508766889572144,0.5614553093910217,0.009182929992675781,0.067008555,-0.14874758,9.741529,-0.8718873,-0.5237015,9.689663,0
7,988.4566040039062,-5.333608714863658E-4,-3.20702645694837E-4,0.001207965542562306,-4.081053256988525,27.04207420349121,-37.036285400390625,0.8371263742446899,0.5774816274642944,-0.018703460693359375,0.08374801,-0.16781403,9.7699375,-0.85056084,-0.54794914,9.719215,0
7,988.4641723632812,1.323310425505042E-4,4.782610049005598E-4,-5.231295945122838E-4,-4.5322065353393555,27.620359420776367,-36.76964569091797,0.8328913450241089,0.5749610066413879,-0.008731842041015625,0.083758175,-0.1558979,9.769938,-0.84632254,-0.532894,9.720225,0
7,988.4544067382812,5.317069590091705E-4,2.119609562214464E-4,-2.5685568107292056E-4,-4.5611467361450195,27.172067642211914,-37.123878479003906,0.8384760618209839,0.5580196976661682,-0.0035181045532226562,0.07420871,-0.15113159,9.767572,-0.8453163,-0.53486514,9.717673,0
7,988.451904296875,2.6529317256063223E-4,-4.538128850981593E-4,8.083659340627491E-4,-4.270947456359863,26.70673942565918,-37.834228515625,0.8295718431472778,0.5646589994430542,-0.007750511169433594,0.07182896,-0.1630482,9.76994,-0.8466229,-0.5400031,9.719832,0
7,988.4644775390625,-1.1203810572624207E-6,7.883473881520331E-5,-3.900974988937378E-4,-4.326847553253174,26.96998405456543,-37.07117462158203,0.8304041028022766,0.5381011962890625,-0.0025396347045898438,0.07661891,-0.14874877,9.767574,-0.8419011,-0.515588,9.718995,0
8,988.4696655273438,-1.2182863429188728E-6,-7.200969848781824E-4,-3.9013929199427366E-4,-4.5726423263549805,26.89790916442871,-37.10606384277344,0.8168184757232666,0.5734197497367859,-0.011524200439453125,0.07662907,-0.16304867,9.765208,-0.83469677,-0.5325738,9.716553,0
8,988.4797973632812,1.3184163253754377E-4,-8.532390929758549E-4,-1.2386549497023225E-4,-4.417201995849609,27.62302589416504,-37.326416015625,0.8037704229354858,0.5372574925422668,-0.025295257568359375,0.07902914,-0.14636596,9.784146,-0.8309936,-0.5123373,9.736742,0
8,988.454345703125,-4.008876858279109E-4,-8.532231440767646E-4,-2.5706528685986996E-4,-4.452230453491211,27.16884422302246,-37.37142562866211,0.8045177459716797,0.5488550066947937,-0.001148223876953125,0.08381906,-0.14874949,9.765209,-0.816184,-0.51846015,9.7187195,0
8,988.4464721679688,1.3164605479687452E-4,-3.205755492672324E-4,9.208626579493284E-6,-4.14624547958374,26.770261764526367,-36.933349609375,0.8004977703094482,0.5509061217308044,0.013529777526855469,0.07904941,-0.16066624,9.74864,-0.8166795,-0.52545977,9.701802,0
8,988.4569702148438,5.310222040861845E-4,4.7838801401667297E-4,1.423245994374156E-4,-4.145159721374512,26.03367805480957,-36.7364501953125,0.7965552806854248,0.5434404611587524,-0.00968170166015625,0.08383936,-0.15828319,9.767579,-0.8061514,-0.5266548,9.721648,0
8,988.4569702148438,5.310222040861845E-4,4.7838801401667297E-4,1.423245994374156E-4,-3.9740943908691406,26.2993221282959,-36.93231964111328,0.792564868927002,0.5500172972679138,-0.009138107299804688,0.08346677,-0.15112416,9.767545,-0.8008519,-0.51835525,9.722381,0
8,988.4547119140625,4.775356501340866E-7,7.443649228662252E-4,2.7637710445560515E-4,-4.350924015045166,27.158254623413086,-37.232444763183594,0.7960216999053955,0.5412577390670776,-0.022637367248535156,0.078681886,-0.15112405,9.772279,-0.80916697,-0.5041008,9.727159,0
8,988.4547119140625,4.775356501340866E-7,7.443649228662252E-4,2.7637710445560515E-4,-4.350924015045166,27.158254623413086,-37.232444763183594,0.7987697124481201,0.5539785623550415,-0.008191108703613281,0.06911722,-0.1630403,9.767544,-0.81661934,-0.5096932,9.721606,0
8,988.4746704101562,-7.970300503075123E-4,-3.211322473362088E-4,1.4383631059899926E-4,-4.097657203674316,27.13178062438965,-36.885005950927734,0.7782264947891235,0.5401220321655273,-0.007472038269042969,0.07867172,-0.15589036,9.769911,-0.7973692,-0.50845236,9.725602,0
8,988.4746704101562,-7.970300503075123E-4,-3.211322473362088E-4,1.4383631059899926E-4,-4.097657203674316,27.13178062438965,-36.885005950927734,0.7809046506881714,0.5386934876441956,-0.007231712341308594,0.081056535,-0.1582735,9.767544,-0.7873901,-0.5135778,9.723825,0
8,988.4569091796875,-1.3119133654981852E-4,4.7780756722204387E-4,-2.5561649817973375E-4,-3.9199604988098145,27.03502082824707,-37.291648864746094,0.7862017154693604,0.5261629819869995,-0.006740570068359375,0.073881775,-0.15350683,9.762808,-0.7962376,-0.4952092,9.719168,0
8,988.4572143554688,-5.305674858391285E-4,7.441075285896659E-4,-5.218904698267579E-4,-4.618729114532471,26.907621383666992,-37.407470703125,0.7756000757217407,0.5270743370056152,-0.010820388793945312,0.07387668,-0.15827326,9.779379,-0.8001346,-0.48837572,9.735915,0
8,988.4474487304688,2.684291685000062E-4,-3.211640287190676E-4,-3.8871157448738813E-4,-4.3334784507751465,27.332387924194336,-36.86040496826172,0.773451566696167,0.5306518077850342,0.022552490234375,0.081041306,-0.16065638,9.760441,-0.7829894,-0.4947406,9.718062,0
8,988.4496459960938,2.1622981876134872E-6,2.1145984646864235E-4,-0.0011876382632181048,-4.441852569580078,26.967321395874023,-36.514404296875,0.769033670425415,0.523141622543335,0.004100799560546875,0.073866546,-0.15350644,9.765175,-0.78863347,-0.4802124,9.722916,0
8,988.4750366210938,2.211309038102627E-6,0.0011435573687776923,-0.0010544592514634132,-4.248232841491699,27.0432186126709,-36.47169494628906,0.7794932126998901,0.5156472325325012,-0.0049304962158203125,0.059522033,-0.1535063,9.769908,-0.7963276,-0.48213977,9.7268505,0
8,988.4423828125,-1.3089796993881464E-4,8.772336877882481E-4,-1.2233282905071974E-4,-4.338449478149414,27.802175521850586,-37.42601776123047,0.7660105228424072,0.5226771235466003,-0.02344036102294922,0.073856354,-0.16065602,9.77701,-0.77881145,-0.4879972,9.735324,0
8,988.46240234375,2.6862474624067545E-4,-5.875116912648082E-4,1.4400406507775187E-4,-4.467014312744141,27.892168045043945,-36.872581481933594,0.766706109046936,0.5009984970092773,0.014882087707519531,0.06907147,-0.14158972,9.760438,-0.7802031,-0.46077737,9.719564,0
8,988.4374389648438,2.3579923436045647E-6,-5.488781607709825E-5,-2.5544874370098114E-4,-4.314809799194336,26.875852584838867,-36.99053955078125,0.7419737577438354,0.5163323283195496,-0.022380828857421875,0.07862604,-0.15827252,9.777008,-0.76740927,-0.4788756,9.736677,0
8,988.4498901367188,4.0188070852309465E-4,-3.2121167168952525E-4,-5.217436701059341E-4,-4.327826499938965,26.6002254486084,-36.895416259765625,0.7542009353637695,0.5099931359291077,0.006259918212890625,0.07623106,-0.15827237,9.75807,-0.7648025,-0.47423437,9.718076,0
8,988.45751953125,2.6877166237682104E-4,0.0011435177875682712,-3.8856477476656437E-4,-4.360055923461914,27.149415969848633,-36.76861572265625,0.7409658432006836,0.4980323314666748,0.016126632690429688,0.07383606,-0.15827228,9.746233,-0.7629586,-0.4706175,9.706492,0
8,988.43212890625,-6.632850272580981E-4,-7.207014132291079E-4,-1.2222793884575367E-4,-4.522968292236328,26.522851943969727,-36.86082077026367,0.7321316003799438,0.5047293901443481,0.01183319091796875,0.08339059,-0.16303869,9.7486,-0.7530416,-0.46794462,9.7099285,0
8,988.4576416015625,-5.300779594108462E-4,6.10870192758739E-4,-3.8852274883538485E-4,-4.838084697723389,26.912595748901367,-36.83506774902344,0.7334855198860168,0.520851731300354,0.007488250732421875,0.07860574,-0.16780515,9.777006,-0.7619872,-0.46227172,9.738063,0
8,988.45751953125,2.6024645194411278E-6,-0.001120191067457199,4.104457620996982E-4,-4.686667442321777,27.265005111694336,-36.72505187988281,0.7343456745147705,0.4807162880897522,0.00315093994140625,0.06904104,-0.14873876,9.772272,-0.7635741,-0.4447202,9.733621,0
8,988.4551391601562,5.35283237695694E-4,7.440120680257678E-4,-1.221649581566453E-4,-4.494868278503418,26.70729637145996,-37.02991485595703,0.7207773923873901,0.48286890983581543,0.017775535583496094,0.083375394,-0.14873864,9.755701,-0.7410943,-0.4472081,9.718722,0
9,988.4448852539062,5.353322485461831E-4,7.82144779805094E-5,1.1013820767402649E-5,-4.690553188323975,26.998212814331055,-37.09376525878906,0.7216970920562744,0.4900707006454468,-7.619857788085938E-4,0.0738107,-0.14397193,9.774637,-0.7509095,-0.4353801,9.737367,0
9,988.462646484375,5.353811429813504E-4,6.108381785452366E-4,1.4419271610677242E-4,-4.5726423263549805,26.89790916442871,-37.10606384277344,0.7226864099502563,0.47803157567977905,-0.005100250244140625,0.07141572,-0.14397188,9.767536,-0.74727094,-0.43535805,9.730501,0
9,988.4476318359375,-7.961493683978915E-4,-5.4959324188530445E-5,-0.0010542076779529452,-4.3363847732543945,27.43535804748535,-37.40487289428711,0.7333672046661377,0.4753653407096863,0.009491920471191406,0.061851025,-0.14397176,9.769903,-0.7490166,-0.43962848,9.732485,0
9,988.475341796875,-5.297847092151642E-4,2.1134861162863672E-4,2.773927408270538E-4,-4.616504669189453,27.067026138305664,-36.26237487792969,0.7202361822128296,0.4823604226112366,3.986358642578125E-4,0.07379544,-0.15112145,9.774636,-0.7404165,-0.43463254,9.738311,0
9,988.4348754882812,5.355279427021742E-4,-0.0012533966219052672,-3.883759491145611E-4,-4.236599445343018,27.42329216003418,-37.18859100341797,0.7216962575912476,0.4893760681152344,0.014955520629882812,0.0737904,-0.16542096,9.760433,-0.7313569,-0.45481372,9.724048,0
9,988.45751953125,2.945074811577797E-6,-3.2129904138855636E-4,-3.8835511077195406E-4,-4.309401988983154,27.144121170043945,-36.69913101196289,0.7037844657897949,0.46331924200057983,-0.008356094360351562,0.0740211,-0.1487437,9.772289,-0.7232593,-0.44369435,9.736801,0
9,988.4501953125,4.6381494030356407E-4,1.6536391922272742E-4,-2.2944982629269361E-4,-4.030399322509766,27.036771774291992,-36.966796875,0.6994672417640686,0.47045040130615234,-0.008012771606445312,0.07904595,-0.15113302,9.774679,-0.71708393,-0.4401111,9.739894,0
9,988.4649047851562,-4.7284539323300123E-4,-1.0021255002357066E-4,-4.977176431566477E-4,-4.195919990539551,27.14531898498535,-37.178592681884766,0.7005189061164856,0.4631109833717346,0.011303901672363281,0.06950033,-0.14875002,9.762844,-0.7266744,-0.4262252,9.727813,0
9,988.4550170898438,4.591259639710188E-4,3.2967160223051906E-5,1.6801460878923535E-4,-4.436742782592773,26.603452682495117,-36.64786911010742,0.7018666863441467,0.4702327847480774,0.021119117736816406,0.076684,-0.14875038,9.777049,-0.72330576,-0.41423386,9.742891,0
9,988.4500732421875,-7.36401416361332E-5,-6.328007439151406E-4,3.0111498199403286E-4,-4.928737640380859,26.933496475219727,-37.51517868041992,0.6839306354522705,0.46321427822113037,0.012003898620605469,0.07430798,-0.15590058,9.760481,-0.7195226,-0.42149633,9.726328,0
9,988.4524536132812,7.251729257404804E-4,-3.664629766717553E-4,8.336891187354922E-4,-4.834604740142822,27.653600692749023,-37.263885498046875,0.680717945098877,0.4704367518424988,-0.0018758773803710938,0.07671183,-0.15351765,9.772317,-0.7120762,-0.42179206,9.738721,0
9,988.4325561523438,1.9227247685194016E-4,-0.0010322090238332748,5.672579864040017E-4,-4.4925055503845215,26.97261619567871,-36.583892822265625,0.6851674914360046,0.45715469121932983,0.008108139038085938,0.07672581,-0.14875142,9.765217,-0.7068518,-0.41590098,9.732156,0
9,988.4325561523438,1.9227247685194016E-4,-0.0010322090238332748,5.672579864040017E-4,-4.4925055503845215,26.97261619567871,-36.583892822265625,0.6783871650695801,0.4605588912963867,0.008304595947265625,0.08390945,-0.14875175,9.769953,-0.695934,-0.41471386,9.737803,0
9,988.4652099609375,-0.0012725993292406201,0.0010983396787196398,1.677265390753746E-4,-4.507449626922607,27.169721603393555,-37.20899963378906,0.6749516725540161,0.4578162431716919,0.013387680053710938,0.076753676,-0.1511354,9.772321,-0.6962229,-0.42021555,9.739901,0
9,988.4652099609375,-0.0012725993292406201,0.0010983396787196398,1.677265390753746E-4,-4.26554012298584,26.975004196166992,-37.542823791503906,0.6855834126472473,0.4648978114128113,0.004276275634765625,0.062428206,-0.1606688,9.77469,-0.7078013,-0.4260463,9.741241,0
9,988.4451904296875,1.918694470077753E-4,2.994357782881707E-4,-9.870447684079409E-5,-4.406984329223633,26.89528465270996,-37.593345642089844,0.6757270097732544,0.4470924139022827,-0.004698753356933594,0.072001785,-0.1439863,9.781792,-0.6964024,-0.40445304,9.749914,0
9,988.4451904296875,1.918694470077753E-4,2.994357782881707E-4,-9.870447684079409E-5,-4.406984329223633,26.89528465270996,-37.593345642089844,0.6691117286682129,0.4650198221206665,0.004942893981933594,0.08635509,-0.16066949,9.7723255,-0.678463,-0.42012924,9.741396,0
9,988.4805297851562,-3.4089689143002033E-4,-2.3317414161283523E-4,-9.876210242509842E-5,-4.352445602416992,27.156782150268555,-37.15514373779297,0.6655402183532715,0.453113853931427,0.005283355712890625,0.06963974,-0.15352,9.7699585,-0.6921354,-0.40769044,9.738339,0
9,988.4501953125,3.247583517804742E-4,5.657953443005681E-4,-7.646094309166074E-4,-4.438670635223389,27.07618522644043,-37.36809539794922,0.6716446280479431,0.43174028396606445,0.015080451965332031,0.0720436,-0.14637055,9.76996,-0.67938596,-0.409408,9.739074,0
9,988.4476318359375,-7.484969682991505E-5,-3.662884118966758E-4,9.663862874731421E-4,-4.036211967468262,27.242719650268555,-38.05573272705078,0.644131064414978,0.4342121481895447,0.015417098999023438,0.08161715,-0.15113746,9.765227,-0.67515314,-0.39716917,9.735275,0
9,988.4400634765625,7.238290272653103E-4,3.322897828184068E-5,-8.979401318356395E-4,-4.743813991546631,27.738615036010742,-37.28285217285156,0.6451759934425354,0.4223657250404358,0.001560211181640625,0.07924116,-0.14398791,9.767595,-0.6749836,-0.38511336,9.73802,0
9,988.4348754882812,-3.415688406676054E-4,8.321984205394983E-4,-6.31681876257062E-4,-4.480467319488525,26.87848472595215,-36.503257751464844,0.6511062383651733,0.4436141848564148,0.001903533935546875,0.07925516,-0.15352137,9.779432,-0.6709062,-0.3957184,9.749896,0
9,988.460205078125,-0.0012738087680190802,4.3274639756418765E-4,6.998400203883648E-4,-5.038877964019775,27.567384719848633,-36.76545715332031,0.6381989121437073,0.4313775300979614,0.006960868835449219,0.07926908,-0.15352173,9.7747,-0.67385966,-0.3813336,9.74552,0
9,988.4527587890625,-2.0867970306426287E-4,-4.993373295292258E-4,-2.3232330568134785E-4,-4.267062664031982,26.97353172302246,-37.46551513671875,0.6444758176803589,0.4244447350502014,0.021467208862304688,0.07450324,-0.15828867,9.760498,-0.6638711,-0.40158328,9.731184,0
9,988.4426879882812,5.7501718401908875E-5,3.3316260669380426E-5,4.334089462645352E-4,-4.31521463394165,27.350061416625977,-37.788063049316406,0.6554613709449768,0.42688751220703125,-0.0018939971923828125,0.06734747,-0.14637263,9.774702,-0.6681959,-0.3871177,9.7454815,0
10,988.460205078125,3.2368325628340244E-4,-3.661357332020998E-4,3.0019338009878993E-4,-4.623838424682617,27.271493911743164,-37.27400588989258,0.6283899545669556,0.4247587323188782,0.007862091064453125,0.08409071,-0.14637293,9.762868,-0.65225667,-0.37754136,9.7352,0
10,988.46533203125,4.567068535834551E-4,-3.661139344330877E-4,4.33293724199757E-4,-4.535548210144043,26.985273361206055,-37.03990936279297,0.6392873525619507,0.43216633796691895,-0.006031990051269531,0.074545085,-0.15828963,9.767603,-0.6588312,-0.38789126,9.739208,0
10,988.4376220703125,-3.423753660172224E-4,-2.3293412232305855E-4,-3.6571151576936245E-4,-4.761695384979248,26.826425552368164,-37.38068389892578,0.6265870332717896,0.4346890449523926,0.02739715576171875,0.07455897,-0.17020638,9.765238,-0.6593179,-0.3924641,9.73682,0
10,988.4374389648438,8.559118723496795E-4,-2.3291233810596168E-4,3.0002050334587693E-4,-4.4299750328063965,26.346967697143555,-37.557716369628906,0.6282463073730469,0.4373396039009094,0.037146568298339844,0.081742644,-0.16305692,9.760504,-0.6438854,-0.39086235,9.733105,0
10,988.4705200195312,3.2314565032720566E-4,-3.6604845081456006E-4,-2.3266894277185202E-4,-4.6309051513671875,26.895837783813477,-36.78902816772461,0.6202229261398315,0.4159756898880005,0.009033203125,0.07458693,-0.15352412,9.760506,-0.6502043,-0.37338138,9.733161,0
10,988.4426879882812,1.898531336337328E-4,-2.328686969121918E-4,2.999053103849292E-4,-4.819117546081543,27.08820152282715,-36.54032897949219,0.640930712223053,0.4231598973274231,0.03299522399902344,0.06743109,-0.15352447,9.758139,-0.656496,-0.3659609,9.730597,0
10,988.4805297851562,-7.659685797989368E-5,-9.968897211365402E-5,2.998478012159467E-4,-4.600740909576416,26.71346092224121,-36.936973571777344,0.6182880401611328,0.4160422086715698,0.009633064270019531,0.072224855,-0.14875825,9.76761,-0.64572984,-0.36447105,9.740828,0
10,988.460205078125,-6.093630800023675E-4,5.661225877702236E-4,-2.3284158669412136E-4,-4.515059471130371,27.162355422973633,-36.822471618652344,0.6193114519119263,0.4046283960342407,0.024150848388671875,0.0722388,-0.14399208,9.7605095,-0.63980865,-0.36011726,9.73419,0
10,988.44775390625,3.2260792795568705E-4,5.661444738507271E-4,4.328905197326094E-4,-4.615822792053223,26.804651260375977,-36.862998962402344,0.61585533618927,0.4072277545928955,0.01971435546875,0.06986284,-0.16067533,9.765245,-0.6418878,-0.3716718,9.738611,0
10,988.46533203125,8.551054634153843E-4,4.330082156229764E-4,4.3283289414830506E-4,-4.138635158538818,26.777624130249023,-37.31987762451172,0.6030677556991577,0.40059012174606323,0.01998615264892578,0.0722667,-0.15114255,9.758145,-0.62847316,-0.37178153,9.732229,0
10,988.4552001953125,3.223392413929105E-4,-4.990754532627761E-4,-3.6617228761315346E-4,-4.173227310180664,27.061491012573242,-37.63909149169922,0.5908706784248352,0.41738104820251465,0.006130218505859375,0.08116895,-0.15827627,9.762819,-0.6170584,-0.3772515,9.7376175,0
10,988.4603881835938,-7.32585322111845E-5,-2.3338882601819932E-4,1.6812048852443695E-4,-4.24102783203125,27.52479362487793,-37.65575408935547,0.602246880531311,0.4151466488838196,0.006394386291503906,0.07638064,-0.15112625,9.76992,-0.61952597,-0.36680782,9.744828,0
10,988.4376220703125,-3.3712713047862053E-4,5.651615792885423E-4,-9.714649058878422E-5,-4.177793979644775,27.05707359313965,-37.40717697143555,0.5987277030944824,0.39865338802337646,0.03983592987060547,0.07159239,-0.15589257,9.76045,-0.6202045,-0.36921453,9.735239,0
10,988.4654541015625,-7.0729642175138E-5,6.983062485232949E-4,-6.297433283179998E-4,-4.875720977783203,27.19352149963379,-36.999671936035156,0.6046260595321655,0.39155176281929016,0.021210670471191406,0.07158387,-0.14874251,9.765184,-0.6229103,-0.34860647,9.7404585,0
10,988.4451904296875,-0.001002753502689302,0.0012309246230870485,3.023974131792784E-4,-4.7648468017578125,27.92982292175293,-37.598731994628906,0.5867148637771606,0.398738831281662,0.021514892578125,0.07874507,-0.15589221,9.7651825,-0.6091028,-0.36020195,9.7410755,0
10,988.4501953125,5.952236242592335E-4,5.651216488331556E-4,-9.704130934551358E-5,-4.424131393432617,27.35328483581543,-37.54051971435547,0.5837385058403015,0.41567283868789673,0.026506423950195312,0.0787366,-0.16304179,9.769917,-0.60758054,-0.3642152,9.745884,0
10,988.4506225585938,-3.367180470377207E-4,3.2463372917845845E-5,9.682922973297536E-4,-4.566554069519043,26.903799057006836,-37.415283203125,0.5788239240646362,0.3741759955883026,0.026922225952148438,0.071558416,-0.14635862,9.779385,-0.6127354,-0.34212148,9.755532,0
10,988.4506225585938,-3.367180470377207E-4,3.2463372917845845E-5,9.682922973297536E-4,-4.566554069519043,26.903799057006836,-37.415283203125,0.58204185962677,0.3826296329498291,0.0270538330078125,0.07632971,-0.14635839,9.77465,-0.600043,-0.34764904,9.751416,0
10,988.4832763671875,-4.697943804785609E-4,-3.6702369106933475E-4,-9.693612810224295E-5,-4.233854293823242,26.794103622436523,-37.768070220947266,0.5746497511863708,0.3946533799171448,-0.0011205673217773438,0.08110106,-0.1606579,9.786485,-0.59345144,-0.3616218,9.763437,0
10,988.4506225585938,-1.964638358913362E-4,-5.359068745747209E-4,-9.587581735104322E-5,-4.155782699584961,27.235631942749023,-37.267051696777344,0.5813409090042114,0.38266658782958984,0.013334274291992188,0.06675315,-0.1439748,9.767547,-0.608524,-0.3305384,9.744259,0
10,988.4553833007812,-7.290139910764992E-4,-4.0276217623613775E-4,3.731722244992852E-5,-4.631448745727539,27.264131546020508,-36.887481689453125,0.5541175603866577,0.3803621530532837,-5.931854248046875E-4,0.08347398,-0.1558909,9.774647,-0.58803606,-0.3448593,9.752451,0
10,988.4553833007812,-7.290139910764992E-4,-4.0276217623613775E-4,3.731722244992852E-5,-4.466769218444824,26.89174461364746,-37.199005126953125,0.574730396270752,0.392350435256958,0.004414558410644531,0.06673622,-0.16780706,9.781748,-0.6060246,-0.34765926,9.758436,0
10,988.4658203125,-0.001128405798226595,6.624880479648709E-4,-9.58056771196425E-5,-4.743569374084473,26.738187789916992,-37.60926818847656,0.5615800023078918,0.3762461245059967,0.004693031311035156,0.07628733,-0.14397414,9.777013,-0.5893239,-0.3253331,9.755172,0
10,988.4507446289062,7.009756518527865E-5,6.624747766181827E-4,-2.2892857668921351E-4,-4.632289409637451,27.00028419494629,-37.41080093383789,0.5629106760025024,0.3643302917480469,0.04284954071044922,0.076278806,-0.13920738,9.760442,-0.5829011,-0.32062986,9.739037,0
11,988.4406127929688,2.0333711290732026E-4,0.0015945670893415809,1.7058028606697917E-4,-4.517965316772461,27.26532554626465,-37.366943359375,0.5599050521850586,0.38131216168403625,0.01942157745361328,0.07866025,-0.15827332,9.772278,-0.58851916,-0.32237113,9.750814,0
11,988.4483032226562,-5.95528690610081E-4,0.0010619221720844507,4.3693120824173093E-4,-5.266546249389648,27.40706443786621,-37.0289306640625,0.5567144751548767,0.3890671133995056,0.010201454162597656,0.07626188,-0.15827312,9.762808,-0.5782338,-0.33595783,9.741462,0
11,988.4685668945312,7.034250302240252E-5,-4.0282862028107047E-4,-0.0010277710389345884,-4.520329475402832,27.0000057220459,-37.81296157836914,0.5585616827011108,0.37268146872520447,0.015172958374023438,0.06669372,-0.15350635,9.767541,-0.58525646,-0.3276065,9.745924,0
11,988.4533081054688,2.035823999904096E-4,5.292637506499887E-4,3.7527468521147966E-5,-4.50538444519043,26.802900314331055,-37.18785095214844,0.56959468126297,0.35646986961364746,0.02489471435546875,0.071465075,-0.14397313,9.765173,-0.5746944,-0.31949392,9.744338,0
11,988.4408569335938,2.0366435637697577E-4,-1.365392527077347E-4,1.707205083221197E-4,-4.279674053192139,26.223695755004883,-36.57286834716797,0.5425311326980591,0.3685868978500366,0.02988147735595703,0.07145655,-0.14873941,9.765172,-0.57024074,-0.32494795,9.744489,0
11,988.47119140625,4.7014380106702447E-4,-4.0288170566782355E-4,5.702644120901823E-4,-4.300270080566406,27.1529598236084,-37.1629638671875,0.5404860973358154,0.3762279152870178,0.02531909942626953,0.0762279,-0.16303883,9.765171,-0.565071,-0.33647662,9.744662,0
11,988.483642578125,-3.287222352810204E-4,-0.0010686847381293774,5.702994531020522E-4,-4.676013946533203,27.275320053100586,-37.26618957519531,0.5454758405685425,0.3592870235443115,0.016198158264160156,0.071439624,-0.14873902,9.765171,-0.569768,-0.3129327,9.744907,0
11,988.4356689453125,0.0010029389522969723,-2.6975030777975917E-4,-6.280869129113853E-4,-4.493346214294434,26.708768844604492,-37.107215881347656,0.529548704624176,0.37765616178512573,0.016313552856445312,0.088160455,-0.15827192,9.774639,-0.55007344,-0.32486,9.755423,0
11,988.4635620117188,4.703890881501138E-4,0.001061815768480301,3.7737772800028324E-5,-4.320217132568359,26.60759162902832,-37.281944274902344,0.544048547744751,0.38408011198043823,0.0024662017822265625,0.061863065,-0.17257138,9.774637,-0.5719138,-0.33871382,9.753734,0
11,988.4788208007812,7.09972227923572E-5,2.6285479543730617E-4,3.7772872019559145E-5,-4.636014938354492,27.25971031188965,-36.65556335449219,0.5328904390335083,0.35922813415527344,0.026258468627929688,0.07619399,-0.14635505,9.767536,-0.55572945,-0.30531478,9.74833,0
11,988.4611206054688,-6.207911064848304E-5,3.9599952287971973E-4,-9.535002755001187E-5,-4.296683311462402,26.787614822387695,-37.219120025634766,0.525475025177002,0.3524407148361206,0.0075283050537109375,0.074293435,-0.14398386,9.774682,-0.551519,-0.3075897,9.755607,0
11,988.4510498046875,7.11605534888804E-5,-1.3664551079273224E-4,-4.947889246977866E-4,-4.281601428985596,26.696428298950195,-37.2930908203125,0.5262644290924072,0.35547560453414917,0.026592254638671875,0.079592824,-0.14637984,9.765261,-0.5427189,-0.30871594,9.746704,0
11,988.4534301757812,4.6342593850567937E-4,-4.042143700644374E-6,-3.6733277374878526E-4,-4.275513648986816,26.702322006225586,-37.60231399536133,0.5231450200080872,0.34453725814819336,0.026807785034179688,0.07245484,-0.14638065,9.765264,-0.5465032,-0.30729467,9.746484,0
11,988.4635620117188,4.6312034828588367E-4,6.617972976528108E-4,3.200996434316039E-5,-4.743814468383789,27.738615036010742,-37.2828483581543,0.5062354803085327,0.3429352045059204,0.02225971221923828,0.08443606,-0.14161487,9.7747345,-0.53658295,-0.29427606,9.75695,0
11,988.4560546875,7.291299407370389E-4,-0.001202364219352603,5.64510584808886E-4,-4.334319591522217,27.068540573120117,-37.38372802734375,0.5226666927337646,0.3319059908390045,0.03191661834716797,0.07012841,-0.14638223,9.762901,-0.5440136,-0.30309546,9.74437,0
11,988.4639282226562,9.951398242264986E-4,5.287385429255664E-4,-2.3456814233213663E-4,-4.437148571014404,27.07765769958496,-37.445396423339844,0.5197476148605347,0.34422844648361206,0.0226593017578125,0.065380335,-0.15114947,9.767639,-0.5475647,-0.30367512,9.748941,0
11,988.4586181640625,-7.042958168312907E-5,-3.843539161607623E-6,-5.010151653550565E-4,-4.551472187042236,26.812612533569336,-37.4892578125,0.5122129917144775,0.3472232222557068,0.013385772705078125,0.07736158,-0.1511503,9.765276,-0.53421104,-0.3002921,9.747507,0
11,988.476318359375,1.955808256752789E-4,-9.358995012007654E-4,6.972752744331956E-4,-4.213502407073975,26.865266799926758,-36.8515625,0.5196911692619324,0.35012003779411316,0.018276214599609375,0.065443814,-0.14876775,9.770012,-0.5408048,-0.30105215,9.7517395,0
11,988.4432983398438,-2.0419905195012689E-4,-0.0010690076742321253,1.6451237024739385E-4,-4.833518981933594,26.917016983032227,-37.06698226928711,0.521607518196106,0.35293668508529663,0.032683372497558594,0.07025534,-0.15830167,9.772383,-0.5405772,-0.2973828,9.754424,0
11,988.4459228515625,-3.37662931997329E-4,3.957792650908232E-4,-1.0193453636020422E-4,-4.3768205642700195,26.71291160583496,-37.74129104614258,0.5041239261627197,0.34146028757095337,0.028168678283691406,0.075066894,-0.15830244,9.767651,-0.5271795,-0.3050622,9.7502165,0
11,988.473876953125,3.2782048219814897E-4,-3.6449346225708723E-6,-5.015393835492432E-4,-4.437148571014404,27.07765769958496,-37.445396423339844,0.5060186386108398,0.33457040786743164,0.004702568054199219,0.063149124,-0.1511534,9.7771225,-0.5366975,-0.29407576,9.759325,0
11,988.4459838867188,-6.045905756764114E-4,2.627205685712397E-4,-1.0219670366495848E-4,-4.533047676086426,27.35651206970215,-37.29296875,0.4937610924243927,0.33753737807273865,0.023828506469726562,0.07752025,-0.15830399,9.772391,-0.51987714,-0.30075458,9.755511,0
11,988.4789428710938,-7.226428715512156E-5,-9.356512455269694E-4,-0.0011675911955535412,-4.422066688537598,26.98647117614746,-37.519371032714844,0.48673194646835327,0.33112359046936035,0.009783744812011719,0.072772175,-0.14877169,9.786597,-0.52500236,-0.28477514,9.769759,0
11,988.4840087890625,3.269031294621527E-4,-8.024435956031084E-4,-5.019327509216964E-4,-4.679899215698242,27.00852394104004,-37.6348991394043,0.4889094829559326,0.3244900703430176,0.02416706085205078,0.082363546,-0.15115578,9.772397,-0.51048344,-0.28909874,9.7562895,0
11,988.4840087890625,-7.287616608664393E-5,-1.366042415611446E-4,-1.0258989641442895E-4,-4.542041778564453,27.453588485717773,-37.52821350097656,0.4764903485774994,0.3227924108505249,0.019624710083007812,0.08000535,-0.1511565,9.770033,-0.51232755,-0.28278226,9.75399,0
12,988.47412109375,4.594501224346459E-4,0.001195024698972702,5.630686646327376E-4,-4.710200309753418,27.08498191833496,-36.787872314453125,0.49256354570388794,0.34984973073005676,0.02929210662841797,0.06808758,-0.16069044,9.774771,-0.5225434,-0.2893542,9.758064,0
12,988.4740600585938,4.591438337229192E-4,6.624427041970193E-4,-5.02325885463506E-4,-4.705091953277588,26.721105575561523,-36.92134094238281,0.49925869703292847,0.3189389705657959,0.024759292602539062,0.06333953,-0.14639159,9.767672,-0.5221014,-0.27328098,9.7511835,0
12,988.4437255859375,-0.0014053734485059977,-2.6961322873830795E-4,-1.0298320557922125E-4,-4.676151275634766,27.169401168823242,-36.567108154296875,0.49175015091896057,0.3267177939414978,0.015473365783691406,0.07532078,-0.15115888,9.770041,-0.5025468,-0.28731704,9.754338,0
12,988.46435546875,3.253738977946341E-4,-4.027214599773288E-4,-3.694301121868193E-4,-4.107928276062012,26.226964950561523,-37.36936950683594,0.4845874607563019,0.3155081272125244,0.020366668701171875,0.07535249,-0.14639308,9.762943,-0.49968603,-0.28028846,9.747509,0
12,988.4741821289062,4.5822636457160115E-4,-3.197987098246813E-6,1.6307045007124543E-4,-4.166053771972656,26.330808639526367,-37.75141143798828,0.4767453074455261,0.3234161138534546,0.034768104553222656,0.070604414,-0.16069348,9.76768,-0.50488,-0.28895622,9.751921,0
12,988.4638671875,1.9160477677360177E-4,6.626413087360561E-4,-6.360081606544554E-4,-4.3573102951049805,26.52022361755371,-37.34809875488281,0.47413769364356995,0.2979171872138977,0.011266708374023438,0.07780585,-0.14639468,9.779519,-0.49450853,-0.2740351,9.764571,0
12,988.4512939453125,-7.501727668568492E-5,-2.694146241992712E-4,-2.3666542256250978E-4,-4.663432598114014,26.812891006469727,-37.087100982666016,0.47500500082969666,0.2997238337993622,0.016262054443359375,0.0730578,-0.14162885,9.774788,-0.49884832,-0.26147574,9.7598505,0
12,988.4512939453125,-7.501727668568492E-5,-2.694146241992712E-4,-2.3666542256250978E-4,-4.663432598114014,26.812891006469727,-37.087100982666016,0.473753422498703,0.3274155259132385,0.030548095703125,0.07308954,-0.16307916,9.755853,-0.49338606,-0.28735337,9.740771,0
12,988.4741821289062,-6.51507347356528E-4,4.899431369267404E-4,7.899514166638255E-4,-4.3448357582092285,27.16414451599121,-37.54167175292969,0.47068673372268677,0.3111001253128052,0.021279335021972656,0.07073134,-0.14401372,9.772426,-0.495991,-0.2590182,9.757711,0
12,988.4789428710938,-7.849709945730865E-4,2.2367696510627866E-4,5.235044518485665E-4,-4.759034156799316,27.7238826751709,-36.509796142578125,0.4677821397781372,0.29040491580963135,0.035663604736328125,0.065983295,-0.13448139,9.765327,-0.49353626,-0.25329,9.750709,0
12,988.4619750976562,1.3671175111085176E-5,7.563584949821234E-4,-1.4241639291867614E-4,-4.4181809425354,27.253263473510742,-37.15066146850586,0.45264169573783875,0.3172675371170044,0.0028333663940429688,0.07389891,-0.15589054,9.779381,-0.48560262,-0.27417105,9.764992,0
12,988.4290161132812,4.1283894097432494E-4,6.232501473277807E-4,3.900843148585409E-4,-4.327826499938965,26.6002254486084,-36.895416259765625,0.46488362550735474,0.3156605362892151,0.03138446807861328,0.07147348,-0.15112312,9.758072,-0.4858614,-0.2644809,9.743814,0
12,988.4619750976562,2.8540141647681594E-4,-0.0011087318416684866,-2.7325371047481894E-4,-4.570821762084961,27.531522750854492,-36.75849914550781,0.45742684602737427,0.3000280261039734,0.02682209014892578,0.07621783,-0.14397247,9.767538,-0.479288,-0.25480938,9.753804,0
12,988.4493408203125,5.600721924565732E-4,-3.0969985527917743E-4,6.648532580584288E-4,-4.714086532592773,26.81818962097168,-37.156585693359375,0.4454510807991028,0.32221555709838867,0.04592323303222656,0.08574194,-0.1630377,9.7628,-0.46966934,-0.27172655,9.749451,0
12,988.4769897460938,5.604143370874226E-4,6.223502568900585E-4,-7.997374632395804E-4,-4.261112213134766,26.873510360717773,-37.075660705566406,0.4428618848323822,0.30142176151275635,0.01768779754638672,0.08092666,-0.14635397,9.777,-0.46671307,-0.2608418,9.763803,0
12,988.4746704101562,2.944408333860338E-4,-3.0981097370386124E-4,-4.001169581897557E-4,-4.555196762084961,27.07204246520996,-36.73402404785156,0.44073376059532166,0.3140048384666443,0.022568702697753906,0.08328101,-0.16065271,9.767528,-0.46570432,-0.26858068,9.7544,0
12,988.4492797851562,-9.036388364620507E-4,-5.761823849752545E-4,-2.668123343028128E-4,-4.70106840133667,27.09381675720215,-37.251705169677734,0.45240160822868347,0.30243200063705444,0.008543014526367188,0.07129601,-0.15350197,9.781729,-0.47601482,-0.2565646,9.768235,0
12,988.464599609375,-0.0010364542249590158,2.2270981571637094E-4,-2.666657674126327E-4,-5.004446029663086,26.757291793823242,-37.5701904296875,0.45035693049430847,0.30092501640319824,0.027618408203125,0.07126054,-0.14873458,9.765154,-0.47540656,-0.24475285,9.751898,0
12,988.4568481445312,4.2862509144470096E-4,2.2265416919253767E-4,-2.0326115190982819E-7,-4.630767345428467,27.001760482788086,-37.48810577392578,0.43364936113357544,0.2990977466106415,0.032509803771972656,0.08078462,-0.1558835,9.762784,-0.460505,-0.25774336,9.7500925,0
12,988.4492797851562,1.6265123849734664E-4,-5.763490335084498E-4,-2.6637240080162883E-4,-4.580113887786865,26.9964656829834,-37.418617248535156,0.45529797673225403,0.3117114305496216,0.03265857696533203,0.06162992,-0.15826596,9.760414,-0.47687656,-0.25743255,9.746839,0
12,988.4494018554688,-2.364800893701613E-4,-5.764045636169612E-4,-3.9938377449288964E-4,-4.696640491485596,26.992319107055664,-36.784542083740234,0.4337943196296692,0.3053608536720276,0.023342132568359375,0.073543906,-0.15588184,9.758043,-0.46359864,-0.25215638,9.745287,0
12,988.44970703125,8.2912523066625E-4,-4.4330215314403176E-4,2.665524953044951E-4,-4.9626264572143555,27.37529945373535,-36.61199951171875,0.4222196936607361,0.28476688265800476,0.03767681121826172,0.080678135,-0.13919802,9.762774,-0.4549296,-0.23107976,9.75076,0
12,988.4696044921875,-5.021117976866663E-4,-4.433577414602041E-4,-5.322483484633267E-4,-4.151896953582764,27.50242042541504,-36.89833450317383,0.4439566731452942,0.28782522678375244,0.028351783752441406,0.063913316,-0.15349676,9.767505,-0.46371135,-0.25576705,9.754556,0
12,988.4644775390625,-2.3545377189293504E-4,-0.0011092029744759202,1.3368780491873622E-4,-4.2656779289245605,26.869089126586914,-36.84374237060547,0.43234896659851074,0.2816866338253021,0.04268455505371094,0.0662677,-0.15111266,9.760401,-0.46022165,-0.24939546,9.747751,0
12,988.4719848632812,9.633097215555608E-4,2.2232087212614715E-4,-3.987971576862037E-4,-4.462203502655029,26.896162033081055,-37.43091583251953,0.4299824833869934,0.304243803024292,0.03809547424316406,0.075791836,-0.16541143,9.762764,-0.45124167,-0.26061785,9.7505455,0
13,988.447021484375,5.641781608574092E-4,-5.766822723671794E-4,1.339811715297401E-4,-4.522531986236572,27.260908126831055,-37.13502502441406,0.42254647612571716,0.28341028094291687,0.024057388305664062,0.0733664,-0.14872764,9.765129,-0.4498663,-0.24145293,9.753181,0
13,988.4547119140625,-3.675852785818279E-4,6.216836627572775E-4,9.697978384792805E-7,-4.595334529876709,26.98172950744629,-36.64556884765625,0.42030245065689087,0.28649163246154785,0.033669471740722656,0.078110725,-0.14872678,9.767492,-0.4440085,-0.2383289,9.75593,0
13,988.429443359375,-2.340851933695376E-4,-7.09951389580965E-4,5.337483016774058E-4,-4.286167621612549,26.692014694213867,-37.061180114746094,0.43731701374053955,0.2852112948894501,0.014861106872558594,0.06373578,-0.14872588,9.7698555,-0.45362192,-0.24072582,9.757691,0
13,988.4697265625,2.9888871358707547E-4,4.884145455434918E-4,1.3442110503092408E-4,-4.385653495788574,27.336210250854492,-36.85258483886719,0.4255610704421997,0.2833472192287445,0.019736289978027344,0.07325992,-0.1558748,9.767487,-0.44282335,-0.24603966,9.755862,0
13,988.459716796875,-2.3340078769251704E-4,-0.0013758521527051926,1.4097895473241806E-6,-4.653459548950195,27.0855770111084,-37.027610778808594,0.418366014957428,0.29124343395233154,0.0530242919921875,0.073224425,-0.15349074,9.758014,-0.44208923,-0.23757248,9.746583,0
13,988.4775390625,-6.325325812213123E-4,0.0011540931882336736,-5.310753476805985E-4,-4.699004173278809,26.72700309753418,-37.230560302734375,0.41165924072265625,0.2845868468284607,0.024744033813476562,0.07079899,-0.15110655,9.772214,-0.4411552,-0.23658198,9.760811,0
13,988.452392578125,-4.99032496009022E-4,-0.0012428051559254527,-6.640866049565375E-4,-4.433561325073242,26.712316513061523,-37.50156021118164,0.409770131111145,0.27345597743988037,0.034332275390625,0.07076353,-0.15825553,9.769844,-0.43789232,-0.24549195,9.758479,0
13,988.4677124023438,-8.981639402918518E-4,-5.770710995420814E-4,1.8497812561690807E-6,-4.236898422241211,26.79115867614746,-37.61346435546875,0.4173201024532318,0.2622877061367035,0.024990081787109375,0.068338096,-0.14633827,9.776941,-0.4377753,-0.23143691,9.765728,0
13,988.449951171875,5.66915434319526E-4,-4.439687472768128E-4,4.014701989945024E-4,-4.220431804656982,26.59553337097168,-37.0656623840332,0.4057489335536957,0.2847297787666321,0.03931427001953125,0.075472355,-0.15825374,9.762734,-0.43159735,-0.2377064,9.75187,0
13,988.45751953125,7.004155195318162E-4,8.860751404426992E-5,-5.304887308739126E-4,-4.604870796203613,27.44709587097168,-36.97926330566406,0.417422890663147,0.2642959952354431,0.025264739990234375,0.06826711,-0.1487198,9.772201,-0.43694702,-0.22363815,9.761237,0
13,988.4498901367188,3.0128395883366466E-4,6.211837753653526E-4,2.68605537712574E-4,-4.778841972351074,27.2844295501709,-37.327857971191406,0.4042084515094757,0.27752137184143066,0.048951148986816406,0.06954771,-0.15828429,9.75338,-0.4313933,-0.23576906,9.742516,0
13,988.4524536132812,0.0010911771096289158,-4.426099476404488E-4,2.647251239977777E-4,-4.538455009460449,27.088247299194336,-37.584373474121094,0.4214957356452942,0.2668868601322174,0.015911102294921875,0.06478441,-0.15351819,9.772319,-0.4351446,-0.22893545,9.761365,0
13,988.4625244140625,4.2215915163978934E-4,-0.0012410334311425686,9.291311725974083E-4,-4.576229095458984,27.26325035095215,-37.04990768432617,0.41000479459762573,0.2749958634376526,0.03022289276123047,0.069580734,-0.15590186,9.769954,-0.42639607,-0.23434138,9.759325,0
13,988.4451904296875,1.5568401431664824E-4,-7.083759410306811E-4,3.9643121999688447E-4,-4.30567741394043,26.884695053100586,-37.454368591308594,0.4124254584312439,0.2685803174972534,0.039821624755859375,0.07198709,-0.15828548,9.762854,-0.4223967,-0.233662,9.752464,0
13,988.4578857421875,2.2367050405591726E-5,7.563873659819365E-4,-5.357424379326403E-4,-4.361875534057617,26.515806198120117,-37.116188049316406,0.40512949228286743,0.2670668065547943,0.025755882263183594,0.06722385,-0.16066925,9.769957,-0.4262074,-0.23232068,9.759445,0
13,988.4578857421875,2.2367050405591726E-5,7.563873659819365E-4,-5.357424379326403E-4,-4.583020210266113,27.09943199157715,-37.96308517456055,0.39331749081611633,0.28435245156288147,0.030615806579589844,0.07918984,-0.15590306,9.765224,-0.41096172,-0.2276653,9.755484,0
13,988.4552612304688,-2.4410797050222754E-4,6.232550367712975E-4,1.2997904559597373E-4,-4.472176551818848,26.623472213745117,-37.49040985107422,0.3964087963104248,0.2590102255344391,0.025976181030273438,0.07442653,-0.14875366,9.7817955,-0.41197708,-0.2226196,9.771997,0
13,988.4502563476562,-1.112680765800178E-4,-0.0013740623835474253,-2.696310984902084E-4,-4.530982971191406,26.98969078063965,-37.27182388305664,0.3834354281425476,0.24726209044456482,0.035628318786621094,0.0792228,-0.14875408,9.762859,-0.40639475,-0.21730764,9.753432,0
13,988.4502563476562,-1.112680765800178E-4,-0.0013740623835474253,-2.696310984902084E-4,-4.530982971191406,26.98969078063965,-37.27182388305664,0.3920135200023651,0.25623559951782227,0.04041481018066406,0.072069645,-0.14637114,9.755759,-0.41199237,-0.21038106,9.746151,0
13,988.4305419921875,-1.1142698349431157E-4,6.23332685790956E-4,7.955642067827284E-4,-4.704113006591797,27.090871810913086,-37.09709930419922,0.3706604242324829,0.22578492760658264,0.03580284118652344,0.08164573,-0.13922177,9.758128,-0.4001074,-0.20140146,9.749178,0
13,988.4482421875,2.878878149203956E-4,-3.087471704930067E-4,2.62864341493696E-4,-4.802375793457031,27.104406356811523,-37.390682220458984,0.37803688645362854,0.27185842394828796,0.012247085571289062,0.084052145,-0.15352179,9.772333,-0.39628428,-0.21713077,9.76345,0
13,988.4432373046875,-3.7417816929519176E-4,5.207747453823686E-4,-1.904275268316269E-5,-4.722238540649414,27.179113388061523,-36.86851501464844,0.3710326850414276,0.24645864963531494,0.0218353271484375,0.07928887,-0.14875565,9.772334,-0.39915508,-0.20870054,9.763404,0
13,988.4584350585938,-7.738110143691301E-4,3.8764256169088185E-4,-1.522689126431942E-4,-4.417638301849365,26.884973526000977,-37.052207946777344,0.38313034176826477,0.26863545179367065,0.04089069366455078,0.08169523,-0.16067244,9.772336,-0.39349097,-0.22330165,9.763521,0
13,988.455810546875,2.4977722205221653E-5,-1.1805474059656262E-5,-6.849688943475485E-4,-4.404621124267578,27.16060447692871,-37.1473274230957,0.37142014503479004,0.2626054883003235,0.0410003662109375,0.074541986,-0.16067286,9.765236,-0.39774,-0.22203144,9.756216,0
14,988.4834594726562,4.24292404204607E-4,3.876941918861121E-4,-2.8556305915117264E-4,-4.293478965759277,27.316781997680664,-36.249778747558594,0.35502225160598755,0.2279495894908905,0.026903152465820312,0.086508036,-0.14399035,9.772339,-0.38183972,-0.20659944,9.764135,0
14,988.43310546875,8.23607319034636E-4,-1.1753843864426017E-5,-1.9315280951559544E-5,-4.080647945404053,26.567861557006836,-36.23875427246094,0.37212124466896057,0.25528380274772644,0.01753711700439453,0.07218516,-0.15590705,9.774708,-0.39414945,-0.21798392,9.765836,0
14,988.4384155273438,-2.4181546177715063E-4,-1.4488594024442136E-4,-4.188573220744729E-4,-4.755309104919434,27.46445655822754,-37.265037536621094,0.3602847158908844,0.24946147203445435,0.02711772918701172,0.07937133,-0.1535242,9.779444,-0.3888399,-0.20781115,9.7710285,0
14,988.4432373046875,5.569731583818793E-4,6.540876347571611E-4,-1.9451603293418884E-5,-4.118444442749023,26.322568893432617,-37.52730941772461,0.362695574760437,0.24803170561790466,0.03197002410888672,0.079387814,-0.15114136,9.760508,-0.38125002,-0.21149296,9.75226,0
14,988.4434204101562,1.5734019689261913E-4,6.541133625432849E-4,3.799539990723133E-4,-4.878084182739258,26.92820167541504,-37.4456901550293,0.3654935956001282,0.2369912564754486,0.05574321746826172,0.06984472,-0.15114178,9.7628765,-0.39406803,-0.19916728,9.754308,0
14,988.4608154296875,2.402346581220627E-5,-2.779664355330169E-4,-1.9587925635278225E-5,-4.371955871582031,27.34946632385254,-37.54833221435547,0.36316153407096863,0.24049434065818787,0.027451515197753906,0.07464105,-0.1511422,9.767612,-0.38311115,-0.2063279,9.759371,0
14,988.4813232421875,-1.0929349809885025E-4,0.0011867968132719398,1.1350179556757212E-4,-4.3523077964782715,27.262697219848633,-37.854225158691406,0.3611333966255188,0.23450011014938354,0.013347625732421875,0.069877714,-0.14875926,9.7841835,-0.3861288,-0.20278704,9.77584,0
14,988.4485473632812,-2.426105784252286E-4,-4.110727459192276E-4,3.7974948645569384E-4,-4.290595531463623,26.793508529663086,-37.528343200683594,0.34913066029548645,0.2708415389060974,0.027673721313476562,0.069894224,-0.16305943,9.774716,-0.38454637,-0.21531548,9.766388,0
14,988.4463500976562,-7.754013640806079E-4,5.210587987676263E-4,-8.187399944290519E-4,-4.61082124710083,27.5471248626709,-37.36912155151367,0.36611244082450867,0.231363907456398,0.023042678833007812,0.06513089,-0.15352668,9.779453,-0.38822907,-0.20064807,9.771107,0
14,988.45849609375,-3.760864492505789E-4,9.20558231882751E-4,2.4645531084388494E-4,-4.448643207550049,26.803499221801758,-37.42758560180664,0.36851367354393005,0.23441866040229797,0.01842498779296875,0.0651474,-0.1511438,9.772352,-0.38457674,-0.19786954,9.764165,0
14,988.4685668945312,-3.762455889955163E-4,5.211103707551956E-4,-1.5308673027902842E-4,-4.294182300567627,27.158849716186523,-37.4721794128418,0.3568955957889557,0.2330436408519745,0.032729148864746094,0.06761706,-0.15114577,9.765259,-0.3783253,-0.19946782,9.757294,0
14,988.4358520507812,2.890841569751501E-4,2.548690827097744E-4,5.125058814883232E-4,-4.748678207397461,27.1020565032959,-37.475807189941406,0.34066954255104065,0.24141192436218262,0.013863563537597656,0.079650104,-0.15829758,9.7699995,-0.36884665,-0.20060197,9.762582,0
14,988.4713134765625,4.2428041342645884E-4,-0.001212595496326685,3.767514426726848E-4,-4.895231246948242,27.386205673217773,-37.39286422729492,0.3485313057899475,0.22607038915157318,0.042349815368652344,0.074891865,-0.14399855,9.765268,-0.37078637,-0.1833539,9.7578535,0
14,988.4332275390625,1.577567309141159E-4,-1.472982985433191E-4,-1.559694646857679E-4,-4.530004024505615,27.35945701599121,-37.44757843017578,0.3464699387550354,0.22962656617164612,0.02824115753173828,0.07969326,-0.15114884,9.76527,-0.36226106,-0.19467852,9.758102,0
14,988.4837036132812,2.9070687014609575E-4,-4.135803319513798E-4,-6.886902847327292E-4,-4.631853103637695,27.73833656311035,-37.68500518798828,0.3450261652469635,0.21900291740894318,0.042511940002441406,0.07732487,-0.14161636,9.762905,-0.3623605,-0.18327884,9.755791,0
14,988.44580078125,2.9049895238131285E-4,-6.798625690862536E-4,-2.893054042942822E-4,-4.6465301513671875,27.355314254760742,-36.813507080078125,0.3333597481250763,0.24180015921592712,0.052077293395996094,0.07973635,-0.15591647,9.755806,-0.35883152,-0.19725731,9.748781,0
14,988.4413452148438,0.0010892389109358191,5.185927730053663E-4,5.095531232655048E-4,-4.522531986236572,27.260908126831055,-37.13502883911133,0.3457605838775635,0.2170495092868805,0.019023895263671875,0.072588205,-0.1463839,9.767643,-0.36233765,-0.18848641,9.760469,0
14,988.4535522460938,5.563992308452725E-4,-1.4005345292389393E-5,-2.3167754989117384E-5,-4.3614397048950195,27.25385856628418,-37.39038848876953,0.32953259348869324,0.23498275876045227,0.04278087615966797,0.08455929,-0.15353425,9.770012,-0.35438716,-0.18649697,9.763375,0
14,988.4641723632812,-3.7591427098959684E-4,-2.8028746601194143E-4,-5.558885750360787E-4,-5.081377983093262,27.21175193786621,-37.123016357421875,0.3371618092060089,0.23333126306533813,0.03340435028076172,0.07502124,-0.15830131,9.774748,-0.36064714,-0.19225043,9.767773,0
14,988.4563598632812,-9.087538346648216E-4,7.850097608752549E-4,-1.5650381101295352E-4,-4.852730751037598,27.741838455200195,-37.035301208496094,0.33500275015830994,0.21735671162605286,0.02403545379638672,0.07743269,-0.15591861,9.772383,-0.354965,-0.18987799,9.765641,0
14,988.43603515625,1.5630177222192287E-4,1.1925381841138005E-4,1.0972301242873073E-4,-4.661069869995117,27.078214645385742,-36.641082763671875,0.33774012327194214,0.2256484031677246,0.038331031799316406,0.070284545,-0.15115257,9.755814,-0.35901052,-0.18263862,9.748919,0
14,988.4688110351562,-2.4337985087186098E-4,-1.3870419934391975E-5,-1.5668192645534873E-4,-4.759194374084473,27.197660446166992,-37.63374710083008,0.3406609892845154,0.2244059443473816,0.024209976196289062,0.067916244,-0.15591963,9.772387,-0.35858727,-0.19006363,9.765439,0
14,988.4337158203125,-6.43061357550323E-4,5.187951610423625E-4,-2.3613101802766323E-5,-4.396468162536621,26.7996768951416,-37.435401916503906,0.31503206491470337,0.22763803601264954,0.01955699920654297,0.09183681,-0.15115358,9.7842245,-0.3325474,-0.18725546,9.778378,0
14,988.43896484375,-5.101114511489868E-4,-4.1327672079205513E-4,-2.9001798247918487E-4,-4.351765155792236,26.894407272338867,-37.75577163696289,0.33720964193344116,0.21205328404903412,0.029100418090820312,0.06317949,-0.15115418,9.779493,-0.36018336,-0.1808982,9.772558,0
14,988.43896484375,-5.101114511489868E-4,-4.1327672079205513E-4,-2.9001798247918487E-4,-4.524895668029785,26.99558448791504,-37.58103942871094,0.34033042192459106,0.2109353244304657,0.019705772399902344,0.067980886,-0.14877136,9.762924,-0.35338104,-0.17677888,9.756295,0
15,988.4436645507812,4.217864479869604E-4,-6.795588415116072E-4,-1.5694921603426337E-4,-4.691638946533203,27.734792709350586,-37.29066467285156,0.32400035858154297,0.21458294987678528,0.03399467468261719,0.065612555,-0.14877199,9.772395,-0.35279828,-0.1781468,9.765755,0
15,988.4592895507812,2.884207060560584E-4,-4.132092581130564E-4,5.087514873594046E-4,-4.456658840179443,27.270341873168945,-37.838592529296875,0.33181148767471313,0.2181607335805893,0.019867897033691406,0.06802404,-0.15830554,9.779499,-0.3532745,-0.18036613,9.77297,0
15,988.4794921875,4.213707288727164E-4,3.857720294035971E-4,1.0918854968622327E-4,-4.900775909423828,27.012022018432617,-36.98519515991211,0.32026368379592896,0.23599763214588165,0.024687767028808594,0.07760522,-0.16068943,9.767665,-0.3414601,-0.18298323,9.761612,0
15,988.4639282226562,-3.777847159653902E-4,-4.131417954340577E-4,-8.230062085203826E-4,-5.0136847496032715,27.85480308532715,-37.4790153503418,0.32790184020996094,0.21562841534614563,0.05791187286376953,0.07284695,-0.15592332,9.755831,-0.3391078,-0.1840909,9.749717,0
15,988.46435546875,2.1481188014149666E-5,7.853133720345795E-4,-5.567790358327329E-4,-4.3221435546875,27.080324172973633,-38.002166748046875,0.3071361482143402,0.21440955996513367,0.053249359130859375,0.08003825,-0.15354057,9.760567,-0.32778835,-0.18570322,9.754829,0
15,988.4338989257812,2.106558531522751E-5,1.1959119001403451E-4,-2.4325621780008078E-5,-4.642943382263184,26.989973068237305,-36.869667053222656,0.32428765296936035,0.21769189834594727,0.03912925720214844,0.07528001,-0.15830766,9.760569,-0.33589512,-0.17966436,9.754707,0
15,988.4338989257812,2.106558531522751E-5,1.1959119001403451E-4,-2.4325621780008078E-5,-4.642943382263184,26.989973068237305,-36.869667053222656,0.31764331459999084,0.21662989258766174,0.015535354614257812,0.07291168,-0.15115838,9.77004,-0.3352854,-0.17256933,9.764201,0
15,988.4340209960938,2.0649866200983524E-5,-6.792889907956123E-4,0.0010407597292214632,-4.204914093017578,27.242399215698242,-37.413841247558594,0.3100891411304474,0.20518559217453003,0.006183624267578125,0.075323135,-0.15592547,9.7676735,-0.3279746,-0.18048044,9.762034,0
15,988.4467163085938,-6.453476380556822E-4,5.191661766730249E-4,-5.572249065153301E-4,-4.093091011047363,27.136198043823242,-37.116920471191406,0.3140239417552948,0.20461486279964447,0.039359092712402344,0.072954774,-0.14877622,9.772411,-0.328387,-0.17368014,9.766754,0
15,988.4668579101562,3.138235188089311E-4,-1.2805729056708515E-4,1.307780621573329E-5,-4.653023719787598,27.823633193969727,-37.301815032958984,0.3123099207878113,0.2130003273487091,0.02522563934326172,0.07297635,-0.15592654,9.772413,-0.33033982,-0.17410655,9.766793,0
15,988.4744873046875,4.467737744562328E-4,4.046080575790256E-4,-7.859588949941099E-4,-4.713107109069824,27.18794822692871,-37.33234405517578,0.30132579803466797,0.21173301339149475,0.030053138732910156,0.08230245,-0.15830405,9.758188,-0.3198843,-0.17486095,9.753008,0
15,988.4771728515625,1.8383021233603358E-4,-9.289742447435856E-4,-6.537028239108622E-4,-4.470356464385986,27.2570858001709,-37.142845153808594,0.3045141398906708,0.20618335902690887,0.034852027893066406,0.06797445,-0.14638798,9.774759,-0.33030605,-0.16357858,9.769142,0
15,988.471923828125,-8.170126238837838E-5,1.361619506496936E-4,6.782128475606441E-4,-4.521988868713379,26.892614364624023,-37.03657531738281,0.297941118478775,0.20967179536819458,0.053864479064941406,0.08232528,-0.15830465,9.753456,-0.31528682,-0.17472166,9.7484255,0
15,988.4669799804688,-2.149693318642676E-4,3.0218507163226604E-6,-3.8709776708856225E-4,-4.453071594238281,26.904996871948242,-37.894752502441406,0.31052166223526,0.1945265829563141,0.04446601867675781,0.06799725,-0.15115507,9.753456,-0.32629383,-0.16650473,9.747985,0
15,988.4593505859375,9.833420626819134E-4,3.0397495720535517E-6,-2.5398697471246123E-4,-4.55505895614624,27.177961349487305,-37.43309783935547,0.302989661693573,0.19764113426208496,0.035109519958496094,0.06800866,-0.14400555,9.767661,-0.3248605,-0.15726724,9.762291,0
15,988.469482421875,5.112675717100501E-5,4.0253144106827676E-4,2.7859763940796256E-4,-3.9293911457061768,26.3940486907959,-37.252689361572266,0.3069540560245514,0.19730499386787415,0.025671005249023438,0.07279986,-0.15115567,9.774764,-0.31594467,-0.17052282,9.769609,0
15,988.4465942382812,5.836483906023204E-4,-1.300824515055865E-4,-2.5408127112314105E-4,-4.421523094177246,26.61817741394043,-37.420921325683594,0.2960992753505707,0.21037065982818604,0.025725364685058594,0.06803149,-0.1535392,9.777132,-0.32253516,-0.16578092,9.771848,0
15,988.4491577148438,-4.817251465283334E-4,-2.6322255143895745E-4,-7.867601816542447E-4,-4.1877665519714355,26.784391403198242,-37.46666717529297,0.3037111163139343,0.185550719499588,0.05420970916748047,0.068042904,-0.14638968,9.760563,-0.31763318,-0.16077936,9.755404,0
15,988.4619140625,4.5027065789327025E-4,-2.6320473989471793E-4,-1.2101756874471903E-4,-4.08561897277832,27.03765296936035,-36.80436706542969,0.29253101348876953,0.19420889019966125,0.03533458709716797,0.06805432,-0.1511565,9.765299,-0.316026,-0.16593452,9.760181,0
15,988.4491577148438,3.170027048327029E-4,3.129011020064354E-6,5.447249859571457E-4,-4.590768337249756,26.98615074157715,-36.877479553222656,0.29571470618247986,0.19295139610767365,0.05907154083251953,0.07284552,-0.14162363,9.751097,-0.31095016,-0.15003636,9.7462845,0
15,988.4898071289062,5.0576694775372744E-5,4.02620731620118E-4,1.45204016007483E-4,-3.989581823348999,26.864713668823242,-37.65587615966797,0.2843162715435028,0.1821533590555191,0.02126789093017578,0.082416534,-0.1368574,9.770035,-0.29633987,-0.15202262,9.765662,0
15,988.4822387695312,-0.0010147965513169765,1.363226620014757E-4,9.441045112907887E-4,-4.391902923583984,26.80409812927246,-37.66731643676758,0.292575478553772,0.19991332292556763,0.04025840759277344,0.06569868,-0.15115733,9.770036,-0.31537136,-0.15873095,9.765045,0
15,988.4719848632812,-7.485907408408821E-4,-7.95764965005219E-4,-6.538377492688596E-4,-4.453752517700195,27.16737174987793,-37.29412078857422,0.2717779576778412,0.18000447750091553,0.04505634307861328,0.08243936,-0.14162453,9.760569,-0.29581162,-0.15003473,9.756309,0
15,988.4495849609375,5.828785360790789E-4,-2.6311547844670713E-4,-0.001186516834422946,-4.402555465698242,26.79378318786621,-37.126182556152344,0.2893204092979431,0.18861611187458038,0.026178359985351562,0.07528108,-0.14877467,9.772406,-0.30238572,-0.15583436,9.767907,0
16,988.4749755859375,4.496108158491552E-4,2.69534153630957E-4,-5.207742215134203E-4,-4.393424034118652,26.80262565612793,-37.59001159667969,0.2878713011741638,0.17337875068187714,0.04517078399658203,0.07290259,-0.13685848,9.762938,-0.30053645,-0.14507717,9.758466,0
16,988.472412109375,4.495006869547069E-4,-7.957114721648395E-4,-1.2134748976677656E-4,-4.237441062927246,27.159448623657227,-37.711910247802734,0.29123684763908386,0.2151331752538681,0.007351875305175781,0.06574431,-0.16784139,9.784243,-0.309357,-0.175559,9.779437,0
16,988.4523315429688,-3.495570854283869E-4,3.254011971876025E-6,-5.208685179241002E-4,-4.138199806213379,27.515676498413086,-37.594078063964844,0.2799532413482666,0.18563422560691833,0.016884803771972656,0.08965474,-0.15115876,9.7747755,-0.2855564,-0.15381505,9.770973,0
16,988.4775390625,1.8296489724889398E-4,1.3642982230521739E-4,5.443479167297482E-4,-4.70952033996582,26.822607040405273,-37.38850402832031,0.2739511728286743,0.17963437736034393,0.06901073455810547,0.0801065,-0.14639245,9.753471,-0.29219663,-0.14709069,9.749413,0
16,988.4598388671875,-8.824086398817599E-4,-2.630261587910354E-4,-3.8780487375333905E-4,-4.6785149574279785,26.904081344604492,-37.01313018798828,0.2864376902580261,0.1926281601190567,0.031205177307128906,0.075338155,-0.15115927,9.779512,-0.29523832,-0.1525614,9.775323,0
16,988.4800415039062,-0.0010157865472137928,5.359572824090719E-4,2.7789059095084667E-4,-4.690553188323975,26.998212814331055,-37.09376525878906,0.2697547972202301,0.2001369744539261,0.03129291534423828,0.080129355,-0.15592612,9.777145,-0.29063255,-0.15429631,9.773181,0
16,988.4800415039062,-0.0010157865472137928,5.359572824090719E-4,2.7789059095084667E-4,-4.690553188323975,26.998212814331055,-37.09376525878906,0.26920297741889954,0.18991698324680328,0.036049842834472656,0.084920585,-0.15592636,9.76531,-0.28287858,-0.15555963,9.761588,0
16,988.4676513671875,-2.169488579966128E-4,-6.624464876949787E-4,-1.216303207911551E-4,-4.512015342712402,27.16529655456543,-36.97708511352539,0.2725266218185425,0.19368800520896912,0.021900177001953125,0.07537237,-0.14401032,9.767679,-0.28863448,-0.14357162,9.763712,0
16,988.4676513671875,-2.169488579966128E-4,-6.624464876949787E-4,-1.216303207911551E-4,-4.258366584777832,26.244321823120117,-37.6551399230957,0.2665894627571106,0.16901594400405884,0.040879249572753906,0.07777366,-0.14162733,9.760578,-0.28398657,-0.14181928,9.756753,0
16,988.4599609375,-3.50216927472502E-4,-3.961126785725355E-4,1.1480471584945917E-5,-4.305241584777832,27.62274742126465,-37.72857666015625,0.2698349058628082,0.1776277720928192,0.04093456268310547,0.08017498,-0.15116064,9.765314,-0.28372264,-0.1459555,9.761599,0
16,988.4624633789062,3.15462879370898E-4,-5.292528076097369E-4,-2.5488255778327584E-4,-4.622752666473389,26.534914016723633,-37.07710266113281,0.24402809143066406,0.15741558372974396,0.04100322723388672,0.09441602,-0.1368586,9.7558365,-0.26408544,-0.13540521,9.75274,0
16,988.47021484375,4.485109238885343E-4,5.360286450013518E-4,-2.5492970598861575E-4,-4.392582893371582,27.066469192504883,-37.066688537597656,0.2711773216724396,0.1707574874162674,0.03161811828613281,0.07041198,-0.1463892,9.767662,-0.28678626,-0.14300711,9.763755,0
16,988.442626953125,-6.168627296574414E-4,5.360464565455914E-4,-2.5497673777863383E-4,-4.296247482299805,27.525671005249023,-37.493324279785156,0.2551952004432678,0.17460674047470093,0.041146278381347656,0.079974115,-0.15353902,9.765295,-0.27705035,-0.14893478,9.761764,0
16,988.4779663085938,5.09607489220798E-5,0.0013346640625968575,1.2210628483444452E-5,-4.335299015045166,26.69877815246582,-37.207969665527344,0.26326632499694824,0.178257018327713,0.03646564483642578,0.07997662,-0.15592237,9.770031,-0.27680558,-0.14865808,9.76655,0
16,988.4498901367188,1.840938930399716E-4,4.025622911285609E-4,1.4535809168592095E-4,-4.570141315460205,27.269147872924805,-37.359127044677734,0.26626190543174744,0.1675879955291748,0.04599761962890625,0.07041955,-0.1416228,9.767664,-0.2807079,-0.13640094,9.763958,0
16,988.4577026367188,1.840451150201261E-4,4.0257020737044513E-4,-1.2097880244255066E-4,-4.488780498504639,26.713186264038086,-37.339134216308594,0.2649744749069214,0.17121493816375732,0.012903213500976562,0.07520187,-0.15353926,9.781867,-0.27835563,-0.14382945,9.778343,0
16,988.4779663085938,-4.817690351046622E-4,-2.6321542100049555E-4,8.111163042485714E-4,-4.890122413635254,27.022336959838867,-37.526329040527344,0.26351070404052734,0.1797458976507187,0.04136180877685547,0.07042462,-0.16068913,9.760562,-0.2836058,-0.1458493,9.756928,0
16,988.492919921875,-8.23194277472794E-5,-5.295273731462657E-4,1.2158241588622332E-5,-4.921808242797852,27.203237533569336,-37.30107879638672,0.26165708899497986,0.18332450091838837,0.003551483154296875,0.07042718,-0.16307245,9.788969,-0.2830184,-0.14698108,9.785385,0
16,988.4680786132812,-6.149759865365922E-4,0.002000477397814393,9.442532900720835E-4,-4.882214546203613,27.661840438842773,-37.487979888916016,0.2551012337207794,0.1678321808576584,0.03675556182861328,0.068039775,-0.1559227,9.770031,-0.2813909,-0.13967991,9.766461,0
16,988.4552001953125,-2.155264955945313E-4,-1.3004554784856737E-4,1.4529511099681258E-4,-4.28312349319458,26.69495964050293,-37.215789794921875,0.26802894473075867,0.16681359708309174,0.032070159912109375,0.06804234,-0.15592276,9.760563,-0.27716914,-0.14356908,9.757052,0
16,988.4253540039062,1.8392299534752965E-4,-1.3004164793528616E-4,-1.2103113112971187E-4,-4.388996124267578,26.701128005981445,-37.12284851074219,0.24283474683761597,0.16120010614395142,0.04158306121826172,0.0776045,-0.14400645,9.770031,-0.26582485,-0.13098262,9.766906,0
16,988.4855346679688,-8.241756586357951E-5,-6.626694230362773E-4,-6.536734872497618E-4,-4.164233207702637,26.964418411254883,-37.403846740722656,0.24147793650627136,0.1699358969926834,0.036894798278808594,0.0752171,-0.15353955,9.765298,-0.26638275,-0.14208323,9.762127,0
16,988.44775390625,8.496636874042451E-4,3.1242379918694496E-6,1.452636788599193E-4,-4.117166519165039,27.3244686126709,-37.2781982421875,0.2589707374572754,0.17877288162708282,0.04168415069580078,0.06804994,-0.15592293,9.770033,-0.27184522,-0.14389811,9.766672,0
16,988.4454345703125,-3.191552241332829E-4,7.997718639671803E-4,-4.753573448397219E-4,-4.16187047958374,27.229738235473633,-36.957828521728516,0.2574203610420227,0.16790656745433807,0.032268524169921875,0.06805247,-0.15115644,9.784235,-0.27049637,-0.13726881,9.780936,0
16,988.4506225585938,-4.523376119323075E-4,8.282950147986412E-7,5.726388189941645E-5,-4.589789390563965,27.35590934753418,-37.05323791503906,0.24189624190330505,0.15268780291080475,0.04651165008544922,0.08000454,-0.14638992,9.765299,-0.25818044,-0.12921673,9.762454,0
17,988.447998046875,3.4658570075407624E-4,-3.9864153950475156E-4,5.7253462728112936E-5,-4.592152118682861,27.09058952331543,-37.49925231933594,0.24058648943901062,0.16692513227462769,0.03235054016113281,0.080007076,-0.15830638,9.772401,-0.2586947,-0.14088519,9.769571,0
17,988.4530029296875,0.003142877947539091,2.671521215233952E-4,-2.0907289581373334E-4,-4.25070333480835,27.884248733520508,-37.290374755859375,0.2389146089553833,0.16587577760219574,0.03240680694580078,0.08000961,-0.15115668,9.770033,-0.25392732,-0.13679966,9.767272,0
17,988.6005249023438,-0.0023166220635175705,6.666299887001514E-4,7.230221526697278E-4,-4.3510613441467285,27.052335739135742,-36.53337097167969,0.23264440894126892,0.18341225385665894,0.03719139099121094,0.07284242,-0.1678396,9.770033,-0.26242667,-0.14914165,9.767083,0
17,988.397216796875,-7.18751281965524E-4,1.340020971838385E-4,4.56695823231712E-4,-3.995371103286743,27.490957260131836,-36.921783447265625,0.24079930782318115,0.15369665622711182,0.04197216033935547,0.0680652,-0.15354009,9.765299,-0.2618302,-0.13735798,9.762266,0
17,988.4301147460938,-5.2986142691224813E-5,4.0032199467532337E-4,-7.594638736918569E-5,-4.427855968475342,27.612714767456055,-36.7852783203125,0.23919087648391724,0.1578250676393509,0.042023658752441406,0.07523745,-0.1511568,9.767668,-0.25492883,-0.13133113,9.764915,0
17,988.45068359375,2.1330529125407338E-4,2.6716795400716364E-4,4.566748102661222E-4,-4.236057281494141,27.055009841918945,-37.09014129638672,0.24234548211097717,0.1752157360315323,0.04207611083984375,0.07523996,-0.16069,9.760566,-0.25335455,-0.14054619,9.757878,0
17,988.5037841796875,-0.001917246263474226,9.329617023468018E-4,3.2350642140954733E-4,-4.273831367492676,27.230016708374023,-36.555667877197266,0.24535009264945984,0.1548105925321579,0.018461227416992188,0.06568289,-0.14877366,9.779503,-0.26186705,-0.12298204,9.776576,0
17,988.4125366210938,-4.5253330608829856E-4,5.334917223080993E-4,3.234959440305829E-4,-4.540252685546875,26.874940872192383,-36.10891342163086,0.2438611388206482,0.158819779753685,0.042181968688964844,0.07046521,-0.13685735,9.772402,-0.25335956,-0.11232139,9.769686,0
17,988.4761352539062,-1.8624175572767854E-4,-1.3229387695901096E-4,-7.598829688504338E-5,-4.428292274475098,26.874662399291992,-36.51107406616211,0.24764886498451233,0.1531858593225479,0.028009414672851562,0.06807786,-0.14400722,9.770035,-0.25717986,-0.11456069,9.767277,0
17,988.48876953125,-5.310861160978675E-5,-6.64921710267663E-4,5.89790812227875E-4,-4.968416213989258,28.00153923034668,-35.877906799316406,0.24142074584960938,0.15216107666492462,0.028055191040039062,0.06330061,-0.15115716,9.777137,-0.259695,-0.12408236,9.774274,0
17,988.4989624023438,-5.313282599672675E-5,7.998197106644511E-4,1.903065131045878E-4,-4.398128032684326,26.692285537719727,-36.659019470214844,0.24437612295150757,0.15110839903354645,0.042260169982910156,0.068525195,-0.15593462,9.760608,-0.25152957,-0.131632,9.757966,0
17,988.48876953125,-3.210638533346355E-4,-5.314976442605257E-4,7.222461281344295E-4,-4.05863618850708,26.74641227722168,-36.09862518310547,0.22866976261138916,0.16951747238636017,0.047036170959472656,0.07810512,-0.1559351,9.762976,-0.24137235,-0.13089672,9.760672,0
17,988.4635620117188,6.105214706622064E-4,6.653789896517992E-4,3.19884333293885E-4,-4.270786762237549,27.232961654663086,-36.71028137207031,0.22711259126663208,0.13997559249401093,0.042346954345703125,0.080515295,-0.1440192,9.767712,-0.23689799,-0.11703211,9.7655325,0
17,988.4608764648438,-8.544112206436694E-4,-2.666947548277676E-4,-2.128312480635941E-4,-4.4025559425354,26.79378318786621,-37.12617874145508,0.23569047451019287,0.15324552357196808,0.05657958984375,0.07814568,-0.15831937,9.755878,-0.23863494,-0.13173257,9.753667,0
17,988.4613037109375,-5.565903848037124E-5,1.32810790091753E-4,-7.975695189088583E-5,-4.217226982116699,27.124692916870117,-36.09632110595703,0.201471209526062,0.12839758396148682,0.04713153839111328,0.07816595,-0.13448714,9.762981,-0.23607633,-0.10533351,9.760798,1
17,988.47119140625,-5.5854732636362314E-5,-0.0013318947749212384,-2.129988861270249E-4,-4.419159889221191,26.88349723815918,-36.97490310668945,0.22842353582382202,0.15154853463172913,0.023509979248046875,0.07340646,-0.15117057,9.774818,-0.24087307,-0.121871926,9.772534,1
17,988.489013671875,3.4342374419793487E-4,0.001331295701675117,1.8639123300090432E-4,-4.316170692443848,27.400602340698242,-35.789283752441406,0.22236448526382446,0.16500191390514374,0.01881122589111328,0.07581663,-0.15832086,9.767719,-0.23645294,-0.13097313,9.765556,1
17,988.489013671875,3.4342374419793487E-4,0.001331295701675117,1.8639123300090432E-4,-4.013772487640381,27.367361068725586,-35.2950439453125,0.22649455070495605,0.1418740302324295,0.037766456604003906,0.07105711,-0.14402167,9.79376,-0.23968203,-0.117351145,9.791441,1
17,988.4559936523438,-7.220353581942618E-4,1.3290601782500744E-4,-0.0011452718172222376,-3.9699106216430664,27.1982479095459,-36.138736724853516,0.1560821235179901,0.18010859191417694,0.08980274200439453,0.049568266,-0.15593852,9.77009,-0.26416427,-0.12430507,9.767097,1
17,988.47119140625,0.0054030348546803,-0.003462326480075717,-2.1325011039152741E-4,-4.265516757965088,27.395307540893555,-35.71979522705078,0.3929540812969208,0.4838481545448303,-0.22789382934570312,0.15713412,-1.2546306,9.997343,-0.31462526,-1.1766833,10.003105,1
17,988.48388671875,-0.00857874471694231,0.0033287617843598127,-0.11885706335306168,-4.58579683303833,26.5163631439209,-36.31187057495117,-0.19958001375198364,0.4035756587982178,-0.33403873443603516,0.27425963,0.37553144,10.245901,-0.0025425553,0.55704135,10.24131,1
17,988.4559936523438,-0.18554583191871643,-0.04713807255029678,-0.14096136391162872,-4.5384321212768555,27.5085506439209,-35.7613525390625,0.43801844120025635,-1.1082813739776611,-0.4028148651123047,0.62320566,-0.02247645,10.030488,-0.17124778,0.42051312,10.039593,1
17,988.3369140625,-0.39953088760375977,-0.35113760828971863,-0.12378407269716263,-5.7341437339782715,28.601285934448242,-35.48706817626953,0.045475006103515625,-0.045964181423187256,-0.02257061004638672,1.4764208,-0.9757883,9.568886,0.20483196,-0.18534613,9.727242,1
17,988.4258422851562,-1.0629241466522217,-0.8245140910148621,0.3730280101299286,-7.885430812835693,30.799043655395508,-31.973838806152344,0.18561816215515137,-0.11128151416778564,-0.1706228256225586,0.85745656,-1.318981,9.694349,-0.6256695,0.010047317,9.801212,1
17,988.4385375976562,-1.031099557876587,-0.629703938961029,0.7674418091773987,-8.0374755859375,32.341575622558594,-30.731929779052734,1.0024549961090088,-0.1154482364654541,-0.09689998626708984,0.6782342,-1.8385361,9.561788,-0.7716214,-0.029877663,9.729938,1
18,988.506591796875,-1.2139256000518799,0.8329029083251953,-0.016858581453561783,-6.909213066101074,33.976844787597656,-29.84671401977539,-0.585545539855957,0.5352795124053955,0.45102977752685547,0.87661624,-2.5392203,9.251686,0.07619941,-0.41754985,9.62443,1
18,988.4691162109375,-1.1255089044570923,1.851827621459961,-0.3445603549480438,-5.12359619140625,34.64729309082031,-29.006336212158203,0.11773782968521118,0.061185598373413086,0.13064289093017578,-0.04108572,-2.6369352,9.379517,-0.349972,-0.05229211,9.736796,1
18,988.5223388671875,-0.8792999982833862,0.50107342004776,0.007509155664592981,-4.6829047203063965,35.79716491699219,-28.67962646484375,0.32545334100723267,0.09141659736633301,0.23815345764160156,0.11905798,-3.0420928,9.213814,-0.20122318,-0.18686771,9.699869,1
18,988.532470703125,-0.8366897106170654,0.12436961382627487,-0.11166729032993317,-5.140827178955078,36.63194274902344,-27.50313949584961,0.27598387002944946,0.02786993980407715,0.21274757385253906,0.009142816,-3.1970067,8.986565,-0.2885357,-0.050219774,9.533808,1
18,988.530029296875,-0.8203115463256836,0.031025929376482964,-0.07118736207485199,-4.852669715881348,36.95372772216797,-26.411609649658203,0.47606900334358215,-0.16872811317443848,0.2831096649169922,-0.32542318,-3.4210353,8.996037,-0.61028993,0.036352158,9.610634,1
18,988.5172119140625,-0.5153799653053284,0.0862865075469017,-0.22791433334350586,-5.308526992797852,37.42168426513672,-25.213979721069336,0.19743722677230835,0.18329238891601562,-0.30866241455078125,0.34615958,-3.9811063,9.126234,-0.0028844178,-0.34897256,9.956675,1
