Timestamp,P,Gx,Gy,Gz,Mx,My,Mz,LiAx,LiAy,LiAz,Ax,Ay,Az,Value,Type
0,990.2470092773438,2.564666465332266E-5,0.0011405172990635037,1.87646655831486E-4,9.06302261352539,24.853248596191406,-14.963068008422852,0.006422001868486404,-0.018073782324790955,0.0676584243774414,0.058299422,-0.1567516,9.746358,0
0,990.0668334960938,0.0013649377506226301,6.060776649974287E-4,-1.1145340977236629E-4,2.328085422515869,15.598421096801758,-16.309106826782227,0.009391292929649353,-0.0012293905019760132,0.06213569641113281,0.058310807,-0.15913513,9.767664,0
0,990.0921630859375,-4.993833717890084E-4,0.0015382010024040937,1.548152940813452E-4,2.1901211738586426,16.259700775146484,-16.7884464263916,-5.508288741111755E-4,0.00816015899181366,0.03846263885498047,0.06310207,-0.16628528,9.770032,0
0,990.0921630859375,-4.993833717890084E-4,0.0015382010024040937,1.548152940813452E-4,2.1901211738586426,16.259700775146484,-16.7884464263916,0.00914766639471054,-0.015279948711395264,0.05267047882080078,0.070283145,-0.14960259,9.770033,0
0,990.0897827148438,6.989280809648335E-4,-7.254660595208406E-4,5.542419385164976E-4,2.0161497592926025,16.097030639648438,-17.137041091918945,-0.01015094667673111,-0.01971125602722168,0.03847312927246094,0.07029456,-0.14721957,9.770034,0
0,990.1376953125,8.31976009067148E-4,3.398153348825872E-4,2.1563086193054914E-5,2.115797281265259,15.979053497314453,-16.221681594848633,0.004174955189228058,0.01367931067943573,0.02426910400390625,0.0607464,-0.16866937,9.770036,0
0,990.0820922851562,2.9923414695076644E-4,4.729911161120981E-4,2.8783181915059686E-4,1.865436315536499,15.90255355834961,-16.0246524810791,-0.024393238127231598,-0.014946937561035156,0.03847026824951172,0.07748711,-0.14722016,9.765302,0
0,990.10986328125,-3.666654520202428E-4,-5.922545096836984E-4,2.146876067854464E-5,2.290586471557617,15.98526382446289,-17.172788619995117,-0.0047293901443481445,0.008885413408279419,0.033730506896972656,0.065549016,-0.16866991,9.784241,0
0,990.1201782226562,-7.663595606572926E-4,2.0672880054917186E-4,-3.780993283726275E-4,2.212132453918457,16.438251495361328,-16.648317337036133,-0.009490974247455597,-0.020114153623580933,0.04319190979003906,0.06317055,-0.14483747,9.765304,0
0,990.1024169921875,5.651100655086339E-4,-7.25358899217099E-4,4.2080110870301723E-4,1.9182920455932617,15.636360168457031,-16.63309669494629,-0.004502385854721069,-7.041096687316895E-4,0.033725738525390625,0.065571845,-0.16390395,9.772407,0
0,990.14794921875,6.981577607803047E-4,-7.253409712575376E-4,-3.781936247833073E-4,2.129058837890625,15.254255294799805,-16.643217086791992,0.02909064292907715,-5.957484245300293E-4,0.047928810119628906,0.05124384,-0.15913764,9.767673,0
0,990.1402587890625,-1.0089975694427267E-4,-5.921652191318572E-4,-1.1192489182576537E-4,1.8034257888793945,15.739606857299805,-16.775407791137695,6.474331021308899E-4,0.008723780512809753,0.038453102111816406,0.07037449,-0.1686711,9.7724085,0
0,990.1201171875,-3.6732564331032336E-4,6.062741158530116E-4,1.5434378292411566E-4,1.3162648677825928,15.493949890136719,-16.37803077697754,2.6841461658477783E-4,0.003901377320289612,0.04792308807373047,0.06560612,-0.15913823,9.76294,0
0,990.1377563476562,-2.3427771520800889E-4,7.394499843940139E-4,9.532442199997604E-4,1.8571228981018066,15.737258911132812,-16.86052894592285,0.005071520805358887,0.0038471370935440063,0.05739021301269531,0.060837686,-0.1496054,9.746371,0
0,990.1377563476562,-2.3427771520800889E-4,7.394499843940139E-4,9.532442199997604E-4,2.058650016784668,16.452659606933594,-16.779478073120117,-0.0045307353138923645,0.008824408054351807,0.04318809509277344,0.06801885,-0.1591388,9.758208,0
0,990.1377563476562,-2.3427771520800889E-4,7.394499843940139E-4,9.532442199997604E-4,2.058650016784668,16.452659606933594,-16.779478073120117,-0.009277276694774628,0.013423696160316467,0.047919273376464844,0.060860544,-0.17343873,9.760577,0
0,990.13525390625,2.9824391822330654E-4,-8.584275492466986E-4,4.2056533857248724E-4,2.27536678314209,15.970535278320312,-16.39974021911621,-0.004912950098514557,0.0037823468446731567,0.028983116149902344,0.06804165,-0.15437278,9.774781,0
0,990.1375732421875,1.6486606909893453E-4,3.400296263862401E-4,2.873131015803665E-4,2.0934877395629883,15.16836166381836,-16.786680221557617,0.004320509731769562,-7.83383846282959E-4,0.06686210632324219,0.06805307,-0.15675637,9.744008,0
0,990.1150512695312,-1.0156006464967504E-4,6.063634064048529E-4,-3.785237204283476E-4,2.015170097351074,15.727270126342773,-16.96128273010254,-6.407499313354492E-4,0.004140913486480713,0.04319286346435547,0.06806448,-0.16152316,9.767681,0
0,990.1123657226562,2.978038683068007E-4,4.732233355753124E-4,1.540608354844153E-4,2.1239495277404785,15.61812973022461,-16.50975227355957,0.004097633063793182,-3.3070147037506104E-4,0.04792976379394531,0.06568602,-0.15675694,9.75348,0
0,990.130126953125,5.640097078867257E-4,-3.257064672652632E-4,2.0855775801464915E-5,1.679725170135498,16.466154098510742,-16.029016494750977,0.014352679252624512,-4.746168851852417E-4,0.04799461364746094,0.05540222,-0.16150567,9.760514,0
0,990.1276245117188,3.0108491773717105E-4,4.726906481664628E-4,-2.4400692200288177E-4,1.9509577751159668,15.82522201538086,-17.03410530090332,0.009265527129173279,0.008705154061317444,0.038524627685546875,0.06255418,-0.16627187,9.762879,0
0,990.1376953125,-4.942608647979796E-4,4.7210598131641746E-4,-1.0930525604635477E-4,2.335695266723633,15.605785369873047,-16.695627212524414,-4.8554688692092896E-4,-0.010406151413917542,0.03852558135986328,0.06492633,-0.15435499,9.765246,0
0,990.1452026367188,-8.935637888498604E-4,4.720781580545008E-4,1.5708396676927805E-4,1.9108197689056396,15.734912872314453,-16.945650100708008,0.009082987904548645,-0.010587602853775024,0.06693172454833984,0.05773884,-0.14958796,9.755775,0
0,990.13525390625,-2.2760292631573975E-4,-6.058138023945503E-5,-1.0915851453319192E-4,2.245340347290039,16.25882339477539,-16.950876235961914,-4.0461868047714233E-4,-0.005723416805267334,0.038527488708496094,0.062500894,-0.1519709,9.76761,0
1,990.1376953125,3.052001993637532E-4,-5.93240896705538E-4,2.4072767700999975E-5,1.8676385879516602,15.641654968261719,-16.702585220336914,-0.004729576408863068,0.0036674588918685913,0.03379058837890625,0.069652855,-0.15435368,9.769975,0
1,990.1377563476562,-3.604181401897222E-4,-5.932687199674547E-4,2.41461384575814E-5,1.6338825225830078,15.475440979003906,-16.65683937072754,-0.004835955798625946,0.0036436468362808228,0.04326057434082031,0.067245185,-0.16626963,9.772341,0
1,990.1275634765625,-4.93404979351908E-4,4.7196701052598655E-4,4.2369336006231606E-4,1.9372591972351074,15.811965942382812,-16.338361740112305,-0.005318105220794678,-0.0010921210050582886,0.06693840026855469,0.07200724,-0.15196958,9.76287,0
1,990.1275634765625,5.72029675822705E-4,0.0011377288028597832,2.4292879970744252E-5,2.161043643951416,15.70549201965332,-16.4435977935791,0.004179947078227997,-0.01551806926727295,0.052734375,0.07198945,-0.14481926,9.755767,0
1,990.1349487304688,-6.262208917178214E-4,3.3875348162837327E-4,2.9068213189020753E-4,1.908754825592041,16.101728439331055,-16.966798782348633,0.023549892008304596,-0.006050139665603638,0.052734375,0.05524242,-0.15435192,9.765235,0
1,990.1300659179688,-9.341774421045557E-5,-8.596957777626812E-4,2.9075550264678895E-4,1.9829416275024414,16.276458740234375,-16.83448600769043,-0.01425391435623169,-0.010752856731414795,0.03379535675048828,0.069563985,-0.14958498,9.762866,0
1,990.122314453125,3.0622744816355407E-4,-9.92881483398378E-4,2.4512934032827616E-5,1.7173616886138916,16.185230255126953,-15.864412307739258,1.5487521886825562E-4,-0.010798439383506775,0.014859199523925781,0.06954628,-0.15673438,9.786536,0
1,990.1549682617188,-4.925489774905145E-4,-4.602775152307004E-4,-3.7488742964342237E-4,1.8659794330596924,15.534263610839844,-15.926206588745117,0.009952016174793243,-0.005709260702133179,0.04327106475830078,0.05996889,-0.15196732,9.77233,0
1,990.11474609375,7.060435018502176E-4,-5.934631917625666E-4,4.2413349729031324E-4,1.513906478881836,15.942560195922852,-16.665681838989258,0.005240142345428467,-0.001122593879699707,0.048004150390625,0.06712085,-0.15911674,9.769961,0
1,990.1600952148438,-0.0010248387698084116,6.049304502084851E-4,-1.0842486517503858E-4,2.0699539184570312,14.988338470458984,-16.849504470825195,0.014692939817905426,-0.0013344436883926392,0.048003196716308594,0.05515355,-0.15434977,9.76996,0
1,990.1323852539062,4.0596081817056984E-5,-3.2720292801968753E-4,0.0010900699999183416,1.7837774753570557,15.826374053955078,-16.46952247619629,-0.009054116904735565,0.0031887441873550415,0.04799938201904297,0.067085326,-0.16149914,9.760489,0
1,990.1345825195312,4.4041263754479587E-4,-6.094266063882969E-5,-1.0820472380146384E-4,1.398198127746582,15.781963348388672,-17.331315994262695,-0.008965566754341125,-0.006128206849098206,0.02433300018310547,0.076627195,-0.15434888,9.777059,0
1,990.1572265625,-9.20482343644835E-5,-4.6044428017921746E-4,-3.744472633115947E-4,1.1241984367370605,16.63178062438965,-17.56977653503418,0.010193973779678345,-0.0014089643955230713,0.05747413635253906,0.05749017,-0.15911505,9.755753,0
1,990.1572265625,-9.20482343644835E-5,-4.6044428017921746E-4,-3.744472633115947E-4,1.1241984367370605,16.63178062438965,-17.56977653503418,0.019612595438957214,-0.006126075983047485,0.052742958068847656,0.057472438,-0.15434799,9.769954,0
1,990.1446533203125,-4.913509474135935E-4,6.047915085218847E-4,-1.080580404959619E-4,1.1619725227355957,16.456771850585938,-18.1042423248291,-0.004441298544406891,-0.025208309292793274,0.048010826110839844,0.059844553,-0.14719775,9.755749,0
1,990.1299438476562,1.7460991512052715E-4,3.384478040970862E-4,2.5173299945890903E-5,1.1790122985839844,17.10511016845703,-18.529726028442383,-0.01847449690103531,0.0032756775617599487,0.06221294403076172,0.06938642,-0.16864684,9.753381,0
1,990.1370849609375,1.747812784742564E-4,-7.268434856086969E-4,-1.0791135719045997E-4,2.244828224182129,17.839374542236328,-18.121057510375977,5.371794104576111E-4,0.0033343881368637085,0.024339675903320312,0.06936866,-0.15672997,9.781785,0
1,990.1370849609375,-2.2452117991633713E-4,7.207633461803198E-5,2.5320012355223298E-5,2.9633517265319824,16.773662567138672,-17.938467025756836,0.014730535447597504,0.0036722272634506226,0.0480194091796875,0.062181175,-0.15434626,9.769948,0
1,990.1398315429688,4.4143953709863126E-4,6.0468033188954E-4,2.539332490414381E-5,2.579019069671631,16.518890380859375,-17.479413986206055,0.005322262644767761,0.0083533376455307,0.05748939514160156,0.06455332,-0.16626227,9.769946,0
1,990.1398315429688,4.2136838601436466E-5,-7.26926838979125E-4,-9.066388593055308E-4,2.6027965545654297,15.698490142822266,-17.743009567260742,0.0054036155343055725,0.008373335003852844,0.03381824493408203,0.067130536,-0.15911698,9.774697,0
1,990.1398315429688,5.749395932070911E-4,-3.2748086960054934E-4,2.554006641730666E-5,2.1773486137390137,14.983642578125,-17.019746780395508,-0.009007036685943604,-0.0012244582176208496,0.057450294494628906,0.07211,-0.1591219,9.751043,0
1,990.1390991210938,-2.0865030819550157E-4,-2.9196293326094747E-4,9.797918028198183E-5,2.049220085144043,15.811687469482422,-16.74051856994629,-0.00878874957561493,-0.0012283176183700562,0.05271434783935547,0.07449865,-0.15673864,9.762879,0
1,990.1395263671875,5.90309442486614E-4,-1.5880704449955374E-4,7.637740345671773E-4,2.4761595726013184,15.315746307373047,-16.4693546295166,-0.023125164210796356,-0.005692929029464722,0.02904796600341797,0.07688725,-0.14482209,9.765246,0
1,990.1395263671875,5.90309442486614E-4,-1.5880704449955374E-4,7.637740345671773E-4,2.4761595726013184,15.315746307373047,-16.4693546295166,-0.004145123064517975,-8.346736431121826E-4,0.05272197723388672,0.081665784,-0.15912178,9.760512,0
1,990.1395263671875,5.90309442486614E-4,-1.5880704449955374E-4,7.637740345671773E-4,2.175987720489502,15.50838851928711,-15.81849479675293,-0.008664064109325409,-0.019942358136177063,0.033782005310058594,0.06971502,-0.15435523,9.762879,0
2,990.1343383789062,5.76898964936845E-5,-2.5651068426668644E-5,3.6430550971999764E-4,2.199115514755249,16.162620544433594,-16.55320167541504,-0.003824777901172638,-9.472072124481201E-4,0.038514137268066406,0.06732386,-0.15673846,9.762879,0
2,990.1542358398438,5.771434371126816E-5,2.4066084006335586E-4,-3.5157863749191165E-5,2.3296070098876953,15.599897384643555,-16.386411666870117,-0.013539731502532959,0.003735095262527466,0.03378009796142578,0.07688218,-0.16388825,9.767613,0
2,990.1343994140625,1.9088451517745852E-4,5.069747567176819E-4,-3.0146847711876035E-4,2.3888490200042725,15.971729278564453,-16.87919807434082,-0.008618973195552826,0.003760978579521179,0.05745124816894531,0.07927084,-0.15435511,9.762879,0
2,990.1343994140625,-6.080509047023952E-4,-1.5881695435382426E-4,-5.6777911959216E-4,2.415968894958496,15.78641128540039,-16.87253761291504,6.719082593917847E-4,-0.0058113038539886475,0.03378105163574219,0.07687968,-0.15673837,9.76998,0
2,990.10400390625,-7.540704245911911E-5,5.069706821814179E-4,-4.3461599852889776E-4,1.9548423290252686,16.09201431274414,-16.66539192199707,-0.013822652399539948,0.003562226891517639,0.04798316955566406,0.06253898,-0.1591216,9.748675,0
2,990.1492919921875,-7.539470243500546E-5,7.732847006991506E-4,-3.5136938095092773E-5,2.3080315589904785,16.15939712524414,-16.800745010375977,-0.009133957326412201,0.008470803499221802,0.05745506286621094,0.079267025,-0.16150483,9.76998,0
2,990.16943359375,3.2409135019406676E-4,-2.566499460954219E-5,-1.6828958177939057E-4,2.486133098602295,15.588430404663086,-16.409860610961914,-0.10072676837444305,-0.08224767446517944,-0.07037162780761719,0.10555467,-0.14243859,9.819692,0
2,990.1339721679688,-0.001673265709541738,0.0026374917943030596,-3.512643161229789E-5,1.9297871589660645,15.910514831542969,-16.650911331176758,0.12362980097532272,0.17880436778068542,0.01956653594970703,-0.013941705,-0.22585335,9.7770815,0
2,990.1261596679688,-0.0019395694835111499,-4.2514275992289186E-4,3.6435259971767664E-4,1.961472988128662,15.729618072509766,-16.876161575317383,-0.1483878791332245,-0.1588638722896576,0.033779144287109375,0.107942045,-0.1162225,9.76998,0
2,990.1136474609375,8.56759783346206E-4,2.4064502213150263E-4,9.8041957244277E-5,2.439204692840576,15.334297180175781,-17.234586715698242,-0.009869523346424103,0.007484912872314453,0.047974586486816406,0.07448214,-0.14005521,9.758143,0
2,990.1336669921875,5.904560093767941E-4,-2.9198871925473213E-4,-3.0142656760290265E-4,2.449720621109009,15.238691329956055,-17.076642990112305,0.041870035231113434,0.06427361071109772,0.0479736328125,0.06492129,-0.163888,9.765246,0
2,990.1282348632812,-7.411111728288233E-4,0.0018385362345725298,3.6436834488995373E-4,2.122427463531494,15.616655349731445,-16.432451248168945,-0.006420344114303589,-0.007622659206390381,0.033768653869628906,0.067309916,-0.18295422,9.769979,0
2,990.1362915039062,-8.742568898014724E-4,0.001172744669020176,-1.6825826605781913E-4,1.975874900817871,15.90080451965332,-16.349512100219727,0.01235467940568924,-0.0028640180826187134,0.0479736328125,0.06252885,-0.15197149,9.76051,0
2,990.103271484375,-8.742446661926806E-4,9.06426808796823E-4,-7.008847896941006E-4,2.014192581176758,15.357501983642578,-16.785524368286133,-0.03062252700328827,-0.0030986368656158447,0.03850078582763672,0.08403671,-0.15197149,9.7747135,0
2,990.103271484375,-6.079165614210069E-4,1.0747714259196073E-4,-3.0140572926029563E-4,2.5760819911956787,15.409599304199219,-16.952146530151367,0.007336609065532684,0.025357738137245178,0.047969818115234375,0.06491619,-0.1710377,9.762877,0
2,990.1332397460938,3.242012462578714E-4,9.0642279246822E-4,4.97547211125493E-4,2.53855299949646,14.584182739257812,-16.744096755981445,0.007665358483791351,0.006407603621482849,0.03376579284667969,0.072084665,-0.16865441,9.7723465,0
2,990.1256713867188,3.242133534513414E-4,-6.914745317772031E-4,-4.3455319246277213E-4,2.404336452484131,15.40633773803711,-16.155649185180664,-0.006366945803165436,0.006325185298919678,0.043231964111328125,0.07208341,-0.16388777,9.7676115,0
2,990.1332397460938,-3.415640094317496E-4,-9.577923337928951E-4,-4.34547895565629E-4,2.863398313522339,15.467550277709961,-16.383935928344727,0.0035307109355926514,-0.017390429973602295,0.052700042724609375,0.06252253,-0.1567379,9.777081,0
2,990.1332397460938,5.792202864540741E-5,-8.246363722719252E-4,3.6440492840483785E-4,2.641573429107666,16.313547134399414,-16.63020896911621,-0.009642966091632843,-0.002374500036239624,0.04796886444091797,0.07447076,-0.15912119,9.7676115,0
2,990.1560668945312,0.0020578133407980204,-0.00202346732839942,-1.6714585945010185E-4,2.7370362281799316,15.296640396118164,-16.508432388305664,0.0012817755341529846,-0.006540626287460327,0.04803943634033203,0.059432,-0.15672079,9.767548,0
2,990.1560668945312,0.0020578133407980204,-0.00202346732839942,-1.6714585945010185E-4,2.7370362281799316,15.296640396118164,-16.508432388305664,0.010988980531692505,0.017227157950401306,0.02910137176513672,0.06657249,-0.16863647,9.765178,0
2,990.10791015625,5.96608268097043E-4,-2.91332951746881E-4,-2.945789019577205E-4,2.0647377967834473,16.458553314208984,-17.088701248168945,0.010862380266189575,-0.011223062872886658,0.057514190673828125,0.059373587,-0.15671936,9.765175,0
2,990.160888671875,-6.889981159474701E-5,-2.91378702968359E-4,1.0501564247533679E-4,2.236889600753784,15.987611770629883,-17.087671279907227,-0.013135947287082672,0.0076082199811935425,0.043311119079589844,0.07129386,-0.16863504,9.765172,0
2,990.160888671875,-0.0011338816257193685,6.406811880879104E-4,1.0513630695641041E-4,2.714482069015503,15.486377716064453,-16.747011184692383,0.0012807473540306091,-0.01661333441734314,0.03383827209472656,0.06648487,-0.14956808,9.774638,0
3,990.1390991210938,-6.83365942677483E-5,2.4116160057019442E-4,-5.605326732620597E-4,2.6224687099456787,16.032024383544922,-16.22587013244629,0.0011070966720581055,-0.002012282609939575,0.02911376953125,0.06884551,-0.1448007,9.772268,0
3,990.1390991210938,8.640507003292441E-4,-2.51999736065045E-5,-4.2725406819954515E-4,2.710895538330078,15.851722717285156,-16.690855026245117,-0.01266568899154663,0.016941949725151062,0.04804706573486328,0.08076581,-0.16863278,9.753328,0
3,990.1510620117188,-4.669654881581664E-4,6.404983578249812E-4,3.71934991562739E-4,2.6075234413146973,16.229127883911133,-16.850976943969727,-0.0032228752970695496,0.011783570051193237,0.033843040466308594,0.059227496,-0.17101535,9.767529,0
3,990.1510620117188,-4.669654881581664E-4,6.404983578249812E-4,3.71934991562739E-4,2.6075234413146973,16.229127883911133,-16.850976943969727,0.00587945431470871,-0.0026724934577941895,0.04331398010253906,0.063978076,-0.15671498,9.776995,0
3,990.13037109375,-3.3324433024972677E-4,2.40933004533872E-4,1.0586049756966531E-4,2.3676795959472656,16.057025909423828,-16.49601173400879,0.0011612027883529663,0.002047792077064514,0.062254905700683594,0.07111859,-0.15909752,9.767524,0
3,990.13037109375,5.991427460685372E-4,-1.5858651022426784E-4,3.7229707231745124E-4,2.0431323051452637,15.805793762207031,-16.431299209594727,-0.008295968174934387,-0.007367268204689026,0.05278968811035156,0.07825905,-0.15194699,9.765154,0
3,990.13037109375,5.991427460685372E-4,-1.5858651022426784E-4,3.7229707231745124E-4,2.0431323051452637,15.805793762207031,-16.431299209594727,-0.013126589357852936,-0.0025571435689926147,0.043323516845703125,0.07583994,-0.16147938,9.772252,0
3,990.1000366210938,3.3310858998447657E-4,1.0768364882096648E-4,-1.6021402552723885E-4,2.840843677520752,15.65728759765625,-16.622514724731445,0.0013139992952346802,-0.007511138916015625,0.038588523864746094,0.07820064,-0.16147867,9.77225,0
3,990.1000366210938,-7.318733260035515E-4,-1.5867793990764767E-4,-2.9325124341994524E-4,4.476236820220947,14.132408142089844,-15.322595596313477,0.01092703640460968,0.0066862404346466064,0.04332542419433594,0.063831985,-0.16386124,9.769879,0
3,990.1000366210938,-7.318733260035515E-4,-1.5867793990764767E-4,-2.9325124341994524E-4,4.476236820220947,14.132408142089844,-15.322595596313477,-0.008150286972522736,0.011139079928398132,0.04332160949707031,0.068582594,-0.16147724,9.75804,0
3,990.1351318359375,-6.58021162962541E-5,-1.5872367657721043E-4,5.058170645497739E-4,3.906323194503784,13.755195617675781,-12.672220230102539,-0.012893781065940857,-0.003541231155395508,0.019644737243652344,0.073333144,-0.15909326,9.772243,0
3,990.0947875976562,-7.313099922612309E-4,5.070203333161771E-4,-5.593257956206799E-4,1.970566987991333,13.734237670898438,-13.373498916625977,0.001504555344581604,0.006195500493049622,0.043323516845703125,0.075693846,-0.1519427,9.762771,0
3,990.0947875976562,-4.854326252825558E-4,-6.29676622338593E-4,-1.1274128337390721E-4,1.482625961303711,15.649255752563477,-15.642908096313477,0.0063332244753837585,0.0013973116874694824,0.043326377868652344,0.07566464,-0.16147512,9.765134,0
3,990.1098022460938,-2.1855342492926866E-4,5.686533986590803E-4,-2.456578949932009E-4,2.291290044784546,16.143192291259766,-15.950387954711914,-0.003289058804512024,-0.027111440896987915,0.04806327819824219,0.06846571,-0.14002487,9.765132,0
3,990.1650390625,-8.51139920996502E-5,3.022917953785509E-4,-7.781690219417214E-4,2.5783071517944336,15.569005966186523,-15.80705451965332,-0.0030032694339752197,0.0062335580587387085,0.05753517150878906,0.07082641,-0.16385695,9.753293,0
3,990.1650390625,3.146412200294435E-4,-0.001162491156719625,2.872151380870491E-4,1.387162208557129,16.666162490844727,-15.764684677124023,-0.007309824228286743,-0.01759086549282074,0.038596153259277344,0.06601739,-0.15432313,9.760392,0
3,990.1869506835938,3.149230615235865E-4,-0.0010293790837749839,2.1019921405240893E-5,1.6536905765533447,15.914894104003906,-15.838777542114258,0.0021737441420555115,0.0016786307096481323,0.04333782196044922,0.07076794,-0.15432242,9.767491,0
3,990.1331787109375,4.888865805696696E-5,3.0215459992177784E-4,-5.114910891279578E-4,2.0388646125793457,16.43351173400879,-15.774515151977539,0.006710141897201538,-0.012532457709312439,0.04807758331298828,0.06595898,-0.14717188,9.7698555,0
3,990.1126098632812,-8.398779027629644E-5,4.352669056970626E-4,-5.113703664392233E-4,2.012287139892578,16.25054168701172,-15.68272590637207,-0.002391345798969269,-0.002711862325668335,0.04808235168457031,0.06353986,-0.15670428,9.765119,0
3,990.1502685546875,4.489258280955255E-4,-6.300423410721123E-4,2.1382118575274944E-5,1.8703007698059082,16.539108276367188,-15.831697463989258,-0.007294930517673492,-0.02189500629901886,0.043311119079589844,0.07805389,-0.14717546,9.758033,0
3,990.0997314453125,4.97333676321432E-5,-4.969300935044885E-4,2.150281216017902E-5,1.467979907989502,16.478492736816406,-15.843141555786133,-0.016832314431667328,0.006746277213096619,0.024374008178710938,0.07824087,-0.15432984,9.772254,0
3,990.1192016601562,1.789983652997762E-4,3.042597381863743E-4,-2.4287652922794223E-4,1.8747291564941406,16.437610626220703,-15.364534378051758,-0.002745695412158966,0.002194434404373169,0.03858375549316406,0.066278696,-0.15909609,9.760417,0
3,990.1192016601562,-8.817014168016613E-5,8.370299474336207E-4,1.5623192302882671E-4,2.1105499267578125,16.23700714111328,-15.389139175415039,0.00211411714553833,-0.007508695125579834,0.04331684112548828,0.07582563,-0.15432921,9.767516,0
3,990.1270751953125,-7.538375211879611E-4,-8.940431289374828E-4,1.5628430992364883E-4,1.70159912109375,16.538787841796875,-15.189809799194336,0.011422351002693176,0.001986891031265259,0.04805278778076172,0.06386343,-0.15432891,9.77225,0
3,990.1217041015625,3.115481522399932E-4,8.369902498088777E-4,2.894946082960814E-4,1.6024951934814453,16.288476943969727,-16.006715774536133,-0.002956971526145935,0.011270225048065186,0.057518959045410156,0.061460853,-0.17101157,9.750943,0
4,990.1719970703125,-8.780343341641128E-5,1.7118069808930159E-4,5.558629054576159E-4,1.7393722534179688,16.363780975341797,-15.724279403686523,0.016262106597423553,-0.002759382128715515,0.048056602478027344,0.061448157,-0.15671158,9.772248,0
4,990.1434326171875,3.1179250800050795E-4,-3.6147094215266407E-4,-2.430324093438685E-4,1.9321503639221191,16.17583465576172,-16.204896926879883,0.002364739775657654,-0.0029048025608062744,0.05278587341308594,0.068605185,-0.16147783,9.762778,0
4,990.1346435546875,1.7887938884086907E-4,-9.51947586145252E-5,2.3388362023979425E-5,2.1848745346069336,16.517654418945312,-15.955904006958008,-0.01184622198343277,-0.017131835222244263,0.03858375549316406,0.07576221,-0.15671095,9.765143,0
4,990.1346435546875,1.7887938884086907E-4,-9.51947586145252E-5,2.3388362023979425E-5,2.1848745346069336,16.517654418945312,-15.955904006958008,-0.0025006309151649475,-0.007316663861274719,0.05279541015625,0.05902019,-0.14956078,9.762775,0
4,990.1625366210938,5.784753011539578E-4,3.042592143174261E-4,-3.760329564101994E-4,1.918590784072876,16.268495559692383,-16.208227157592773,-0.0071351006627082825,-0.002350062131881714,0.03859519958496094,0.07573688,-0.15432706,9.7651415,0
4,990.1242065429688,-6.197016919031739E-4,4.3737742817029357E-4,-1.0961259249597788E-4,2.0681874752044678,15.987293243408203,-16.44577980041504,-0.0024754777550697327,0.011524990200996399,0.033855438232421875,0.075724155,-0.17100966,9.772243,0
4,990.1242065429688,-6.197016919031739E-4,4.3737742817029357E-4,-1.0961259249597788E-4,2.0681874752044678,15.987293243408203,-16.44577980041504,0.002216532826423645,-0.007354170083999634,0.03859519958496094,0.06376195,-0.15194312,9.769874,0
4,990.1389770507812,-8.694766438566148E-5,1.7104171274695545E-4,5.562295555137098E-4,2.2467241287231445,16.154380798339844,-16.329103469848633,0.006794467568397522,-0.007404550909996033,0.048065185546875,0.073308885,-0.15194282,9.767505,0
4,990.1212768554688,-2.1998313604854047E-4,4.3733775964938104E-4,4.231241182424128E-4,1.9450297355651855,16.345548629760742,-15.60093879699707,0.0017939954996109009,0.016417548060417175,0.043334007263183594,0.078076005,-0.16385892,9.769872,0
4,990.18896484375,1.7961292178370059E-4,1.7100205877795815E-4,-1.0945525718852878E-4,2.1202244758605957,15.877555847167969,-15.754518508911133,-0.012553304433822632,0.006794646382331848,0.038598060607910156,0.06850371,-0.16385862,9.760402,0
4,990.1526489257812,4.6699336962774396E-5,3.780443512368947E-5,2.3807398974895477E-5,2.1905269622802734,15.785491943359375,-15.99091911315918,0.0016503334045410156,-0.0074075013399124146,0.05280590057373047,0.07327083,-0.14479205,9.769869,0
4,990.1526489257812,4.6699336962774396E-5,3.780443512368947E-5,2.3807398974895477E-5,2.1905269622802734,15.785491943359375,-15.99091911315918,0.0016697272658348083,-0.011974632740020752,0.0528106689453125,0.068478346,-0.15432486,9.762766,0
4,990.1036376953125,3.1325980671681464E-4,0.0016356600681319833,-3.7556159077212214E-4,1.756274700164795,16.906204223632812,-15.450685501098633,0.0011838153004646301,-0.007151216268539429,0.04334831237792969,0.06846568,-0.1519413,9.762765,0
4,990.1212768554688,3.133819263894111E-4,4.37218724982813E-4,-1.0919332271441817E-4,1.9134817123413086,16.632366180419922,-16.07476234436035,-0.013450749218463898,-0.016549289226531982,0.043354034423828125,0.07084286,-0.14717439,9.755662,0
4,990.1212768554688,-8.59696592669934E-5,8.366727270185947E-4,-2.4229887640103698E-4,1.6138525009155273,16.45671844482422,-15.32545280456543,7.909759879112244E-4,0.002490699291229248,0.03388500213623047,0.07799992,-0.1662403,9.776965,0
4,990.1212768554688,-8.59696592669934E-5,8.366727270185947E-4,-2.4229887640103698E-4,1.6138525009155273,16.45671844482422,-15.32545280456543,-0.0035780146718025208,-0.0025778114795684814,0.029145240783691406,0.06842762,-0.15909019,9.769863,0
4,990.1185913085938,-3.5204083542339504E-4,4.371591203380376E-4,2.4121865862980485E-5,1.7970924377441406,16.734142303466797,-16.139768600463867,-0.013116933405399323,0.001982644200325012,0.014939308166503906,0.07558462,-0.16147316,9.781698,0
4,990.1485595703125,-3.5191859933547676E-4,3.7665493437089026E-5,-2.421416575089097E-4,1.595862865447998,16.650876998901367,-15.795949935913086,-0.008502461016178131,0.0020792484283447266,0.038616180419921875,0.075571954,-0.15432301,9.767493,0
4,990.1485595703125,-3.5191859933547676E-4,3.7665493437089026E-5,-2.421416575089097E-4,1.595862865447998,16.650876998901367,-15.795949935913086,0.0010277330875396729,0.00202767550945282,0.043351173400878906,0.068389535,-0.15670595,9.755656,0
4,990.1485595703125,3.139932232443243E-4,1.7080352699849755E-4,1.573845511302352E-4,2.1386494636535645,16.421451568603516,-15.558229446411133,-0.002924524247646332,0.007018685340881348,0.04336261749267578,0.073093295,-0.16385394,9.769853,0
4,990.1485595703125,3.139932232443243E-4,1.7080352699849755E-4,1.573845511302352E-4,2.1386494636535645,16.421451568603516,-15.558229446411133,-0.02221309393644333,-0.007409736514091492,0.038628578186035156,0.07062346,-0.15431884,9.765111,0
4,990.1476440429688,-6.173206493258476E-4,4.3791686766780913E-4,-3.7283485289663076E-4,1.9033703804016113,16.253765106201172,-15.435178756713867,-0.008154504001140594,0.002087503671646118,0.048099517822265625,0.07538551,-0.16623488,9.769844,0
4,990.1390380859375,-4.8399149090982974E-4,4.3788913171738386E-4,-3.727615694515407E-4,1.8626899719238281,16.53174591064453,-15.44517707824707,0.0017989948391914368,0.0018539726734161377,0.029157638549804688,0.07536778,-0.16146782,9.786412,0
4,990.1389770507812,-3.506627690512687E-4,-6.274020997807384E-4,2.6785506634041667E-5,2.2324836254119873,16.509414672851562,-15.731805801391602,0.0015772134065628052,0.0020150691270828247,0.038634300231933594,0.065790415,-0.16385064,9.765105,0
5,990.110595703125,5.961188580840826E-4,0.0010599680244922638,-1.9170757150277495E-4,1.8362517356872559,16.454689025878906,-16.052465438842773,-0.01735055446624756,0.02103157341480255,0.029163360595703125,0.0801121,-0.16623357,9.774573,0
5,990.1228637695312,7.294481620192528E-4,-8.042707340791821E-4,4.741553566418588E-4,2.0102224349975586,16.617359161376953,-15.703874588012695,-0.022074513137340546,-0.021284684538841248,0.02443981170654297,0.072924614,-0.14478356,9.772204,0
5,990.127685546875,0.0011290927650406957,5.272808484733105E-4,-1.9156100461259484E-4,2.013266086578369,16.62030792236328,-15.858484268188477,-0.012172535061836243,-0.00696168839931488,0.029175758361816406,0.068127096,-0.15431622,9.7745695,0
5,990.127685546875,-2.0231564121786505E-4,-0.0012038000859320164,7.482815999537706E-5,1.586869716644287,16.747955322265625,-16.031198501586914,0.0021263062953948975,-0.0022413134574890137,0.04337882995605469,0.065719485,-0.16146567,9.7579975,0
5,990.0978393554688,-4.684601444751024E-4,5.27225318364799E-4,-4.577303188852966E-4,1.4815402030944824,16.385833740234375,-15.839807510375977,-0.0021888911724090576,0.0023673325777053833,0.05757713317871094,0.07287139,-0.16146523,9.760364,0
5,990.1026000976562,1.9750020874198526E-4,-0.0012038557324558496,8.739223703742027E-4,2.0092432498931885,16.247594833374023,-15.528116226196289,-0.007329627871513367,0.007338568568229675,0.05285072326660156,0.06568396,-0.16146475,9.757995,0
5,990.11279296875,3.30829294398427E-4,0.0010598014341667295,-5.810987204313278E-5,1.8388590812683105,15.719581604003906,-15.932867050170898,0.0021585598587989807,-0.011771917343139648,0.024444580078125,0.05371672,-0.14954796,9.781665,0
5,990.1276245117188,-6.847317854408175E-5,-2.718056202866137E-4,-5.8036588598042727E-5,1.9782371520996094,16.16612434387207,-15.90349006652832,-0.017148703336715698,0.0024862587451934814,0.029183387756347656,0.07520807,-0.15669736,9.76746,0
5,990.12548828125,-2.014604542637244E-4,-5.517489626072347E-6,7.519472273997962E-5,1.8081517219543457,16.270244598388672,-15.883371353149414,-0.007264427840709686,-0.02596840262413025,0.010247230529785156,0.065630704,-0.13763061,9.786397,0
5,990.094482421875,-6.007631309330463E-4,-6.71334913931787E-4,6.078997394070029E-4,1.848832130432129,15.992267608642578,-15.873376846313477,-0.0028092339634895325,-0.006895735859870911,0.048126220703125,0.063223094,-0.16146311,9.769824,0
5,990.0892944335938,1.9835586135741323E-4,9.265325497835875E-4,2.0849923021160066E-4,1.9787805080413818,15.797832489013672,-15.80504035949707,-0.012347452342510223,-0.0022167563438415527,0.029189109802246094,0.07276493,-0.1638459,9.776923,0
5,990.0868530273438,3.3168436493724585E-4,5.270310211926699E-4,-3.2405921956524253E-4,1.9848685264587402,15.803726196289062,-16.114259719848633,-0.021881282329559326,-0.016534030437469482,0.0291900634765625,0.079916894,-0.14716247,9.769821,0
5,990.1148071289062,-3.3393409103155136E-4,2.606872876640409E-4,3.4180376678705215E-4,2.042045831680298,16.542377471923828,-16.628198623657227,0.0016179457306861877,-0.0021857768297195435,0.03392982482910156,0.06316984,-0.16384506,9.774554,0
5,990.0969848632812,1.9886890368070453E-4,0.0010596072534099221,-5.759677151218057E-5,2.214601993560791,15.59722900390625,-15.829641342163086,-0.012334540486335754,0.0027359426021575928,0.029198646545410156,0.072711706,-0.15907803,9.774552,0
5,990.1092529296875,0.001131316414102912,1.2744606647174805E-4,-5.7450204622000456E-5,1.795976161956787,16.258460998535156,-15.264932632446289,0.020851656794548035,-0.006752461194992065,0.043404579162597656,0.05357471,-0.16384411,9.765081,0
5,990.1092529296875,0.001131316414102912,1.2744606647174805E-4,-5.7450204622000456E-5,1.795976161956787,16.258460998535156,-15.264932632446289,-0.022013142704963684,-0.011421144008636475,0.024468421936035156,0.07506609,-0.15192735,9.767447,0
5,990.1016235351562,-6.676327029708773E-5,-1.3892533024773002E-4,-5.899352836422622E-4,1.9958209991455078,16.4461727142334,-16.23052406311035,0.0019182488322257996,-0.0017736852169036865,0.05761432647705078,0.065488756,-0.15431014,9.7508745,0
5,990.1016235351562,-6.676327029708773E-5,-1.3892533024773002E-4,-5.899352836422622E-4,1.9958209991455078,16.4461727142334,-16.23052406311035,0.001684822142124176,-0.0064581334590911865,0.04814910888671875,0.06547099,-0.14954314,9.769811,0
5,990.1270751953125,-0.0012648423435166478,-1.38980831252411E-4,3.423169255256653E-4,1.9958209991455078,16.4461727142334,-16.23052406311035,-0.012852981686592102,0.012085095047950745,0.052878379821777344,0.060673475,-0.168609,9.757974,0
5,990.1270751953125,-0.0012648423435166478,-1.38980831252411E-4,3.423169255256653E-4,1.9958209991455078,16.4461727142334,-16.23052406311035,-0.002931468188762665,0.007360741496086121,0.038674354553222656,0.060655713,-0.15907541,9.765074,0
5,990.1373291015625,6.690782902296633E-5,1.273072266485542E-4,-5.708367098122835E-5,2.1823737621307373,16.14641571044922,-15.702844619750977,-0.012606404721736908,-0.007003322243690491,0.02922344207763672,0.072426915,-0.14953789,9.772159,0
5,990.124267578125,2.010012831306085E-4,0.0011924189748242497,6.091069080866873E-4,1.7619271278381348,16.174041748046875,-15.485700607299805,0.0016661062836647034,-0.006805792450904846,0.057636260986328125,0.0700129,-0.15430388,9.753219,0
5,990.098876953125,6.699380173813552E-5,-9.355277288705111E-4,-3.1837739516049623E-4,1.8700017929077148,15.906974792480469,-16.25657081604004,-0.0026333853602409363,-0.001954019069671631,0.062371253967285156,0.06759888,-0.15906984,9.755584,0
5,990.10400390625,-6.569917604792863E-5,-9.356031659990549E-4,-3.181780921295285E-4,2.1969127655029297,16.423521041870117,-15.875265121459961,-0.0023706555366516113,0.01252754032611847,0.03396892547607422,0.06518483,-0.15906924,9.769785,0
5,990.10400390625,4.671651986427605E-4,-1.366932992823422E-4,-1.8492050003260374E-4,1.980196475982666,16.905649185180664,-16.255006790161133,0.016760163009166718,-0.016025543212890625,0.043440818786621094,0.05560112,-0.15430209,9.762681,0
6,990.10400390625,4.671651986427605E-4,-1.366932992823422E-4,-1.8492050003260374E-4,1.980196475982666,16.905649185180664,-16.255006790161133,-0.0021508783102035522,0.008009418845176697,0.03397369384765625,0.06513661,-0.1662179,9.772148,0
6,990.1016845703125,7.337134447880089E-4,-4.03046899009496E-4,-3.1797890551388264E-4,1.6127660274505615,17.19329833984375,-15.522356033325195,-0.011776059865951538,-0.006219446659088135,0.048180580139160156,0.0746721,-0.16145077,9.76031,0
6,990.1016845703125,7.337134447880089E-4,-4.03046899009496E-4,-3.1797890551388264E-4,1.9560890197753906,15.881654739379883,-15.344545364379883,-0.0018115416169166565,0.008199408650398254,0.043450355529785156,0.07942778,-0.16145018,9.769776,0
6,990.1066284179688,2.0154663070570678E-4,-5.362803349271417E-4,0.001413273625075817,1.7427148818969727,16.998863220214844,-15.454019546508789,0.007811799645423889,-0.010809674859046936,0.04345226287841797,0.06506425,-0.14953318,9.769774,0
6,990.1192016601562,6.862128793727607E-5,-8.026339928619564E-4,-4.5083777513355017E-4,1.8521742820739746,16.627351760864258,-15.603120803833008,-0.011135458946228027,-0.005931556224822998,0.038720130920410156,0.07698962,-0.16144899,9.77214,0
6,990.1192016601562,6.862128793727607E-5,-8.026339928619564E-4,-4.5083777513355017E-4,1.8521742820739746,16.627351760864258,-15.603120803833008,0.007738977670669556,-0.0013353824615478516,0.02925395965576172,0.0554564,-0.16144839,9.76977,0
6,990.1187744140625,3.3516966504976153E-4,5.28907694388181E-4,-4.5073824003338814E-4,1.7101874351501465,16.915916442871094,-15.752092361450195,-0.021164610981941223,0.0036332309246063232,0.04346466064453125,0.08172119,-0.15668121,9.765033,0
6,990.1312866210938,3.356346278451383E-4,3.956742584705353E-4,-5.106511525809765E-5,1.9797601699829102,16.16759490966797,-15.980798721313477,-0.0016704797744750977,-9.824037551879883E-4,0.04346656799316406,0.08169708,-0.15668064,9.776866,0
6,990.1013793945312,-1.967645512195304E-4,-6.69626984745264E-4,-7.167551666498184E-4,1.7619268894195557,16.174041748046875,-15.48570442199707,-0.010926522314548492,-0.010392501950263977,0.05293846130371094,0.06972343,-0.1519135,9.762661,0
6,990.14404296875,3.3609947422519326E-4,-2.7019085246138275E-4,7.480818312615156E-4,1.8657341003417969,16.534690856933594,-15.599786758422852,-0.006244964897632599,0.003961414098739624,0.04820537567138672,0.072089225,-0.161446,9.76266,0
6,990.14404296875,8.68963950779289E-4,-3.912771717295982E-6,-1.83924101293087E-4,1.7017364501953125,16.64470672607422,-15.888887405395508,-0.010804668068885803,-0.005491778254508972,0.034005165100097656,0.06967521,-0.1542956,9.77686,0
6,990.15087890625,3.3656455343589187E-4,-3.950490281567909E-6,3.488072252366692E-4,1.8006799221038818,16.368797302246094,-16.195924758911133,-0.0010309070348739624,-4.4129788875579834E-4,0.024542808532714844,0.0696511,-0.16144481,9.781592,0
6,990.1402587890625,2.036390797002241E-4,-0.0010692517971619964,8.259108290076256E-5,1.489149570465088,16.393199920654297,-16.226335525512695,-9.070336818695068E-4,-0.010168701410293579,0.052947044372558594,0.07440674,-0.14952782,9.767386,0
6,990.1144409179688,-0.0010210598120465875,-9.662990487413481E-5,-3.8718405994586647E-4,1.8552184104919434,16.630298614501953,-15.757730484008789,-9.707361459732056E-4,-0.005727127194404602,0.029273033142089844,0.06721294,-0.15906036,9.774486,0
6,990.1065063476562,-4.881955392193049E-4,7.022800273261964E-4,2.787053235806525E-4,1.9209542274475098,16.5338134765625,-15.762212753295898,0.0035863444209098816,0.013130411505699158,0.05294609069824219,0.0671888,-0.16620967,9.760281,0
6,990.1466064453125,-8.848935249261558E-5,4.3592642759904265E-4,-1.206688757520169E-4,1.6772241592407227,16.09491729736328,-15.775957107543945,-0.005894862115383148,0.0034820735454559326,0.03400707244873047,0.071944505,-0.16620907,9.769748,0
6,990.1466064453125,4.490118590183556E-5,3.6414792702998966E-5,0.0013441680930554867,1.8925564289093018,15.717233657836914,-16.01799201965332,-0.02042561024427414,0.01781313121318817,0.03874683380126953,0.07909006,-0.17097503,9.774479,0
6,990.1508178710938,4.5133434468880296E-5,5.690088146366179E-4,-5.199434235692024E-4,1.7615211009979248,16.648252487182617,-16.283227920532227,0.01793188601732254,0.008139967918395996,0.038745880126953125,0.062336624,-0.15429148,9.77211,0
6,990.1019897460938,-4.8726549721322954E-4,-7.626083097420633E-4,8.117356337606907E-4,1.8896498680114746,15.820205688476562,-16.562456130981445,0.013722680509090424,0.008174210786819458,0.057682037353515625,0.062312514,-0.15905744,9.760272,0
6,990.1019897460938,3.119145112577826E-4,-7.626460283063352E-4,1.46045524161309E-4,1.7759227752685547,16.819435119628906,-15.75657844543457,0.004115946590900421,0.012883797287940979,0.043480873107910156,0.06493077,-0.17097947,9.755558,0
6,990.114013671875,4.5831111492589116E-5,-3.632099833339453E-4,-3.8648649933747947E-4,1.4635519981384277,16.57999038696289,-16.310304641723633,-0.015527009963989258,-0.02059561014175415,0.033965110778808594,0.06756425,-0.14715263,9.76505,0
6,990.1209106445312,-3.5885561374016106E-4,3.043590113520622E-4,-1.2037064880132675E-4,1.736466407775879,16.466751098632812,-16.268747329711914,0.013179481029510498,-0.0016009658575057983,0.029230117797851562,0.06039077,-0.16145217,9.774518,0
6,990.120849609375,-9.250295261153951E-5,3.803715662797913E-5,-0.0010524604003876448,1.791410207748413,16.254043579101562,-15.033021926879883,-0.010418079793453217,-0.001394018530845642,0.029232025146484375,0.07711625,-0.15191898,9.772149,0
6,990.1183471679688,1.7388627748005092E-4,4.3749905307777226E-4,1.4599240967072546E-4,2.112072467803955,16.238479614257812,-15.46644401550293,0.0086287260055542,0.003508642315864563,0.052906036376953125,0.067552835,-0.16383526,9.753213,0
6,990.1183471679688,1.7388627748005092E-4,4.3749905307777226E-4,1.4599240967072546E-4,2.112072467803955,16.238479614257812,-15.46644401550293,0.004020556807518005,0.012931808829307556,0.048168182373046875,0.062769234,-0.16621849,9.757947,0
7,990.1183471679688,4.080167127540335E-5,3.0432920902967453E-4,1.2865901226177812E-5,2.4656665325164795,15.831657409667969,-14.804269790649414,-9.153634309768677E-4,0.013118967413902283,0.038704872131347656,0.07232505,-0.15906855,9.774516,0
7,990.1183471679688,4.080167127540335E-5,3.0432920902967453E-4,1.2865901226177812E-5,2.4656665325164795,15.831657409667969,-14.804269790649414,-0.0057056620717048645,0.003716394305229187,0.033972740173339844,0.072321236,-0.15906844,9.779251,0
7,990.095458984375,3.071542305406183E-4,3.043232427444309E-4,-9.192239376716316E-4,2.346669912338257,16.66853904724121,-14.988866806030273,-0.005800649523735046,-0.0011888444423675537,0.04817485809326172,0.079487145,-0.15906838,9.760313,0
7,990.108154296875,5.735433078370988E-4,-6.277942447923124E-4,-1.2024492025375366E-4,2.222510814666748,16.23672866821289,-15.791296005249023,-5.873367190361023E-4,-0.0057530999183654785,0.03870677947998047,0.06992373,-0.14715186,9.767413,0
7,990.0933227539062,-2.2536740289069712E-4,4.3746334267780185E-4,-1.2022914597764611E-4,1.897963523864746,15.98550033569336,-15.726587295532227,-0.005318157374858856,0.003601446747779846,0.03870391845703125,0.069919944,-0.16383472,9.774515,0
7,990.0933227539062,-2.2536740289069712E-4,4.3746334267780185E-4,-1.2022914597764611E-4,1.897963523864746,15.98550033569336,-15.726587295532227,-0.009938322007656097,0.012920841574668884,0.015027046203613281,0.074695915,-0.1662179,9.781617,0
7,990.1078491210938,4.404954088386148E-4,-9.518030128674582E-5,-1.2019771384075284E-4,1.8824763298034668,16.550893783569336,-16.450143814086914,-0.00507228821516037,0.003392934799194336,0.043435096740722656,0.07230222,-0.15430138,9.767413,0
7,990.1078491210938,4.404954088386148E-4,-9.518030128674582E-5,-1.2019771384075284E-4,1.8824763298034668,16.550893783569336,-16.450143814086914,0.008944287896156311,-0.006143316626548767,0.04817008972167969,0.065128684,-0.14953476,9.774514,0
7,990.1106567382812,-0.0010242050047963858,7.037613540887833E-4,-1.201819977723062E-4,1.9204108715057373,16.9021053314209,-15.860662460327148,0.013624079525470734,0.0030545592308044434,0.04816627502441406,0.060345083,-0.1638343,9.757943,0
7,990.1106567382812,-0.0010242050047963858,7.037613540887833E-4,-1.201819977723062E-4,1.7357854843139648,16.7291259765625,-15.668123245239258,-0.005867943167686462,-0.00662761926651001,0.029230117797851562,0.06990093,-0.15668443,9.765044,0
7,990.1329956054688,4.4064244139008224E-4,-0.001426783623173833,2.793389721773565E-4,1.9572062492370605,16.35733413696289,-16.219377517700195,0.009138457477092743,-0.0014839768409729004,0.033966064453125,0.0651173,-0.16383415,9.779248,0
7,990.1329956054688,4.4064244139008224E-4,-0.001426783623173833,2.793389721773565E-4,1.9572062492370605,16.35733413696289,-16.219377517700195,-2.4169683456420898E-4,0.003252193331718445,0.03869915008544922,0.07945287,-0.15906754,9.769778,0
7,990.1329956054688,4.4064244139008224E-4,-0.001426783623173833,2.793389721773565E-4,1.7202675342559814,16.082258224487305,-15.319940567016602,0.004619695246219635,-0.011318951845169067,0.0576324462890625,0.06749958,-0.15191755,9.765043,0
7,990.1306762695312,-4.913899465464056E-4,-2.2837398864794523E-4,1.4621246373280883E-4,2.1097092628479004,15.973159790039062,-15.91246223449707,-1.0321289300918579E-4,-0.001498103141784668,0.043435096740722656,0.06749576,-0.15430078,9.762675,0
7,990.1306762695312,-4.913899465464056E-4,-2.2837398864794523E-4,1.4621246373280883E-4,2.1097092628479004,15.973159790039062,-15.91246223449707,-0.024017542600631714,0.017392203211784363,0.033962249755859375,0.0842213,-0.16860035,9.762675,0
7,990.1231079101562,8.402626845054328E-4,1.7108788597397506E-4,-5.195458070375025E-4,1.9585895538330078,16.25288963317871,-15.597604751586914,0.009083785116672516,-0.006133660674095154,0.05764198303222656,0.067488134,-0.15668383,9.762675,0
7,990.1231079101562,4.4082579552195966E-4,0.0013695033267140388,1.462596410419792E-4,1.768014907836914,16.179935455322266,-15.794919967651367,0.009079694747924805,0.012928858399391174,0.033969879150390625,0.06748435,-0.16860017,9.767409,0
7,990.1010131835938,-7.575592608191073E-4,-2.2839785378891975E-4,1.3117387425154448E-5,1.8096742630004883,16.271717071533203,-15.960676193237305,0.01398855447769165,0.003059789538383484,0.04816722869873047,0.06509066,-0.15668365,9.774511,0
7,990.1010131835938,-4.912065924145281E-4,-7.610355387441814E-4,-9.189724805764854E-4,1.601515293121338,15.918716430664062,-15.830961227416992,-1.04464590549469E-4,0.007521376013755798,0.04342842102050781,0.06986666,-0.15906689,9.767408,0
7,990.1106567382812,-4.911699215881526E-4,-3.615675959736109E-4,-7.857988239265978E-4,1.7173616886138916,16.18522834777832,-15.864408493041992,-0.009235665202140808,0.007157564163208008,0.03397083282470703,0.069640875,-0.15906128,9.767388,0
7,990.1106567382812,-2.2402303875423968E-4,-2.285446535097435E-4,-3.8596877129748464E-4,1.9230191707611084,16.166996002197266,-15.741067886352539,0.005011945962905884,-0.006716832518577576,0.043448448181152344,0.060068548,-0.16621086,9.774488,0
7,990.1237182617188,4.371217073639855E-5,3.754083445528522E-5,-5.185185000300407E-4,2.0444090366363525,16.807697296142578,-16.18218421936035,-0.004567250609397888,0.002522572875022888,0.029242515563964844,0.06961548,-0.15191087,9.7673855,0
7,990.1278686523438,-2.2248158347792923E-4,-9.56369549385272E-5,-1.1899234959855676E-4,1.5663807392120361,16.570877075195312,-16.248632431030273,-0.004582859575748444,-0.0020999908447265625,0.052918434143066406,0.07677251,-0.15429386,9.7626505,0
7,990.1278686523438,-8.920129766920581E-5,1.70659099239856E-4,5.468497984111309E-4,1.6546707153320312,16.28465461730957,-16.014535903930664,0.00948362797498703,0.002798810601234436,0.03398704528808594,0.06720021,-0.1662099,9.767384,0
8,990.1708984375,5.767108523286879E-4,9.695868939161301E-4,-9.178349864669144E-4,1.5337159633636475,16.38201141357422,-15.847627639770508,2.1060556173324585E-4,-0.006831154227256775,0.029249191284179688,0.069577456,-0.1566765,9.765016,0
8,990.1297607421875,4.42012315033935E-5,-7.614861824549735E-4,-1.1883507249876857E-4,2.0312552452087402,16.4261474609375,-15.38798713684082,-0.014147557318210602,0.007536977529525757,0.029252052307128906,0.08868396,-0.16144273,9.77685,0
8,990.120849609375,-1.4418450882658362E-4,2.4047667102422565E-4,1.6220821999013424E-4,1.6079020500183105,16.556743621826172,-15.715314865112305,-0.004800818860530853,-0.016541436314582825,0.033985137939453125,0.07433188,-0.14475945,9.769748,0
8,990.120849609375,-5.435360944829881E-4,2.404568367637694E-4,1.6226054867729545E-4,1.735487461090088,16.096988677978516,-16.092992782592773,0.014272734522819519,-0.002200990915298462,0.052924156188964844,0.0695394,-0.15429226,9.760277,0
8,990.1177978515625,-1.439401530660689E-4,6.399108096957207E-4,8.281026384793222E-4,1.7818727493286133,16.71941375732422,-15.366716384887695,1.5835464000701904E-4,0.012157320976257324,0.04345703125,0.07430649,-0.16144177,9.769745,0
8,990.1073608398438,-2.769756247289479E-4,-2.922146231867373E-4,-1.0395050048828125E-4,1.9606552124023438,15.88607406616211,-15.576459884643555,-0.01409035176038742,0.01675383746623993,0.019782066345214844,0.0766837,-0.16382477,9.774478,0
8,990.0997924804688,7.884102524258196E-4,-2.5918634491972625E-5,2.9259826987981796E-5,1.7490477561950684,16.004329681396484,-16.089658737182617,0.009408213198184967,-0.0021230578422546387,0.05766487121582031,0.064721525,-0.15667465,9.75554,0
8,990.120361328125,-1.0415271390229464E-5,0.0010393251432105899,2.9312213882803917E-5,2.2155818939208984,15.966991424560547,-16.005395889282227,0.009486913681030273,-0.006780996918678284,0.05766773223876953,0.07426846,-0.1566743,9.757905,0
8,990.107177734375,2.5602284586057067E-4,-4.254321102052927E-4,-2.3695128038525581E-4,1.7454605102539062,16.369672775268555,-16.033498764038086,-8.621811866760254E-5,-0.006606638431549072,0.03399848937988281,0.071865916,-0.1542907,9.774474,0
8,990.1304931640625,-1.0170915629714727E-5,-2.9229396022856236E-4,4.288907803129405E-4,1.558227777481079,16.931800842285156,-15.96055793762207,0.009482026100158691,0.0029677152633666992,0.03400135040283203,0.06946325,-0.15905699,9.767372,0
8,990.1304931640625,0.0010552150197327137,-2.599797153379768E-5,2.946937456727028E-5,1.7433953285217285,16.736492156982422,-16.054643630981445,-0.023483984172344208,0.00343303382396698,0.029273033142089844,0.07662031,-0.1614399,9.774472,0
8,990.13720703125,1.2335384963080287E-4,-0.0010913012083619833,4.2904799920506775E-4,1.9084796905517578,15.889892578125,-15.568643569946289,-0.013152413070201874,0.0033119767904281616,0.03873443603515625,0.07421774,-0.16620615,9.774471,0
8,990.13720703125,1.2335384963080287E-4,-0.0010913012083619833,4.2904799920506775E-4,1.9084796905517578,15.889892578125,-15.568643569946289,-0.0037840083241462708,-0.0015096962451934814,0.06714344024658203,0.07420504,-0.1614393,9.757899,0
8,990.1315307617188,-5.423137336038053E-4,-1.5921542944852263E-4,1.6278447583317757E-4,1.406672477722168,16.47347640991211,-15.371492385864258,0.01114034652709961,0.003162965178489685,0.043465614318847656,0.06702268,-0.161439,9.765,0
8,990.0977172851562,7.895102608017623E-4,-2.6097186491824687E-5,2.9731309041380882E-5,1.6642074584960938,15.819286346435547,-15.680837631225586,0.006330467760562897,-0.010766759514808655,0.04347419738769531,0.067009985,-0.15428886,9.757897,0
8,990.0977172851562,7.895102608017623E-4,-2.6097186491824687E-5,2.9731309041380882E-5,1.6642074584960938,15.819286346435547,-15.680837631225586,-0.0029950961470603943,0.012813404202461243,0.03873443603515625,0.062217474,-0.16143838,9.764998,0
8,990.1380004882812,-2.7563091134652495E-4,-4.2559084249660373E-4,2.960996644105762E-4,1.7182025909423828,16.449073791503906,-15.341089248657227,0.006504669785499573,-0.006068572402000427,0.034005165100097656,0.066984594,-0.16143808,9.7602625,0
8,990.1380004882812,2.5712308706715703E-4,-2.61368986684829E-5,9.619417251087725E-4,1.7266545295715332,16.720287322998047,-15.204294204711914,0.0016347244381904602,-0.001503586769104004,0.05767536163330078,0.07892144,-0.1685876,9.760261,0
8,990.0946655273438,-8.080182014964521E-4,2.4015913368202746E-4,-1.0326941264793277E-4,2.348191499710083,16.670013427734375,-15.066171646118164,0.0017061159014701843,0.002971455454826355,0.0482025146484375,0.07651886,-0.15428755,9.760261,0
8,990.1223754882812,2.5748967891559005E-4,-2.619643055368215E-5,-3.694805782288313E-4,2.165769577026367,16.236129760742188,-15.55156135559082,-0.002573758363723755,-0.006396085023880005,0.03404998779296875,0.066696405,-0.15904772,9.762603,0
8,990.1223754882812,2.5748967891559005E-4,-2.619643055368215E-5,-3.694805782288313E-4,2.0647614002227783,16.878856658935547,-15.26567268371582,0.01628432422876358,-0.00632767379283905,0.038791656494140625,0.06402841,-0.16380745,9.779147,0
8,990.1222534179688,6.590089178644121E-4,3.7504671490751207E-4,-9.73962596617639E-5,1.7685580253601074,15.8116455078125,-15.696474075317383,-0.00760437548160553,-0.0015712231397628784,0.052997589111328125,0.07355502,-0.15904006,9.767308,0
8,990.1222534179688,-5.266789230518043E-6,9.074325789697468E-4,3.641069633886218E-5,1.741981029510498,15.62867546081543,-15.604684829711914,-0.0025300607085227966,-0.0059804767370224,0.04353618621826172,0.068742245,-0.14950618,9.753102,0
8,990.1222534179688,-5.266789230518043E-6,9.074325789697468E-4,3.641069633886218E-5,1.741981029510498,15.62867546081543,-15.604684829711914,0.0023751258850097656,0.0034337639808654785,0.062470436096191406,0.07109916,-0.16618833,9.757834,0
8,990.1312866210938,-2.7094659162685275E-4,-4.2424999992363155E-4,-9.64747741818428E-5,2.236750841140747,15.881698608398438,-16.38858985900879,0.007015526294708252,-0.010571837425231934,0.03407573699951172,0.06150657,-0.1542711,9.781503,0
9,990.1229248046875,9.277926874347031E-4,2.4148807278834283E-4,-2.2949656704440713E-4,1.8869047164916992,16.44939422607422,-15.982980728149414,0.030928969383239746,0.003673255443572998,0.03881359100341797,0.066253364,-0.16618666,9.7815,0
9,990.079833984375,2.6232103118672967E-4,-2.4879373086150736E-5,4.364294873084873E-4,2.14223575592041,16.056106567382812,-15.614389419555664,0.002323657274246216,-0.0058961957693099976,0.029344558715820312,0.06861031,-0.15426949,9.77913,0
9,990.079833984375,-4.031508578918874E-4,5.077007808722556E-4,-6.286979769356549E-4,2.155796527862549,15.963447570800781,-15.611059188842773,0.02088925987482071,-9.711682796478271E-4,0.06249523162841797,0.06618741,-0.15188536,9.757822,0
9,990.1172485351562,2.6295677525922656E-4,7.739650318399072E-4,3.035440167877823E-4,1.8135590553283691,16.538509368896484,-15.59196662902832,-0.0029271170496940613,0.008612051606178284,0.04356098175048828,0.070934266,-0.17095086,9.762553,0
9,990.1422119140625,1.3011677947361022E-4,3.744396090041846E-4,7.031540735624731E-4,1.7713568210601807,16.81501579284668,-15.524660110473633,-0.008012987673282623,0.018089115619659424,0.04829978942871094,0.07329115,-0.16618344,9.755448,0
9,990.1422119140625,6.630663410760462E-4,5.075459484942257E-4,-9.565736399963498E-5,1.8367938995361328,16.086400985717773,-15.954015731811523,0.006557650864124298,0.003878861665725708,0.04830360412597656,0.06369859,-0.1661826,9.753078,0
9,990.1513061523438,-2.687214291654527E-4,-5.577692063525319E-4,1.7079481040127575E-4,1.99940824508667,16.080825805664062,-16.286684036254883,0.0110134556889534,0.008576631546020508,0.02937030792236328,0.06127566,-0.15664873,9.779115,0
9,990.1513061523438,6.637020851485431E-4,9.06916509848088E-4,3.0408898601308465E-4,1.6935834884643555,17.005632400512695,-15.60081672668457,0.015402212738990784,-0.005577757954597473,0.057784080505371094,0.0612427,-0.15188134,9.760174,0
9,990.1555786132812,-2.6808533584699035E-4,6.405490566976368E-4,3.042252210434526E-4,1.9470953941345215,15.97873306274414,-15.579790115356445,0.010684393346309662,-0.005287438631057739,0.03885364532470703,0.07076931,-0.15664706,9.76964,0
9,990.151611328125,3.9802241371944547E-4,-6.910820375196636E-4,4.37519425759092E-4,2.006880283355713,15.982276916503906,-15.974130630493164,0.006021372973918915,-0.014901295304298401,0.04358959197998047,0.0563969,-0.14949647,9.764902,0
9,990.1173706054688,2.6518217055127025E-4,5.072879139333963E-4,-2.2813404211774468E-4,1.8552188873291016,16.630294799804688,-15.757726669311523,-0.008307389914989471,0.0182504802942276,0.029387474060058594,0.06831342,-0.16856188,9.774367,0
9,990.1173706054688,-5.334477755241096E-4,-1.5855339006520808E-4,3.831804497167468E-5,1.8246181011199951,16.074615478515625,-15.335573196411133,-0.012719660997390747,-0.010599970817565918,0.034117698669433594,0.08500975,-0.1590279,9.771998,0
9,990.0919799804688,-6.662877858616412E-4,-5.580788711085916E-4,3.845436731353402E-5,1.70159912109375,16.538787841796875,-15.189813613891602,-0.007729195058345795,-0.006084993481636047,0.03885173797607422,0.06824744,-0.15664387,9.7625265,0
9,990.1168212890625,-9.3228550394997E-4,-4.249725316185504E-4,4.380643949843943E-4,1.6651859283447266,16.189050674438477,-15.856592178344727,0.006662614643573761,0.007965967059135437,0.05305194854736328,0.06582463,-0.16379288,9.762523,0
9,990.1168212890625,-6.015373510308564E-4,-4.0158015326596797E-4,4.850543336942792E-5,2.042994737625122,15.699878692626953,-15.732221603393555,-0.0029877647757530212,-0.0019035786390304565,0.04358386993408203,0.07296133,-0.16140881,9.767255,0
9,990.1193237304688,-4.680617421399802E-4,3.9731586002744734E-4,-6.171480054035783E-4,1.7177972793579102,16.923282623291016,-16.13861656188965,0.006731048226356506,0.007687702775001526,0.04831981658935547,0.07292831,-0.16140798,9.767252,0
9,990.1193237304688,3.312037151772529E-4,3.972642298322171E-4,-8.437992073595524E-5,2.1037588119506836,16.073184967041016,-16.302316665649414,0.0020921528339385986,0.0025148987770080566,0.04831504821777344,0.06094584,-0.15902388,9.760148,0
9,990.1369018554688,-7.337421993725002E-4,-8.012088946998119E-4,5.815459880977869E-4,1.8171463012695312,16.173168182373047,-15.648126602172852,0.011898763477802277,0.007349058985710144,0.053050994873046875,0.07047242,-0.16617289,9.762511,0
9,990.109130859375,-3.33950127242133E-4,-5.349444691091776E-4,-8.410739246755838E-5,2.2943341732025146,16.146141052246094,-16.105005264282227,0.0020326226949691772,0.011816665530204773,0.05305194854736328,0.06565967,-0.16378883,9.762507,0
9,990.1566162109375,3.315703070256859E-4,-2.2690437617711723E-6,4.48408885858953E-4,2.2003612518310547,15.952262878417969,-15.23234748840332,0.02529256045818329,-0.011774539947509766,0.06719303131103516,0.058838367,-0.14949772,9.760173,0
9,990.1566162109375,3.315703070256859E-4,-2.2690437617711723E-6,4.48408885858953E-4,2.2003612518310547,15.952262878417969,-15.23234748840332,-0.003478027880191803,0.002395540475845337,0.05298900604248047,0.071159124,-0.16380653,9.755472,0
9,990.1566162109375,5.8307959989178926E-5,3.992559795733541E-4,-8.488746243529022E-5,2.12563157081604,16.145822525024414,-15.463109970092773,0.0012484043836593628,-0.007117912173271179,0.038786888122558594,0.06159699,-0.15427327,9.762574,0
9,990.132568359375,-7.482553337467834E-5,-1.333797990810126E-4,-8.487692684866488E-5,1.7795097827911377,16.454092025756836,-15.812734603881836,0.0061257705092430115,0.0120420902967453,0.06719398498535156,0.07115406,-0.17095622,9.74837,0
9,990.132568359375,3.2467261189594865E-4,-9.323313133791089E-4,5.809231079183519E-4,1.9505748748779297,16.7197322845459,-16.008607864379883,0.011273898184299469,0.0122031569480896,0.05299091339111328,0.06637174,-0.15665641,9.762572,0
10,990.1222534179688,3.246969426982105E-4,-9.323355043306947E-4,-8.485608850605786E-5,1.4905343055725098,16.288753509521484,-15.604562759399414,-0.012525558471679688,0.007480695843696594,0.043521881103515625,0.078318715,-0.16618955,9.753104,0
10,990.139404296875,4.578794469125569E-4,1.329242077190429E-4,4.477861220948398E-4,1.617577075958252,16.19729232788086,-16.080690383911133,-0.007603242993354797,-0.0018371343612670898,0.029321670532226562,0.073536396,-0.15665632,9.772042,0
10,990.1156005859375,7.242196588777006E-4,1.3292024959810078E-4,-4.843089554924518E-4,1.7655138969421387,15.808700561523438,-15.541864395141602,0.006188049912452698,0.003052234649658203,0.03879737854003906,0.06636414,-0.15903959,9.767306,0
10,990.132568359375,-7.467908289982006E-5,5.32386067789048E-4,-3.511301183607429E-4,1.9192943572998047,16.42642593383789,-14.985830307006836,-0.008579395711421967,0.01266719400882721,0.029333114624023438,0.068751454,-0.16380605,9.776775,0
10,990.132568359375,-7.467908289982006E-5,5.32386067789048E-4,-3.511301183607429E-4,1.9192943572998047,16.42642593383789,-14.985830307006836,0.005687631666660309,0.012453898787498474,0.02933025360107422,0.06635904,-0.1614227,9.764939,0
10,990.121826171875,-7.463030487997457E-5,-1.3341146404854953E-4,3.1468048109672964E-4,1.8283429145812988,15.815189361572266,-16.090810775756836,0.0056988149881362915,0.002701804041862488,0.03406047821044922,0.071136326,-0.1542728,9.77204,0
10,990.1111450195312,3.2486795680597425E-4,1.3290051720105112E-4,3.1469095847569406E-4,1.9004642963409424,16.356735229492188,-15.979642868041992,7.054060697555542E-4,0.007641240954399109,0.04353523254394531,0.068743885,-0.156656,9.755469,0
10,990.1111450195312,3.2486795680597425E-4,1.3290051720105112E-4,3.1469095847569406E-4,2.05601167678833,15.975509643554688,-15.827341079711914,5.964189767837524E-4,-0.007010012865066528,0.04353046417236328,0.06874138,-0.15188941,9.762571,0
10,990.1064453125,-8.735291776247323E-4,3.99212323827669E-4,1.8154343706555665E-4,2.4588751792907715,15.667835235595703,-15.717447280883789,-0.0044330209493637085,0.002302706241607666,0.04352855682373047,0.061569154,-0.16380575,9.762571,0
10,990.0784301757812,-6.071888492442667E-4,7.986822165548801E-4,1.8155394354835153E-4,2.3600692749023438,16.049659729003906,-16.10948371887207,7.716566324234009E-5,-0.00732874870300293,0.04352855682373047,0.07590598,-0.1614224,9.757836,0
10,990.091064453125,-3.4084863727912307E-4,5.323623772710562E-4,-0.0011500150430947542,2.2685980796813965,16.22701644897461,-15.489892959594727,0.009560547769069672,-0.007370486855506897,0.03879547119140625,0.063953966,-0.1423561,9.779141,0
10,990.091064453125,5.864963895874098E-5,6.65516359731555E-4,4.478907212615013E-4,1.809290885925293,17.166229248046875,-14.935182571411133,-0.00469343364238739,-0.002345561981201172,0.043532371520996094,0.073511064,-0.16380557,9.769671,0
10,990.1239624023438,3.2498996006324887E-4,-1.3343521277420223E-4,-4.842043563257903E-4,1.5877106189727783,17.011798858642578,-15.507875442504883,3.5306066274642944E-4,-0.026172682642936707,0.03406238555908203,0.0735085,-0.14712253,9.769671,0
10,990.1239624023438,-3.407754120416939E-4,-0.0010655447840690613,-8.4720115410164E-5,1.3781685829162598,16.763240814208984,-15.999933242797852,-0.004034511744976044,0.012127801775932312,0.03406238555908203,0.066336274,-0.16618875,9.76257,0
10,990.1060791015625,3.2503873808309436E-4,-3.997590101789683E-4,-3.510254609864205E-4,1.9700853824615479,16.52704620361328,-15.615419387817383,0.010331697762012482,-0.011899605393409729,0.04352760314941406,0.06394386,-0.15427226,9.755468,0
10,990.100830078125,5.874719499843195E-5,-1.3344711624085903E-4,-4.8417298239655793E-4,1.8386139869689941,16.720008850097656,-15.606451034545898,0.019686661660671234,0.0026553571224212646,0.04826927185058594,0.061551392,-0.15903875,9.769671,0
10,990.1082763671875,7.245613378472626E-4,-2.931701601482928E-7,4.4794302084483206E-4,2.0404937267303467,15.328643798828125,-15.479158401489258,0.010210298001766205,0.011690735816955566,0.048259735107421875,0.07349837,-0.16618851,9.764936,0
10,990.1181640625,-0.0010064673842862248,-2.9709917725995183E-7,4.479534982237965E-4,1.749047040939331,16.004329681396484,-16.089662551879883,-0.008736029267311096,-0.012028515338897705,0.052994728088378906,0.08066553,-0.15188882,9.767303,0
10,990.1107788085938,1.919783535413444E-4,-0.0010655646910890937,-8.46678449306637E-5,2.197455406188965,16.05523109436035,-15.776815414428711,0.01045970618724823,0.002299949526786804,0.05299568176269531,0.068713486,-0.15903851,9.762568,0
10,990.108154296875,-6.069448427297175E-4,6.654846947640181E-4,3.148164541926235E-4,1.9495954513549805,16.34996795654297,-15.832849502563477,0.010300710797309875,0.006756246089935303,0.038788795471191406,0.066321075,-0.15903851,9.7649355,0
10,990.1159057617188,-7.428862591041252E-5,2.660068857949227E-4,-8.464689017273486E-5,2.3900957107543945,15.761371612548828,-15.558351516723633,0.015260070562362671,0.0019721239805221558,0.06245231628417969,0.06399232,-0.15665665,9.753106,0
10,990.1260375976562,4.580645472742617E-4,1.3289411435835063E-4,7.141813402995467E-4,2.239520311355591,15.672809600830078,-15.145044326782227,0.00574079155921936,0.001845136284828186,0.038779258728027344,0.06877214,-0.17095634,9.769675,0
10,990.1107788085938,-0.00127328559756279,-9.3232118524611E-4,4.8264366341754794E-5,1.5982270240783691,16.916194915771484,-15.349931716918945,0.005792774260044098,-0.008127465844154358,0.04350566864013672,0.06877214,-0.15665665,9.767308,0
10,990.1107788085938,-0.00127328559756279,-5.328473635017872E-4,-7.506832480430603E-4,1.8877449035644531,16.713241577148438,-15.459657669067383,0.015406578779220581,-0.0038323402404785156,0.038763999938964844,0.049652904,-0.15903994,9.764941,0
10,990.095458984375,-3.4118007170036435E-4,-2.665315114427358E-4,3.1458024750463665E-4,2.027369499206543,16.15935516357422,-15.75670051574707,0.0011738836765289307,0.005509734153747559,0.04822826385498047,0.071162045,-0.16857305,9.760207,0
11,990.1485595703125,-8.73811834026128E-4,1.329423685092479E-4,-3.51209455402568E-4,2.1145734786987305,16.60971450805664,-15.719503402709961,-0.008033305406570435,-0.013423219323158264,0.04822731018066406,0.07594186,-0.14712355,9.74837,0
11,990.1082763671875,5.909255123697221E-4,-6.66005362290889E-4,4.4773818808607757E-4,1.9984288215637207,15.711063385009766,-16.110925674438477,-0.003496520221233368,-0.003451406955718994,0.024565696716308594,0.071162045,-0.15665668,9.776776,0
11,990.13330078125,0.0011235573329031467,3.9925824967212975E-4,-4.843673959840089E-4,2.070114850997925,15.514558792114258,-15.725557327270508,0.001279197633266449,-0.008093178272247314,0.05297374725341797,0.07594186,-0.1518901,9.764941,0
11,990.1250610351562,-3.4711603075265884E-4,-1.3031710113864392E-4,4.121032543480396E-5,2.3981411457061768,16.50678825378418,-16.219083786010742,0.0014683306217193604,-0.0031723231077194214,0.048239707946777344,0.06638223,-0.15189013,9.769675,0
11,990.1250610351562,7.181474938988686E-4,1.3599878002423793E-4,5.738420877605677E-4,2.1317198276519775,16.151710510253906,-15.772333145141602,0.010662272572517395,0.011361151933670044,0.024575233459472656,0.06399232,-0.16380653,9.772042,0
11,990.1343383789062,1.855157461250201E-4,-7.961068768054247E-4,3.075262065976858E-4,2.095062494277954,16.802398681640625,-16.112695693969727,0.015685223042964935,0.006748303771018982,0.07191944122314453,0.06638223,-0.15665665,9.741269,0
11,990.1343383789062,1.855157461250201E-4,-7.961068768054247E-4,3.075262065976858E-4,2.095062494277954,16.802398681640625,-16.112695693969727,-0.0034767836332321167,-0.012220561504364014,0.0293121337890625,0.06877214,-0.14950684,9.772042,0
11,990.1111450195312,-2.139580756193027E-4,-3.96632996853441E-4,3.075262065976858E-4,1.5255627632141113,16.742938995361328,-15.559549331665039,-0.0035410895943641663,-0.012043043971061707,0.048252105712890625,0.071162045,-0.15427339,9.769675,0
11,990.14599609375,5.849895533174276E-4,6.686305277980864E-4,3.075262065976858E-4,1.6114888191223145,16.191402435302734,-15.77147102355957,0.01050141453742981,-0.007190242409706116,0.03405189514160156,0.06877214,-0.15903994,9.764941,0
11,990.1156005859375,-8.080013503786176E-5,2.84079578705132E-6,4.121032543480396E-5,1.6661648750305176,16.558815002441406,-16.032350540161133,0.015157490968704224,0.0020683854818344116,0.04351806640625,0.061602414,-0.15427339,9.767308,0
11,990.1256103515625,4.518316127359867E-4,1.3599872181657702E-4,-9.194761514663696E-5,1.9610912799835205,16.624126434326172,-15.850664138793945,0.024749495089054108,-0.007150277495384216,0.048256874084472656,0.06638223,-0.1518901,9.769675,0
11,990.1256103515625,4.518316127359867E-4,1.3599872181657702E-4,-9.194761514663696E-5,1.9610912799835205,16.624126434326172,-15.850664138793945,-0.004326023161411285,0.0024538785219192505,0.04826068878173828,0.07355195,-0.15427339,9.762574,0
11,990.1083374023438,5.235780554357916E-5,6.686304113827646E-4,-3.582634963095188E-4,2.206885576248169,16.696205139160156,-15.815774917602539,3.987029194831848E-4,-0.021177157759666443,0.04353046417236328,0.06877214,-0.14950684,9.769675,0
11,990.1105346679688,3.186736721545458E-4,4.0231464663520455E-4,1.743682660162449E-4,1.9004642963409424,16.356735229492188,-15.979642868041992,-2.5667250156402588E-5,-0.0019363462924957275,0.048270225524902344,0.07594186,-0.15665668,9.764941,0
11,990.1105346679688,3.186736721545458E-4,4.0231464663520455E-4,1.743682660162449E-4,1.8431806564331055,16.724430084228516,-15.83836555480957,-0.004905641078948975,0.022016018629074097,0.03880500793457031,0.071162045,-0.17572293,9.776776,0
11,990.1406860351562,8.513054344803095E-4,9.349463507533073E-4,-3.582634963095188E-4,1.781031847000122,16.45556640625,-15.890039443969727,-1.2359023094177246E-4,0.0220935195684433,0.04354095458984375,0.061602414,-0.17572293,9.767308,0
11,990.1267700195312,8.513054344803095E-4,6.686304695904255E-4,-6.245793774724007E-4,1.6375231742858887,16.742660522460938,-15.961709976196289,0.004598513245582581,0.008015930652618408,0.024606704711914062,0.061602414,-0.16380653,9.779144,0
11,990.1334838867188,1.855157461250201E-4,2.84079578705132E-6,4.4068414717912674E-4,1.8406791687011719,16.353191375732422,-15.585302352905273,1.6449391841888428E-4,-0.020462289452552795,0.038809776306152344,0.07355195,-0.13997373,9.776776,0
11,990.1334838867188,1.855157461250201E-4,2.84079578705132E-6,4.4068414717912674E-4,1.8406791687011719,16.353191375732422,-15.585302352905273,0.00951344519853592,-0.006030157208442688,0.0624847412109375,0.06877214,-0.15665665,9.753106,0
11,990.1331176757812,5.235780554357916E-5,0.001334420288912952,3.075262065976858E-4,1.9792168140411377,16.535886764526367,-16.079248428344727,-0.014265187084674835,0.003446429967880249,0.038811683654785156,0.07587898,-0.15665513,9.762568,0
11,990.1155395507812,5.849895533174276E-4,-5.297910538502038E-4,4.121032543480396E-5,2.278272867202759,15.867565155029297,-15.85527229309082,0.009890355169773102,0.008113786578178406,0.03882122039794922,0.061472893,-0.16380337,9.760195,0
11,990.1180419921875,-7.972899766173214E-5,-2.636489807628095E-4,4.4114323100075126E-4,1.509638786315918,16.57027816772461,-16.00889778137207,-0.014295116066932678,-0.0015147626399993896,0.048290252685546875,0.075807214,-0.16141996,9.767297,0
11,990.1180419921875,-8.784778183326125E-4,-2.6368116959929466E-4,1.7491256585344672E-4,1.7081232070922852,17.282733917236328,-15.773237228393555,-0.00949569046497345,-0.001607447862625122,0.03882026672363281,0.0614627,-0.15665329,9.764929,0
11,990.1178588867188,5.367655830923468E-5,2.689426764845848E-4,-2.2454035934060812E-4,2.3368351459503174,16.50177001953125,-15.747438430786133,1.2174993753433228E-4,-0.006399586796760559,0.053023338317871094,0.07579708,-0.1423535,9.762561,0
11,990.1178588867188,7.195151410996914E-4,1.357767905574292E-4,-3.57677461579442E-4,1.670593500137329,16.45731544494629,-15.565187454223633,0.005097024142742157,0.0038500428199768066,0.05303382873535156,0.05906272,-0.16380289,9.753092,0
12,990.14208984375,0.0011190377408638597,-5.300208576954901E-4,-8.902882691472769E-4,1.5240402221679688,16.741466522216797,-15.482248306274414,0.009845860302448273,-0.01981547474861145,0.05303764343261719,0.068617225,-0.14711979,9.764927,0
12,990.14208984375,4.532966995611787E-4,2.6891889865510166E-4,-9.131967090070248E-5,1.5401012897491455,17.020038604736328,-15.731973648071289,0.005002535879611969,-3.6710500717163086E-4,0.038840293884277344,0.07578188,-0.16141936,9.760193,0
12,990.1420288085938,7.19661358743906E-4,2.595101250335574E-6,-9.129877435043454E-5,2.3092782497406006,15.94903564453125,-15.479898452758789,-0.009312979876995087,-1.6582012176513672E-4,0.0435791015625,0.061437428,-0.14950284,9.760192,0
12,990.1259155273438,4.533943720161915E-4,-2.6372872525826097E-4,-7.570675807073712E-4,1.3349876403808594,16.669981002807617,-15.756868362426758,1.966133713722229E-4,0.009348079562187195,0.06725120544433594,0.068602085,-0.16141906,9.750723,0
12,990.1435546875,-3.455044934526086E-4,4.0205306140705943E-4,1.7505892901681364E-4,2.0705504417419434,16.252613067626953,-15.999761581420898,-0.014204256236553192,-0.005289927124977112,0.029372215270996094,0.07576668,-0.15426913,9.767292,0
12,990.09521484375,-7.913970330264419E-5,1.3572926400229335E-4,4.19219140894711E-5,2.2626476287841797,16.327041625976562,-15.87974739074707,5.106404423713684E-4,-3.9042532444000244E-4,0.043575286865234375,0.078151524,-0.15665227,9.764925,0
12,990.1224975585938,3.203826490789652E-4,-5.300683551467955E-4,3.0825863359496E-4,1.8994853496551514,15.98697280883789,-15.803888320922852,-0.009017042815685272,0.008872270584106445,0.015164375305175781,0.0733667,-0.1614187,9.774393,0
12,990.0874633789062,-6.11674040555954E-4,-5.300763295963407E-4,3.082796174567193E-4,1.9444868564605713,16.71384048461914,-15.69938850402832,0.005256682634353638,-4.3927133083343506E-4,0.05304431915283203,0.06858182,-0.15665203,9.76019,0
12,990.0874633789062,-4.7846732195466757E-4,2.688634267542511E-4,1.751425734255463E-4,2.065441608428955,16.616485595703125,-15.866296768188477,-0.004317931830883026,-0.019447624683380127,0.03410816192626953,0.06379697,-0.14235225,9.767291,0
12,990.1153564453125,1.8737117352429777E-4,-2.6377628091722727E-4,3.083213814534247E-4,2.312459707260132,16.057899475097656,-16.333585739135742,4.000440239906311E-4,0.009037971496582031,0.04357624053955078,0.06618184,-0.17095152,9.767291,0
12,990.1228637695312,3.205779939889908E-4,8.01479269284755E-4,-3.57447424903512E-4,2.052860975265503,17.078907012939453,-16.045381546020508,-0.004520505666732788,0.004269599914550781,0.03410911560058594,0.073346436,-0.16380152,9.769656,0
12,990.1201782226562,1.8746872956398875E-4,4.019975895062089E-4,-2.2426847135648131E-4,1.7183403968811035,16.55499267578125,-16.040163040161133,-0.004652559757232666,0.013912677764892578,0.02937793731689453,0.07095146,-0.15665159,9.776758,0
12,990.1304321289062,3.207242116332054E-4,-0.0014622292947024107,-2.2422667825594544E-4,2.2174019813537598,16.600601196289062,-15.657835006713867,-0.008855201303958893,-0.005016252398490906,0.038845062255859375,0.07572621,-0.15426818,9.767289,0
12,990.1304321289062,3.207242116332054E-4,-0.0014622292947024107,-2.2422667825594544E-4,2.2174019813537598,16.600601196289062,-15.657835006713867,0.01473747193813324,-0.0049406737089157104,0.038848876953125,0.061381757,-0.15188476,9.760187,0
12,990.110107421875,1.876150636235252E-4,2.5000335881486535E-6,3.0842595151625574E-4,2.1598191261291504,16.336156845092773,-15.941423416137695,-0.009233243763446808,-3.528892993927002E-4,0.04358196258544922,0.068546385,-0.15903446,9.769654,0
12,990.14501953125,-1.5638710465282202E-4,-8.431077731074765E-5,8.415546035394073E-4,2.0053577423095703,15.980804443359375,-15.896829605102539,0.010096631944179535,-2.969205379486084E-4,0.057784080505371094,0.06854135,-0.15665105,9.769654,0
12,990.124267578125,-2.318039332749322E-5,-0.0014158980920910835,3.089437959715724E-4,2.07650089263916,16.152587890625,-15.609903335571289,-0.0038614943623542786,0.0092124342918396,0.03884410858154297,0.0733161,-0.14950106,9.767287,0
12,990.124267578125,-2.318039332749322E-5,-0.0014158980920910835,3.089437959715724E-4,2.07650089263916,16.152587890625,-15.609903335571289,0.005703791975975037,-0.009751483798027039,0.034111976623535156,0.06614131,-0.15426752,9.776755,0
12,990.128662109375,-4.226054297760129E-4,-4.8380045336671174E-4,-3.568250103853643E-4,2.0614185333251953,16.2437744140625,-15.535932540893555,0.001170918345451355,0.004509642720222473,0.053048133850097656,0.06374633,-0.15903398,9.75545,0
12,990.130615234375,3.763908753171563E-4,4.882339999312535E-5,-9.048823267221451E-5,2.202021837234497,16.059650421142578,-16.008729934692383,-0.008355490863323212,-0.0100918710231781,0.024636268615722656,0.070910364,-0.14711744,9.781489,0
12,990.13818359375,-6.888215430080891E-4,-7.50132545363158E-4,1.758495345711708E-4,1.9721503257751465,16.160228729248047,-15.594270706176758,-0.003491021692752838,0.0042641907930374146,0.043575286865234375,0.073295236,-0.15188387,9.760183,0
12,990.1170654296875,-8.218779694288969E-4,-8.435926429228857E-5,-6.230547442100942E-4,1.8603270053863525,16.26642608642578,-15.891191482543945,-0.003422752022743225,0.0037369132041931152,0.029364585876464844,0.068510294,-0.15665033,9.764917,0
12,990.1170654296875,-6.88670901581645E-4,9.808961767703295E-4,4.275611718185246E-5,1.715296745300293,16.552045822143555,-15.885553359985352,-0.0036549419164657593,-0.0011442601680755615,0.03409862518310547,0.06850523,-0.16618326,9.767283,0
12,990.1170654296875,-6.88670901581645E-4,9.808961767703295E-4,4.275611718185246E-5,1.715296745300293,16.552045822143555,-15.885553359985352,0.005910120904445648,-0.029585152864456177,0.053038597106933594,0.05894053,-0.14235035,9.762549,0
13,990.1170654296875,5.097995745018125E-4,-2.1753317560069263E-4,-4.89854603074491E-4,1.8005423545837402,16.262880325317383,-15.496850967407227,-0.008421823382377625,-0.005643337965011597,0.034104347229003906,0.07088494,-0.15188336,9.762548,0
13,990.1170654296875,5.097995745018125E-4,-2.1753317560069263E-4,-4.89854603074491E-4,2.140713691711426,16.05463409423828,-15.537084579467773,0.005207754671573639,0.013449683785438538,0.01043701171875,0.06610006,-0.17094949,9.783854,0
13,990.0996704101562,1.1042365076718852E-4,9.808724280446768E-4,-6.229705759324133E-4,1.6470608711242676,16.27729034423828,-15.628011703491211,2.468898892402649E-4,0.013342797756195068,0.034110069274902344,0.07326466,-0.16141626,9.7649145,0
13,990.1094970703125,-5.553170340135694E-4,5.813906318508089E-4,5.754719022661448E-4,1.72733473777771,16.45791244506836,-15.80491828918457,5.13419508934021E-5,0.018341168761253357,0.034114837646484375,0.06847978,-0.16141611,9.774384,0
13,990.1249389648438,6.431535584852099E-4,5.813827156089246E-4,4.286118200980127E-5,1.5748319625854492,16.842086791992188,-16.111833572387695,0.004652157425880432,-0.005562633275985718,0.04831886291503906,0.063694894,-0.1494996,9.755445,0
13,990.09912109375,-1.557451905682683E-4,1.819008612073958E-4,-4.897495382465422E-4,2.1086230278015137,16.709741592407227,-16.10936164855957,0.004716262221336365,0.0037088096141815186,0.05304908752441406,0.06368983,-0.15664932,9.7578125,0
13,990.1171264648438,-4.220119444653392E-4,4.8734953452367336E-5,1.7606111941859126E-4,1.8853821754455566,16.447921752929688,-15.905672073364258,0.009420223534107208,0.00862334668636322,0.03411579132080078,0.06607461,-0.16379902,9.790952,0
13,990.1171264648438,3.769845934584737E-4,3.150429402012378E-4,9.750297176651657E-4,2.113050937652588,16.608245849609375,-15.64219856262207,0.009310513734817505,-0.005480557680130005,0.05305671691894531,0.063679665,-0.15188247,9.757812,0
13,990.1141357421875,2.4387578014284372E-4,1.8187702517025173E-4,4.294520476832986E-5,1.7334225177764893,16.46380615234375,-16.114137649536133,0.004442475736141205,0.008699372410774231,0.024649620056152344,0.06128463,-0.15426561,9.776748,0
13,990.1121826171875,-2.2390981030184776E-5,4.8711088311392814E-5,-2.2334966342896223E-4,1.6808114051818848,15.729576110839844,-15.832117080688477,0.009324103593826294,0.008588731288909912,0.057788848876953125,0.05649975,-0.16379863,9.750709,0
13,990.1121826171875,-5.549736088141799E-4,4.870317206950858E-5,-9.017070988193154E-5,1.7092084884643555,16.546154022216797,-15.576333999633789,-5.496665835380554E-4,-0.015223458409309387,0.024651527404785156,0.06844419,-0.14949882,9.769646,0
13,990.0767822265625,6.434967508539557E-4,1.818531018216163E-4,-3.564655198715627E-4,2.090198516845703,16.165843963623047,-16.30565071105957,-0.009931579232215881,0.013379544019699097,0.053055763244628906,0.07560879,-0.17094824,9.75781,0
13,990.0943603515625,-1.5540188178420067E-4,-3.5078657674603164E-4,-2.2328662453219295E-4,2.0099244117736816,15.985221862792969,-16.12874412536621,0.00921967625617981,-0.010525718331336975,0.029384613037109375,0.068434,-0.16141501,9.78148,0
13,990.1094360351562,-4.216688685119152E-4,4.8679263272788376E-5,-6.227394915185869E-4,1.8518762588500977,15.99521255493164,-16.027990341186523,-0.0056709423661231995,0.01806354522705078,0.06252861022949219,0.07320875,-0.16141489,9.760176,0
13,990.1094360351562,2.441699616611004E-4,0.0017797243781387806,1.762291940394789E-4,2.020439386367798,15.889617919921875,-15.970800399780273,0.008418247103691101,0.0038189738988876343,0.048328399658203125,0.056474328,-0.16379803,9.762542,0
13,990.124267578125,-1.5525473281741142E-4,5.812950548715889E-4,3.0940817669034004E-4,2.2760703563690186,16.128463745117188,-15.177339553833008,-0.010545678436756134,0.0037218183279037476,0.03885650634765625,0.063638926,-0.15664807,9.764909,0
13,990.1146850585938,3.774259239435196E-4,-4.8397641512565315E-4,1.7627121997065842E-4,2.1737849712371826,15.769290924072266,-15.140562057495117,0.0037166625261306763,-0.005473330616950989,0.01992511749267578,0.07080358,-0.16141453,9.772011,0
13,990.11669921875,7.769487565383315E-4,-8.834581822156906E-4,1.7629223293624818E-4,1.991255283355713,16.441753387451172,-15.99860954284668,-5.650594830513E-4,-9.152740240097046E-4,0.04832649230957031,0.073188365,-0.15664777,9.769643,0
13,990.1014404296875,-5.545816384255886E-4,-4.8399236402474344E-4,4.315530532039702E-5,1.9772593975067139,15.79636001586914,-15.727739334106445,0.004219800233840942,-8.684247732162476E-4,0.04359245300292969,0.07079339,-0.15426436,9.767275,0
13,990.1217041015625,-2.8816761914640665E-4,-4.840081965085119E-4,4.426711529958993E-4,1.6665704250335693,16.084606170654297,-15.234819412231445,0.01013152301311493,-0.020100414752960205,0.05309581756591797,0.06339991,-0.14234248,9.757785,0
13,990.1217041015625,-2.8816761914640665E-4,-4.840081965085119E-4,4.426711529958993E-4,1.6665704250335693,16.084606170654297,-15.234819412231445,0.010446764528751373,0.003529176115989685,0.048356056213378906,0.060772985,-0.15663639,9.75303,0
13,990.1141357421875,-5.511707859113812E-4,-7.493377779610455E-4,4.47666592663154E-4,2.161341667175293,16.337627410888672,-16.01872444152832,0.020504333078861237,-0.006222635507583618,0.034150123596191406,0.060750127,-0.1542525,9.769598,0
13,990.1141357421875,-5.511707859113812E-4,-7.493377779610455E-4,4.47666592663154E-4,2.161341667175293,16.337627410888672,-16.01872444152832,0.0058576688170433044,-0.006078183650970459,0.034155845642089844,0.06789705,-0.1518687,9.771963,0
13,990.114013671875,1.1483907292131335E-4,4.957412602379918E-5,-8.487081504426897E-5,1.8476080894470215,16.62293243408203,-15.37120246887207,0.010884404182434082,0.008466586470603943,0.05309772491455078,0.06787419,-0.1661678,9.760125,0
13,990.114013671875,3.813750809058547E-4,-7.494091987609863E-4,5.81013155169785E-4,1.4689586162567139,16.84825897216797,-16.018896102905273,0.005744270980358124,0.003176644444465637,0.053093910217285156,0.06068167,-0.15901741,9.755387,0
14,990.1268920898438,-6.836685352027416E-4,7.152924663387239E-4,4.847574746236205E-5,1.6124675273895264,16.561161041259766,-15.947221755981445,-0.008178681135177612,-0.01590733230113983,0.034155845642089844,0.07499823,-0.15425026,9.760121,0
14,990.1166381835938,-1.7658676370047033E-5,-7.494806195609272E-4,8.475176873616874E-4,2.015331268310547,16.25348663330078,-15.837335586547852,-0.012749165296554565,0.01742611825466156,0.043623924255371094,0.07975522,-0.17093268,9.7672205,0
14,990.101318359375,-1.5059659199323505E-4,-4.8320047790184617E-4,1.818222808651626E-4,1.4414029121398926,16.295522689819336,-15.751352310180664,0.0017673671245574951,-0.006423681974411011,0.0436248779296875,0.07734248,-0.15663248,9.767219,0
14,990.1063232421875,-5.498504033312201E-4,-3.5007833503186703E-4,3.1507457606494427E-4,1.791548728942871,16.35995864868164,-15.732095718383789,0.006693989038467407,0.017131000757217407,0.03888893127441406,0.06776005,-0.17093155,9.764848,0
14,990.12158203125,1.1615933908615261E-4,3.1567568657919765E-4,-4.83778741909191E-4,2.2656922340393066,16.329986572265625,-16.03435707092285,0.001958906650543213,-0.0017244666814804077,0.048361778259277344,0.053397834,-0.15424809,9.757745,0
14,990.12158203125,8.900752873159945E-4,-9.725670679472387E-6,-6.395846139639616E-4,1.9639973640441895,16.521156311035156,-15.30620002746582,-0.007530823349952698,0.0032427608966827393,0.02942943572998047,0.07249418,-0.16616389,9.767211,0
14,990.1117553710938,2.2450549295172095E-4,-9.761395631358027E-6,-1.0685858433134854E-4,1.9274473190307617,16.065500259399414,-15.273904800415039,0.0016753003001213074,0.0030693411827087402,0.034165382385253906,0.06530166,-0.16616336,9.779046,0
14,990.1117553710938,-5.742221255786717E-4,3.8967677392065525E-4,2.6393623556941748E-5,2.161341667175293,16.337627410888672,-16.01873207092285,0.01587381213903427,-0.011253878474235535,0.05310630798339844,0.060499012,-0.14709651,9.760106,0
14,990.1117553710938,-5.742221255786717E-4,3.8967677392065525E-4,2.6393623556941748E-5,1.560835361480713,16.196693420410156,-15.840959548950195,0.0062675997614860535,-0.001704886555671692,0.048374176025390625,0.060476154,-0.15901238,9.760104,0
14,990.1292724609375,-4.4084404362365603E-4,9.222726803272963E-4,-1.0666993330232799E-4,1.8398377895355225,16.089345932006836,-16.10862159729004,0.0012196004390716553,-0.006588265299797058,0.06731510162353516,0.07001299,-0.151862,9.750632,0
14,990.12158203125,4.917014739476144E-4,9.222013177350163E-4,-9.054288966581225E-4,2.094519853591919,17.170692443847656,-16.211145401000977,-0.012741535902023315,0.017332106828689575,0.05311298370361328,0.07954973,-0.16854438,9.767201,0
14,990.126708984375,2.2560596698895097E-4,-4.094138275831938E-4,4.262447473593056E-4,1.5059151649475098,16.82970428466797,-15.253664016723633,-0.0032441169023513794,0.0029949545860290527,0.043646812438964844,0.074747086,-0.15901068,9.7624655,0
14,990.138427734375,-1.7364794621244073E-4,-9.975730790756643E-6,4.26339014666155E-4,1.9623150825500488,15.993461608886719,-16.352842330932617,-0.00338146835565567,-0.016162097454071045,0.043648719787597656,0.065164685,-0.15424356,9.762462,0
14,990.1425170898438,-5.729017429985106E-4,1.2314645573496819E-4,-1.0619839304126799E-4,1.7939107418060303,16.625282287597656,-15.286081314086914,0.010796330869197845,-0.006504654884338379,0.04365348815917969,0.053192317,-0.1613929,9.767195,0
14,990.1094970703125,4.925819230265915E-4,5.22584596183151E-4,-7.718937704339623E-4,2.2685985565185547,16.227014541625977,-15.489892959594727,0.00595836341381073,-0.001850232481956482,0.04365348815917969,0.060339212,-0.15900901,9.760091,0
14,990.1146850585938,-5.724614602513611E-4,3.893909160979092E-4,-1.0600980021990836E-4,1.9112789630889893,16.893268585205078,-15.396829605102539,-0.003538668155670166,-0.006943061947822571,0.034180641174316406,0.06509614,-0.16139176,9.762456,0
14,990.09912109375,-1.727678463794291E-4,-2.7643446810543537E-4,2.7242436772212386E-5,2.0527234077453613,16.97298812866211,-15.346307754516602,0.010455243289470673,-0.006927266716957092,0.02945423126220703,0.060293555,-0.1542413,9.767188,0
14,990.1190185546875,-3.057056455872953E-4,7.887932588346303E-4,-9.047688217833638E-4,1.762500524520874,17.01801300048828,-16.458986282348633,-0.004014521837234497,-0.006801620125770569,0.03892707824707031,0.06744039,-0.16139063,9.767186,0
14,990.1142578125,2.2714637452736497E-4,1.2296783097553998E-4,-9.04674525372684E-4,1.8260326385498047,17.18243408203125,-15.785539627075195,0.0199480801820755,0.0027134865522384644,0.04839611053466797,0.05785799,-0.15900674,9.767184,0
14,990.1192016601562,9.420823334949091E-5,-1.0225790902040899E-5,-6.382643477991223E-4,1.9725866317749023,16.898284912109375,-15.868478775024414,-0.00904756784439087,0.0027457773685455322,0.043666839599609375,0.06975287,-0.15662214,9.755343,0
14,990.1217041015625,3.6081968573853374E-4,6.555159343406558E-4,-1.0550595470704138E-4,1.350069522857666,16.57879638671875,-15.830842971801758,0.0101998969912529,-0.006565943360328674,0.03894519805908203,0.06491655,-0.15423754,9.764808,0
14,990.1217041015625,6.259553483687341E-4,-2.743133809417486E-4,3.239704528823495E-5,1.7463023662567139,16.63351821899414,-15.51017951965332,-0.004083655774593353,0.012331530451774597,0.038944244384765625,0.07206085,-0.16615328,9.774274,0
14,990.1116943359375,-5.72221411857754E-4,1.2512072862591594E-4,-3.6697194445878267E-4,1.7818734645843506,16.719411849975586,-15.366716384887695,0.010238483548164368,0.007849156856536865,0.04841804504394531,0.067255676,-0.15900278,9.762435,0
14,990.1115112304688,3.6012884811498225E-4,-8.07696778792888E-6,1.657647080719471E-4,1.909458875656128,16.25965690612793,-15.74439811706543,0.010637804865837097,-0.0063276588916778564,0.053154945373535156,0.06006062,-0.15185234,9.7648,0
15,990.1115112304688,2.2721537970937788E-4,-8.070642361417413E-4,3.271151217631996E-5,2.180446147918701,16.619152069091797,-16.423067092895508,-0.0030410736799240112,-0.006575196981430054,0.04368114471435547,0.064815074,-0.14708516,9.764797,0
15,990.1115112304688,-4.38329967437312E-4,-0.0010734198149293661,-2.334995660930872E-4,1.601271152496338,16.919139862060547,-15.504545211791992,-0.012881934642791748,0.0077286213636398315,0.0436859130859375,0.074349284,-0.16376749,9.757693,0
15,990.1185913085938,2.27704324061051E-4,-8.196031558327377E-6,-4.997106734663248E-4,1.8059492111206055,16.531147003173828,-15.205442428588867,0.001905784010887146,-0.0017211288213729858,0.0436859130859375,0.071933985,-0.15900028,9.767159,0
15,990.0958862304688,-3.046827332582325E-4,-0.001073499210178852,-8.990796050056815E-4,1.632819652557373,16.63232421875,-15.030717849731445,0.007068149745464325,-0.006298467516899109,0.04368877410888672,0.057569265,-0.14708328,9.750587,0
15,990.0958862304688,6.27667352091521E-4,-5.409071454778314E-4,-8.989750640466809E-4,2.376535415649414,15.85403060913086,-15.561685562133789,-0.006964154541492462,-0.001677677035331726,0.06262493133544922,0.07188329,-0.16138238,9.755321,0
15,990.1236572265625,-5.705098737962544E-4,-4.077889025211334E-4,3.323549753986299E-5,2.1217470169067383,15.8790283203125,-15.831819534301758,-0.016726277768611908,0.007822602987289429,0.04842376708984375,0.076637685,-0.15899846,9.755317,0
15,990.09814453125,6.281562964431942E-4,5.242769839242101E-4,5.659720627591014E-4,1.9646780490875244,16.25878143310547,-15.906824111938477,-0.0025668740272521973,-0.011319756507873535,0.053160667419433594,0.06705272,-0.15661451,9.752948,0
15,990.1210327148438,4.954874166287482E-4,6.57355529256165E-4,4.3302372796460986E-4,2.072615623474121,15.885795593261719,-15.978616714477539,-0.0029542893171310425,0.012515157461166382,0.05316734313964844,0.071807206,-0.18521324,9.75768,0
15,990.1210327148438,4.954874166287482E-4,6.57355529256165E-4,4.3302372796460986E-4,2.072615623474121,15.885795593261719,-15.978616714477539,0.0018899217247962952,-0.016100779175758362,0.05790233612060547,0.071781814,-0.15899661,9.767146,0
15,990.100830078125,8.954502991400659E-4,-0.001073777093552053,1.669174525886774E-4,1.8225531578063965,16.44143295288086,-15.356721878051758,0.0021000728011131287,-0.006122410297393799,0.034239768981933594,0.06697661,-0.15899596,9.76241,0
15,990.100830078125,8.954502991400659E-4,-0.001073777093552053,1.669174525886774E-4,1.8225531578063965,16.44143295288086,-15.356721878051758,-0.007531501352787018,-0.0013616979122161865,0.02477264404296875,0.06217143,-0.16614512,9.774243,0
15,990.106201171875,4.962211824022233E-4,-1.417112653143704E-4,4.333381657488644E-4,1.5864334106445312,16.00990104675293,-15.756990432739258,0.00215187668800354,-0.0017966926097869873,0.029501914978027344,0.064535975,-0.15422812,9.764771,0
15,990.1506958007812,-9.680272196419537E-4,1.2452533701434731E-4,4.33547655120492E-4,1.889948844909668,16.452341079711914,-16.137590408325195,0.0020831674337387085,-0.0022605955600738525,0.05317115783691406,0.062120736,-0.15422755,9.762403,0
15,990.10693359375,-5.683088093064725E-4,7.90275284089148E-4,3.004946338478476E-4,2.053403377532959,16.710617065429688,-15.946939468383789,-0.0031432807445526123,-0.007020190358161926,0.03423881530761719,0.06926501,-0.1542269,9.767135,0
15,990.10693359375,-3.0174836865626276E-4,1.2444582534953952E-4,3.428355557844043E-5,2.1578609943389893,15.596630096435547,-15.589914321899414,-0.002946719527244568,0.002187758684158325,0.0579071044921875,0.069239676,-0.16614267,9.750562,0
15,990.1447143554688,9.79699325398542E-5,-0.0010740152793005109,-3.650854341685772E-4,2.266777992248535,15.593406677246094,-15.837457656860352,-0.002726636826992035,-0.007203549146652222,0.07684803009033203,0.0739941,-0.1494591,9.752927,0
15,990.1214599609375,4.976881318725646E-4,0.0013227879535406828,1.6765098553150892E-4,2.0991926193237305,16.06876564025879,-16.070398330688477,0.006441868841648102,0.002230927348136902,0.03897571563720703,0.06918895,-0.16375819,9.769496,0
15,990.1214599609375,4.976881318725646E-4,0.0013227879535406828,1.6765098553150892E-4,2.1333799362182617,16.25910186767578,-16.548715591430664,-0.007960788905620575,0.016751199960708618,0.03424835205078125,0.06916353,-0.16375753,9.774227,0
15,990.1214599609375,4.976881318725646E-4,0.0013227879535406828,1.6765098553150892E-4,2.1333799362182617,16.25910186767578,-16.548715591430664,0.011104606091976166,0.01690685749053955,0.048455238342285156,0.06674826,-0.16852343,9.764756,0
15,990.1331176757812,9.845899330684915E-5,5.238005542196333E-4,-2.3171794600784779E-4,1.8195090293884277,16.438488006591797,-15.202112197875977,0.0014599263668060303,0.002680346369743347,0.029521942138671875,0.061943114,-0.16375628,9.774222,0
15,990.1376342773438,2.3347654496319592E-4,-7.551340240752324E-5,-5.023826379328966E-4,1.7613840103149414,16.54233169555664,-15.58415412902832,-0.014061801135540009,0.01221756637096405,0.053092002868652344,0.07262772,-0.1685504,9.755387,0
15,990.1094970703125,2.2849036031402647E-4,5.910857580602169E-4,2.9442826053127646E-4,1.7544546127319336,16.272594451904297,-15.798254013061523,-0.009913712739944458,-0.016548365354537964,0.04835700988769531,0.0678682,-0.14471808,9.753023,0
15,990.1115112304688,-8.423336548730731E-4,0.0017904099076986313,9.578348253853619E-4,1.854675531387329,16.99858856201172,-15.856180191040039,-6.998404860496521E-4,-0.0027635395526885986,0.03887939453125,0.070278406,-0.15901837,9.767228,0
15,990.1314697265625,-7.093714084476233E-4,5.938845424680039E-5,-3.738283412531018E-4,1.8542389869689941,16.26053237915039,-15.581972122192383,0.004392258822917938,0.01175716519355774,0.05308341979980469,0.06790882,-0.16140214,9.764863,0
15,990.1314697265625,2.2253862698562443E-4,-2.0689572556875646E-4,2.556154504418373E-5,1.869321346282959,16.16934585571289,-15.655946731567383,-0.0012072548270225525,-0.012145578861236572,0.024679183959960938,0.07031903,-0.15425274,9.783801,0
16,990.1159057617188,-3.102887130808085E-4,0.0020568210165947676,-1.0768021456897259E-4,1.9084796905517578,15.889892578125,-15.568643569946289,-0.015423648059368134,0.0070847272872924805,0.0530853271484375,0.0727292,-0.16616964,9.757765,0
16,990.11572265625,8.879370288923383E-4,-7.394639542326331E-4,4.248677287250757E-4,1.7158393859863281,16.183757781982422,-15.787103652954102,0.008873149752616882,0.0021635591983795166,0.038875579833984375,0.063189894,-0.16140354,9.77197,0
16,990.0880737304688,-5.769958952441812E-4,-7.394322892650962E-4,4.2478388058952987E-4,2.0982136726379395,15.69900131225586,-15.894647598266602,-0.010156668722629547,0.0070920586585998535,0.05781364440917969,0.079939425,-0.16617069,9.755401,0
16,990.128662109375,3.5491414018906653E-4,-6.062425673007965E-4,6.910159718245268E-4,1.8652982711791992,15.796638488769531,-15.325578689575195,0.01402333378791809,0.002331569790840149,0.03887176513671875,0.063230455,-0.15663806,9.764873,0
16,990.1210327148438,8.840244117891416E-5,-7.393687264993787E-4,-6.406473694369197E-4,1.832228183746338,16.081981658935547,-15.722101211547852,0.009508341550827026,-0.007023841142654419,0.0672769546508789,0.06564066,-0.14710543,9.745936,0
16,990.1360473632812,2.2136481129564345E-4,-7.393370033241808E-4,-1.0809930972754955E-4,1.6926045417785645,16.635868072509766,-15.425058364868164,-0.004529669880867004,0.007174253463745117,0.02939605712890625,0.06566095,-0.16378883,9.776711,0
16,990.1360473632812,8.801128569757566E-5,-2.0667343051172793E-4,2.4974753614515066E-5,1.811739444732666,15.904901504516602,-15.939535140991211,0.005149967968463898,0.011875271797180176,0.0435943603515625,0.07285094,-0.1637893,9.776713,0
16,990.1182250976562,8.781570795690641E-5,-4.7295758849941194E-4,2.9120678664185107E-4,1.6848340034484863,16.102283477783203,-16.1624813079834,0.004822090268135071,-0.0021641403436660767,0.048333168029785156,0.075261116,-0.15425679,9.771981,0
16,990.09814453125,8.762001380091533E-5,9.918116265907884E-4,-2.4150876561179757E-4,1.9284262657165527,16.435264587402344,-15.449655532836914,2.0509958267211914E-4,-0.006902635097503662,0.03886127471923828,0.06572187,-0.15187398,9.764882,0
16,990.1030883789062,-4.5733504521194845E-5,-0.0010055258171632886,4.241970309522003E-4,1.772878646850586,16.816492080688477,-15.601964950561523,4.281848669052124E-5,0.00741143524646759,0.057799339294433594,0.065742135,-0.16140756,9.750679,0
16,990.1387939453125,-0.0011113883228972554,5.9243303257972E-4,-1.0860239854082465E-4,2.154412269592285,16.067890167236328,-16.23282814025879,0.014127254486083984,0.02113109827041626,0.04831981658935547,0.06815231,-0.17332447,9.769619,0
16,990.1387939453125,-0.0011113883228972554,5.9243303257972E-4,-1.0860239854082465E-4,2.154412269592285,16.067890167236328,-16.23282814025879,-0.005029149353504181,-0.007670477032661438,0.029379844665527344,0.07056254,-0.1542587,9.774354,0
16,990.1219482421875,-0.0011115839006379247,3.2614890369586647E-4,2.907875750679523E-4,1.6736373901367188,16.460262298583984,-15.719797134399414,-0.010463632643222809,-0.008205533027648926,0.03884124755859375,0.07058281,-0.15664256,9.764888,0
16,990.1219482421875,-0.001111779478378594,9.919704170897603E-4,2.907037269324064E-4,1.952096700668335,16.721206665039062,-16.085908889770508,0.008689925074577332,0.006012573838233948,0.053040504455566406,0.068213224,-0.16140959,9.753054,0
16,990.1312866210938,-1.7986955936066806E-4,1.9305446767248213E-4,-2.4201185442507267E-4,1.378711223602295,16.394948959350586,-15.90147590637207,0.008706294000148773,0.0011238902807235718,0.04356861114501953,0.061063826,-0.15426022,9.762525,0
16,990.1312866210938,8.625073678558692E-5,-7.322968303924426E-5,1.5737811918370426E-4,1.7332849502563477,16.357887268066406,-15.415060043334961,-0.01986309140920639,0.015341177582740784,0.043564796447753906,0.07542351,-0.16617712,9.7577915,0
16,990.1132202148438,-4.710278153652325E-5,1.9311800133436918E-4,-5.084953736513853E-4,2.0934033393859863,16.695011138916016,-15.336309432983398,-0.011013448238372803,0.0014496147632598877,0.03883934020996094,0.07783371,-0.16856086,9.771997,0
16,990.1130981445312,3.521754697430879E-4,0.0013915712479501963,4.2352633317932487E-4,2.010222911834717,16.617359161376953,-15.70387077331543,-0.005910351872444153,-0.0035326331853866577,0.04356575012207031,0.07785404,-0.15664506,9.7791,0
16,990.1130981445312,-4.749405343318358E-5,-6.057661375962198E-4,2.3968634195625782E-5,1.9997060298919678,16.71296501159668,-15.861814498901367,-0.005947962403297424,0.005600035190582275,0.05302619934082031,0.07070461,-0.1685619,9.755431,0
16,990.1109008789062,-0.001246111118234694,6.005531031405553E-5,4.233586660120636E-4,2.118596076965332,16.982425689697266,-16.04987144470215,0.00350334495306015,6.69628381729126E-4,0.05775737762451172,0.05630666,-0.15426078,9.757792,0
16,990.108154296875,-5.805169930681586E-4,1.9324501045048237E-4,0.0010890645207837224,2.408658027648926,16.411182403564453,-16.061140060424805,0.008854947984218597,0.010081678628921509,0.02462291717529297,0.058633268,-0.17570874,9.767255,0
16,990.108154296875,8.75850601005368E-5,-0.0016724896850064397,-3.77581047359854E-4,2.2501730918884277,15.683122634887695,-15.686178207397461,-6.056353449821472E-4,0.010132566094398499,0.048293113708496094,0.06820685,-0.1637927,9.762523,0
16,990.128173828125,8.75042678671889E-5,-7.458135223714635E-5,6.876478437334299E-4,1.806086540222168,16.637065887451172,-15.904520034790039,-0.005407385528087616,5.894899368286133E-4,0.034088134765625,0.068220794,-0.15902647,9.771993,0
16,990.128173828125,8.75042678671889E-5,-7.458135223714635E-5,6.876478437334299E-4,1.806086540222168,16.637065887451172,-15.904520034790039,0.008596792817115784,0.01002897322177887,0.05302619934082031,0.05867517,-0.16141012,9.760158,0
16,990.1324462890625,2.2039306350052357E-4,-0.0015392751665785909,8.206905331462622E-4,2.023782253265381,16.524700164794922,-15.700540542602539,0.009097293019294739,-0.009020417928695679,0.04355335235595703,0.06346887,-0.14711073,9.769628,0
17,990.1324462890625,2.2039306350052357E-4,-0.0015392751665785909,8.206905331462622E-4,2.023782253265381,16.524700164794922,-15.700540542602539,-0.005218252539634705,0.014601871371269226,0.015142440795898438,0.058703035,-0.17094389,9.779098,0
17,990.1167602539062,-4.455308662727475E-4,3.24957916745916E-4,1.5484323375858366E-4,1.7885041236877441,16.357013702392578,-15.577486038208008,0.01354268193244934,-0.009348943829536438,0.04828166961669922,0.06110692,-0.15664455,9.7696295,0
17,990.1167602539062,-4.455308662727475E-4,3.24957916745916E-4,1.5484323375858366E-4,1.723747730255127,16.823257446289062,-15.748758316040039,0.00897035002708435,0.009509250521659851,0.06247901916503906,0.063510776,-0.16856131,9.76253,0
17,990.1106567382812,-5.789578426629305E-4,-4.739461001008749E-4,-1.115878694690764E-4,1.8071727752685547,15.900484085083008,-15.707620620727539,0.008854113519191742,0.009392544627189636,0.043540000915527344,0.058744907,-0.1590285,9.760163,0
17,990.1056518554688,8.669739327160642E-5,3.2502340036444366E-4,4.209862381685525E-4,1.9490528106689453,16.718259811401367,-15.931303024291992,0.013358846306800842,0.005043089389801025,0.05301475524902344,0.056368947,-0.16379544,9.760165,0
17,990.0776977539062,7.523525273427367E-4,-7.442854257533327E-5,1.546127605251968E-4,2.0409297943115234,16.066694259643555,-15.753366470336914,0.013599298894405365,-0.004152178764343262,0.05301666259765625,0.058772802,-0.15664592,9.755433,0
17,990.0776977539062,7.522183004766703E-4,4.5822502579540014E-4,-1.117607462219894E-4,1.9595692157745361,16.622652053833008,-15.77336311340332,-0.0011064931750297546,8.631199598312378E-4,0.04355430603027344,0.061176658,-0.15902957,9.769637,0
17,990.1359252929688,8.742994978092611E-4,-5.264522624202073E-4,-2.7150235837325454E-4,1.7107305526733398,16.547626495361328,-15.653642654418945,-0.0012887939810752869,-0.008304789662361145,0.04355907440185547,0.05641079,-0.15664664,9.764903,0
17,990.1359252929688,4.7469109995290637E-4,6.719910306856036E-4,-5.244131898507476E-6,1.8081517219543457,16.270246505737305,-15.883378982543945,-0.0059815868735313416,-0.012905463576316833,0.053028106689453125,0.06598437,-0.15426368,9.757804,0
17,990.1044921875,4.745568730868399E-4,-1.269348431378603E-4,-1.384597271680832E-4,1.756955623626709,16.643829345703125,-16.05131721496582,0.013350702822208405,0.015853330492973328,0.057763099670410156,0.0612185,-0.17333028,9.755437,0
17,990.1044921875,8.738961187191308E-4,-5.263867788016796E-4,-1.385172945447266E-4,2.0493807792663574,16.337905883789062,-15.616571426391602,-9.666085243225098E-4,-0.01280166208744049,0.02935504913330078,0.061232448,-0.15426436,9.772009,0
17,990.1190795898438,-1.91501880181022E-4,-2.600491279736161E-4,-1.3857497833669186E-4,1.816901683807373,17.173595428466797,-15.321706771850586,0.003802455961704254,-0.007832363247871399,0.05776405334472656,0.06602621,-0.1518814,9.757807,0
17,990.1334228515625,7.467965770047158E-5,-2.6002732920460403E-4,3.9399918750859797E-4,2.193868637084961,16.420574188232422,-15.72065544128418,-7.549524307250977E-4,-0.00822518765926361,0.0246124267578125,0.058870435,-0.1471152,9.774379,0
17,990.1080322265625,-9.907186031341553E-4,-5.263213533908129E-4,-5.532230716198683E-6,2.0780234336853027,16.15406036376953,-15.687211990356445,0.023042812943458557,-0.008136451244354248,0.048285484313964844,0.046934873,-0.15188211,9.767279,0
17,990.1304931640625,3.4072663402184844E-4,2.7264811797067523E-4,-2.7190573746338487E-4,2.1944117546081543,16.052284240722656,-15.622209548950195,0.00873856246471405,0.0062162429094314575,0.04355049133300781,0.063678145,-0.16141558,9.764913,0
17,990.0950317382812,2.0743410277646035E-4,-1.2680391955655068E-4,-1.3880542246624827E-4,1.9040520191192627,15.991392135620117,-16.03580665588379,-0.005352720618247986,0.006318032741546631,0.03881359100341797,0.0756416,-0.1637992,9.769649,0
17,990.1480712890625,2.0729964307975024E-4,-9.25729691516608E-4,-1.388630480505526E-4,1.4980063438415527,16.190202713012695,-15.292009353637695,-0.0049565136432647705,-0.0034111440181732178,0.04354095458984375,0.06609595,-0.16379952,9.7696495,0
17,990.1480712890625,-3.254663315601647E-4,-0.0013251816853880882,-1.3892067363485694E-4,1.9821233749389648,16.43291473388672,-15.534780502319336,-0.00457175076007843,-0.012631788849830627,0.02933979034423828,0.07327962,-0.1471169,9.7767515,0
17,990.11279296875,3.401886788196862E-4,-1.2673839228227735E-4,-8.047680021263659E-4,1.7252697944641113,16.824729919433594,-15.826066970825195,1.2858211994171143E-4,-0.00309675931930542,0.053009986877441406,0.075683475,-0.16380024,9.760183,0
17,990.11279296875,6.063701002858579E-4,-1.2671660806518048E-4,-5.877984222024679E-6,1.792090892791748,15.991668701171875,-15.633646011352539,-0.007995568215847015,-0.012608602643013,0.05311107635498047,0.069778204,-0.15900609,9.767182,0
17,990.1025390625,-3.217929624952376E-4,-0.001059462083503604,2.621275489218533E-4,1.7666308879852295,16.284378051757812,-16.416696548461914,0.006771758198738098,-0.0029926598072052,0.05784893035888672,0.060186952,-0.156622,9.769546,0
17,990.0850219726562,2.1682139777112752E-4,-0.0010594388004392385,-5.317771574482322E-4,2.074680805206299,15.518978118896484,-15.95747184753418,0.0022662505507469177,-0.007858872413635254,0.048378944396972656,0.07449469,-0.15423796,9.75534,0
17,990.1049194335938,-1.8234695016872138E-4,-3.936985449399799E-4,9.852810762822628E-7,1.9425292015075684,15.974315643310547,-15.347871780395508,0.002019323408603668,-0.002912193536758423,0.048386573791503906,0.057733744,-0.15185389,9.764806,0
17,990.097412109375,-3.151996643282473E-4,4.0519959293305874E-4,2.6743204216472805E-4,1.739372968673706,16.363780975341797,-15.724283218383789,-0.0025016963481903076,0.011526599526405334,0.04838848114013672,0.07204148,-0.15900296,9.764804,0
18,990.097412109375,0.0010166845750063658,-6.601135246455669E-4,2.675627183634788E-4,1.6506471633911133,15.911949157714844,-15.684171676635742,-0.007226094603538513,-0.007560610771179199,0.029455184936523438,0.069619924,-0.15423563,9.767167,0
18,990.1229248046875,8.488395542372018E-5,4.051004652865231E-4,1.3776880223304033E-6,1.7858965396881104,17.092121124267578,-15.697084426879883,-0.012326575815677643,-0.007394805550575256,0.04366588592529297,0.08392766,-0.15423486,9.755328,0
18,990.1229248046875,2.1834690414834768E-4,5.382088129408658E-4,-2.6480737142264843E-4,1.8572838306427002,16.263477325439453,-15.736581802368164,-0.012101210653781891,-0.011983424425125122,0.043670654296875,0.08389601,-0.14708424,9.771895,0
18,990.120361328125,-8.463056874461472E-4,0.0016033733263611794,-2.645457861945033E-4,1.8884260654449463,16.450868606567383,-16.06028175354004,-0.0031313300132751465,0.006951883435249329,0.04367637634277344,0.06474513,-0.1589998,9.7647915,0
18,990.120361328125,-8.463056874461472E-4,0.0016033733263611794,-2.645457861945033E-4,1.8884260654449463,16.450868606567383,-16.06028175354004,0.0017399713397026062,-0.0023465901613235474,0.038947105407714844,0.06232357,-0.15423253,9.762422,0
18,990.1178588867188,0.0015508418437093496,-2.6088731829077005E-4,-1.3125722762197256E-4,1.8989429473876953,16.355262756347656,-15.902338027954102,-0.0029783695936203003,0.016773521900177002,0.05315399169921875,0.06229198,-0.16376483,9.750583,0
18,990.1150512695312,3.527255612425506E-4,5.378982677939348E-6,2.0315637812018394E-6,1.9746508598327637,16.53146743774414,-15.847333908081055,-0.002896450459957123,0.0028151273727416992,0.05316162109375,0.078989565,-0.16138077,9.75058,0
18,990.1014404296875,3.533358103595674E-4,-5.273518618196249E-4,-3.9718073094263673E-4,1.8110580444335938,16.167274475097656,-15.338907241821289,-0.02130734920501709,-0.0019094794988632202,0.034224510192871094,0.08373773,-0.15184689,9.769515,0
18,990.1014404296875,3.533358103595674E-4,-5.273518618196249E-4,-3.9718073094263673E-4,1.8110580444335938,16.167274475097656,-15.338907241821289,-0.0023507699370384216,-0.001942455768585205,0.057898521423339844,0.06458688,-0.15661266,9.769511,0
18,990.115966796875,4.871040000580251E-4,-9.269246947951615E-4,-2.637612633407116E-4,2.0255494117736816,15.525745391845703,-16.104265213012695,-0.0018915832042694092,-0.0017884224653244019,0.05316925048828125,0.06933501,-0.15899518,9.762406,0
18,990.115966796875,4.871040000580251E-4,-9.269246947951615E-4,-2.637612633407116E-4,2.0255494117736816,15.525745391845703,-16.104265213012695,-0.00661122053861618,0.017242416739463806,0.053170204162597656,0.06452352,-0.16376096,9.750567,0
18,990.115966796875,4.871040000580251E-4,-9.269246947951615E-4,-2.637612633407116E-4,1.8708434104919434,16.170818328857422,-15.733251571655273,0.008215412497520447,0.007735326886177063,0.034232139587402344,0.066881776,-0.16137692,9.767136,0
18,990.1182250976562,4.8740924103185534E-4,2.7144717751070857E-4,2.6854686439037323E-6,2.144737482070923,16.42734146118164,-15.867448806762695,-0.0012473836541175842,-0.0062441229820251465,0.0531768798828125,0.06924003,-0.15184298,9.767133,0
18,990.0953369140625,8.824090764392167E-5,-0.0014596557011827826,2.691320260055363E-4,2.1362862586975098,16.156131744384766,-16.004243850708008,0.013236507773399353,-0.011247515678405762,0.05790996551513672,0.06442857,-0.14945897,9.760028,0
18,990.0975952148438,3.5486178239807487E-4,-2.6128371246159077E-4,-3.9652688428759575E-4,1.6375231742858887,16.742660522460938,-15.961709976196289,0.022873707115650177,0.0031461715698242188,0.05791282653808594,0.05244738,-0.15422472,9.760026,0
18,990.08740234375,0.001021261210553348,2.7124903863295913E-4,-3.9626535726711154E-4,1.8733439445495605,16.542057037353516,-15.98631477355957,0.0034197941422462463,-0.011112689971923828,0.04845142364501953,0.059585452,-0.16137382,9.757655,0
18,990.1709594726562,2.2261888079810888E-4,8.038313244469464E-4,5.359710194170475E-4,1.5521399974822998,16.9259090423584,-15.651338577270508,0.00820963829755783,-0.0013305246829986572,0.043723106384277344,0.069113374,-0.15898973,9.762386,0
18,990.1590576171875,6.223981617949903E-4,2.711499691940844E-4,-2.628458896651864E-4,1.6092865467071533,16.452299118041992,-15.093542098999023,-0.0016171112656593323,0.003604710102081299,0.03899669647216797,0.07625145,-0.15898895,9.7647505,0
18,990.1590576171875,-4.3086634832434356E-5,4.784580596606247E-6,3.6007550079375505E-6,2.1040263175964355,15.493061065673828,-14.80571174621582,0.012912362813949585,0.0036294162273406982,0.057936668395996094,0.06427029,-0.15898821,9.764748,0
18,990.1184692382812,6.230081780813634E-4,-5.278967437334359E-4,-5.289001855999231E-4,2.3838701248168945,15.649559020996094,-14.550050735473633,0.017354421317577362,0.003891661763191223,0.038939476013183594,0.05503708,-0.17329589,9.762411,0
18,990.1331787109375,2.2383891337085515E-4,-0.001060578040778637,5.36494015250355E-4,2.822986125946045,15.1654052734375,-14.89732551574707,0.0026489943265914917,-0.009940862655639648,0.05788707733154297,0.06733483,-0.14947161,9.76481,0
18,990.1381225585938,0.001202031155116856,0.001029635895974934,-2.542565925978124E-4,2.908369302749634,14.982154846191406,-15.207696914672852,-0.0024078115820884705,-0.005187556147575378,0.034216880798339844,0.069722235,-0.16377124,9.779013,0
18,990.1025390625,-1.3123628741595894E-4,0.0010299100540578365,1.4449376612901688E-4,2.672441005706787,16.289104461669922,-15.555757522583008,0.0023722872138023376,-0.005387917160987854,0.034214019775390625,0.07449949,-0.15185475,9.774279,0
18,990.1630249023438,-5.306856473907828E-4,-1.6851544205565006E-4,6.77136005833745E-4,2.805816173553467,15.203105926513672,-16.66752815246582,-0.0023078396916389465,-0.00545172393321991,0.03894805908203125,0.062547445,-0.15662125,9.76481,0
18,990.139404296875,-5.306610837578773E-4,-3.0167726799845695E-4,1.4451474999077618E-4,3.04910945892334,14.903947830200195,-16.379579544067383,-0.006977163255214691,-0.0056220293045043945,0.03894329071044922,0.07210451,-0.15662119,9.76481,0
19,990.139404296875,1.3515281898435205E-4,9.779249376151711E-5,-5.212645628489554E-4,2.945194721221924,15.64964485168457,-16.638151168823242,-0.007113061845302582,0.013490334153175354,0.034211158752441406,0.067322195,-0.163771,9.760074,0
19,990.1541748046875,9.341248078271747E-4,-5.68001065403223E-4,-1.2178026372566819E-4,2.98685359954834,15.74142837524414,-16.80390739440918,-0.002173185348510742,-0.010201767086982727,0.043682098388671875,0.07209951,-0.15185454,9.764808,0
19,990.10302734375,-3.974299179390073E-4,4.972584429197013E-4,-1.2176978634670377E-4,2.604915142059326,16.964237213134766,-16.9705753326416,-0.002033248543739319,0.013434454798698425,0.02947521209716797,0.06492722,-0.16615418,9.757707,0
19,990.1150512695312,-6.637213518843055E-4,-0.001233798684552312,-5.212331307120621E-4,2.7750015258789062,16.860111236572266,-16.990686416625977,0.01733361929655075,0.008309751749038696,0.019997596740722656,0.06492472,-0.15900424,9.790848,0
19,990.1124877929688,-7.968550780788064E-4,2.3093458730727434E-4,6.771988118998706E-4,2.7384514808654785,16.404457092285156,-16.958391189575195,0.01201166957616806,0.01743638515472412,0.053137779235839844,0.064922124,-0.17092058,9.757707,0
19,990.0947265625,-3.973565762862563E-4,8.967203320935369E-4,4.1089337901212275E-4,2.244659423828125,16.521198272705078,-16.350244522094727,-0.016743123531341553,-0.006511211395263672,0.02472972869873047,0.06491962,-0.14470446,9.769542,0
19,990.1072387695312,-3.973322454839945E-4,7.635584333911538E-4,1.4458794612437487E-4,1.499528408050537,16.19167709350586,-15.369314193725586,-0.021410807967185974,-0.006330668926239014,0.03420066833496094,0.08881611,-0.16615388,9.771909,0
19,990.1121826171875,5.348222330212593E-4,-5.680288304574788E-4,-3.880229196511209E-4,1.65496826171875,16.916793823242188,-15.589666366577148,0.0026816129684448242,0.007804989814758301,0.04366588592529297,0.05774483,-0.1613873,9.776643,0
19,990.1121826171875,5.348222330212593E-4,-5.680288304574788E-4,-3.880229196511209E-4,1.65496826171875,16.916793823242188,-15.589666366577148,-0.0021616071462631226,0.017578288912773132,0.043671607971191406,0.07447162,-0.16853702,9.757705,0
19,990.1300659179688,-9.298663353547454E-4,4.972267197445035E-4,1.1471973266452551E-5,2.000386953353882,16.450592041015625,-16.46244239807129,-0.0023152753710746765,-0.0065642595291137695,0.03893280029296875,0.067299366,-0.14947078,9.762439,0
19,990.1300659179688,-9.298663353547454E-4,4.972267197445035E-4,1.1471973266452551E-5,2.000386953353882,16.450592041015625,-16.46244239807129,-0.016362696886062622,-0.011379808187484741,0.024725914001464844,0.076856494,-0.15185395,9.771909,0
19,990.1171264648438,-5.30368066392839E-4,-7.011987618170679E-4,8.104300359264016E-4,1.5733098983764648,16.840614318847656,-16.034528732299805,-0.0017427876591682434,-0.0019455552101135254,0.04366111755371094,0.0672943,-0.15900376,9.762439,0
19,990.1568603515625,-2.640278544276953E-4,-5.680447211489081E-4,5.441245739348233E-4,1.66507887840271,17.295394897460938,-16.229249954223633,0.02203557640314102,-0.006757095456123352,0.03892707824707031,0.057732195,-0.14947054,9.767173,0
19,990.117919921875,1.354948471998796E-4,9.77370364125818E-5,-1.216441742144525E-4,1.464829444885254,17.581892013549805,-16.061185836791992,0.002864733338356018,-0.002057015895843506,0.034191131591796875,0.06250945,-0.16138694,9.764806,0
19,990.117919921875,-6.634284509345889E-4,2.3089097521733493E-4,5.441559478640556E-4,1.9267430305480957,15.907571792602539,-16.496301651000977,0.017147667706012726,0.011983469128608704,0.05312538146972656,0.0577271,-0.1661534,9.760071,0
19,990.0899658203125,6.68175402097404E-4,-3.5428834962658584E-5,1.1534662917256355E-5,1.818124771118164,16.542930603027344,-15.823884963989258,0.0169917494058609,0.0026738494634628296,0.03419208526611328,0.057724595,-0.1566202,9.774275,0
19,990.1094360351562,-1.307476923102513E-4,7.635148358531296E-4,-1.2161274207755923E-4,1.5965442657470703,16.38850212097168,-16.396577835083008,0.0024300366640090942,0.007037684321403503,0.05312633514404297,0.064891756,-0.16376999,9.769539,0
19,990.1094360351562,-1.307476923102513E-4,7.635148358531296E-4,-1.2161274207755923E-4,1.9632940292358398,16.363224029541016,-16.528596878051758,0.0073823630809783936,-0.0023388713598251343,0.01998615264892578,0.060109437,-0.14947024,9.762437,0
19,990.0842895507812,2.4590317480033264E-6,2.308751572854817E-4,0.001076829619705677,1.5618150234222412,16.566455841064453,-16.0167179107666,0.012078419327735901,-0.007150515913963318,0.038924217224121094,0.05293715,-0.15662003,9.762437,0
19,990.0842895507812,2.4590317480033264E-6,2.308751572854817E-4,0.001076829619705677,1.9361732006072998,16.54854393005371,-16.53526496887207,0.01734936237335205,0.007262185215950012,0.02952098846435547,0.054990947,-0.16376162,9.781344,0
19,990.1171264648438,2.69590993411839E-4,2.3074269120115787E-4,4.1138968663290143E-4,1.699373722076416,16.37938690185547,-16.33490562438965,0.012532077729701996,0.01651519536972046,0.038987159729003906,0.06419438,-0.1709027,9.774209,0
19,990.0867919921875,-1.262856094399467E-4,9.910912194754928E-5,-1.1440744856372476E-4,1.770653247833252,16.657087326049805,-16.74705696105957,0.007750585675239563,-0.0070819854736328125,0.05793285369873047,0.061775148,-0.154219,9.750535,0
19,990.0867919921875,4.0662812534719706E-4,-5.667264340445399E-4,-1.1428649304434657E-4,1.6581501960754395,17.025653839111328,-16.443349838256836,0.002926252782344818,-0.006886079907417297,0.03426647186279297,0.05457619,-0.15183502,9.771838,0
19,990.0919189453125,2.737527247518301E-4,6.316492217592895E-4,6.847821641713381E-4,1.6415457725524902,17.115367889404297,-16.29207420349121,0.003072112798690796,-0.006895333528518677,0.0721426010131836,0.061716616,-0.15898415,9.755264,0
20,990.0941162109375,-1.2543915363494307E-4,-5.668180529028177E-4,4.1858715121634305E-4,1.8047022819519043,16.74150848388672,-16.52629280090332,0.00312158465385437,0.007570996880531311,0.04374122619628906,0.06168738,-0.16375002,9.762363,0
20,990.1069946289062,8.069482864812016E-4,-3.423204179853201E-5,2.855500497389585E-4,1.4899907112121582,16.657047271728516,-15.703012466430664,-0.0018062740564346313,0.0027854591608047485,0.03901100158691406,0.059268177,-0.17328241,9.762361,0
20,990.0992431640625,-1.2487500498536974E-4,8.978276746347547E-4,6.85144797898829E-4,1.7635867595672607,16.28143310546875,-16.262086868286133,0.02184917777776718,0.0030158162117004395,0.03428363800048828,0.054459095,-0.17089841,9.781296,0
20,990.063720703125,9.40670957788825E-4,-4.337974824011326E-4,5.521079292520881E-4,1.9988651275634766,16.44911766052246,-16.3851375579834,0.006982177495956421,-0.006931707262992859,0.04848670959472656,0.06398946,-0.14944819,9.76709,0
20,990.1068725585938,-0.0018553639529272914,0.0014303678181022406,-5.130348145030439E-4,1.9406018257141113,16.44704818725586,-16.068098068237305,0.011662274599075317,-0.02119673788547516,0.03902435302734375,0.054400563,-0.14468092,9.767087,0
20,990.1068725585938,4.08603111281991E-4,4.982164828106761E-4,2.8603372629731894E-4,1.8719596862792969,16.646499633789062,-16.60807991027832,0.016340598464012146,-0.006903648376464844,0.05322837829589844,0.054371238,-0.1565966,9.757615,0
20,990.1019897460938,2.7572724502533674E-4,-1.6761894221417606E-4,-2.464771387167275E-4,1.8740248680114746,16.279682159423828,-16.586938858032227,-0.012240588665008545,0.012012705206871033,0.0295562744140625,0.07107133,-0.17327884,9.769449,0
