Timestamp,P,Gx,Gy,Gz,Mx,My,Mz,LiAx,LiAy,LiAz,Ax,Ay,Az,earthAx,earthAy,earthAz,Value,Type
0,988.5877075195312,-7.179018575698137E-5,2.0950828911736608E-4,9.246886475011706E-5,-11.210870742797852,16.41581153869629,-37.00947570800781,0.009716980159282684,0.015742257237434387,0.04144287109375,-0.73759115,3.5289247,8.930927,1.416554,3.4973772,8.861182,0
0,988.5877075195312,-7.179018575698137E-5,2.0950828911736608E-4,9.246886475011706E-5,-11.210870742797852,16.41581153869629,-37.00947570800781,-0.04463028907775879,-0.48749780654907227,1.1781702041625977,-0.6061199,4.0389457,8.3391285,0.8737507,0.2797655,9.24012,0
0,988.5135498046875,-0.3792460262775421,0.5615281462669373,0.41335973143577576,-14.656177520751953,-7.349588394165039,-43.94115447998047,-1.2339651584625244,-1.290177822113037,1.1193675994873047,0.029620677,4.3583045,8.133184,1.6881483,-0.100486875,9.071077,0
0,988.581787109375,-0.5917662978172302,0.3380891978740692,0.3658221960067749,-13.677290916442871,-6.853854179382324,-44.96783447265625,-0.2800557613372803,-1.153641939163208,0.13202667236328125,-0.6036767,4.0913763,9.039825,1.1271996,0.13268065,9.875933,0
0,988.571044921875,-0.261934369802475,0.49082139134407043,0.009091999381780624,-13.424674034118652,-5.405691623687744,-45.09149932861328,-0.5088765621185303,-0.6987354755401611,1.7576103210449219,-1.3015014,3.674302,6.7886186,1.1150107,0.6775795,7.718638,0
0,988.555908203125,0.23900558054447174,1.3954964876174927,-0.1439065933227539,-9.126542091369629,-6.912155628204346,-45.66567611694336,-0.13318407535552979,-0.03968548774719238,3.8100333213806152,-1.829643,3.0069838,5.138681,0.7239642,1.0934215,6.0889974,0
0,988.5098876953125,0.1991911083459854,0.9056085348129272,-0.06614245474338531,-8.904143333435059,-6.9141845703125,-46.39268493652344,0.020180106163024902,0.9338889122009277,3.8128790855407715,-1.8128872,1.8701589,5.1505194,-0.21195817,0.6779057,5.727776,0
0,988.4940795898438,-0.30800777673721313,0.07030875235795975,0.1744738221168518,-9.028684616088867,-6.451483726501465,-46.16961669921875,-0.7941396236419678,1.4899002313613892,5.075224876403809,-0.9859544,1.9845557,4.146828,0.47483325,0.3585179,4.6639843,0
0,988.5115966796875,-0.32132381200790405,-0.1695086508989334,0.5397259593009949,-10.228960990905762,-5.363168716430664,-45.66341781616211,-0.30148202180862427,0.704430341720581,3.9285058975219727,-0.8660026,1.8368984,5.590426,-0.03202057,0.089698434,5.9470954,0
0,988.5216674804688,-0.12117212265729904,-1.3907026052474976,0.7336105108261108,-13.821151733398438,-4.459987640380859,-45.08573913574219,-1.0894142389297485,2.184566020965576,3.6386494636535645,0.44836712,1.0337354,5.1808925,-0.17243493,-1.0005317,5.2038918,0
0,988.5467529296875,0.19735875725746155,-1.474185585975647,0.7968824505805969,-15.970558166503906,-3.5755653381347656,-44.49833679199219,0.5886012315750122,2.0238561630249023,4.012022495269775,-0.1563544,0.49749976,6.8426623,-1.3747427,-0.58950967,6.697503,0
0,988.5928344726562,-1.0195708274841309,-1.6018842458724976,0.8191201090812683,-19.42443084716797,-1.0689640045166016,-42.26515197753906,-1.206518530845642,1.2642419338226318,-2.5403709411621094,2.4963603,0.44030297,11.541552,-1.3560019,-2.1320326,11.543343,0
0,988.7066650390625,-1.231690764427185,-2.6531662940979004,1.1783806085586548,-23.26122283935547,2.290679931640625,-40.02288055419922,0.09611105918884277,1.1942917108535767,-1.8957624435424805,1.9250975,0.29254156,11.423183,-1.7732761,-0.7222919,11.428669,0
0,988.8136596679688,-0.9440689086914062,-1.615733027458191,1.2987556457519531,-25.428401947021484,5.528043746948242,-38.030731201171875,-0.995593786239624,0.3296966552734375,-2.5266590118408203,3.514306,1.7391933,11.716711,0.122881174,-0.30553424,12.351033,0
0,988.7699584960938,-0.575620174407959,-1.1760456562042236,1.5193986892700195,-26.361799240112305,8.129793167114258,-36.42246627807617,0.08730554580688477,-0.4357052445411682,-3.260578155517578,2.8331075,0.50227374,13.376112,-1.3805695,0.5824454,13.599777,0
0,988.8050537109375,-1.4555270671844482,-0.9727135896682739,0.8319045305252075,-26.739530563354492,10.671833038330078,-33.97252655029297,-0.20467734336853027,0.8014334440231323,-4.546011924743652,3.736414,-0.16504233,13.106244,-0.9620557,0.40725994,13.589344,0
0,988.7235107421875,-1.3195719718933105,-0.9396904706954956,0.7253785133361816,-27.49439239501953,13.440671920776367,-32.24757766723633,-0.3838322162628174,-0.8055623173713684,-3.2441368103027344,4.496327,0.6023752,12.204332,0.07914734,0.8819804,12.990051,0
0,988.6267700195312,-0.2813389003276825,-1.3181254863739014,0.9735851883888245,-27.855817794799805,15.260860443115234,-30.373783111572266,-1.1195592880249023,-1.22610604763031,-2.6003170013427734,5.47133,1.5413888,11.610157,0.9174571,1.4491981,12.812696,0
0,988.50439453125,0.2741967439651489,-1.425584077835083,0.9389644265174866,-28.807668685913086,16.106456756591797,-27.89007568359375,-0.1186366081237793,-1.3040504455566406,-4.8680877685546875,4.8833385,0.2973193,13.600967,-1.5561187,2.0308685,14.225883,0
0,988.5576171875,-0.22261476516723633,-1.5084084272384644,0.4498756527900696,-29.370622634887695,17.21124267578125,-26.097328186035156,-0.1477818489074707,0.22879302501678467,-3.45477294921875,5.4162097,-0.3390141,10.459683,-0.52430797,0.5536988,11.758986,0
0,988.514404296875,-0.009295016527175903,-0.4700428545475006,0.4665206968784332,-29.23040199279785,17.921627044677734,-25.544631958007812,-0.3948936462402344,-0.6411210298538208,1.2073392868041992,5.1986527,0.06376183,7.0556397,0.9829354,-0.18768692,8.706936,0
0,988.3253784179688,0.22932475805282593,0.17617245018482208,0.5643921494483948,-28.01971435546875,17.844045639038086,-26.265541076660156,0.03077840805053711,-0.036817342042922974,1.0548114776611328,5.7649827,-0.42719162,8.873644,0.23143744,-0.011549234,10.587982,0
0,988.3173217773438,0.040108051151037216,-0.7474111318588257,0.4638581871986389,-28.251489639282227,18.837663650512695,-24.748279571533203,-2.063624382019043,-1.430579662322998,-6.564725875854492,6.16641,0.9574951,10.847883,0.6621666,1.8709357,12.35634,0
0,988.3733520507812,-0.46176350116729736,0.30933016538619995,0.6271101236343384,-28.132951736450195,21.213895797729492,-24.982572555541992,-0.18831920623779297,-0.030897796154022217,0.6335101127624512,5.2414412,-1.0754398,8.861794,0.012364149,-0.0727334,10.351582,0
0,988.4520263671875,-0.4606975018978119,0.50853431224823,0.19501295685768127,-27.02631950378418,21.776094436645508,-25.26297950744629,0.2300891876220703,-0.44985127449035645,-0.2848320007324219,3.938869,-1.0396887,8.409651,-0.7385504,0.43609738,9.304958,0
1,988.3831787109375,0.0022934190928936005,-0.16790814697742462,0.30420276522636414,-26.99574851989746,21.1195125579834,-24.613399505615234,1.1051521301269531,0.6287533640861511,0.6522417068481445,5.6571317,-0.91337293,9.205025,-0.13618016,-0.034501553,10.842054,0
1,988.403564453125,0.8968492150306702,-0.7587300539016724,-0.49301350116729736,-27.933279037475586,20.08342933654785,-24.177350997924805,-0.6857218742370605,-1.2213953733444214,0.15988445281982422,5.2842307,0.3449999,8.066393,0.48131013,0.6206219,9.617275,0
1,988.2967529296875,0.6240092515945435,-0.09320677816867828,0.03921906277537346,-27.927486419677734,19.457183837890625,-24.911441802978516,0.060250282287597656,0.002221345901489258,-0.27359962463378906,5.2267966,-0.23651816,8.45224,-0.03783226,0.19842577,9.938557,0
1,988.4105834960938,0.3272009789943695,0.09441264718770981,0.2678515911102295,-27.870309829711914,20.195833206176758,-25.425384521484375,0.14437198638916016,-0.004087090492248535,-0.23073482513427734,4.7869787,-0.19838388,8.608469,-0.21665311,0.3798728,9.842207,0
1,988.4688720703125,0.058222681283950806,0.4779074192047119,0.23616032302379608,-27.10001564025879,19.60051155090332,-26.048133850097656,0.06857919692993164,-0.43246185779571533,-0.025496482849121094,4.789292,-0.11020066,8.572954,0.0016856194,0.35290325,9.814299,0
1,988.4615478515625,0.280863493680954,0.4775077998638153,0.47531232237815857,-26.679136276245117,20.310937881469727,-26.53948211669922,-0.022758007049560547,-0.2247122973203659,-0.021355628967285156,4.703179,-0.17216401,8.625025,0.059479713,0.24282587,9.822327,0
1,988.5296630859375,0.1687452495098114,0.5198518633842468,0.24295203387737274,-25.559782028198242,20.516630172729492,-27.339881896972656,0.1536693572998047,-0.2540856599807739,-0.09529781341552734,4.3948054,-0.15547918,8.769417,-0.04863119,0.30121553,9.805513,0
1,988.582763671875,-0.02406671643257141,0.49974489212036133,-0.10578830540180206,-24.923460006713867,19.74302864074707,-27.700607299804688,0.0615229606628418,-0.26122111082077026,0.01699352264404297,4.2658505,-0.12926556,8.776527,-0.0162642,0.30503178,9.7544,0
1,988.5619506835938,-0.09530548006296158,0.44035640358924866,-0.19540327787399292,-24.709619522094727,20.57613182067871,-28.93707275390625,0.06511878967285156,-0.28514736890792847,0.015829086303710938,3.8692374,-0.12926833,8.980117,-0.034150362,0.32131064,9.77373,0
1,988.5517578125,-0.03898664191365242,1.1297215223312378,-0.0764881819486618,-23.924625396728516,20.78413200378418,-28.60830307006836,0.03258323669433594,-0.25348275899887085,-0.08777236938476562,3.3171082,-0.16024943,9.342294,-0.10239625,0.33203173,9.908915,0
1,988.5238037109375,-0.039120037108659744,1.4333217144012451,-0.08301302790641785,-22.014789581298828,19.93943977355957,-30.2388916015625,0.20721721649169922,-0.2624015808105469,-0.14397335052490234,3.094785,-0.12926526,9.330452,-0.03878331,0.32795465,9.825614,0
1,988.53857421875,-0.08172997087240219,0.5491528511047363,-0.23188334703445435,-21.213895797729492,19.899797439575195,-31.283802032470703,-0.020359516143798828,-0.23661108314990997,0.042072296142578125,2.9871774,-0.13164698,9.294938,-0.0091023445,0.301023,9.759392,0
1,988.5154418945312,-0.08652306348085403,0.3870995044708252,-0.2627756893634796,-20.385881423950195,19.67483139038086,-32.32203674316406,0.13624811172485352,-0.2888641953468323,0.009410858154296875,2.6573086,-0.11019598,9.380153,-0.020754814,0.3329109,9.7442,0
1,988.5256958007812,-0.040316659957170486,0.8488911986351013,-0.12003015726804733,-19.600208282470703,19.62045669555664,-32.593902587890625,-0.03694510459899902,-0.25718724727630615,0.05815696716308594,2.2103348,-0.15786003,9.503241,0.015303493,0.26463532,9.754579,0
1,988.5332641601562,-0.020875003188848495,1.401496410369873,-0.0615735687315464,-16.468433380126953,19.97277069091797,-34.63679504394531,0.6083407402038574,-0.3733120560646057,-0.5278606414794922,1.2160736,-0.12687595,10.106873,-0.34441036,0.55084056,10.159812,0
1,988.5204467773438,-0.13845285773277283,1.3526275157928467,-0.1353428065776825,-15.964668273925781,20.128713607788086,-35.185455322265625,-0.32968366146087646,-0.22167052328586578,0.3912191390991211,1.8899639,-0.19837274,9.633426,0.21153414,0.13919532,9.815807,0
1,988.5204467773438,0.015744633972644806,-0.0744263157248497,-0.17568941414356232,-16.009233474731445,20.139902114868164,-35.56416320800781,0.11928153038024902,-0.31965821981430054,0.19962692260742188,1.615063,-0.13878925,9.593178,0.0034470558,0.2886827,9.724887,0
1,988.5455322265625,0.01934048905968666,0.026507306843996048,-0.14865809679031372,-16.1679630279541,20.412267684936523,-34.8627815246582,0.08686065673828125,-0.26337093114852905,-0.020303726196289062,1.6221707,-0.12210475,9.628679,0.024736524,0.29488224,9.760647,0
1,988.5477905273438,-0.005559444893151522,0.018384575843811035,-0.1491904854774475,-15.955972671508789,19.399499893188477,-35.37508010864258,0.1635913848876953,-0.23988012969493866,-0.07866287231445312,1.5647508,-0.13401963,9.664183,-0.012431264,0.30990797,9.786042,0
1,988.5447998046875,-0.025532536208629608,0.05886448919773102,-0.08114651590585709,-15.872248649597168,19.108861923217773,-34.90906524658203,0.1260610818862915,-0.26319456100463867,-0.03432941436767578,1.5455694,-0.14355125,9.671278,0.0049129725,0.29691273,9.790547,0
1,988.5575561523438,-0.010485089384019375,0.10214072465896606,0.020719576627016068,-15.976461410522461,19.2224178314209,-35.59251403808594,-0.06394350528717041,-0.22560103237628937,0.1301898956298828,1.6721721,-0.14831622,9.363537,0.2172184,0.15560925,9.509079,0
1,988.5400390625,0.029862362891435623,0.2755122482776642,0.07345037907361984,-14.363049507141113,18.731245040893555,-35.50445556640625,0.5547593832015991,-0.2926735281944275,-0.4130229949951172,0.44609034,-0.1554646,9.962433,-0.2952399,0.5559747,9.953741,0
1,988.5294799804688,-0.19264395534992218,1.6824589967727661,-0.16836418211460114,-11.807843208312988,18.648441314697266,-36.50923156738281,0.1677163988351822,-0.439627081155777,1.8376784324645996,0.1496804,-0.19121222,8.468723,0.100446366,0.13554963,8.470525,0
1,988.5289306640625,0.10789410024881363,1.836389422416687,-0.5946024656295776,-10.699006080627441,18.949739456176758,-37.46757507324219,0.08625930547714233,-0.22966904938220978,-0.37842655181884766,0.085090876,-0.1578448,9.941116,0.04228072,0.28028005,9.938693,0
2,988.570068359375,-0.017540067434310913,0.0041360920295119286,-0.010172039270401001,-10.416118621826172,19.109182357788086,-37.36652755737305,0.09086921811103821,-0.26718032360076904,0.06664371490478516,0.08980861,-0.16022654,9.761204,0.039869107,0.26758513,9.759183,0
2,988.5139770507812,0.0011026442516595125,-1.2505977065302432E-4,-0.0017828319687396288,-10.413074493408203,19.112131118774414,-37.521141052246094,0.08613359928131104,-0.25707584619522095,0.03353309631347656,0.09930605,-0.15784173,9.761198,0.049012277,0.26457265,9.759272,0
2,988.5314331054688,1.7113698413595557E-4,-1.2515700655058026E-4,-7.173116900958121E-4,-10.594655990600586,18.94209861755371,-37.48320770263672,0.1004505455493927,-0.24204511940479279,0.014634132385253906,0.08251464,-0.1721399,9.782497,0.03033134,0.26016322,9.780852,0
2,988.5388793945312,4.3805158929899335E-4,-9.242017986252904E-4,2.1505047334358096E-4,-10.670363426208496,18.76589012145996,-37.53821563720703,0.10972575843334198,-0.24625174701213837,0.038341522216796875,0.07767272,-0.16498847,9.765921,0.031677067,0.26710773,9.763919,0
2,988.5744018554688,3.917684080079198E-5,2.7412245981395245E-4,8.810966974124312E-4,-10.812893867492676,19.42275047302246,-37.78563690185547,0.09103241562843323,-0.23588545620441437,0.014704704284667969,0.08956012,-0.17690341,9.782485,0.032782063,0.2514218,9.781209,0
2,988.5541381835938,0.0012381968554109335,-0.0010575541527941823,0.0010145113337785006,-10.190269470214844,18.635892868041992,-37.450618743896484,0.09543277323246002,-0.2534545660018921,0.019519805908203125,0.08949798,-0.15783562,9.775377,0.03975784,0.26692212,9.773335,0
2,988.548583984375,0.0011056375224143267,1.4077016385272145E-4,8.266232907772064E-5,-10.227225303649902,18.654447555541992,-38.215850830078125,0.1002853512763977,-0.24857725203037262,0.024261474609375,0.09421566,-0.16498394,9.7682705,0.04050154,0.2575049,9.766641,0
2,988.5408935546875,4.097312921658158E-5,-1.256429241038859E-4,3.4923478960990906E-4,-10.494573593139648,19.562171936035156,-36.84205627441406,0.10958386957645416,-0.24766339361667633,0.03378009796142578,0.08459395,-0.16736569,9.777734,0.026927967,0.2600192,9.776037,0
2,988.5634765625,9.736773208715022E-4,1.4057569205760956E-4,3.4949142718687654E-4,-10.387178421020508,19.55747413635254,-37.01229476928711,0.08557237684726715,-0.2566956877708435,0.03853034973144531,0.10377586,-0.16260065,9.765903,0.048518416,0.25362876,9.764395,0
2,988.5226440429688,-9.11364913918078E-5,-6.584450020454824E-4,0.0011486319126561284,-10.434244155883789,19.197423934936523,-37.13794708251953,0.0855478048324585,-0.2466668337583542,0.014885902404785156,0.09176922,-0.16021593,9.782469,0.038623717,0.26185608,9.780631,0
2,988.54541015625,-2.2948160767555237E-4,1.3071869034320116E-5,-4.4622167479246855E-5,-10.50440788269043,19.395402908325195,-37.600624084472656,0.08571483194828033,-0.25085335969924927,0.029115676879882812,0.09888178,-0.16021462,9.770628,0.053487673,0.25571227,9.76895,0
2,988.5706787109375,4.3685862328857183E-4,-9.191230637952685E-4,-1.7754413420334458E-4,-10.920724868774414,18.689393997192383,-37.34119415283203,0.10020506381988525,-0.24520047008991241,0.033890724182128906,0.07731557,-0.1554467,9.777724,0.03357002,0.27088636,9.775455,0
2,988.5451049804688,4.374090349301696E-4,-6.528965895995498E-4,4.884814843535423E-4,-10.737621307373047,18.86090087890625,-37.456424713134766,0.10472111403942108,-0.23477117717266083,0.010267257690429688,0.082038224,-0.16497834,9.791922,0.028343607,0.2605101,9.790148,0
2,988.5601806640625,9.705914417281747E-4,2.7911964571103454E-4,4.887174000032246E-4,-10.329350471496582,18.821491241455078,-37.05512619018555,0.09954741597175598,-0.2531856894493103,0.005573272705078125,0.08676094,-0.15306054,9.791918,0.04072277,0.26747072,9.789761,0
2,988.5475463867188,3.9036269299685955E-5,6.785041186958551E-4,-4.3678388465195894E-5,-10.654302597045898,19.04446792602539,-37.787940979003906,0.08526533842086792,-0.24791820347309113,0.024537086486816406,0.0938735,-0.16259225,9.770607,0.03967475,0.2546299,9.769012,0
2,988.5699462890625,5.72768971323967E-4,-0.001185885863378644,8.99513834156096E-5,-9.759306907653809,18.512662887573242,-37.50981903076172,0.10012586414813995,-0.25143516063690186,0.034056663513183594,0.08425683,-0.16497414,9.768234,0.024361124,0.25674385,9.766587,0
2,988.5699462890625,5.72768971323967E-4,-0.001185885863378644,8.99513834156096E-5,-9.759306907653809,18.512662887573242,-37.50981903076172,0.10475458204746246,-0.23689360916614532,0.01513671875,0.09136939,-0.15782298,9.789534,0.031408086,0.2607041,9.787709,0
2,988.5626831054688,-9.247020352631807E-5,-9.196592727676034E-4,-3.0928646447137E-4,-10.419269561767578,20.21257972717285,-37.58457565307617,0.10435888171195984,-0.24099145829677582,0.024646759033203125,0.08175266,-0.15782152,9.78006,0.030085403,0.26319325,9.778088,0
2,988.5570678710938,3.075542626902461E-4,8.113044314086437E-4,6.230550352483988E-4,-10.46220588684082,19.118896484375,-37.667930603027344,0.08988554775714874,-0.24984262883663177,0.015213966369628906,0.09125513,-0.16020338,9.777687,0.04348256,0.25469476,9.776011,0
2,988.5623168945312,4.1788793168962E-5,-3.8720626616850495E-4,4.901330103166401E-4,-10.961404800415039,18.96737289428711,-37.35118865966797,0.08471755683422089,-0.2730830907821655,0.04366016387939453,0.08880812,-0.15305214,9.756377,0.04359888,0.26063585,9.754404,0
2,988.5489501953125,3.0865520238876343E-4,0.0010774416150525212,2.2405310301110148E-4,-10.94091510772705,19.144451141357422,-37.133750915527344,0.09869876503944397,-0.2439831644296646,0.015285491943359375,0.081581324,-0.16258387,9.787146,0.028201297,0.25732002,9.785413,0
2,988.5642700195312,-3.5658408887684345E-4,1.2088858056813478E-5,-3.0834280187264085E-4,-10.453210830688477,19.021818161010742,-37.43268585205078,0.08895429968833923,-0.2241564244031906,0.03899860382080078,0.09586364,-0.1649658,9.758734,0.037915852,0.24644414,9.757415,0
2,988.5439453125,3.097562585026026E-4,1.4515744987875223E-4,-1.7494888743385673E-4,-10.429677963256836,19.201845169067383,-37.36986541748047,0.09848575294017792,-0.2329540103673935,0.04376983642578125,0.083857,-0.15543129,9.756363,0.036094252,0.2592127,9.754451,0
2,988.5537719726562,4.454131703823805E-5,4.112945171073079E-4,-3.076349967159331E-4,-10.666340827941895,19.138601303100586,-37.86858367919922,0.08407361805438995,-0.24187593162059784,0.03433418273925781,0.09574941,-0.16019638,9.772926,0.042643953,0.24954121,9.77143,0
2,988.5537719726562,4.454131703823805E-5,4.112945171073079E-4,-3.076349967159331E-4,-10.679902076721191,19.23126220703125,-37.87191390991211,0.09820634126663208,-0.23166628181934357,0.015433311462402344,0.07896295,-0.16972806,9.789492,0.022879392,0.24958,9.788074,0
3,988.5614624023438,4.5091728679835796E-5,-2.54584476351738E-4,8.910223259590566E-4,-10.642265319824219,18.950334548950195,-37.707305908203125,0.09315052628517151,-0.23120753467082977,0.020198822021484375,0.095635146,-0.16734336,9.775284,0.03984921,0.24206938,9.774107,0
3,988.53857421875,-2.2067362442612648E-4,2.7795787900686264E-4,6.249424768611789E-4,-10.340846061706543,18.547334671020508,-37.037315368652344,0.08819347620010376,-0.2255537360906601,0.04391670227050781,0.09318814,-0.1625755,9.758709,0.038960576,0.245929,9.757332,0
3,988.56396484375,7.119824877008796E-4,-2.5476329028606415E-4,4.920203937217593E-4,-10.70387077331543,18.31318473815918,-37.66053009033203,0.10768131911754608,-0.2202524095773697,0.04393768310546875,0.081181526,-0.17687376,9.763437,0.026237223,0.23879188,9.762422,0
3,988.5408935546875,-2.1957256831228733E-4,-0.0013201161054894328,-4.037533653900027E-5,-10.781643867492676,18.50379753112793,-37.7366828918457,0.10206389427185059,-0.21455998718738556,0.034531593322753906,0.08829412,-0.17448907,9.761065,0.033484094,0.23631078,9.760105,0
3,988.5690307617188,-2.1902215667068958E-4,8.103216532617807E-4,4.92492166813463E-4,-10.776098251342773,18.87797737121582,-38.14435577392578,0.09733390808105469,-0.2237245887517929,0.029813766479492188,0.08106732,-0.17210437,9.763427,0.025985535,0.24167842,9.762254,0
3,988.5582275390625,3.141601337119937E-4,2.7760048396885395E-4,2.2641231771558523E-4,-10.763518333435059,18.415555953979492,-37.96527099609375,0.09201231598854065,-0.22341014444828033,0.02510833740234375,0.090569764,-0.17925279,9.775258,0.033626772,0.23031807,9.774551,0
3,988.5327758789062,-7.505528628826141E-4,4.106690757907927E-4,6.261219969019294E-4,-10.7203369140625,18.508813858032227,-38.20833206176758,0.1062915027141571,-0.22770832479000092,0.020400047302246094,0.08573288,-0.15541865,9.784721,0.040500037,0.25337255,9.782967,0
3,988.5537109375,-4.836864536628127E-4,-1.2205213715787977E-4,2.2688409080728889E-4,-11.185050010681152,19.17976188659668,-37.945030212402344,0.08725239336490631,-0.2131596952676773,0.039353370666503906,0.09284544,-0.16971694,9.761044,0.03975784,0.2361045,9.760025,0
3,988.5404663085938,-6.162938661873341E-4,-5.21615264005959E-4,-1.7235364066436887E-4,-11.172170639038086,19.349477767944336,-37.341068267822266,0.0812535285949707,-0.22666777670383453,0.039363861083984375,0.09324038,-0.1721098,9.763447,0.038077723,0.23304814,9.762553,0
3,988.5557250976562,4.4655753299593925E-5,0.001346746925264597,9.697908535599709E-5,-10.832839965820312,18.877378463745117,-37.904624938964844,0.11916966736316681,-0.226070836186409,0.0204620361328125,0.064522296,-0.16972558,9.775279,0.0139596425,0.24950138,9.773771,0
3,988.5530395507812,1.7609423957765102E-4,1.5446508768945932E-5,9.62422345764935E-5,-10.343070983886719,18.387929916381836,-38.182411193847656,0.0711977481842041,-0.22546203434467316,0.029961585998535156,0.10511136,-0.17687447,9.775276,0.04326649,0.22263893,9.77481,0
3,988.5633544921875,-8.984282612800598E-5,1.5385012375190854E-5,-3.0306930420920253E-4,-10.64835262298584,18.944440841674805,-37.39808654785156,0.10411401093006134,-0.23433412611484528,0.02053356170654297,0.066833615,-0.15542401,9.772905,0.020683352,0.259286,9.770908,0
3,988.5607299804688,4.3693697080016136E-5,8.142711012624204E-4,-1.6974908066913486E-4,-10.47881031036377,19.2086124420166,-37.51665496826172,0.10833777487277985,-0.22410063445568085,0.039511680603027344,0.08830345,-0.16018961,9.772902,0.03378725,0.24409297,9.771507,0
3,988.5633544921875,4.407227970659733E-5,4.1473592864349484E-4,-5.690606194548309E-4,-10.539137840270996,19.5733585357666,-37.22076416015625,0.0988735556602478,-0.23704586923122406,0.034836769104003906,0.07392478,-0.15303881,9.76343,0.02234776,0.25587535,9.76153,0
3,988.557861328125,0.0016423461493104696,-3.8427318213507533E-4,6.295230705291033E-4,-10.234942436218262,19.7534236907959,-38.201988220214844,0.0840626209974289,-0.22680623829364777,0.0064697265625,0.09539461,-0.16733755,9.782363,0.03055306,0.23357818,9.781423,0
3,988.547607421875,-2.2148655261844397E-4,1.4829717110842466E-4,2.3021147353574634E-4,-10.292961120605469,18.750925064086914,-38.21137237548828,0.07935388386249542,-0.2265407294034958,0.020687103271484375,0.08579576,-0.16256998,9.775257,0.03160096,0.2408491,9.773968,0
3,988.5629272460938,-0.0011532134376466274,-5.175539990887046E-4,-7.017318275757134E-4,-10.40644359588623,18.749731063842773,-37.731910705566406,0.11733010411262512,-0.20686058700084686,0.0396575927734375,0.07619685,-0.1744854,9.768154,0.021135379,0.23388714,9.767187,0
3,988.5548706054688,5.782183725386858E-4,2.8133217711001635E-4,7.631677435711026E-4,-10.907707214355469,18.96502113342285,-37.436309814453125,0.09795908629894257,-0.22486157715320587,0.05391216278076172,0.08571717,-0.16971786,9.756313,0.03102436,0.23166978,9.755366,0
3,988.56005859375,7.117548957467079E-4,-2.51361052505672E-4,6.301720859482884E-4,-10.761016845703125,18.78679084777832,-38.218326568603516,0.09786489605903625,-0.22417940199375153,0.02553844451904297,0.07611826,-0.16495039,9.770514,0.023855414,0.24068666,9.769209,0
3,988.5702514648438,-2.1997210569679737E-4,-6.508963415399194E-4,6.303343689069152E-4,-10.92860221862793,19.26215362548828,-38.451271057128906,0.08316141366958618,-0.233101025223732,0.02557373046875,0.071299195,-0.13396679,9.775244,0.035432834,0.26935047,9.772647,0
3,988.56005859375,1.798802986741066E-4,6.806216551922262E-4,-3.5293109249323606E-5,-11.000425338745117,19.352741241455078,-38.13756561279297,0.10620772838592529,-0.20775814354419708,0.05879402160644531,0.09754884,-0.2173806,9.761036,0.01661706,0.18169668,9.7622385,0
3,988.5344848632812,9.792066412046552E-4,8.137180120684206E-4,-4.3460464803501964E-4,-10.746753692626953,18.852062225341797,-36.992591857910156,0.0399850457906723,-0.25580888986587524,0.020895004272460938,0.12379849,-0.16494752,9.796541,0.0655141,0.21600531,9.796111,0
3,988.552490234375,-0.0022162054665386677,-0.0018495020922273397,-1.6812648391351104E-4,-10.713407516479492,18.77855110168457,-37.994232177734375,0.030352026224136353,-0.25092387199401855,0.044577598571777344,0.085520804,-0.15064694,9.76103,0.041565724,0.24553421,9.75939,0
3,988.5698852539062,-0.001283721299842,5.472791963256896E-4,6.309833843261003E-4,-11.261301040649414,19.37184715270996,-38.098487854003906,0.12998129427433014,-0.2360500544309616,0.0067424774169921875,0.040073335,-0.1458794,9.770494,1.311414E-4,0.27233058,9.767872,0
3,988.5626220703125,5.808684509247541E-4,5.472178454510868E-4,0.0012969353701919317,-10.515222549438477,18.858871459960938,-38.183433532714844,0.07226167619228363,-0.19683517515659332,-0.007407188415527344,0.09261191,-0.17686094,9.77996,0.037236337,0.21773535,9.779504,0
4,988.5596313476562,5.598091520369053E-4,5.465861177071929E-4,3.512733383104205E-5,-11.042520523071289,18.522905349731445,-37.697601318359375,0.08147616684436798,-0.2104334682226181,0.021038055419921875,0.075843334,-0.17447673,9.775222,0.018873014,0.22797278,9.774397,0
4,988.5319213867188,-2.3875990882515907E-4,-1.1926500883419067E-4,-6.305000861175358E-4,-10.936211585998535,19.254785537719727,-38.06475067138672,0.08596615493297577,-0.2433214634656906,0.016330718994140625,0.08536366,-0.1625594,9.770485,0.030400984,0.23311405,9.7693815,0
4,988.5491333007812,-5.046970909461379E-4,1.3831508113071322E-5,3.545184154063463E-5,-10.33005428314209,18.66356086730957,-38.27752685546875,0.04785279929637909,-0.23334072530269623,0.01634979248046875,0.10205367,-0.16017516,9.772848,0.045713037,0.2267949,9.771954,0
4,988.5545043945312,-7.706343894824386E-4,-0.001051493571139872,3.5614066291600466E-5,-10.421525955200195,18.840917587280273,-37.657936096191406,0.08132044970989227,-0.23275898396968842,0.021111488342285156,0.087675035,-0.1625575,9.782312,0.030606464,0.23179358,9.781261,0
4,988.5795288085938,-3.707821015268564E-4,-5.18923276104033E-4,-9.738159133121371E-5,-10.559765815734863,19.290363311767578,-36.73912048339844,0.07206656038761139,-0.21758385002613068,0.030612945556640625,0.0971953,-0.16255654,9.7704735,0.041151714,0.22552776,9.769619,0
4,988.5595092773438,4.2854424100369215E-4,-0.001584248268045485,-8.961670682765543E-4,-10.618051528930664,18.86798667907715,-38.24510955810547,0.09534040093421936,-0.22593791782855988,0.04014301300048828,0.089986324,-0.14825593,9.77047,0.039507825,0.24057572,9.768966,0
4,988.5820922851562,-2.364882966503501E-4,6.793139036744833E-4,-3.632106236182153E-4,-10.602127075195312,19.040645599365234,-37.79576110839844,0.07574042677879333,-0.21568937599658966,0.035449981689453125,0.10428643,-0.16493787,9.770466,0.04512296,0.21794625,9.769879,0
4,988.5820922851562,-2.364882966503501E-4,6.793139036744833E-4,-3.632106236182153E-4,-10.949909210205078,19.24152946472168,-37.36900329589844,0.08031421899795532,-0.20041851699352264,0.03549385070800781,0.09498775,-0.16971083,9.775225,0.036563735,0.21725547,9.774677,0
4,988.559326171875,8.291536942124367E-4,-2.528532058931887E-4,3.642530646175146E-5,-10.557018280029297,18.661169052124023,-37.318603515625,0.08938466012477875,-0.19456158578395844,0.03548145294189453,0.09287679,-0.1768675,9.770515,0.029970765,0.21111602,9.770232,0
4,988.5743408203125,6.873729289509356E-4,-7.806464564055204E-4,1.6995263285934925E-4,-10.52807903289795,19.109460830688477,-36.96437072753906,0.08417907357215881,-0.20323507487773895,0.035523414611816406,0.08808178,-0.17448385,9.7657795,0.024287373,0.21472351,9.765346,0
4,988.56396484375,8.206777856685221E-4,6.840670248493552E-4,7.026473176665604E-4,-10.765040397644043,18.41408348083496,-37.887962341308594,0.09355427324771881,-0.2024802714586258,0.026088714599609375,0.0832867,-0.1625671,9.772881,0.03203779,0.22619525,9.771918,0
4,988.5636596679688,1.5503488248214126E-4,-2.4806236615404487E-4,-4.957113415002823E-4,-10.951432228088379,19.24005889892578,-37.29169464111328,0.08870135247707367,-0.21579958498477936,0.04506683349609375,0.080881596,-0.16495003,9.761043,0.025368322,0.22434837,9.760161,0
4,988.5516967773438,4.2149756336584687E-4,-6.475599948316813E-4,-9.617459727451205E-5,-10.678815841674805,18.494680404663086,-37.675010681152344,0.06956961750984192,-0.21506713330745697,0.045096397399902344,0.09042597,-0.16256632,9.772877,0.03606386,0.2212404,9.772078,0
4,988.5764770507812,-2.441454562358558E-4,-9.138997411355376E-4,-9.61116747930646E-5,-10.761154174804688,18.680875778198242,-37.519248962402344,0.10306620597839355,-0.20009879767894745,0.02145099639892578,0.07846123,-0.16971578,9.775243,0.021499228,0.22069784,9.774514,0
4,988.5764770507812,1.5547528164461255E-4,-5.144497263245285E-4,-9.604869410395622E-5,-10.898032188415527,18.605571746826172,-37.80168914794922,0.08833052217960358,-0.21867211163043976,0.01674365997314453,0.08322585,-0.1530324,9.779976,0.035997417,0.23196311,9.778708,0
4,988.5916137695312,-6.433256785385311E-4,2.844740520231426E-4,-2.291437704116106E-4,-10.870615005493164,19.05238914489746,-37.370155334472656,0.07828639447689056,-0.2131568342447281,0.045189857482910156,0.0879904,-0.16971503,9.761037,0.02920745,0.21444872,9.760508,0
4,988.5737915039062,-0.001442126464098692,5.507661262527108E-4,-4.953966708853841E-4,-11.099803924560547,18.890596389770508,-37.55632019042969,0.08259601891040802,-0.19850163161754608,0.02154064178466797,0.087975144,-0.16733141,9.777606,0.033314757,0.2156694,9.776998,0
4,988.5560913085938,5.553895025514066E-4,1.5126849757507443E-4,3.03613836877048E-4,-10.708681106567383,19.309194564819336,-37.102195739746094,0.08219616115093231,-0.22155873477458954,0.04051494598388672,0.08557004,-0.16018124,9.761034,0.028827745,0.22233021,9.760148,0
4,988.5636596679688,1.560624805279076E-4,4.175605718046427E-4,5.699926405213773E-4,-10.435222625732422,18.827661514282227,-36.962188720703125,0.08168230950832367,-0.2062082141637802,0.03583240509033203,0.0831649,-0.16494735,9.770502,0.024339397,0.21858019,9.769772,0
4,988.5662841796875,6.888410425744951E-4,5.506946472451091E-4,3.037397109437734E-4,-10.803899765014648,19.32567024230957,-37.550392150878906,0.09108448028564453,-0.21973393857479095,0.0453338623046875,0.090319335,-0.15541388,9.761031,0.035835516,0.22210014,9.760095,0
4,988.5712890625,-1.0995991760864854E-4,1.8039019778370857E-5,-3.6198715679347515E-4,-10.4913911819458,19.67103385925293,-37.69573974609375,0.07114069163799286,-0.19505618512630463,0.01697540283203125,0.08552432,-0.17447974,9.775233,0.018213445,0.20776375,9.7749405,0
4,988.5584716796875,5.559765850193799E-4,8.169627981260419E-4,3.0386558501049876E-4,-10.243287086486816,18.375869750976562,-37.96612548828125,0.06610485911369324,-0.22710607945919037,0.0028276443481445312,0.0974586,-0.15064655,9.791802,0.04423531,0.22201297,9.79083,0
4,988.5712280273438,4.229655605740845E-4,-1.1516656377352774E-4,-7.613352499902248E-4,-10.397993087768555,19.020944595336914,-37.59510803222656,0.08513212203979492,-0.18840651214122772,0.04546070098876953,0.092663586,-0.16256262,9.761027,0.03191808,0.21210298,9.760464,0
4,988.5662231445312,4.2311224387958646E-4,-3.815063100773841E-4,-6.281142123043537E-4,-10.441717147827148,19.295978546142578,-37.450496673583984,0.07552720606327057,-0.18775732815265656,0.03601837158203125,0.10220796,-0.16017897,9.768127,0.04019423,0.20945445,9.767647,0
5,988.5280151367188,2.3785221856087446E-5,-2.483721764292568E-4,5.703701172024012E-4,-10.503321647644043,18.658823013305664,-37.403724670410156,0.08010995388031006,-0.1964539736509323,0.021851539611816406,0.09263313,-0.15541206,9.7775955,0.041503664,0.21645829,9.776786,0
5,988.5508422851562,2.3932137992233038E-5,1.791986869648099E-5,3.780133556574583E-5,-10.573921203613281,18.118745803833008,-37.592193603515625,0.07486207783222198,-0.1860426813364029,0.012425422668457031,0.09978759,-0.17209457,9.775227,0.03370866,0.19837159,9.77518,0
5,988.5712890625,2.4078821297734976E-5,5.505278240889311E-4,-2.284517977386713E-4,-10.6382417678833,19.32304573059082,-38.03767395019531,0.07917375862598419,-0.1898655742406845,0.021938323974609375,0.07826325,-0.16971095,9.775225,0.015646994,0.20989913,9.774746,0
5,988.566162109375,8.231732645072043E-4,1.5103013720363379E-4,3.792706411331892E-5,-10.746317863464355,19.590116500854492,-37.26679992675781,0.06050346791744232,-0.20795254409313202,0.05037498474121094,0.10453689,-0.16256072,9.763388,0.04315256,0.20187011,9.763119,0
5,988.5789794921875,5.570041830651462E-4,-0.0015800469554960728,3.798998659476638E-5,-10.723081588745117,19.138002395629883,-37.628849029541016,0.060445934534072876,-0.18820936977863312,0.03619956970214844,0.09735197,-0.17209344,9.772855,0.03339648,0.19665465,9.772819,0
5,988.566162109375,-3.749546012841165E-4,-5.14807237777859E-4,-0.0010272107319906354,-10.853873252868652,19.068593978881836,-38.22050857543945,0.08393722772598267,-0.20661939680576324,0.026763916015625,0.09255695,-0.16255994,9.777588,0.032217897,0.20700857,9.777133,0
5,988.5584716796875,-1.0849192040041089E-4,4.172745393589139E-4,3.0443171272054315E-4,-10.852893829345703,19.438356399536133,-38.396263122558594,0.05503934621810913,-0.18666760623455048,0.017332077026367188,0.09971142,-0.1649429,9.782321,0.03802235,0.20054084,9.782088,0
5,988.5733032226562,5.574444658122957E-4,-1.1538102990016341E-4,-2.281371271237731E-4,-10.752565383911133,19.05800437927246,-38.0815315246582,0.08341152966022491,-0.1953764408826828,0.01263427734375,0.09013659,-0.16732581,9.784687,0.030384496,0.20215963,9.784398,0
5,988.5813598632812,1.5811744378879666E-4,1.5091098612174392E-4,-9.491626406088471E-5,-10.88197135925293,18.88414764404297,-38.051414489746094,0.05918118357658386,-0.190133199095726,0.036304473876953125,0.10710588,-0.16733168,9.763404,0.04303596,0.19268554,9.76343,0
5,988.5687866210938,-7.747498457320035E-4,-6.479130242951214E-4,3.042310127057135E-4,-10.880992889404297,19.2539119720459,-38.2271728515625,0.06859926879405975,-0.1986386626958847,0.0552825927734375,0.09037149,-0.16733159,9.758669,0.029167183,0.1996995,9.758435,0
5,988.5733032226562,6.885526818223298E-4,1.5126762446016073E-4,-2.2901571355760098E-4,-10.844878196716309,18.971511840820312,-37.985260009765625,0.0542045533657074,-0.19313649833202362,0.02690410614013672,0.1023159,-0.16971473,9.779974,0.039079204,0.19163224,9.7800255,0
5,988.5636596679688,-1.1034595081582665E-4,-5.1453011110425E-4,-9.583670180290937E-5,-11.086787223815918,19.166227340698242,-37.65143585205078,0.06380240619182587,-0.1829974204301834,0.041129112243652344,0.10709065,-0.16256471,9.758669,0.041045927,0.19522792,9.758571,0
5,988.5813598632812,-1.10297289211303E-4,-0.0011803277302533388,7.031317800283432E-4,-10.468156814575195,19.218923568725586,-38.05779266357422,0.06339752674102783,-0.17315606772899628,0.02694416046142578,0.09991586,-0.16971444,9.777605,0.034757968,0.19216812,9.777639,0
5,988.566162109375,-0.0010423539206385612,5.50717581063509E-4,1.7052103066816926E-4,-10.977029800415039,19.426851272583008,-37.37566375732422,0.07279907166957855,-0.19186286628246307,0.050632476806640625,0.090351164,-0.16018118,9.763402,0.034591615,0.20366591,9.762948,0
5,988.555419921875,-8.982130093500018E-4,-1.3873704301659018E-4,-5.59792562853545E-4,-11.241790771484375,19.179162979125977,-37.70529556274414,0.06307882070541382,-0.1816711276769638,0.04119110107421875,0.10229561,-0.17209749,9.770502,0.03589554,0.18749899,9.770688,0
5,988.56103515625,-3.6553223617374897E-4,-2.71902943495661E-4,-1.602976699359715E-4,-10.997381210327148,19.35568618774414,-38.292179107666016,0.0626266747713089,-0.1812516301870346,0.008073806762695312,0.09990066,-0.16971408,9.784706,0.035226084,0.19073313,9.784766,0
5,988.5406494140625,-6.317503284662962E-4,-4.050767747685313E-4,1.0606006253510714E-4,-10.95876693725586,19.44452667236328,-38.303321838378906,0.06746084988117218,-0.18552766740322113,0.022294044494628906,0.09511578,-0.16256411,9.77997,0.03361554,0.19884762,9.779705,0
5,988.5406494140625,-6.317503284662962E-4,-4.050767747685313E-4,1.0606006253510714E-4,-10.755609512329102,19.0550594329834,-37.926918029785156,0.06193552911281586,-0.18449513614177704,0.012874603271484375,0.09750062,-0.16494729,9.777603,0.034698296,0.19466886,9.777482,0
5,988.5560913085938,1.6724609304219484E-4,3.9386303978972137E-4,1.0608101729303598E-4,-10.716451644897461,18.775604248046875,-37.83961868286133,0.06173272430896759,-0.16522298753261566,0.03182506561279297,0.097495496,-0.17686357,9.768133,0.029869493,0.18307114,9.768458,0
5,988.591064453125,-4.984945990145206E-4,3.938550071325153E-4,-2.7055793907493353E-5,-10.91213607788086,19.06652069091797,-37.903472900390625,0.05654405057430267,-0.18834249675273895,0.04132556915283203,0.09749046,-0.1577972,9.763399,0.039632753,0.1985064,9.7630625,0
5,988.5482788085938,-9.897188283503056E-5,3.9384703268297017E-4,-2.703495556488633E-5,-10.774577140808105,18.87944984436035,-38.221656799316406,0.06131488084793091,-0.20683996379375458,0.036612510681152344,0.10465509,-0.15541376,9.765765,0.04651843,0.19662482,9.765473,0
5,988.5584716796875,-6.315547507256269E-4,-6.71424379106611E-4,6.387757021002471E-4,-10.789658546447754,18.97063636779785,-38.14768981933594,0.06589934229850769,-0.1918727606534958,0.04610919952392578,0.09270054,-0.16018017,9.763398,0.033289474,0.19777507,9.763092,0
5,988.5762939453125,-9.887421038001776E-5,-1.3880054757464677E-4,2.393227186985314E-4,-10.905750274658203,19.70454978942871,-37.787818908691406,0.07982070744037628,-0.18146656453609467,0.027210235595703125,0.08552572,-0.16494663,9.7776,0.022165203,0.19712068,9.777353,0
5,988.5614624023438,1.6749079804867506E-4,5.269811954349279E-4,1.0618584929034114E-4,-10.58813190460205,19.6860408782959,-38.06663513183594,0.07908816635608673,-0.19512854516506195,0.04618263244628906,0.085520625,-0.16017996,9.763397,0.022227306,0.20010994,9.76301,0
5,988.5686645507812,-3.6509218625724316E-4,0.0014590788632631302,-1.6010907711461186E-4,-10.809307098388672,19.057405471801758,-37.841796875,0.05922427773475647,-0.1707179695367813,0.041481971740722656,0.09507513,-0.16017987,9.765764,0.035726346,0.19397283,9.765548,0
6,988.5486450195312,-6.313591729849577E-4,9.264390682801604E-4,2.3938569938763976E-4,-10.86452579498291,19.058279037475586,-37.67937469482422,0.0682850182056427,-0.18922214210033417,0.03204154968261719,0.09746,-0.16971283,9.770498,0.033641156,0.18389782,9.770671,0
6,988.5408325195312,-4.981523379683495E-4,5.269574467092752E-4,1.0624871356412768E-4,-10.376279830932617,18.567358016967773,-37.879852294921875,0.06337566673755646,-0.1889985054731369,0.05099010467529297,0.09028521,-0.15779631,9.765762,0.03162122,0.19764052,9.765405,0
6,988.5432739257812,-0.001030735089443624,-4.051562282256782E-4,-8.258357993327081E-4,-10.867975234985352,19.529541015625,-38.32229232788086,0.07284539937973022,-0.16879983246326447,0.036828041076660156,0.08789024,-0.17209588,9.768129,0.021609448,0.18549918,9.768256,0
6,988.5635375976562,7.003669161349535E-4,-2.7200611657463014E-4,1.0629073949530721E-4,-10.741506576538086,18.594106674194336,-37.825138092041016,0.0534118115901947,-0.17747141420841217,0.027396202087402344,0.107004404,-0.1673292,9.770496,0.043572076,0.1787314,9.770784,0
6,988.5380859375,5.672579864040017E-4,-1.3885615044273436E-4,3.72627517208457E-4,-10.985481262207031,19.155637741088867,-37.51245880126953,0.05774208903312683,-0.1672077625989914,0.027429580688476562,0.099829614,-0.16017927,9.77523,0.040359005,0.18799359,9.775162,0
6,988.555908203125,-9.848293848335743E-5,5.269256653264165E-4,6.389642949216068E-4,-10.627182960510254,18.859148025512695,-37.78127670288086,0.05728371441364288,-0.19527767598628998,0.036925315856933594,0.09743464,-0.15779586,9.763393,0.03807729,0.19041812,9.763224,0
6,988.54833984375,-8.973815711215138E-4,7.932335138320923E-4,2.3951154435053468E-4,-11.139368057250977,19.644254684448242,-38.4411506652832,0.06174956262111664,-0.19448046386241913,0.04642772674560547,0.09981948,-0.15779568,9.763393,0.040540773,0.18827987,9.76328,0
6,988.5510864257812,3.010887885466218E-4,-2.7203792706131935E-4,-4.262572037987411E-4,-10.947707176208496,18.980628967285156,-38.04693603515625,0.07094375789165497,-0.16498492658138275,0.027527809143066406,0.087864876,-0.17686178,9.779963,0.022017684,0.17722136,9.780326,0
6,988.56103515625,3.0113779939711094E-4,-5.729903932660818E-6,-1.599203678779304E-4,-10.565577507019043,19.496305465698242,-37.82805633544922,0.04685676097869873,-0.17880286276340485,0.027547836303710938,0.10697901,-0.16494526,9.7728615,0.04437414,0.17707917,9.773134,0
6,988.566162109375,-8.972350042313337E-4,5.268938839435577E-4,-2.930574701167643E-4,-10.883493423461914,18.882673263549805,-37.97411346435547,0.07542558014392853,-0.17349161207675934,0.05124092102050781,0.08785474,-0.16256185,9.758657,0.024582189,0.1883209,9.75856,0
6,988.5816040039062,-9.823834989219904E-5,-6.715355557389557E-4,-1.598784583620727E-4,-10.441036224365234,19.033601760864258,-38.051124572753906,0.06575319170951843,-0.18201620876789093,0.032340049743652344,0.08784968,-0.15541191,9.768126,0.034746084,0.19285752,9.767792,0
6,988.5636596679688,5.676003638654947E-4,-4.052275908179581E-4,-1.5985762001946568E-4,-11.175375938415527,18.820310592651367,-38.31040573120117,0.07997511327266693,-0.18596987426280975,0.03710651397705078,0.083064735,-0.1554118,9.77286,0.028608777,0.19501573,9.77246,0
6,988.5662841796875,3.501749597489834E-5,-4.0523556526750326E-4,1.0647933231666684E-4,-11.12083625793457,19.081806182861328,-37.87220764160156,0.060313448309898376,-0.1659308820962906,0.03714942932128906,0.097399116,-0.17209463,9.770493,0.030876182,0.17245631,9.770925,0
6,988.5687866210938,3.0138203874230385E-4,3.937041328754276E-4,1.0650017065927386E-4,-11.061732292175293,19.34772300720215,-37.66592025756836,0.06960013508796692,-0.17022107541561127,0.02296733856201172,0.0926142,-0.16256137,9.770491,0.034397982,0.18202521,9.770527,0
6,988.5537719726562,-6.306745344772935E-4,-5.777590558864176E-6,1.0652124183252454E-4,-11.003905296325684,18.61174201965332,-37.70874786376953,0.07383783161640167,-0.16939397156238556,0.01826953887939453,0.08543944,-0.17209442,9.782328,0.019215733,0.17751671,9.782585,0
6,988.54150390625,5.677960580214858E-4,6.600040942430496E-4,-4.260895657353103E-4,-10.917243957519531,19.430395126342773,-37.7700080871582,0.06384138762950897,-0.17331336438655853,0.023041725158691406,0.087824285,-0.16494437,9.770491,0.024378281,0.18120089,9.770567,0
6,988.5614624023438,-9.794486686587334E-5,3.93680325942114E-4,-4.2606861097738147E-4,-10.923194885253906,19.53041648864746,-38.15986633300781,0.06370778381824493,-0.16774730384349823,0.042008399963378906,0.09737882,-0.15779443,9.763389,0.034197636,0.1820185,9.763393,0
6,988.5516967773438,1.6841967590153217E-4,-4.052752337884158E-4,3.728999581653625E-4,-10.79378890991211,19.704275131225586,-38.189979553222656,0.05826842784881592,-0.16230832040309906,0.046776771545410156,0.09976363,-0.16971071,9.758654,0.032617882,0.16901341,9.759122,0
6,988.5635375976562,-2.3100501857697964E-4,0.0013257700484246016,-1.5971082029864192E-4,-11.123444557189941,19.81691551208496,-37.99180221557617,0.06232385337352753,-0.16178561747074127,0.03260326385498047,0.09497878,-0.16494401,9.777592,0.030121848,0.17561013,9.77782,0
6,988.56103515625,-9.779806714504957E-5,0.0011926041916012764,-2.6531924959272146E-5,-10.478129386901855,18.946237564086914,-38.117279052734375,0.07621200382709503,-0.15601040422916412,0.023177146911621094,0.080634266,-0.17686032,9.782325,0.012423063,0.17124608,9.782748,0
6,988.54931640625,3.017245326191187E-4,3.9364860276691616E-4,3.729628515429795E-4,-10.580957412719727,18.955354690551758,-38.178955078125,0.05686485767364502,-0.1649814397096634,0.02793407440185547,0.097358555,-0.16494377,9.77759,0.03132176,0.17287605,9.777888,0
6,988.5715942382812,-2.3085845168679953E-4,-1.389911340083927E-4,3.729838063009083E-4,-10.532506942749023,19.210960388183594,-37.43153381347656,0.06632986664772034,-0.16924355924129486,0.05162620544433594,0.09257364,-0.16494365,9.758652,0.026804192,0.17402089,9.758897,0
6,988.564208984375,-8.96599143743515E-4,-4.053149023093283E-4,-8.254167041741312E-4,-10.309564590454102,18.840639114379883,-38.06009292602539,0.046623989939689636,-0.1447076052427292,0.023253440856933594,0.09734839,-0.17447667,9.775222,0.027816711,0.16288725,9.7758665,0
6,988.5720825195312,3.0187133233994246E-4,9.262565290555358E-4,-1.5960604650899768E-4,-10.59756088256836,19.04506492614746,-38.027679443359375,0.07982105016708374,-0.17744703590869904,0.046950340270996094,0.08300388,-0.16017686,9.758652,0.024032593,0.18085206,9.758613,0
7,988.5469360351562,-3.638206981122494E-4,-1.39022886287421E-4,-4.2588013457134366E-4,-10.647672653198242,18.682069778442383,-37.998714447021484,0.06521651148796082,-0.15310262143611908,0.032769203186035156,0.09972811,-0.17924298,9.772854,0.02917393,0.15591884,9.773719,0
7,988.5469360351562,0.001234123483300209,9.262327803298831E-4,3.730886382982135E-4,-10.572505950927734,19.226564407348633,-38.04216003417969,0.05992206931114197,-0.16153226792812347,0.03281402587890625,0.09733313,-0.16017662,9.763385,0.033669,0.17263013,9.763601,0
7,988.5469360351562,0.001234123483300209,9.262327803298831E-4,3.730886382982135E-4,-10.990887641906738,18.887372970581055,-37.803871154785156,0.06925071775913239,-0.1751127988100052,0.037578582763671875,0.09493819,-0.15064336,9.772852,0.040782586,0.18073195,9.772718,0
7,988.5619506835938,-3.1060579931363463E-4,-1.992360776057467E-4,-5.30895427800715E-4,-10.851509094238281,19.333913803100586,-37.77449035644531,0.054827168583869934,-0.15969304740428925,0.032881736755371094,0.104492724,-0.16255961,9.765751,0.039667398,0.16504627,9.766189,0
7,988.5442504882812,0.0010210226755589247,-7.318757707253098E-4,-1.3140065129846334E-4,-11.296330451965332,18.917667388916016,-38.14349365234375,0.06471702456474304,-0.15902118384838104,0.04236888885498047,0.099729896,-0.16732658,9.765753,0.037212238,0.16183345,9.766285,0
7,988.5316162109375,-3.1050812685862184E-4,-0.0012645154492929578,-3.9769557770341635E-4,-10.927654266357422,18.41965675354004,-37.55529022216797,0.05075736343860626,-0.14896057546138763,0.051845550537109375,0.10691726,-0.16971035,9.749184,0.040949274,0.15536202,9.749923,0
7,988.5497436523438,-4.4393708230927587E-4,-0.0013976293848827481,-0.0011967592872679234,-10.944663047790527,18.98357582092285,-38.20154571533203,0.03605927526950836,-0.15768004953861237,0.032939910888671875,0.10930309,-0.16971023,9.756285,0.040853582,0.15407117,9.7570715,0
7,988.5444946289062,2.2178649669513106E-4,5.997504340484738E-4,4.0110762347467244E-4,-10.922109603881836,18.793838500976562,-37.96296691894531,0.07408660650253296,-0.17105607688426971,0.04244422912597656,0.08301002,-0.16017698,9.765753,0.023351174,0.17491172,9.765824,0
7,988.5798950195312,3.54984134901315E-4,-1.9920365593861789E-4,6.674404721707106E-4,-11.200132369995117,19.27094841003418,-37.871055603027344,0.04990600049495697,-0.17037974298000336,0.02826690673828125,0.104515076,-0.16017692,9.770487,0.04177315,0.16345456,9.770904,0
7,988.5646362304688,-4.4450105633586645E-5,2.0026377751491964E-4,2.679835888557136E-4,-10.626203536987305,19.228910446166992,-37.957035064697266,0.059727802872657776,-0.14117591083049774,0.04722118377685547,0.102121055,-0.16970994,9.753916,0.03069259,0.1562214,9.754628,0
7,988.5370483398438,-1.7756834859028459E-4,-0.0013976379996165633,4.011585551779717E-4,-10.134912490844727,18.740936279296875,-38.31212615966797,0.002128109335899353,-0.1977575570344925,0.009371757507324219,0.12362605,-0.1649433,9.775221,0.05036623,0.15101948,9.776097,0
7,988.5497436523438,-0.0016422660555690527,-4.655387601815164E-4,5.34333405084908E-4,-10.284647941589355,18.916223526000977,-37.37549591064453,0.12595878541469574,-0.15935273468494415,0.06619930267333984,0.08060372,-0.16494311,9.749182,0.013154592,0.16968274,9.749426,0
7,988.55712890625,8.882669499143958E-5,5.997183034196496E-4,9.338242816738784E-4,-10.593133926391602,18.94356918334961,-37.560508728027344,0.11103533208370209,-0.15426544845104218,0.02361011505126953,0.082989514,-0.15540998,9.784689,0.02253383,0.17733692,9.784644,0
7,988.5396728515625,-7.10081250872463E-4,7.3286984115839E-4,5.343673983588815E-4,-10.507314682006836,19.49837303161621,-38.14509201049805,0.08669114112854004,-0.15811513364315033,0.014179229736328125,0.08776519,-0.1506433,9.777586,0.025985574,0.17831905,9.77748,0
7,988.5422973632812,-1.774097909219563E-4,4.6654752804897726E-4,4.0122648351825774E-4,-10.337526321411133,18.762113571166992,-38.59008026123047,0.09585966169834137,-0.1377451866865158,0.03316497802734375,0.08298129,-0.17685924,9.770485,0.010547686,0.15590176,9.77119,0
7,988.56005859375,0.0016868410166352987,3.3338312641717494E-4,1.7696293070912361E-6,-10.633676528930664,19.32746696472168,-38.269588470458984,0.06718449294567108,-0.1274324506521225,0.042659759521484375,0.10209641,-0.17447592,9.756281,0.027863467,0.14752549,9.75722,0
7,988.56005859375,3.553011338226497E-4,-5.987288895994425E-4,-2.645292552188039E-4,-11.05510139465332,18.985326766967773,-37.87668991088867,0.052742570638656616,-0.16012369096279144,0.04268455505371094,0.09014273,-0.15779282,9.763382,0.029623047,0.1668067,9.763603,0
7,988.5626220703125,-1.77290930878371E-4,-1.9926157256122679E-4,1.8035643734037876E-6,-10.770691871643066,19.146244049072266,-37.85294723510742,0.028379052877426147,-0.1736670881509781,0.03324699401855469,0.10447806,-0.16494258,9.770484,0.0354956,0.15343511,9.771166,0
7,988.5574951171875,8.906429866328835E-5,5.996796535328031E-4,6.676102057099342E-4,-10.860504150390625,19.43099021911621,-38.00973892211914,0.042596325278282166,-0.1680160015821457,0.03801250457763672,0.08774465,-0.16494246,9.761015,0.022986708,0.16016713,9.761461,0
7,988.52978515625,2.2226193686947227E-4,6.704151746816933E-5,0.0012002589646726847,-10.85623550415039,18.80327033996582,-38.666526794433594,0.07550251483917236,-0.15776683390140533,0.04751300811767578,0.082960725,-0.15779252,9.761014,0.01805313,0.16840123,9.761173,0
7,988.5629272460938,-8.429220761172473E-4,-6.612928700633347E-5,6.676612538285553E-4,-10.891509056091309,19.349517822265625,-38.38511276245117,0.051259979605674744,-0.16664396226406097,0.019133567810058594,0.09729603,-0.16255899,9.782318,0.030923486,0.15732354,9.78284,0
7,988.5629272460938,-8.429220761172473E-4,-6.612928700633347E-5,6.676612538285553E-4,-10.891509056091309,19.349517822265625,-38.38511276245117,0.055606260895729065,-0.15186132490634918,0.004952430725097656,0.0925121,-0.16732545,9.789419,0.022159874,0.15507185,9.790033,0
7,988.5807495117188,3.5553897032514215E-4,2.0018013310618699E-4,4.013623110949993E-4,-10.264999389648438,18.82945442199707,-37.68138885498047,0.055687397718429565,-0.16070033609867096,0.03338050842285156,0.09011811,-0.15779223,9.770482,0.02397653,0.16336863,9.770776,0
7,988.5530395507812,-4.3895270209759474E-5,-5.987739423289895E-4,5.34537248313427E-4,-10.492369651794434,19.30126953125,-37.51998519897461,0.055804431438446045,-0.1503186672925949,0.019202232360839844,0.08772409,-0.16494192,9.775215,0.018426677,0.15767789,9.775712,0
7,988.5481567382812,-4.385580541566014E-5,-9.982541669160128E-4,4.013962752651423E-4,-11.097548484802246,20.262258529663086,-37.48296356201172,0.05550120770931244,-0.1544964462518692,0.023962974548339844,0.08533007,-0.1554087,9.777582,0.021700393,0.16649657,9.777748,0
8,988.5679931640625,-1.7697404837235808E-4,6.700280937366188E-5,-2.6437651831656694E-4,-10.632291793823242,19.223020553588867,-37.64781188964844,0.045277178287506104,-0.16333366930484772,0.02399444580078125,0.099665344,-0.14587559,9.791786,0.039924793,0.16721098,9.791871,0
8,988.5709228515625,-4.3776526581496E-5,9.99102252535522E-4,1.351144164800644E-4,-10.587045669555664,18.9494571685791,-37.86973571777344,0.05895513296127319,-0.14830265939235687,0.03349590301513672,0.09010166,-0.1720915,9.772848,0.01652046,0.14775416,9.773647,0
8,988.5556030273438,-4.373694537207484E-5,8.659376762807369E-4,6.67763059027493E-4,-10.35923957824707,19.215696334838867,-38.305335998535156,0.049230143427848816,-0.15215353667736053,0.03352832794189453,0.09726724,-0.15779169,9.763378,0.027966384,0.15592784,9.763853,0
8,988.5633544921875,8.884083363227546E-4,-1.9933228031732142E-4,1.3514829333871603E-4,-10.298612594604492,19.48308753967285,-38.176361083984375,0.044095009565353394,-0.13718421757221222,0.01935100555419922,0.099653065,-0.16255821,9.777582,0.03021909,0.1498837,9.778246,0
8,988.5429077148438,-4.431314882822335E-4,5.996089894324541E-4,2.683232305571437E-4,-10.679059982299805,19.49510955810547,-37.34859085083008,0.057008638978004456,-0.1460442692041397,0.038238525390625,0.093374014,-0.16734658,9.770561,0.020946087,0.14789249,9.771298,0
8,988.537841796875,-4.5747088734060526E-5,8.662639884278178E-4,1.111824531108141E-6,-10.260976791381836,19.202165603637695,-38.011749267578125,0.04732784628868103,-0.13566581904888153,0.04773139953613281,0.11013502,-0.17688046,9.758728,0.030989604,0.13033177,9.760034,0
8,988.5811157226562,6.152308196760714E-4,-4.6643067616969347E-4,-1.3688276521861553E-4,-10.449050903320312,19.500446319580078,-38.462127685546875,0.037615567445755005,-0.14451907575130463,0.03828239440917969,0.09582734,-0.1673481,9.763466,0.021834737,0.14515719,9.764267,0
8,988.5709228515625,-1.8402229761704803E-4,-2.000651729758829E-4,-3.855791874229908E-6,-10.242009162902832,19.377769470214844,-37.717010498046875,0.051837727427482605,-0.15337921679019928,0.03830242156982422,0.09585905,-0.16258235,9.77057,0.023237053,0.14906183,9.771228,0
8,988.55615234375,-1.846341765485704E-4,0.0013979296199977398,-4.035916063003242E-4,-10.617752075195312,19.500123977661133,-37.82023620605469,0.04619762301445007,-0.13368450105190277,0.02886199951171875,0.09350085,-0.1601999,9.770573,0.025336038,0.15090965,9.771134,0
8,988.55615234375,-1.846341765485704E-4,0.0013979296199977398,-4.035916063003242E-4,-10.522396087646484,19.58955955505371,-38.07112121582031,0.06522905826568604,-0.15725643932819366,0.0478057861328125,0.08636287,-0.15543406,9.7634735,0.020327259,0.15814617,9.763791,0
8,988.5791015625,-8.507293532602489E-4,-1.999163068830967E-4,3.9522501174360514E-4,-10.149559020996094,19.57017707824707,-38.512359619140625,0.04088389873504639,-0.1320413500070572,0.038382530212402344,0.1031239,-0.16973455,9.758742,0.025860686,0.13644867,9.759776,0
8,988.54345703125,0.001545808045193553,5.99080987740308E-4,6.614098092541099E-4,-10.731639862060547,19.973134994506836,-38.1383056640625,0.050062403082847595,-0.12671081721782684,0.038402557373046875,0.09359598,-0.17926843,9.768213,0.015101347,0.13185327,9.769406,0
8,988.5693359375,-5.23926573805511E-5,1.9965681713074446E-4,-2.70826683845371E-4,-10.824496269226074,20.25493812561035,-38.14048767089844,0.06390552222728729,-0.12148196995258331,0.033687591552734375,0.086458,-0.17211936,9.76585,0.012074526,0.14085671,9.7667265,0
8,988.54638671875,-3.1901401234790683E-4,5.991801735945046E-4,1.2851617066189647E-4,-10.355896949768066,19.85078239440918,-38.035072326660156,0.04889877140522003,-0.12086792290210724,0.03371238708496094,0.09843925,-0.16735359,9.775322,0.023716534,0.13911442,9.776232,0
8,988.5311889648438,-5.300441989675164E-5,8.655456476844847E-4,1.2838508700951934E-4,-10.974528312683105,19.798086166381836,-37.62872314453125,0.04815411567687988,-0.14390583336353302,0.02900981903076172,0.09130126,-0.16497107,9.763489,0.022579385,0.14255077,9.764244,0
8,988.5642700195312,-7.842417107895017E-5,9.515114361420274E-4,-7.66150769777596E-5,-10.516446113586426,19.489534378051758,-37.68125915527344,0.05248524248600006,-0.13872675597667694,0.052697181701660156,0.09133297,-0.16973846,9.761124,0.018794127,0.1379704,9.7620325,0
8,988.561767578125,-2.1188758546486497E-4,5.520872073248029E-4,-3.430618089623749E-4,-10.361984252929688,19.84488868713379,-37.72585678100586,0.052411794662475586,-0.12380103766918182,0.03851127624511719,0.08419499,-0.16735591,9.761127,0.011324546,0.1430846,9.761869,0
8,988.54443359375,-2.121937577612698E-4,-3.7996884202584624E-4,4.5575466356240213E-4,-10.03743839263916,20.096118927001953,-37.790565490722656,0.05691596865653992,-0.14669160544872284,0.04800987243652344,0.08900648,-0.15782358,9.770598,0.016964031,0.1490099,9.771128,0
8,988.5388793945312,8.527640602551401E-4,-1.136033097282052E-4,-3.4332391805946827E-4,-10.340272903442383,19.391305923461914,-38.010597229003906,0.03786937892436981,-0.11744441092014313,0.02435302734375,0.10098767,-0.17212398,9.775335,0.02457325,0.12985355,9.776478,0
8,988.5464477539062,-2.1280493820086122E-4,-7.793434197083116E-4,-7.71389459259808E-5,-10.103035926818848,20.298513412475586,-38.48516082763672,0.05203676223754883,-0.14100198447704315,0.05276679992675781,0.0890699,-0.16497497,9.763503,0.013212856,0.1415365,9.764268,0
8,988.55712890625,-8.789001149125397E-4,-5.129779456183314E-4,3.222038212697953E-4,-10.456905364990234,20.493505477905273,-37.749183654785156,0.04236139357089996,-0.1121140569448471,0.029100418090820312,0.103441,-0.1721256,9.775343,0.024187021,0.12858331,9.77653,0
8,988.5621337890625,-8.792055887170136E-4,-1.1345441453158855E-4,4.5523064909502864E-4,-10.299837112426758,20.113752365112305,-37.6741828918457,0.04691039025783539,-0.14480583369731903,0.02912139892578125,0.1010828,-0.15544339,9.770611,0.029783709,0.14360312,9.771271,0
8,988.5595703125,1.8575246213003993E-4,-2.465628203935921E-4,-3.438478452153504E-4,-10.284616470336914,20.128482818603516,-38.44723129272461,0.046785056591033936,-0.10583387315273285,0.04808330535888672,0.09155494,-0.17451043,9.763512,0.012155949,0.13000265,9.764628,0
8,988.5392456054688,4.517628694884479E-4,1.9802653696388006E-5,-7.766293128952384E-5,-10.797375679016113,20.069618225097656,-38.133819580078125,0.07092471420764923,-0.13379083573818207,0.04336071014404297,0.07963711,-0.16021152,9.7682495,0.0108571425,0.14766377,9.768766,0
8,988.5296630859375,-2.143331221304834E-4,-0.0017112009227275848,1.8852180801331997E-4,-10.265649795532227,20.304086685180664,-38.152496337890625,0.0560106486082077,-0.12818585336208344,0.04339027404785156,0.08683854,-0.16736217,9.775354,0.0101685105,0.13752067,9.776201,0
9,988.5170288085938,5.167716881260276E-5,6.856917170807719E-4,5.523290019482374E-5,-10.261764526367188,20.570878982543945,-37.78377914428711,0.05570250749588013,-0.12293674051761627,0.04340648651123047,0.07970053,-0.16974618,9.763521,0.0031226026,0.13766903,9.764352,0
9,988.550048828125,1.845296355895698E-4,5.525833694264293E-4,3.214178723283112E-4,-10.18344783782959,20.01197624206543,-37.60917663574219,0.0646851509809494,-0.1319107562303543,0.00555419921875,0.0797323,-0.16498043,9.782461,0.0055854535,0.14178233,9.783149,0
9,988.5296020507812,-2.1524965995922685E-4,5.526329623535275E-4,1.8812890630215406E-4,-9.893386840820312,19.440732955932617,-37.62044906616211,0.05497097969055176,-0.13135264813899994,0.005570411682128906,0.08932358,-0.16259791,9.784831,0.015576026,0.13901171,9.78559,0
9,988.5347290039062,-2.1555513376370072E-4,-7.788968505337834E-4,-2.1147599909454584E-4,-10.133635520935059,19.742834091186523,-38.063011169433594,0.05474269390106201,-0.149588480591774,0.038735389709472656,0.09365088,-0.15067045,9.77532,0.023196826,0.14672531,9.775802,0
9,988.5576782226562,1.8361321417614818E-4,2.0100444089621305E-5,-2.1160690812394023E-4,-9.703514099121094,19.35576057434082,-38.645530700683594,0.04114891588687897,-0.10604165494441986,0.04831504821777344,0.09794873,-0.17925794,9.772909,0.013703505,0.118542045,9.774314,0
9,988.5626831054688,1.892001018859446E-4,1.5235133469104767E-4,5.897353403270245E-4,-10.049476623535156,20.19025230407715,-37.87120819091797,0.0649493932723999,-0.13355527818202972,0.024677276611328125,0.0788219,-0.16019149,9.772908,0.0096725095,0.14286372,9.77349,0
9,988.5508422851562,9.916857816278934E-4,-6.47170701995492E-4,-3.408539923839271E-4,-10.721124649047852,19.877531051635742,-37.98036193847656,0.06019984185695648,-0.13314189016819,0.03415870666503906,0.07642439,-0.16019131,9.763439,0.005765032,0.14341703,9.763997,0
9,988.5330200195312,-3.3982034074142575E-4,-5.140246357768774E-4,5.8651319704949856E-5,-10.750308990478516,20.429662704467773,-38.00817108154297,0.04573960602283478,-0.1323622316122055,0.034183502197265625,0.08597636,-0.16972424,9.761071,0.0121338945,0.12948662,9.762059,0
9,988.5553588867188,3.2604270381852984E-4,-0.0010466682724654675,5.868275184184313E-5,-10.642807960510254,19.31862449645996,-37.805755615234375,0.055229559540748596,-0.13664640486240387,0.024732589721679688,0.08596879,-0.15780772,9.780007,0.016658593,0.1402021,9.78064,0
9,988.528076171875,-4.7283159801736474E-4,-3.808905021287501E-4,-6.070756353437901E-4,-10.345680236816406,19.123037338256836,-38.302005767822266,0.041091009974479675,-0.13590671122074127,0.053157806396484375,0.10269046,-0.16257401,9.756336,0.03037833,0.12625593,9.757367,0
9,988.5584106445312,5.987362237647176E-5,-3.8090243469923735E-4,-3.407282056286931E-4,-10.926239013671875,19.52747344970703,-38.00525665283203,0.04075685143470764,-0.13044102489948273,0.05791759490966797,0.09073335,-0.16257389,9.758702,0.019697059,0.13146809,9.759574,0
9,988.532958984375,7.257365505211055E-4,1.8559512682259083E-5,-4.7385471407324076E-4,-10.666341781616211,19.138601303100586,-37.86857986450195,0.05493108928203583,-0.1250290423631668,0.0200653076171875,0.07877621,-0.16495694,9.782373,0.0059005693,0.13547918,9.783141,0
9,988.5382690429688,-2.0629557548090816E-4,-1.146103604696691E-4,-4.738232819363475E-4,-10.236900329589844,19.013896942138672,-37.8504753112793,0.0547412633895874,-0.1243339329957962,0.04376029968261719,0.064429194,-0.11967452,9.768169,0.020201059,0.18040493,9.767428,0
9,988.5211181640625,1.9325170433148742E-4,-3.809381742030382E-4,-2.0747596863657236E-4,-10.940096855163574,18.987991333007812,-38.4334602355957,0.007280483841896057,0.11388134956359863,0.0863637924194336,0.1217792,-0.20070578,9.784739,0.026477112,0.08315404,9.787167,0
9,988.526123046875,-0.0012714122422039509,-0.001313055632635951,-7.428659591823816E-5,-10.501364707946777,19.39834976196289,-37.75523376464844,0.12600122392177582,-0.09936027228832245,0.09114551544189453,0.076363504,-0.22215505,9.770535,-0.022889527,0.0843156,9.772968,0
9,988.5338745117188,0.001125503797084093,8.174595423042774E-4,0.0012573242420330644,-10.653461456298828,19.30831527709961,-37.264625549316406,0.0683765709400177,-0.2279113382101059,0.07221794128417969,0.042897224,-0.14112346,9.7681675,-0.013395576,0.17095734,9.7677765,0
9,988.5136108398438,-3.3908680779859424E-4,-0.001179933431558311,-4.736660048365593E-4,-10.527398109436035,18.84708595275879,-37.56499481201172,-0.03189718723297119,-0.170309379696846,0.053290367126464844,0.109806895,-0.14112322,9.7586975,0.04635199,0.1376535,9.759255,0
9,988.5136108398438,-3.3908680779859424E-4,-0.001179933431558311,-4.736660048365593E-4,-10.292418479919434,18.382638931274414,-38.112918853759766,0.030047640204429626,-0.10774742066860199,0.020170211791992188,0.08112046,-0.15780605,9.775267,0.013251096,0.13709971,9.7759075,0
9,988.5237426757812,4.599342937581241E-4,-1.1468183947727084E-4,3.253130125813186E-4,-10.494327545166016,18.561744689941406,-37.16847229003906,0.08215011656284332,-0.06867675483226776,0.02020549774169922,0.09067249,-0.16972221,9.770533,0.016171014,0.12076311,9.771668,0
9,988.5289306640625,0.0012589553371071815,-1.1469365563243628E-4,-7.41294352337718E-5,-10.66014575958252,18.038148880004883,-37.805145263671875,0.05314613878726959,-0.10141293704509735,0.02496337890625,0.088274926,-0.16733874,9.770533,0.017772404,0.122971505,9.771573,0
9,988.5315551757812,-3.388666664250195E-4,1.516102347522974E-4,5.91691758017987E-4,-10.367284774780273,18.470279693603516,-37.64460754394531,0.02947905659675598,-0.1198752373456955,0.015508651733398438,0.08587742,-0.17210515,9.76343,0.009898923,0.119754285,9.764585,0
9,988.536865234375,-2.0563526777550578E-4,-5.141914007253945E-4,8.58039129525423E-4,-10.181138038635254,18.644731521606445,-37.914451599121094,0.0671369731426239,-0.08560223877429962,0.04868507385253906,0.09303951,-0.17210491,9.770531,0.014874121,0.11590633,9.771791,0
9,988.5572509765625,6.075395504012704E-5,6.842181319370866E-4,-7.39824608899653E-4,-10.3209228515625,18.672399520874023,-38.741355895996094,0.04347400367259979,-0.14231692254543304,0.0250244140625,0.07630259,-0.16257168,9.775265,0.0050031375,0.1317929,9.776025,0
9,988.5165405273438,4.603011184372008E-4,-0.0014463206753134727,-2.071614726446569E-4,-10.373534202575684,17.938167572021484,-38.45933151245117,0.04830579459667206,-0.127056285738945,0.04872417449951172,0.09302431,-0.15780486,9.765795,0.02401007,0.12623873,9.766667,0
10,988.55224609375,8.598482818342745E-4,-0.0010468588443472981,-3.4028803929686546E-4,-9.443510055541992,17.860544204711914,-38.136199951171875,0.04311400651931763,-0.13096992671489716,0.039287567138671875,0.090626776,-0.15780474,9.761059,0.016820766,0.127548,9.761908,0
10,988.516845703125,-7.218384416773915E-5,4.178666276857257E-4,3.2553309574723244E-4,-10.046623229980469,18.454713821411133,-38.078025817871094,0.07147867977619171,-0.12586770951747894,0.04403495788574219,0.07388985,-0.15303795,9.761059,0.006116811,0.1386769,9.761551,0
10,988.519287109375,6.104732165113091E-5,5.510125774890184E-4,-2.07067234441638E-4,-9.503293991088867,17.85700035095215,-37.741859436035156,0.042665719985961914,-0.10586439073085785,0.044063568115234375,0.08583176,-0.16495417,9.761059,0.009317125,0.12170939,9.762068,0
10,988.5549926757812,0.001126384362578392,-1.1478905798867345E-4,-2.070357440970838E-4,-9.872514724731445,18.723302841186523,-38.42851257324219,0.08033262193202972,-0.08133576810359955,0.03462505340576172,0.071484745,-0.17210384,9.770526,-0.007010402,0.121560395,9.771544,0
10,988.5425415039062,1.9435217836871743E-4,1.835700822994113E-5,7.25101213902235E-4,-9.673243522644043,18.067041397094727,-38.42081832885742,0.05648733675479889,-0.09984360635280609,0.05357837677001953,0.088523865,-0.16734485,9.7610855,0.010751755,0.11695409,9.762214,0
10,988.5324096679688,-7.189036114141345E-5,-6.474445690400898E-4,-4.7328881919384E-4,-9.565008163452148,18.32619285583496,-38.06774139404297,0.05566038191318512,-0.10404939949512482,0.039333343505859375,0.086462915,-0.16973622,9.77532,0.0064258836,0.11578554,9.776489,0
10,988.5679321289062,-7.543008541688323E-5,-2.4973618565127254E-4,-7.815536810085177E-5,-9.619247436523438,18.696828842163086,-38.08106994628906,0.05108866095542908,-0.12249885499477386,0.025142669677734375,0.08170086,-0.16735335,9.770586,0.0020664078,0.11953205,9.77163,0
10,988.5450439453125,3.238723729737103E-4,-9.154981235042214E-4,7.207189337350428E-4,-9.240459442138672,18.577421188354492,-38.13245391845703,0.031348779797554016,-0.1169004887342453,0.0109710693359375,0.08649838,-0.16735382,9.777689,0.0048111016,0.11662379,9.778806,0
10,988.52001953125,5.900171236135066E-4,0.001081898808479309,-7.830205140635371E-5,-9.61384105682373,18.965097427368164,-37.78966522216797,0.055230721831321716,-0.11151869595050812,0.03465747833251953,0.07934642,-0.16735424,9.765856,-9.177346E-4,0.11890368,9.766889,0
10,988.52490234375,5.721423076465726E-5,-9.154425351880491E-4,5.4782547522336245E-5,-9.365438461303711,18.302066802978516,-37.63517761230469,0.045012205839157104,-0.1249999850988388,0.048890113830566406,0.08892381,-0.1506717,9.76349,0.015901063,0.12828267,9.764201,0
10,988.5152587890625,5.896749789826572E-4,8.156385156325996E-4,4.541829985100776E-4,-9.10844612121582,18.01616859436035,-38.04296875,0.07324665784835815,-0.08615671098232269,0.04891490936279297,0.06982237,-0.17688824,9.761124,-0.013025283,0.11278483,9.762317,0
10,988.5078735351562,3.231878508813679E-4,4.1619245894253254E-4,5.872675683349371E-4,-9.508946418762207,18.589162826538086,-37.70684051513672,0.054148733615875244,-0.10005746781826019,0.025252342224121094,0.079399765,-0.16973881,9.76586,-2.68518E-4,0.11459491,9.766987,0
10,988.5358276367188,-4.759311559610069E-4,-3.827274194918573E-4,-7.44385237339884E-4,-9.348291397094727,17.844064712524414,-37.68800354003906,0.03896969556808472,-0.09495992958545685,0.039473533630371094,0.093756914,-0.17450579,9.7634945,0.008238388,0.10318743,9.764955,0
10,988.53564453125,5.652947584167123E-5,0.0012151957489550114,-4.7814269782975316E-4,-8.899744987487793,18.000883102416992,-38.07423400878906,0.04361869394779205,-0.1039428859949112,0.04422187805175781,0.08660495,-0.16258986,9.76823,0.008894773,0.116506994,9.769268,0
10,988.530517578125,-7.679959526285529E-5,-3.8267183117568493E-4,-3.450580989010632E-4,-9.41152572631836,18.31178092956543,-37.93657684326172,0.04833623766899109,-0.08412934839725494,0.04897785186767578,0.086622715,-0.18165652,9.763497,-4.419405E-5,0.09873265,9.765072,0
10,988.5562133789062,4.5566126937046647E-4,-6.489598890766501E-4,1.8750023446045816E-4,-9.480304718017578,18.405317306518555,-37.77748489379883,0.048123255372047424,-0.11238406598567963,0.025316238403320312,0.09381014,-0.1625907,9.772968,0.013734314,0.11243984,9.774114,0
10,988.5462036132812,-6.097736186347902E-4,-2.494583313819021E-4,3.2058494980446994E-4,-9.010183334350586,18.002634048461914,-37.74938201904297,0.05742861330509186,-0.10219193994998932,0.03953838348388672,0.08426833,-0.16974099,9.775337,0.0017894506,0.10970569,9.776558,0
10,988.5765991210938,3.2216060208156705E-4,2.832012251019478E-4,3.2051154994405806E-4,-8.652864456176758,17.336381912231445,-37.84244155883789,0.037826165556907654,-0.0972120612859726,0.049017906188964844,0.07950628,-0.17689134,9.756401,-0.0049536326,0.104483634,9.757767,0
10,988.533935546875,-2.1064217435196042E-4,6.827029283158481E-4,-2.1219364134594798E-4,-8.776863098144531,17.43079376220703,-37.52092742919922,0.047337934374809265,-0.10130278766155243,0.044300079345703125,0.084303856,-0.16735856,9.754036,0.0043134303,0.110111654,9.755215,0
10,988.553955078125,5.5502576287835836E-5,-7.820067694410682E-4,-8.780566859059036E-4,-9.064860343933105,17.63521957397461,-37.48851013183594,0.05189606547355652,-0.09108327329158783,0.030117034912109375,0.08432156,-0.17450888,9.770607,9.978041E-4,0.10355492,9.77198,0
10,988.5313720703125,3.216474433429539E-4,1.696869730949402E-5,-8.781300275586545E-4,-9.037601470947266,17.555814743041992,-38.1809196472168,0.0706978291273117,-0.09564520418643951,0.03959465026855469,0.067610055,-0.16497622,9.761141,-0.011280613,0.118909106,9.762038,0
10,988.5391235351562,-7.437874446623027E-4,2.833124017342925E-4,-2.124136663042009E-4,-9.105945587158203,18.387405395507812,-38.29602813720703,0.03707894682884216,-0.10913924872875214,0.06328868865966797,0.093916714,-0.16259329,9.751673,0.013314518,0.1082754,9.7528715,0
10,988.5313720703125,8.539364789612591E-4,-2.4929153732955456E-4,5.382875679060817E-5,-8.865015029907227,17.822927474975586,-38.45409393310547,0.02786165475845337,-0.09885065257549286,0.034895896911621094,0.096324384,-0.16974361,9.763511,0.012057562,0.10060002,9.7649355,0
10,988.5215454101562,7.206076406873763E-4,-0.0018471591174602509,-4.788762307725847E-4,-8.999667167663574,17.907026290893555,-37.59143829345703,0.046889737248420715,-0.09330423176288605,0.034915924072265625,0.09395224,-0.1673608,9.761145,0.01140522,0.10292263,9.762482,0
10,988.5216674804688,5.872785695828497E-4,1.5023781452327967E-4,-8.784233941696584E-4,-9.350217819213867,18.316797256469727,-38.408226013183594,0.03221482038497925,-0.0927165299654007,0.044403076171875,0.09397,-0.1625946,9.765882,0.014747128,0.106482506,9.767095,0
11,988.5623168945312,-7.868226384744048E-5,-1.1605030158534646E-4,-3.4586514811962843E-4,-9.488755226135254,18.134103775024414,-37.91427993774414,0.056206703186035156,-0.10626126825809479,0.039687156677246094,0.079648376,-0.153062,9.772984,0.0061827605,0.12116589,9.773755,0
11,988.527099609375,7.200940162874758E-4,-5.154963000677526E-4,-2.1278037456795573E-4,-9.645282745361328,18.14556884765625,-37.890830993652344,0.051253870129585266,-0.09128977358341217,0.0539093017578125,0.07966608,-0.17689522,9.756416,-0.0045248056,0.09894334,9.757842,0
11,988.5347900390625,3.204489476047456E-4,-3.823105653282255E-4,-7.96958920545876E-5,-9.248506546020508,17.832002639770508,-37.47172546386719,0.03183750808238983,-0.0908171683549881,0.03972053527832031,0.08924347,-0.16736247,9.768253,0.0073488243,0.10273589,9.769551,0
11,988.5601806640625,-2.1235382882878184E-4,4.1666487231850624E-4,3.197045298293233E-4,-9.620226860046387,18.32706642150879,-37.905311584472656,0.05530725419521332,-0.10441102087497711,0.04921245574951172,0.07492182,-0.1602131,9.758786,-0.0014288924,0.11459407,9.759716,0
11,988.4944458007812,6.257467903196812E-4,1.6295581008307636E-4,-3.971732221543789E-4,-9.801371574401855,18.895082473754883,-38.1415901184082,0.0413413941860199,-0.11821971833705902,0.05875110626220703,0.08150253,-0.15543209,9.761099,0.0059755314,0.11531691,9.761993,0
11,988.5175170898438,-3.043696051463485E-4,-1.0368302173446864E-4,-2.631626557558775E-4,-9.898250579833984,18.804176330566406,-37.81340026855469,0.05103601515293121,-0.0893116444349289,0.04928779602050781,0.08388609,-0.16973163,9.756365,0.0018728054,0.101172194,9.757678,0
11,988.52001953125,-3.0078040435910225E-4,-0.001036371337249875,6.704811239615083E-4,-9.587699890136719,18.41001319885254,-37.60723876953125,0.04601840674877167,-0.09819592535495758,0.04930877685546875,0.08626962,-0.16019835,9.756365,0.007844958,0.10783924,9.7574625,0
11,988.5250244140625,2.3191235959529877E-4,-1.0427563393022865E-4,1.3787555508315563E-4,-10.121490478515625,18.542360305786133,-37.60971450805664,0.03614272177219391,-0.10222397744655609,0.030396461486816406,0.09343299,-0.15781493,9.777668,0.017442413,0.10613139,9.778796,0
11,988.5225219726562,6.314475322142243E-4,4.283461894374341E-4,4.743807949125767E-6,-10.431499481201172,18.568235397338867,-37.71742248535156,0.035839423537254333,-0.09689371287822723,0.03515052795410156,0.093426675,-0.16258131,9.761097,0.01642086,0.10062361,9.762363,0
11,988.5582275390625,-3.428105264902115E-5,4.283362941350788E-4,1.3792782556265593E-4,-9.989882469177246,18.45531463623047,-38.3177604675293,0.04974918067455292,-0.08656607568264008,0.030443191528320312,0.08147085,-0.16734768,9.775299,0.001994092,0.1019212,9.776538,0
11,988.510498046875,8.978855330497026E-4,2.9516840004362166E-4,-0.0010604673298075795,-10.048145294189453,18.453245162963867,-38.00072479248047,0.04435606300830841,-0.08594052493572235,0.035202980041503906,0.076684654,-0.17449744,9.770565,-0.005129384,0.096960425,9.771941,0
11,988.5227661132812,2.3215706460177898E-4,0.0010941063519567251,2.7113815303891897E-4,-10.41032886505127,18.482938766479492,-38.100616455078125,0.03932781517505646,-0.10415579378604889,0.04469871520996094,0.07189852,-0.15304773,9.761095,0.0028109197,0.11705206,9.761858,0
11,988.510498046875,3.653760068118572E-4,2.9514855123125017E-4,4.848581738770008E-6,-10.23208999633789,18.01788902282715,-38.408809661865234,0.034189850091934204,-0.08967866003513336,0.03997325897216797,0.09579119,-0.16734724,9.761095,0.016852997,0.09228593,9.762549,0
11,988.5410766601562,-3.0035257805138826E-4,1.6198077355511487E-4,-1.2828328181058168E-4,-10.56783390045166,18.12464141845703,-37.90141296386719,0.0290926992893219,-0.09888584911823273,0.039986610412597656,0.093394935,-0.15781398,9.768196,0.020852635,0.101269126,9.76937,0
11,988.5335083007812,-1.6713317018002272E-4,-2.3750303080305457E-4,1.3805902563035488E-4,-10.488645553588867,19.041841506958008,-38.27522277832031,0.0383918434381485,-0.0837981253862381,0.06368255615234375,0.09338859,-0.17449678,9.761093,0.009981384,0.086167604,9.762713,0
11,988.535888671875,2.3240200243890285E-4,8.277505403384566E-4,-1.282306620851159E-4,-10.42954158782959,19.307762145996094,-38.068939208984375,0.042923703789711,-0.08396358788013458,0.05894947052001953,0.09099233,-0.16019695,9.744522,0.014234618,0.099497676,9.745746,0
11,988.5640258789062,-0.00123227434232831,-2.3752287961542606E-4,1.3811147073283792E-4,-10.60821533203125,19.034757614135742,-37.486541748046875,0.0471179336309433,-0.10249121487140656,0.04950237274169922,0.079036474,-0.15543021,9.76346,0.0077993525,0.109086305,9.764403,0
11,988.5513916015625,-1.6694969963282347E-4,0.001094046514481306,9.370852494612336E-4,-10.33918571472168,18.65472412109375,-37.813697814941406,0.02356073260307312,-0.092622771859169,0.025835037231445312,0.09336954,-0.16257991,9.782396,0.016139047,0.09630631,9.783706,0
11,988.5233154296875,-4.332044627517462E-4,-0.001302806194871664,-6.607838440686464E-4,-9.876537322998047,18.350595474243164,-38.09814453125,0.04239930212497711,-0.09673653542995453,0.021121978759765625,0.09097332,-0.15781315,9.77056,0.016921535,0.10047813,9.771727,0
11,988.5513916015625,3.658041823655367E-4,-1.0439471225254238E-4,-2.612838288769126E-4,-10.494190216064453,18.667661666870117,-37.8675537109375,0.03251434862613678,-0.09185446798801422,0.05426979064941406,0.090967,-0.16257961,9.761091,0.0135404235,0.09598184,9.762387,0
11,988.5391845703125,-8.325560484081507E-4,4.282270965632051E-4,5.058187525719404E-6,-10.390382766723633,19.02830696105957,-37.98163604736328,0.04180428385734558,-0.08678631484508514,0.04481315612792969,0.09096065,-0.17211254,9.756355,0.009448195,0.08705571,9.757905,0
11,988.5569458007812,-4.330212250351906E-4,5.613751709461212E-4,1.382423797622323E-4,-10.290054321289062,18.6479549407959,-37.666900634765625,0.0321265310049057,-0.08150927722454071,0.021157264709472656,0.090954304,-0.17211242,9.775292,0.010453634,0.086972445,9.776839,0
11,988.53662109375,3.659875364974141E-4,-2.3758244060445577E-4,0.0010703741572797298,-10.387774467468262,18.293201446533203,-37.862037658691406,0.02722465991973877,-0.08589692413806915,0.03537178039550781,0.09811765,-0.16496243,9.775291,0.018983882,0.08948335,9.776748,0
11,988.5444946289062,-1.6658310778439045E-4,-2.3759232135489583E-4,-2.6117905508726835E-4,-10.346658706665039,18.75327491760254,-38.126251220703125,0.0414847731590271,-0.075667604804039,0.04486083984375,0.09572142,-0.17449541,9.772924,0.012588818,0.08150789,9.774601,0
12,988.5367431640625,3.6610965617001057E-4,-2.3760228941682726E-4,-1.279950374737382E-4,-10.575007438659668,18.85532569885254,-37.789093017578125,0.031899914145469666,-0.07531563937664032,0.04013633728027344,0.09810501,-0.1768785,9.765821,0.011815605,0.077983305,9.767597,0
12,988.57470703125,-1.6646087169647217E-4,-2.3761218471918255E-4,-3.9428460877388716E-4,-10.310108184814453,19.20892906188965,-38.158546447753906,0.03672882914543152,-0.07028202712535858,0.04961109161376953,0.09331885,-0.17449506,9.765821,0.010103303,0.081961736,9.767477,0
12,988.5576171875,-1.6639987006783485E-4,-2.376221091253683E-4,5.215290002524853E-6,-10.388455390930176,18.555574417114258,-37.26141357421875,0.046559303998947144,-0.0843581110239029,0.040146827697753906,0.08136299,-0.15542872,9.777657,0.006739606,0.10485266,9.778665,0
12,988.5648803710938,-6.989705143496394E-4,-0.0010365796042606235,2.7155745192430913E-4,-10.195379257202148,18.999765396118164,-37.31715393066406,0.03715723752975464,-0.07413743436336517,0.04489612579345703,0.08613646,-0.16734494,9.7587185,0.0044394704,0.0910483,9.760107,0
12,988.5470581054688,7.658279500901699E-4,-0.0010365896159783006,-1.2789026368409395E-4,-10.001078605651855,18.813291549682617,-37.87507629394531,0.0366232693195343,-0.08326669037342072,0.044915199279785156,0.09396109,-0.16259442,9.763514,0.015735805,0.09078273,9.764884,0
12,988.5403442382812,-2.993745729327202E-4,6.94453832693398E-4,1.3845186913385987E-4,-10.389839172363281,18.660017013549805,-37.88318634033203,0.025830820202827454,-0.07776585221290588,0.04954242706298828,0.09704584,-0.16976134,9.7659445,0.013428704,0.082718596,9.767543,0
12,988.55517578125,6.273627514019608E-4,-5.073701031506062E-4,6.638540653511882E-4,-10.23247241973877,18.91240119934082,-37.3833122253418,0.02996678650379181,-0.08205503225326538,0.040088653564453125,0.087533176,-0.16976239,9.768315,0.008390779,0.08638261,9.769796,0
12,988.5527954101562,2.2428983356803656E-4,8.247935911640525E-4,1.2967991642653942E-4,-10.765039443969727,18.41408348083496,-37.887962341308594,0.025269880890846252,-0.07651707530021667,0.025899887084960938,0.10430944,-0.18167998,9.761219,0.0150022805,0.06710701,9.763225,0
12,988.57080078125,0.0010227850871160626,-9.061862365342677E-4,-4.0314585203304887E-4,-10.359675407409668,18.477642059326172,-38.031131744384766,0.020127661526203156,-0.06667111814022064,0.0637826919555664,0.10435635,-0.17929791,9.75412,0.015155969,0.068800524,9.756071,0
12,988.5857543945312,-1.7608865164220333E-4,5.586245679296553E-4,-4.033395671285689E-4,-10.063089370727539,18.650346755981445,-38.62582778930664,0.034418560564517975,-0.09457743167877197,0.011716842651367188,0.085284054,-0.15069969,9.784899,0.013260609,0.10309234,9.785879,0
12,988.5477294921875,4.892487777397037E-4,2.6066205464303493E-5,5.285721272230148E-4,-10.234835624694824,18.64708137512207,-37.82933044433594,0.029326558113098145,-0.08953379094600677,0.02592754364013672,0.09967041,-0.16738375,9.7707,0.017104823,0.08087215,9.772293,0
12,988.5631713867188,-5.769196432083845E-4,2.9252900276333094E-4,-1.3760518049821258E-4,-10.619029998779297,18.49822425842285,-38.06935119628906,0.024375207722187042,-0.09424436092376709,0.04012870788574219,0.09732741,-0.16023509,9.765969,0.020355623,0.08762622,9.767354,0
12,988.5631713867188,-5.769196432083845E-4,2.9252900276333094E-4,-1.3760518049821258E-4,-10.42856216430664,19.677522659301758,-38.24469757080078,0.03338514268398285,-0.06992363929748535,0.03540802001953125,0.08781475,-0.17215271,9.765974,0.0034454758,0.08157575,9.767546,0
12,988.5508422851562,3.5473378375172615E-4,6.920762825757265E-4,3.94832604797557E-4,-9.77729606628418,18.706819534301758,-37.980316162109375,0.033393651247024536,-0.06494845449924469,0.016469955444335938,0.08786169,-0.17453705,9.780182,0.001753177,0.0797039,9.781809,0
12,988.5860595703125,-9.772981284186244E-4,-6.394297233782709E-4,7.941125659272075E-4,-10.44948673248291,18.762392044067383,-38.18791961669922,0.033133260905742645,-0.07439014315605164,0.021203041076660156,0.087908626,-0.1673884,9.773085,0.0076402724,0.08555998,9.774535,0
12,988.5512084960938,-8.445924613624811E-4,2.6433379389345646E-5,-8.039766107685864E-4,-10.213665008544922,18.561786651611328,-38.2125244140625,0.042335160076618195,-0.0977037250995636,0.04015636444091797,0.087955534,-0.16023977,9.765986,0.010703353,0.09092334,9.767268,0
12,988.5203857421875,3.5337673034518957E-4,6.922965403646231E-4,-4.046967369504273E-4,-10.151516914367676,18.83064842224121,-38.160850524902344,0.027950793504714966,-0.06863033771514893,0.030694961547851562,0.097562104,-0.16977398,9.768358,0.013560664,0.07771814,9.770001,0
12,988.5614624023438,4.8608228098601103E-4,-9.055254049599171E-4,-1.3857457088306546E-4,-10.603107452392578,18.670883178710938,-37.62000274658203,0.01844049245119095,-0.06364394724369049,0.05910205841064453,0.10477871,-0.17930822,9.754159,0.016677411,0.064991474,9.75614,0
12,988.556396484375,-7.065149839036167E-4,-2.3526573204435408E-4,-5.547311156988144E-4,-10.192495346069336,18.47648811340332,-38.5957145690918,0.022782139480113983,-0.08718250691890717,0.05910968780517578,0.095266044,-0.15071006,9.754164,0.021585103,0.09436944,9.755313,0
12,988.5614624023438,-4.117755452170968E-5,6.969132809899747E-4,3.7718057865276933E-4,-10.495574951171875,18.772104263305664,-38.48932647705078,0.04143565893173218,-0.06276075541973114,0.025984764099121094,0.08814329,-0.17454405,9.780207,0.00436969,0.07697289,9.781858,0
12,988.5487670898438,-4.162994446232915E-5,6.969867390580475E-4,-4.21960954554379E-4,-10.379865646362305,18.932703018188477,-37.823692321777344,0.04134319722652435,-0.08606667816638947,0.04966545104980469,0.090580106,-0.15547885,9.761274,0.014787673,0.091519386,9.762492,0
12,988.5615234375,2.2423366317525506E-4,-6.345192668959498E-4,6.431087385863066E-4,-10.337664604187012,18.65619659423828,-37.89099884033203,0.021994344890117645,-0.08560627698898315,0.049675941467285156,0.100186646,-0.16024663,9.766012,0.021237366,0.08225553,9.767471,0
12,988.5595092773438,-1.7569254850968719E-4,1.645018346607685E-4,1.1028314474970102E-4,-10.0294771194458,17.996713638305664,-38.130855560302734,0.026217125356197357,-0.08047111332416534,0.035483360290527344,0.09784368,-0.16978092,9.766017,0.015019193,0.07446152,9.767687,0
12,988.5213623046875,3.5648682387545705E-4,9.635228780098259E-4,-5.557003896683455E-4,-10.682700157165527,18.227888107299805,-38.043724060058594,0.011996224522590637,-0.09424704313278198,0.040223121643066406,0.10028052,-0.14833258,9.763655,0.029298823,0.09089337,9.764829,0
12,988.5519409179688,-4.34393878094852E-5,-7.674569496884942E-4,-2.895784564316273E-4,-10.558265686035156,18.871530532836914,-38.63945007324219,0.01653926819562912,-0.07489785552024841,0.04496288299560547,0.10032743,-0.17216645,9.763659,0.015758406,0.0703664,9.765427,0
13,988.5470581054688,-5.765234236605465E-4,8.305118535645306E-4,-2.345640677958727E-5,-10.276494026184082,18.555295944213867,-37.66357421875,0.020930789411067963,-0.07458575069904327,0.049704551696777344,0.1003744,-0.17216761,9.761295,0.015623801,0.069912195,9.763068,0
13,988.5725708007812,-4.434405127540231E-5,2.979535493068397E-4,-6.894398247823119E-4,-9.728707313537598,19.068342208862305,-37.93197250366211,0.03532680869102478,-0.07417355477809906,0.05444526672363281,0.0789122,-0.16025235,9.761299,-8.6418143E-4,0.09047359,9.762514,0
13,988.55224609375,3.5422510700300336E-4,6.975742871873081E-4,5.0859380280599E-4,-10.543864250183105,19.04271697998047,-38.112796783447266,0.05344484746456146,-0.08285990357398987,0.040266990661621094,0.0765692,-0.16263677,9.770773,-4.2888988E-4,0.08857688,9.772026,0
13,988.55224609375,3.5422510700300336E-4,6.975742871873081E-4,5.0859380280599E-4,-10.543864250183105,19.04271697998047,-38.112796783447266,0.039176635444164276,-0.0823291540145874,0.04027748107910156,0.08856568,-0.16025467,9.763676,0.010498487,0.08426267,9.765023,0
13,988.5648803710938,8.864045958034694E-4,-2.3445795523002744E-4,7.747157942503691E-4,-10.285350799560547,18.758291244506836,-38.59789276123047,0.02000807225704193,-0.0676099956035614,0.030849456787109375,0.102603674,-0.1793135,9.773117,0.014494666,0.060339972,9.7751045,0
13,988.5520629882812,2.2099126363173127E-4,5.64428570214659E-4,2.4224535445682704E-4,-10.054532051086426,17.815216064453125,-38.11637496948242,0.024846568703651428,-0.0767018049955368,0.049793243408203125,0.0859074,-0.16739793,9.761284,0.0053514596,0.078293726,9.762781,0
13,988.5499877929688,-1.7041235696524382E-4,-3.7486280780285597E-4,1.0593695333227515E-4,-10.057437896728516,17.918184280395508,-38.66084289550781,0.019802697002887726,-0.08108040690422058,0.06400680541992188,0.10027978,-0.16263218,9.754185,0.018807888,0.07510202,9.755749,0
13,988.5294799804688,9.55857103690505E-5,4.2413646588101983E-4,-2.73572513833642E-5,-9.876537322998047,18.3505916595459,-38.09814453125,0.02903362363576889,-0.07592654228210449,0.04034423828125,0.08836326,-0.16501625,9.756556,0.008199187,0.07816064,9.758034,0
13,988.5601806640625,3.6158342845737934E-4,2.4714245228096843E-5,-6.932830438017845E-4,-10.053552627563477,18.18497657775879,-38.29212951660156,0.009806826710700989,-0.08024449646472931,0.030884742736816406,0.10512555,-0.1602505,9.7731285,0.024346458,0.07443923,9.774694,0
13,988.5653076171875,-4.3768249452114105E-4,1.5792384510859847E-4,2.3868613061495125E-4,-9.783681869506836,18.06879234313965,-38.09596633911133,0.009739458560943604,-0.07524152100086212,0.035622596740722656,0.10515854,-0.16740121,9.763662,0.01971059,0.06801066,9.765406,0
13,988.5525512695312,-4.3800019193440676E-4,-2.414984192000702E-4,-1.609239261597395E-4,-9.937408447265625,19.083627700805664,-37.90070343017578,0.028900057077407837,-0.07461009919643402,0.045101165771484375,0.08846223,-0.16978525,9.761299,0.0045907013,0.072967306,9.762903,0
13,988.572998046875,7.601035758852959E-4,-5.077626556158066E-4,-2.7902249712496996E-5,-9.85841178894043,18.262353897094727,-38.32672882080078,0.014767326414585114,-0.07938051223754883,0.059299468994140625,0.10283461,-0.16025294,9.758934,0.022729985,0.07420738,9.760482,0
13,988.55810546875,-8.381095249205828E-4,-0.001040342845954001,-9.601442143321037E-4,-10.228204727172852,18.284683227539062,-38.04010009765625,0.0336504802107811,-0.06946837902069092,0.026167869567871094,0.08613828,-0.15787049,9.768406,0.009291664,0.08429828,9.769692,0
13,988.5606689453125,-3.0579580925405025E-4,5.576040712185204E-4,-5.608064820989966E-4,-9.88901138305664,17.7066707611084,-37.904579162597656,0.03798460215330124,-0.06926421821117401,0.040378570556640625,0.08378136,-0.17455424,9.766042,-0.0015308671,0.07045397,9.767707,0
13,988.5479125976562,-4.39272029325366E-4,1.5818187966942787E-4,-2.8311158530414104E-5,-10.187088012695312,18.7447566986084,-38.30430603027344,0.028375111520290375,-0.06440018117427826,0.03564262390136719,0.08859417,-0.1674052,9.763678,0.0061834045,0.07425907,9.76523,0
13,988.563232421875,-7.059057243168354E-4,-1.0808237129822373E-4,-4.2792106978595257E-4,-9.959717750549316,18.2729434967041,-38.46570587158203,0.0046004727482795715,-0.08326509594917297,0.054579734802246094,0.10296655,-0.16740604,9.766048,0.019491013,0.06706151,9.767776,0
13,988.5709228515625,-3.0674971640110016E-4,-0.0010401364415884018,-2.94899451546371E-4,-10.34154987335205,18.389406204223633,-38.25971221923828,0.03821136802434921,-0.06388793885707855,0.026175498962402344,0.08627021,-0.1721734,9.773152,0.001078215,0.07117027,9.774791,0
13,988.5633544921875,-1.7390947323292494E-4,-2.411371242487803E-4,-4.2819371446967125E-4,-10.024749755859375,18.527353286743164,-37.23882293701172,0.02352709323167801,-0.08721952140331268,0.04512596130371094,0.095862836,-0.15310802,9.76132,0.01834243,0.08250478,9.762626,0
13,988.555908203125,2.2524641826748848E-4,2.9154628282412887E-4,2.3745981161482632E-4,-9.896184921264648,18.437360763549805,-37.792259216308594,0.03299092501401901,-0.053674131631851196,0.04039478302001953,0.09350586,-0.16979171,9.766057,0.008721971,0.06882948,9.767734,0
13,988.558349609375,-4.4086144771426916E-4,-5.073497886769474E-4,6.367973983287811E-4,-9.806778907775879,18.626819610595703,-38.43299865722656,0.03747766464948654,-0.07693880796432495,0.045142173767089844,0.088759094,-0.16502596,9.768428,0.0057448437,0.074815944,9.769937,0
13,988.5889282226562,-4.17057890444994E-5,2.9164948500692844E-4,-0.0010943920351564884,-10.1765718460083,18.649150848388672,-38.14636993408203,0.02255786955356598,-0.05787263810634613,0.04041099548339844,0.088792056,-0.1769432,9.768431,0.0017047152,0.06399125,9.7702265,0
13,988.5562744140625,-3.083392512053251E-4,0.001223806757479906,-0.0012276862980797887,-10.39785385131836,19.126859664916992,-38.294189453125,0.012938007712364197,-0.07674188911914825,0.0498809814453125,0.103164464,-0.16741087,9.758965,0.018699221,0.065039635,9.760712,0
13,988.5787963867188,-4.418150056153536E-4,-2.4087906058412045E-4,-0.0012278225040063262,-9.970372200012207,18.26262855529785,-37.92456817626953,0.022244028747081757,-0.06213150918483734,0.0404205322265625,0.08885804,-0.17217825,9.766069,0.0040395744,0.06751208,9.7677555,0
13,988.5822143554688,-4.265899769961834E-5,1.5864643501117826E-4,-1.626951852813363E-4,-9.908658981323242,17.793439865112305,-37.598690032958984,0.02718331664800644,-0.07617346942424774,0.040421485900878906,0.0984506,-0.16502918,9.75897,0.016194316,0.0687083,9.760606,0
13,988.5489501953125,-4.4245098251849413E-4,-7.734075770713389E-4,-4.291473887860775E-4,-10.282583236694336,18.549406051635742,-37.35435485839844,0.02184140682220459,-0.07079809904098511,0.04517173767089844,0.096093684,-0.16503002,9.77081,0.014168614,0.06941825,9.772421,0
14,988.5996704101562,7.55652436055243E-4,0.0012240128125995398,1.0334816761314869E-4,-9.727079391479492,17.96347427368164,-37.636619567871094,0.021154336631298065,-0.06558084487915039,0.040454864501953125,0.09373677,-0.16503085,9.763712,0.011739203,0.069790065,9.765299,0
14,988.5389404296875,-4.361302126199007E-5,0.0014903806149959564,-4.294198006391525E-4,-9.696615219116211,18.413236618041992,-37.35969543457031,0.03989729285240173,-0.07473178207874298,0.045197486877441406,0.08898997,-0.1602651,9.75898,0.0090374565,0.07573518,9.760404,0
14,988.5743408203125,8.922722190618515E-5,1.588527811691165E-4,-4.2955600656569004E-4,-10.218774795532227,18.925657272338867,-38.07905578613281,0.030226022005081177,-0.04076145589351654,0.031007766723632812,0.08424312,-0.18171538,9.768452,-0.004743369,0.05872476,9.7703285,0
14,988.5670776367188,6.215411704033613E-4,-1.0741146979853511E-4,-5.628502694889903E-4,-10.13534927368164,18.00288200378418,-38.03791809082031,0.0248740091919899,-0.04995684325695038,0.03575420379638672,0.0980376,-0.1674024,9.773136,0.01571966,0.06402609,9.774839,0
14,988.5746459960938,2.217490691691637E-4,9.579036268405616E-4,-4.298286512494087E-4,-10.09727668762207,18.460012435913086,-38.147518157958984,0.03550095111131668,-0.0684497058391571,0.059546470642089844,0.09267771,-0.16262157,9.756512,0.012258103,0.06999096,9.758048,0
14,988.5567626953125,-3.7851277738809586E-5,-1.0844995267689228E-4,-5.601084558293223E-4,-9.923604965209961,17.990543365478516,-38.223793029785156,0.030745700001716614,-0.06363652646541595,0.040610313415527344,0.092663765,-0.1650045,9.763613,0.011330581,0.068018734,9.765203,0
14,988.5697631835938,1.5680567594245076E-4,-3.4025247441604733E-4,7.423420902341604E-5,-9.31203842163086,17.66758155822754,-38.14516830444336,0.021765947341918945,-0.06791391968727112,0.04535102844238281,0.09981954,-0.16738744,9.75651,0.014445886,0.06243074,9.758245,0
14,988.552001953125,-2.4253403535112739E-4,-0.001671853824518621,-4.5833992771804333E-4,-9.836400032043457,18.440900802612305,-38.18659973144531,0.03622985631227493,-0.07745888829231262,0.03588294982910156,0.09502572,-0.15785398,9.775446,0.015078619,0.073639646,9.776894,0
14,988.56982421875,-0.0010413469281047583,-3.4029613016173244E-4,3.406654577702284E-4,-9.681097030639648,19.060102462768555,-37.7078742980957,0.017191283404827118,-0.058229461312294006,0.04535484313964844,0.09740168,-0.1650035,9.758875,0.012146381,0.065879926,9.760526,0
14,988.5599975585938,-3.7542282370850444E-4,-8.729497785679996E-4,-3.2506673596799374E-4,-9.34274673461914,18.218246459960938,-38.095672607421875,0.026185669004917145,-0.06752966344356537,0.05010223388671875,0.08782813,-0.16023658,9.758874,0.0064868117,0.07396808,9.7603035,0
14,988.5548706054688,-3.752881311811507E-4,0.0015238713240250945,6.070964736863971E-4,-9.577481269836426,17.68227195739746,-37.874168395996094,0.026440121233463287,-0.07173436880111694,0.03117656707763672,0.092594,-0.15546967,9.773076,0.014229916,0.07570143,9.774447,0
14,988.5497436523438,5.569517961703241E-4,-0.0011393093736842275,2.0768027752637863E-4,-9.993606567382812,18.71474266052246,-37.562522888183594,0.03122922033071518,-0.07612504065036774,0.05959510803222656,0.087800205,-0.15308602,9.754137,0.010843243,0.07927233,9.755404,0
14,988.5475463867188,1.576123177073896E-4,-6.066993810236454E-4,-1.9173580221831799E-4,-10.009530067443848,18.542081832885742,-38.011871337890625,0.021419890224933624,-0.03793804347515106,0.03119182586669922,0.090176165,-0.17691852,9.763604,0.0017314861,0.057267845,9.765455,0
14,988.5451049804688,-9.075163980014622E-4,7.248581387102604E-4,7.463764632120728E-5,-9.726940155029297,18.06938934326172,-38.335697174072266,0.030635826289653778,-0.07076400518417358,0.05961799621582031,0.08777231,-0.15785195,9.761236,0.008026382,0.074555784,9.762618,0
14,988.6057739257812,4.241973510943353E-4,4.5852045877836645E-4,0.001006800914183259,-9.754741668701172,18.5170841217041,-37.74173355102539,0.011411227285861969,-0.07015158236026764,0.02649402618408203,0.09253818,-0.1650014,9.780171,0.009246573,0.06583983,9.7817745,0
14,988.5960083007812,2.911738702096045E-4,-7.413316052407026E-5,-5.910366307944059E-4,-9.891618728637695,18.4417781829834,-38.024173736572266,0.035370923578739166,-0.07470957934856415,0.04543590545654297,0.097304046,-0.15308465,9.768335,0.01950676,0.07345736,9.769723,0
14,988.5732421875,-5.076391971670091E-4,-6.067866925150156E-4,-5.834735929965973E-5,-9.759605407714844,17.880525588989258,-37.9346923828125,0.016409151256084442,-0.08390115201473236,0.040709495544433594,0.09967998,-0.16023417,9.761232,0.017362256,0.065767065,9.76282,0
14,988.5809326171875,2.914426731877029E-4,-4.736505798064172E-4,-1.9144779071211815E-4,-9.686941146850586,18.05378532409668,-37.725074768066406,0.006882414221763611,-0.06467029452323914,0.05018329620361328,0.094886184,-0.16261713,9.76123,0.010939908,0.06597313,9.762816,0
14,988.5654907226562,-3.742121043615043E-4,-7.419861503876746E-5,7.492583245038986E-5,-9.596693992614746,18.50709342956543,-37.842491149902344,0.026558764278888702,-0.05485348403453827,0.012309074401855469,0.09009242,-0.17214991,9.775433,0.002283133,0.060069755,9.777178,0
14,988.5629272460938,-3.7407787749543786E-4,-0.0018052736995741725,6.076152203604579E-4,-9.729143142700195,18.330289840698242,-37.65776824951172,0.011731766164302826,-0.04488150775432587,0.050201416015625,0.10441789,-0.17453285,9.763596,0.014296789,0.050244585,9.765575,0
14,988.5584106445312,5.581622826866806E-4,7.24705052562058E-4,3.413570229895413E-4,-9.746588706970215,18.156156539916992,-38.029808044433594,0.03559400886297226,-0.0589013546705246,0.03127288818359375,0.090064555,-0.16261609,9.773064,0.0062773903,0.06760386,9.774595,0
14,988.54052734375,-1.0749296052381396E-4,-7.426415686495602E-5,2.082567079924047E-4,-9.72359848022461,18.704471588134766,-38.06543731689453,0.030261754989624023,-0.058644264936447144,0.05022430419921875,0.09005058,-0.16261579,9.754124,0.0071805175,0.066576675,9.755666,0
14,988.5789794921875,-1.0735850082710385E-4,9.909775108098984E-4,-8.569490164518356E-4,-9.863519668579102,18.626222610473633,-38.193267822265625,0.006124064326286316,-0.06784598529338837,0.03129768371582031,0.10198617,-0.16023214,9.761225,0.01933249,0.06273621,9.762852,0
14,988.6016235351562,-2.4038174888119102E-4,3.2516606734134257E-4,-5.79439802095294E-5,-10.021568298339844,18.636213302612305,-38.09251403808594,0.02521224319934845,-0.04365965723991394,0.040778160095214844,0.10197219,-0.17214818,9.761223,0.012643217,0.052151114,9.763126,0
15,988.5712280273438,2.9238424031063914E-4,-7.432964048348367E-5,2.0842952653765678E-4,-9.520303726196289,18.420923233032227,-38.38810729980469,0.010888390243053436,-0.057301104068756104,0.050262451171875,0.09717846,-0.16976453,9.75412,0.008654565,0.055787876,9.755917,0
15,988.5868530273438,9.583086357451975E-4,-7.435146835632622E-5,-3.2414449378848076E-4,-9.398508071899414,18.587411880493164,-38.03169631958008,0.025184504687786102,-0.07574082911014557,0.031340599060058594,0.08521497,-0.15308125,9.770689,0.007127206,0.07575816,9.771963,0
15,988.5841064453125,5.58969157282263E-4,-7.437329622916877E-5,7.538695354014635E-5,-9.917354583740234,18.522653579711914,-37.40906524658203,0.020405597984790802,-0.05622078478336334,0.04082298278808594,0.0947606,-0.17453046,9.758851,0.004773014,0.051684156,9.760735,0
15,988.5567626953125,-1.0655150981619954E-4,0.001257162424735725,2.0866026170551777E-4,-9.592127799987793,18.511510848999023,-38.07440185546875,0.024785377085208893,-0.06064438819885254,0.026632308959960938,0.08040723,-0.16023041,9.76832,-0.0014916728,0.07075639,9.769709,0
15,988.5693969726562,6.925305933691561E-4,7.245087763294578E-4,4.750337393488735E-4,-9.846372604370117,18.1682186126709,-38.246089935302734,0.02426416426897049,-0.05057397484779358,0.036121368408203125,0.0929459,-0.169778,9.773108,0.0065651317,0.055797726,9.774863,0
15,988.5693969726562,6.925305933691561E-4,7.245087763294578E-4,4.750337393488735E-4,-9.745610237121582,18.525920867919922,-38.20556640625,0.03255733102560043,-0.06946742534637451,0.04548168182373047,0.084011614,-0.16026019,9.768431,0.002345969,0.06819031,9.769869,0
15,988.5994873046875,-5.144994938746095E-4,-2.0903529366478324E-4,-7.303361780941486E-4,-10.067655563354492,18.64592742919922,-38.39391326904297,0.008820749819278717,-0.05992703139781952,0.04074287414550781,0.098385215,-0.16502757,9.768435,0.013313091,0.057216376,9.770147,0
15,988.5822143554688,-0.0010474610608071089,-6.084555061534047E-4,-6.468803621828556E-5,-10.2589111328125,18.835344314575195,-37.9906005859375,0.022985048592090607,-0.07396441698074341,0.03601264953613281,0.08646995,-0.16264524,9.770804,0.004214929,0.06472966,9.7723255,0
15,988.5897827148438,1.747219357639551E-5,-3.42086044838652E-4,-8.637771243229508E-4,-9.503156661987305,17.962915420532227,-38.44093322753906,0.018065303564071655,-0.04975523054599762,0.03601837158203125,0.09128404,-0.1674126,9.76844,0.0053331396,0.057873353,9.770129,0
15,988.5822143554688,4.1661609429866076E-4,5.744135705754161E-5,-1.9812898244708776E-4,-10.281061172485352,18.550878524780273,-37.43165588378906,0.017570994794368744,-0.06375961005687714,0.050230979919433594,0.09848797,-0.15788029,9.758975,0.017690554,0.061860368,9.760536,0
15,988.5846557617188,-5.158197600394487E-4,8.564425515942276E-4,-3.3142848405987024E-4,-9.610689163208008,17.861698150634766,-37.57161331176758,0.0271218940615654,-0.04919584095478058,0.05023479461669922,0.09374243,-0.17694737,9.766079,0.0035141073,0.04752195,9.768016,0
15,988.5848388671875,1.4964002184569836E-4,-4.750832449644804E-4,6.790389306843281E-5,-9.384947776794434,18.494752883911133,-38.02836608886719,0.027273699641227722,-0.03949122130870819,0.045497894287109375,0.091386795,-0.16741507,9.76845,0.0042789355,0.057152018,9.770144,0
15,988.6151733398438,-2.5016407016664743E-4,-7.413455750793219E-4,-6.539549212902784E-5,-9.82947063446045,18.710641860961914,-37.972496032714844,0.03673148900270462,-0.0486958771944046,0.03603363037109375,0.08664125,-0.16741596,9.756617,8.2887546E-4,0.058669597,9.758262,0
15,988.5799560546875,2.821376547217369E-4,-4.749760264530778E-4,-6.553687853738666E-5,-9.85452651977539,18.529146194458008,-37.95801544189453,0.026935525238513947,-0.029226914048194885,0.03130817413330078,0.086675525,-0.1769499,9.7684555,-0.003316905,0.050088048,9.770314,0
15,988.5902099609375,1.5491736121475697E-5,8.566569886170328E-4,7.332692621275783E-4,-10.117467880249023,18.915067672729492,-37.94007873535156,0.021756000816822052,-0.04788781702518463,0.045520782470703125,0.09387943,-0.16503434,9.770826,0.008917369,0.05672665,9.772501,0
15,988.600341796875,4.146354040130973E-4,4.572367179207504E-4,-4.652937641367316E-4,-9.931618690490723,18.45738410949707,-38.634796142578125,0.012009210884571075,-0.0523306280374527,0.04552650451660156,0.0915238,-0.16741844,9.761361,0.00583845,0.055128977,9.76307,0
15,988.5877075195312,-1.1832627933472395E-4,5.781644722446799E-5,-1.9911921117454767E-4,-9.379838943481445,18.13088035583496,-38.161827087402344,0.026134848594665527,-0.06645557284355164,0.059734344482421875,0.08677822,-0.16265275,9.754262,0.0029546055,0.06121728,9.755812,0
15,988.59521484375,-6.512884283438325E-4,5.786999827250838E-5,-1.992606557905674E-4,-9.703651428222656,19.249841690063477,-37.946449279785156,0.025677107274532318,-0.07088565826416016,0.04080486297607422,0.089202344,-0.15073718,9.766102,0.010032171,0.070604146,9.767412,0
15,988.6105346679688,2.804873511195183E-4,5.905553116463125E-4,-7.320339791476727E-4,-9.606230735778809,18.97245979309082,-38.17618942260742,0.020731545984745026,-0.046890974044799805,0.045540809631347656,0.091626465,-0.167421,9.751902,0.004840527,0.054050744,9.753617,0
15,988.5800170898438,-1.1931685730814934E-4,5.797721678391099E-5,-3.327016020193696E-4,-9.895642280578613,18.06907081604004,-37.693809509277344,0.025356285274028778,-0.05626526474952698,0.06921577453613281,0.094050646,-0.16265528,9.7471695,0.011116135,0.056550026,9.748809,0
15,988.5927734375,-6.30206021014601E-4,2.4071178631857038E-4,6.491470267064869E-4,-9.871672630310059,18.987146377563477,-37.905189514160156,0.020247377455234528,-0.04152591526508331,0.031350135803222656,0.0893051,-0.16980593,9.768478,0.0023852678,0.05264613,9.770219,0
15,988.5679931640625,4.347272333689034E-4,5.070813349448144E-4,9.153214632533491E-4,-9.748109817504883,18.15468406677246,-37.9525032043457,0.015114754438400269,-0.05075407028198242,0.04082679748535156,0.101288855,-0.17219006,9.770847,0.012448047,0.044539273,9.772779,0
15,988.56787109375,3.0123948818072677E-4,5.071348859928548E-4,9.151799604296684E-4,-9.726099014282227,18.333234786987305,-37.81237030029297,0.015087418258190155,-0.059941619634628296,0.050299644470214844,0.0917635,-0.1578912,9.751913,0.00921044,0.061079085,9.753426,0
15,988.6010131835938,-3.648806014098227E-4,-2.5443267077207565E-5,2.4924881290644407E-4,-9.263994216918945,18.397396087646484,-38.195274353027344,0.024169839918613434,-0.06477382779121399,0.026628494262695312,0.084628046,-0.16504188,9.770854,5.409215E-4,0.058230177,9.772442,0
15,988.5933837890625,-6.315264035947621E-4,3.740841639228165E-4,-1.7208512872457504E-5,-9.40848159790039,18.314727783203125,-38.0911865234375,0.019126534461975098,-0.05506680905818939,0.01716136932373047,0.089442104,-0.16027619,9.780327,0.0081566805,0.060115248,9.781861,0
16,988.580810546875,-2.323827357031405E-4,5.072957137599587E-4,1.1580792488530278E-4,-9.549382209777832,17.86671257019043,-38.04326248168945,0.028354071080684662,-0.04058465361595154,0.055042266845703125,0.08230668,-0.1793433,9.761392,-0.00662571,0.045961916,9.763276,0
16,988.5882568359375,-3.658708301372826E-4,-2.5282555725425482E-5,6.482981843873858E-4,-9.867681503295898,18.14759635925293,-37.163818359375,-0.0050899311900138855,-0.06402401626110077,0.040843963623046875,0.10862982,-0.15551127,9.77323,0.02657546,0.054797232,9.774882,0
16,988.6010131835938,2.9958883533254266E-4,1.0792899411171675E-4,2.4868291802704334E-4,-9.364757537841797,18.03969383239746,-38.235801696777344,0.01854456216096878,-0.05400781333446503,0.050322532653808594,0.0895448,-0.1698118,9.763765,0.003555174,0.050106257,9.765524,0
16,988.5756225585938,4.324166220612824E-4,3.742984845302999E-4,6.480152951553464E-4,-9.706451416015625,18.24646759033203,-38.118263244628906,0.01814117282629013,-0.06820619106292725,0.02665424346923828,0.09674877,-0.15074642,9.763767,0.018195372,0.06356023,9.765186,0
16,988.5986328125,-2.3370300186797976E-4,3.743520937860012E-4,-1.5107379294931889E-4,-9.405437469482422,18.317672729492188,-38.24580001831055,0.00846996158361435,-0.04384957253932953,0.036121368408203125,0.08970928,-0.17219912,9.775617,0.0020999415,0.04753016,9.77743,0
16,988.601318359375,4.314147518016398E-4,-2.913285861723125E-4,2.481121337041259E-4,-9.364757537841797,18.03969383239746,-38.235801696777344,0.036559075117111206,-0.0391571968793869,0.04559135437011719,0.08974731,-0.17458333,9.766151,9.131769E-4,0.044994324,9.768021,0
16,988.58642578125,-7.623357814736664E-4,9.009309578686953E-4,-2.2201857063919306E-5,-9.422584533691406,18.775676727294922,-38.19297409057617,0.01290842890739441,-0.04847443103790283,0.045589447021484375,0.09934503,-0.16981776,9.76142,0.011103883,0.0448142,9.763294,0
16,988.5911254882812,3.624515375122428E-5,-5.637467838823795E-4,2.4395686341449618E-4,-9.007001876831055,18.111495971679688,-38.60306930541992,0.008227407932281494,-0.05765540897846222,0.03612327575683594,0.09221333,-0.15790229,9.777994,0.0114493,0.058500946,9.779522,0
16,988.5738525390625,1.690361532382667E-4,-5.636871792376041E-4,-6.883058813400567E-4,-9.770665168762207,18.34442138671875,-38.19108581542969,0.00344221293926239,-0.047814011573791504,0.01718902587890625,0.10659087,-0.16505308,9.770895,0.020162197,0.045190334,9.772745,0
16,988.5865478515625,1.6866944497451186E-4,-3.0995928682386875E-5,-2.267345553264022E-5,-9.29611587524414,17.840242385864258,-37.69581985473633,0.007804274559020996,-0.05237802863121033,0.04086589813232422,0.09228948,-0.16028734,9.778001,0.009999207,0.05583547,9.779587,0
16,988.5692138671875,-6.306451396085322E-4,0.001034327200613916,-9.549362002871931E-4,-9.276468276977539,17.753477096557617,-38.001708984375,0.022036999464035034,-0.06145964562892914,0.050342559814453125,0.08993766,-0.1555217,9.7567,0.009250068,0.060308784,9.7581625,0
16,988.5789794921875,3.0109385261312127E-4,-6.966665387153625E-4,-2.2987776901572943E-5,-9.157577514648438,18.02293586730957,-38.18976593017578,0.00252368301153183,-0.042157500982284546,0.0408782958984375,0.101925224,-0.17935549,9.773273,0.009914263,0.033514977,9.775387,0
16,988.5936889648438,3.404408926144242E-5,5.018739029765129E-4,-1.5646015526726842E-4,-9.680171966552734,17.79730224609375,-38.634918212890625,0.035666950047016144,-0.06561006605625153,0.040886878967285156,0.07806426,-0.15552367,9.77091,8.706711E-4,0.06520316,9.772243,0
16,988.5936889648438,3.404408926144242E-5,5.018739029765129E-4,-1.5646015526726842E-4,-9.283940315246582,17.852027893066406,-38.31426239013672,0.01635204255580902,-0.037016987800598145,0.03141593933105469,0.10200137,-0.15790789,9.768547,0.019872919,0.05191888,9.770196,0
16,988.569091796875,-6.321125547401607E-4,-4.3017196003347635E-4,1.0969833238050342E-4,-9.131437301635742,17.467853546142578,-38.00734329223633,0.006917528808116913,-0.06521235406398773,0.05509185791015625,0.0948697,-0.1602921,9.751978,0.0122271925,0.052384704,9.753609,0
16,988.5640258789062,-9.984761709347367E-5,-5.632704123854637E-4,-2.3616652470082045E-5,-9.346769332885742,17.845539093017578,-37.76530838012695,0.016505323350429535,-0.041352152824401855,0.06455707550048828,0.090127975,-0.17935927,9.744881,-8.5811643E-4,0.037529215,9.746875,0
16,988.5892944335938,-2.3337238235399127E-4,-3.057904541492462E-5,1.0938401101157069E-4,-9.837814331054688,17.333086013793945,-37.73664093017578,0.0312562957406044,-0.031488239765167236,0.045617103576660156,0.075826585,-0.17936017,9.775659,-0.012474002,0.045305967,9.777486,0
16,988.5594482421875,1.6573461471125484E-4,-0.002027888549491763,1.092267339117825E-4,-9.37639045715332,17.65962028503418,-37.5189094543457,0.016693033277988434,-0.04565228521823883,0.03141498565673828,0.09737381,-0.16744466,9.756724,0.010907888,0.044652954,9.758539,0
16,988.5818481445312,-1.0094809113070369E-4,2.35856045037508E-4,-2.408848376944661E-5,-9.371824264526367,17.664039611816406,-37.750823974609375,0.00691310316324234,-0.040846750140190125,0.050353050231933594,0.08785224,-0.16744561,9.761461,0.0026308529,0.049119532,9.763169,0
16,988.5974731445312,-5.007887375541031E-4,5.022315308451653E-4,-2.4245644453912973E-5,-9.880422592163086,18.083799362182617,-38.46685791015625,0.030707255005836487,-0.04079422354698181,0.05508613586425781,0.08311045,-0.17221312,9.754364,-0.0031592748,0.046930358,9.756126,0
16,988.5774536132812,-5.011553294025362E-4,2.3597502149641514E-4,-2.4402805138379335E-5,-9.229401588439941,18.113523483276367,-37.876060485839844,0.016134902834892273,-0.045309484004974365,0.045619964599609375,0.09509808,-0.16506423,9.759102,0.009412019,0.04754737,9.760839,0
16,988.5873413085938,3.1109258998185396E-5,-3.0281313229352236E-5,-2.4560082238167524E-5,-9.666314125061035,18.33677864074707,-38.20671844482422,0.015788890421390533,-0.03572876751422882,0.036151885986328125,0.08796638,-0.17459829,9.766207,-4.2918208E-4,0.042365924,9.768073,0
16,988.5594482421875,-7.68205092754215E-4,3.692519385367632E-4,1.0844069765880704E-4,-9.279511451721191,17.75052833557129,-37.84709167480469,0.02535921335220337,-0.049683794379234314,0.050357818603515625,0.08561456,-0.16268285,9.766211,0.0027293803,0.053796247,9.767792,0
16,988.5773315429688,2.9669172363355756E-4,-4.296360712032765E-4,1.0828353697434068E-4,-9.518377304077148,17.94818878173828,-37.667884826660156,0.020188823342323303,-0.03533516824245453,0.040892601013183594,0.09282231,-0.16983365,9.754377,0.0063125915,0.043449506,9.756199,0
17,988.5748901367188,-1.0314915562048554E-4,3.6937114782631397E-4,1.081263180822134E-4,-9.701587677001953,18.883024215698242,-37.92530822753906,0.03041519969701767,-0.049178823828697205,0.040889739990234375,0.07852095,-0.15791811,9.761482,-0.0018920185,0.060775086,9.762886,0
17,988.59521484375,-3.698315122164786E-4,-0.0012284645345062017,-1.583466655574739E-4,-9.324321746826172,18.762142181396484,-37.899383544921875,0.011198438704013824,-0.04914283752441406,0.040889739990234375,0.09289846,-0.16506885,9.773321,0.006491054,0.048149586,9.775037,0
17,988.5748291015625,-1.0388280497863889E-4,-6.957731675356627E-4,5.072857020422816E-4,-9.157715797424316,17.917016983032227,-37.490684509277344,0.02532307058572769,-0.04422794282436371,0.04562568664550781,0.09054655,-0.16983636,9.763857,0.0028862455,0.044454783,9.765653,0
17,988.610595703125,1.6206660075113177E-4,3.695498453453183E-4,6.402863655239344E-4,-9.176246643066406,18.479467391967773,-38.05963134765625,0.025092028081417084,-0.0628919005393982,0.036163330078125,0.08819476,-0.15553765,9.763861,0.006584548,0.057894602,9.765323,0
17,988.5574951171875,-3.712989273481071E-4,2.3651093943044543E-4,-4.25291305873543E-4,-9.07037353515625,18.473297119140625,-38.15257263183594,0.010024294257164001,-0.05791257321834564,0.059825897216796875,0.09548122,-0.16269036,9.756769,0.010084208,0.047715947,9.758472,0
17,988.5574951171875,-3.712989273481071E-4,2.3651093943044543E-4,-4.25291305873543E-4,-9.07037353515625,18.473297119140625,-38.15257263183594,0.01967497169971466,-0.038467928767204285,0.05036163330078125,0.08604312,-0.16984318,9.761515,-0.0018096762,0.045272976,9.763267,0
17,988.5751342773438,5.63458539545536E-4,9.890020010061562E-5,-2.9147136956453323E-5,-8.958849906921387,17.734966278076172,-38.280521392822266,0.03377274423837662,-0.0477345734834671,0.04563140869140625,0.08369762,-0.16746096,9.766253,-0.0012526026,0.048299298,9.767928,0
17,988.5932006835938,-1.03133381344378E-4,9.903046884573996E-5,-4.2896484956145287E-4,-9.512289047241211,17.95408058166504,-37.97710418701172,0.033716149628162384,-0.04758913815021515,0.050365447998046875,0.0765723,-0.16031219,9.766257,-0.0036081676,0.057862356,9.767702,0
17,988.5752563476562,-3.6987755447626114E-4,2.3225796758197248E-4,-4.291483201086521E-4,-9.713518142700195,17.870813369750977,-37.63328552246094,0.01880209892988205,-0.04731971025466919,0.031434059143066406,0.08378643,-0.16746317,9.759161,-8.4034307E-4,0.047470003,9.760843,0
17,988.5883178710938,2.542706788517535E-4,7.309680222533643E-4,-9.701034286990762E-5,-9.883306503295898,18.607074737548828,-37.18830108642578,0.018388353288173676,-0.04688026010990143,0.05038166046142578,0.08861065,-0.16508095,9.763899,0.004624761,0.046866268,9.765584,0
17,988.567626953125,3.870002110488713E-4,6.524781929329038E-5,3.02279950119555E-4,-9.367258071899414,17.668458938598633,-37.98274230957031,0.0231999009847641,-0.0370229035615921,0.03144645690917969,0.08626512,-0.16269882,9.773371,0.002826403,0.050087124,9.774976,0
17,988.5706176757812,3.865725011564791E-4,-3.341565025039017E-4,-6.30008929874748E-4,-9.277148246765137,18.01584815979004,-37.40107727050781,0.022910624742507935,-0.0558333545923233,0.03618431091308594,0.08630952,-0.16746642,9.7639065,5.327401E-4,0.045269385,9.76562,0
17,988.5402221679688,-6.791190826334059E-4,3.317026421427727E-4,-9.756063809618354E-5,-9.195489883422852,18.09202766418457,-36.956214904785156,0.023097358644008636,-0.03664982318878174,0.050383567810058594,0.088743806,-0.1650842,9.766278,0.0033174679,0.04636322,9.767965,0
17,988.5858154296875,2.5255867512896657E-4,-9.99807263724506E-4,3.017297713086009E-4,-9.112874984741211,18.117666244506836,-38.5101318359375,0.013231560587882996,-0.03155621886253357,0.059859275817871094,0.0863983,-0.16985191,9.740242,-3.6729022E-4,0.042134836,9.742015,0
17,988.593505859375,3.852887894026935E-4,5.98157464992255E-4,1.6838847659528255E-4,-9.309537887573242,18.038818359375,-38.39822769165039,0.022793278098106384,-0.04106758534908295,0.04565143585205078,0.08883262,-0.16031985,9.75445,0.0062277075,0.049814716,9.756043,0
17,988.5736694335938,-6.804027943871915E-4,-7.333524408750236E-4,-9.811081690713763E-5,-9.010481834411621,17.37049674987793,-38.174251556396484,0.01817416399717331,-0.031088843941688538,0.040920257568359375,0.09365687,-0.17700393,9.771025,0.0021756215,0.03290434,9.773021,0
17,988.5809326171875,5.175909609533846E-4,-3.3380917739123106E-4,1.680217101238668E-4,-9.514897346496582,18.68918800354004,-38.096702575683594,0.036945946514606476,-0.05463053286075592,0.02672290802001953,0.07697189,-0.15078895,9.780497,0.0011147554,0.06365132,9.7817545,0
17,988.5709228515625,-1.546897692605853E-5,6.57341443002224E-5,-0.0011637411080300808,-9.767078399658203,17.979080200195312,-38.24724197387695,0.012719616293907166,-0.044549062848091125,0.06460762023925781,0.09135574,-0.16747294,9.75683,0.0052150656,0.04101953,9.758608,0
17,988.5736694335938,7.830509566701949E-4,9.979091119021177E-4,4.339708248153329E-4,-9.670879364013672,18.332361221313477,-37.97480010986328,0.022407621145248413,-0.03034350275993347,0.03145885467529297,0.07945061,-0.17224063,9.763935,-0.008726889,0.04248847,9.765682,0
17,988.5663452148438,-5.489567411132157E-4,-8.662325562909245E-4,5.669451784342527E-4,-9.26923942565918,18.655349731445312,-37.36273193359375,0.01715312898159027,-0.0443643182516098,0.03146553039550781,0.08427483,-0.16747512,9.773408,-0.0010291473,0.044433877,9.775105,0
17,988.5888671875,1.1640525190159678E-4,5.985743482597172E-4,5.667619407176971E-4,-9.552968978881836,18.232057571411133,-37.98710250854492,0.021883524954319,-0.03448644280433655,0.02200031280517578,0.084319234,-0.17224278,9.77578,-0.0033152902,0.039946437,9.777578,0
17,988.5715942382812,-1.5033880481496453E-4,-2.0030385348945856E-4,3.3946591429412365E-5,-9.47671890258789,18.03997230529785,-37.833641052246094,0.017144016921520233,-0.03899969160556793,0.05040550231933594,0.089143425,-0.16271077,9.766315,0.0054835174,0.045695215,9.76797,0
17,988.5741577148438,3.8143707206472754E-4,-9.991126134991646E-4,-4.990519373677671E-4,-9.1220064163208,18.108827590942383,-38.046302795410156,0.012747548520565033,-0.038600653409957886,0.026734352111816406,0.0891878,-0.1674784,9.775787,0.0017086118,0.0415985,9.77754,0
17,988.5741577148438,3.8143707206472754E-4,-9.991126134991646E-4,-4.990519373677671E-4,-9.088935852050781,17.823484420776367,-37.6497802734375,0.007760226726531982,-0.04779481887817383,0.04567718505859375,0.09879184,-0.16271289,9.75922,0.012638904,0.040709406,9.7609825,0
17,988.5741577148438,2.4785142159089446E-4,-6.693752948194742E-5,-2.3291941033676267E-4,-8.979476928710938,17.45197105407715,-37.79887771606445,0.021787740290164948,-0.03816373646259308,0.05041217803955078,0.08927661,-0.16271402,9.752123,0.0045261006,0.04463616,9.753785,0
18,988.596923828125,-1.889251871034503E-5,3.326057340018451E-4,2.995288814418018E-4,-9.333209991455078,17.752878189086914,-37.7619743347168,0.03597284108400345,-0.04712386429309845,0.04095268249511719,0.07737151,-0.16748168,9.768698,-0.007984721,0.04575181,9.7703285,0
18,988.5843505859375,6.464692414738238E-4,-1.9995649927295744E-4,4.325034678913653E-4,-9.279512405395508,17.750530242919922,-37.84709548950195,0.03123950958251953,-0.03277002274990082,0.055151939392089844,0.09175533,-0.16748281,9.752131,0.0045426083,0.038672164,9.753922,0
