Timestamp,P,Gx,Gy,Gz,Mx,My,Mz,LiAx,LiAy,LiAz,Ax,Ay,Az,Value,Type
0,989.9727783203125,-7.771157543174922E-4,0.002864896086975932,2.9701783205382526E-4,-7.139693737030029,13.319149017333984,-17.257265090942383,-0.01809852570295334,-0.003104269504547119,0.04384899139404297,0.097569525,-0.14706787,9.771834,0
0,989.9594116210938,5.480969557538629E-4,-2.5285608717240393E-4,-2.055177465081215E-4,-7.034120082855225,12.68084716796875,-17.77507972717285,-0.013285420835018158,0.006472155451774597,0.058053016662597656,0.08560607,-0.14706752,9.750529,0
0,989.9594116210938,5.480969557538629E-4,-2.5285608717240393E-4,-2.055177465081215E-4,-7.034120082855225,12.68084716796875,-17.77507972717285,-0.008315950632095337,-0.007829815149307251,0.043849945068359375,0.08798206,-0.13753408,9.76473,0
0,989.9638061523438,1.5599769540131092E-5,-2.528779150452465E-4,-2.0546012092381716E-4,-6.866099834442139,12.943540573120117,-17.81633949279785,-0.008425600826740265,0.006478667259216309,0.034381866455078125,0.09274787,-0.13991702,9.757628,0
0,989.9585571289062,4.152078181505203E-4,1.4657409337814897E-4,-6.048762006685138E-4,-7.1371941566467285,13.690387725830078,-17.51032829284668,-0.022436484694480896,-0.007270678877830505,0.04859161376953125,0.097513735,-0.14468321,9.7552595,0
0,990.0086669921875,6.816583918407559E-4,-0.0010518691269680858,-7.218681275844574E-5,-6.623348712921143,13.012672424316406,-17.626840591430664,-0.017415396869182587,0.0025019943714141846,0.02965831756591797,0.09749979,-0.13753304,9.769462,0
0,989.9629516601562,5.486347945407033E-4,-5.192593089304864E-4,1.9418657757341862E-4,-6.928355693817139,13.78101921081543,-18.240671157836914,-0.002282150089740753,-0.0021581649780273438,0.06752872467041016,0.09031612,-0.14468256,9.771828,0
0,989.9749755859375,2.824531402438879E-4,-0.0010519127827137709,4.605600261129439E-4,-7.32570219039917,13.250614166259766,-17.68650245666504,-0.0023384466767311096,-0.006909117102622986,0.043860435485839844,0.08791229,-0.13514909,9.764724,0
0,989.9878540039062,1.6271951608359814E-5,-1.1982904106844217E-4,5.937755922786891E-4,-6.358043193817139,12.892066955566406,-17.198762893676758,-0.011637575924396515,-0.006463184952735901,0.03913116455078125,0.09506804,-0.14229858,9.776559,0
0,989.9878540039062,1.6271951608359814E-5,-1.1982904106844217E-4,5.937755922786891E-4,-6.358043193817139,12.892066955566406,-17.198762893676758,-0.001856975257396698,-0.01106339693069458,0.0107269287109375,0.090274304,-0.13514838,9.793128,0
0,990.0006103515625,0.0010816698195412755,1.3307027984410524E-5,-4.714303067885339E-4,-6.934878826141357,13.037073135375977,-17.657243728637695,-0.0020753368735313416,0.008370131254196167,0.05807971954345703,0.0830906,-0.14468116,9.743415,0
0,989.9800415039062,2.828564029186964E-4,-9.188203257508576E-4,3.275749913882464E-4,-7.188283443450928,12.957630157470703,-17.305612564086914,0.0026453211903572083,0.0037679821252822876,0.06281661987304688,0.09263629,-0.14706412,9.752884,0
0,989.9699096679688,4.162834957242012E-4,2.795574255287647E-4,7.271639769896865E-4,-6.7181620597839355,12.554946899414062,-17.27750587463379,0.012162141501903534,0.004068344831466675,0.07229328155517578,0.08067286,-0.13991395,9.741046,0
0,989.9699096679688,4.162834957242012E-4,2.795574255287647E-4,7.271639769896865E-4,-6.7181620597839355,12.554946899414062,-17.27750587463379,-0.02605058252811432,-0.005421355366706848,0.029685020446777344,0.09260839,-0.14229685,9.771818,0
0,989.985107421875,8.158915443345904E-4,1.4637767162639648E-4,-7.172604091465473E-5,-7.073277950286865,12.960298538208008,-17.86237907409668,-0.0067110806703567505,-0.01967349648475647,0.039154052734375,0.092594445,-0.12799683,9.771817,0
0,989.9852294921875,-3.8226088508963585E-4,-9.189295233227313E-4,-4.7108472790569067E-4,-7.106349468231201,13.24563980102539,-18.25889778137207,-0.0013523474335670471,0.018597200512886047,0.0580902099609375,0.09019059,-0.14944604,9.762347,0
0,989.9771728515625,5.499789258465171E-4,-5.194774712435901E-4,-2.0471110474318266E-4,-6.9394450187683105,13.03265380859375,-17.42533302307129,0.003208443522453308,-4.041343927383423E-4,0.03915691375732422,0.08300692,-0.13991258,9.757611,0
0,989.982177734375,-1.156762009486556E-4,9.452379890717566E-4,-3.3781141974031925E-4,-7.084336757659912,13.424192428588867,-18.118772506713867,-0.001697055995464325,-5.976259708404541E-4,0.048625946044921875,0.08777279,-0.14944533,9.767079,0
0,989.9923095703125,-1.155417412519455E-4,-1.2004737800452858E-4,6.172002758830786E-5,-6.96960973739624,13.21502685546875,-17.277387619018555,-0.0161425918340683,-0.005319029092788696,0.02495574951171875,0.09492856,-0.13991186,9.759976,0
0,989.9674072265625,1.5090848319232464E-4,6.788784521631896E-4,-6.040121661499143E-4,-6.858190059661865,13.583038330078125,-17.77799415588379,0.0021158382296562195,-4.725158214569092E-4,0.03907966613769531,0.08864057,-0.1399335,9.776627,0
0,989.9999389648438,-5.211409879848361E-4,1.472628937335685E-4,3.2541071414016187E-4,-7.323638439178467,12.883798599243164,-17.665353775024414,0.0020134970545768738,-5.621463060379028E-4,0.07695198059082031,0.08627218,-0.13755074,9.752957,0
0,989.9674072265625,2.7551024686545134E-4,-9.176278254017234E-4,-3.413631930015981E-4,-6.8395209312438965,13.126510620117188,-17.90812873840332,0.006979256868362427,0.004274412989616394,0.043808937072753906,0.07912403,-0.14946768,9.764794,0
0,989.9594116210938,9.410922648385167E-4,0.0010797750437632203,1.911795698106289E-4,-6.9178385734558105,13.685413360595703,-18.082731246948242,-0.007582604885101318,0.004447028040885925,0.03434181213378906,0.083925426,-0.14470166,9.757696,0
0,989.9496459960938,8.077266393229365E-4,-1.1861273378599435E-4,3.242485108785331E-4,-7.087380886077881,13.421245574951172,-17.96416664123535,-0.021957263350486755,-0.004700794816017151,0.015407562255859375,0.093506515,-0.13993564,9.776636,0
0,989.9750366210938,-1.2458686251193285E-4,4.140527453273535E-4,-7.531431037932634E-5,-7.155618190765381,13.146492004394531,-17.70661735534668,-0.007623247802257538,-0.013927280902862549,0.04855155944824219,0.09113824,-0.13040301,9.769536,0
1,990.00244140625,9.40469210036099E-4,-5.180190782994032E-4,-6.080351304262877E-4,-7.040613651275635,13.149160385131836,-18.263383865356445,0.011881999671459198,-0.004197046160697937,0.06275081634521484,0.08160019,-0.13993672,9.755334,0
1,989.9771728515625,8.155708201229572E-6,-0.0010506169637665153,5.766551475971937E-5,-7.030778408050537,13.315927505493164,-17.50481605529785,0.002630986273288727,0.019525080919265747,0.0627450942993164,0.08640152,-0.1494703,9.757704,0
1,989.9568481445312,1.4110596384853125E-4,-1.1847780842799693E-4,-4.750551888719201E-4,-6.989257335662842,13.301795959472656,-16.971498489379883,-0.011572234332561493,6.835460662841797E-4,0.029605865478515625,0.08403319,-0.13993779,9.776643,0
1,989.9393920898438,5.403721006587148E-4,-3.8475991459563375E-4,-4.7514430480077863E-4,-7.002679347991943,13.500370025634766,-17.673906326293945,-0.0019957199692726135,-0.004177853465080261,0.043804168701171875,0.08166477,-0.13755497,9.779012,0
1,989.9694213867188,-1.256252871826291E-4,-3.8472627056762576E-4,-7.575948256999254E-5,-6.380896091461182,12.449670791625977,-17.862211227416992,0.007635973393917084,6.676763296127319E-4,0.024866104125976562,0.084076285,-0.14232206,9.79085,0
1,989.982177734375,-5.25306910276413E-4,1.4781238860450685E-5,3.2362533966079354E-4,-6.526767253875732,12.471443176269531,-18.379892349243164,-0.007060900330543518,-0.008893713355064392,0.058007240295410156,0.091267526,-0.13517275,9.75771,0
1,989.9694213867188,1.402751076966524E-4,0.001080078654922545,-7.593753980472684E-5,-6.833571910858154,13.026485443115234,-17.518266677856445,-0.011240608990192413,-0.003936320543289185,0.029595375061035156,0.09128907,-0.1423231,9.771915,0
1,989.9795532226562,2.732253633439541E-4,-0.0018493625102564692,5.897631635889411E-4,-6.618781566619873,13.01708984375,-17.858755111694336,0.002918243408203125,-0.00389784574508667,0.02486133575439453,0.08175099,-0.14232364,9.76245,0
1,989.9894409179688,1.398597378283739E-4,6.806721212342381E-4,1.9020031322725117E-4,-6.6688923835754395,12.654094696044922,-17.82979393005371,-0.01603085547685623,6.369948387145996E-4,0.024854660034179688,0.08655238,-0.13994092,9.767186,0
1,989.9365234375,-1.266638282686472E-4,-5.177156417630613E-4,5.6953373132273555E-5,-7.1055073738098145,13.50948715209961,-17.73558235168457,0.012764081358909607,-0.003947257995605469,0.04852485656738281,0.08418405,-0.13755816,9.77429,0
1,989.9795532226562,5.389180732890964E-4,-0.001050313701853156,-7.62935378588736E-5,-6.714980602264404,12.663808822631836,-18.131196975708008,0.0036227405071258545,0.01049107313156128,0.05799102783203125,0.08420554,-0.15185833,9.760089,0
1,989.9617919921875,-1.2728699948638678E-4,-3.8445653626695275E-4,1.898442569654435E-4,-6.674544811248779,13.38625717163086,-17.79477882385254,0.003922156989574432,-0.008453279733657837,0.05325126647949219,0.07944733,-0.13755924,9.755357,0
1,989.9617919921875,-1.2728699948638678E-4,-3.8445653626695275E-4,1.898442569654435E-4,-6.56119966506958,13.281532287597656,-17.575162887573242,0.023228362202644348,-0.018190652132034302,0.06744861602783203,0.07707897,-0.1304099,9.760093,0
1,989.9617919921875,-1.2728699948638678E-4,-3.8445653626695275E-4,1.898442569654435E-4,-6.56119966506958,13.281532287597656,-17.575162887573242,-0.005273379385471344,9.79393720626831E-4,0.029572486877441406,0.08188033,-0.14232686,9.77193,0
1,989.9640502929688,-3.9556558476760983E-4,-0.0011237621074542403,-3.462379099801183E-4,-6.553046703338623,12.920612335205078,-17.863237380981445,0.009377464652061462,0.005674928426742554,0.034300804138183594,0.084291786,-0.13756076,9.774299,0
1,989.9617919921875,3.700537490658462E-6,-9.905704064294696E-4,-7.458009058609605E-4,-6.445109844207764,12.547622680664062,-17.935029983520508,0.009355202317237854,0.005471572279930115,0.06270217895507812,0.0843133,-0.14709449,9.757731,0
1,989.9617919921875,-6.62296952214092E-4,-5.843105827807449E-5,-3.464160254225135E-4,-6.969608783721924,13.21502685546875,-17.27738380432129,0.014359131455421448,-0.014010205864906311,0.057956695556640625,0.081945,-0.13994512,9.755365,0
1,989.9390258789062,-3.961887559853494E-4,-4.578712396323681E-4,-3.465050831437111E-4,-6.572696208953857,13.007377624511719,-17.55735206604004,0.024065792560577393,-0.004634872078895569,0.06268501281738281,0.065237224,-0.13279581,9.76957,0
1,989.9390258789062,-6.627124384976923E-4,-4.5783742098137736E-4,-3.465941408649087E-4,-6.326900959014893,13.079458236694336,-17.522462844848633,-0.003266066312789917,-1.7346441745758057E-4,0.03911590576171875,0.09333813,-0.13516495,9.778987,0
1,989.9390258789062,-6.627124384976923E-4,-4.5783742098137736E-4,-3.465941408649087E-4,-6.326900959014893,13.079458236694336,-17.522462844848633,0.015941768884658813,-0.009465590119361877,0.053322792053222656,0.07838464,-0.13753316,9.778932,0
1,989.9894409179688,1.4362551155500114E-5,-8.591433870606124E-4,-4.7491537407040596E-4,-5.911318302154541,12.415275573730469,-17.932558059692383,-0.012722253799438477,-0.019058510661125183,0.024919509887695312,0.09508729,-0.13514924,9.76946,0
1,989.9894409179688,1.4362551155500114E-5,-8.591433870606124E-4,-4.7491537407040596E-4,-5.911318302154541,12.415275573730469,-17.932558059692383,0.01122310757637024,0.004549801349639893,0.029651641845703125,0.07833132,-0.1422984,9.767089,0
1,989.9642944335938,-2.5143922539427876E-4,3.391947248019278E-4,-7.522135274484754E-5,-5.8202290534973145,13.132427215576172,-17.52665138244629,-0.027005933225154877,0.004395380616188049,0.03438568115234375,0.095034,-0.144681,9.755252,0
1,989.9887084960938,-3.84340004529804E-4,2.05994991119951E-4,-2.0826910622417927E-4,-5.790746212005615,13.21242904663086,-17.0739688873291,0.006012454628944397,0.004322275519371033,0.034392356872558594,0.0854477,-0.13753054,9.786022,0
1,989.991455078125,-6.503989570774138E-4,6.054271361790597E-4,3.2447281409986317E-4,-5.455438137054443,12.367624282836914,-17.307161331176758,0.006076604127883911,0.004417136311531067,0.05806732177734375,0.08303112,-0.13991317,9.767082,0
2,989.991455078125,1.4880583330523223E-4,2.05911579541862E-4,-2.080488484352827E-4,-5.488646030426025,12.547054290771484,-17.004602432250977,0.0057358890771865845,-0.009825542569160461,0.06754207611083984,0.08061457,-0.13037941,9.755244,0
2,989.9960327148438,2.822207170538604E-4,7.27118895156309E-5,3.2469307188875973E-4,-5.543023586273193,12.811773300170898,-16.318857192993164,0.005357310175895691,-1.7908215522766113E-4,0.05808448791503906,0.08297777,-0.13991186,9.759975,0
2,989.9960327148438,2.824777620844543E-4,0.0011379336938261986,-2.0782847423106432E-4,-5.418046474456787,13.087127685546875,-16.816133499145508,0.01463182270526886,0.0044962018728256226,0.0628204345703125,0.07339156,-0.14944425,9.7647085,0
2,989.9940795898438,-1.1673902918118984E-4,7.384181371890008E-4,3.2491341698914766E-4,-5.243937969207764,13.355712890625,-17.16661262512207,-0.01866554468870163,-0.005255028605461121,0.034412384033203125,0.104433596,-0.13514397,9.774175,0
2,989.9788208007812,-6.491138483397663E-4,3.389026678632945E-4,-7.445027586072683E-5,-4.680663585662842,13.303367614746094,-16.711462020874023,0.014618486166000366,0.004214003682136536,0.04861640930175781,0.080507904,-0.14705968,9.774173,0
2,990.0040283203125,-5.156987463124096E-4,-1.9377087301108986E-4,-7.434008875861764E-5,-4.7137322425842285,13.588706970214844,-17.107980728149414,4.055798053741455E-4,-4.7904253005981445E-4,0.039154052734375,0.08287111,-0.14705908,9.767068,0
2,990.0040283203125,5.498217069543898E-4,7.25032587070018E-5,-7.422990165650845E-5,-4.5375590324401855,13.490478515625,-17.437318801879883,0.014742560684680939,-6.039589643478394E-4,0.05335712432861328,0.07567477,-0.13752523,9.759963,0
2,989.9800415039062,-3.8202671566978097E-4,-6.069641312933527E-5,1.9219610840082169E-4,-4.6479973793029785,13.492229461669922,-17.11246681213379,-0.01407989114522934,-0.005244925618171692,0.010752677917480469,0.09476727,-0.15420762,9.783633,0
2,989.9944458007812,2.840197994373739E-4,8.713674615137279E-4,-6.066414061933756E-4,-4.523158550262451,13.661666870117188,-16.910669326782227,2.1992623805999756E-4,-0.014864936470985413,0.03915977478027344,0.08518106,-0.13514066,9.776529,0
2,989.9764404296875,-3.815126256085932E-4,-5.934116779826581E-4,3.255743649788201E-4,-4.290380954742432,13.458114624023438,-16.780656814575195,-0.008800894021987915,-0.01509179174900055,0.0202178955078125,0.09232408,-0.13752338,9.776526,0
2,990.00146484375,-3.81255813408643E-4,-8.597691194154322E-4,-2.0694732666015625E-4,-4.430983066558838,13.64223861694336,-16.3078556060791,0.010264173150062561,0.013470813632011414,0.053360939025878906,0.0827378,-0.15182233,9.7623205,0
2,989.9909057617188,1.847515522968024E-5,7.229465700220317E-5,-4.73152962513268E-4,-4.8990397453308105,13.678104400634766,-16.3148136138916,-0.01345989853143692,-7.156431674957275E-4,0.05336570739746094,0.09227073,-0.14943847,9.767053,0
2,989.9807739257812,4.182059201411903E-4,7.225295121315867E-5,0.0011248523369431496,-4.4870429039001465,13.379268646240234,-16.66875648498535,-0.008684515953063965,0.008793696761131287,0.015489578247070312,0.08268449,-0.14467117,9.778887,0
2,989.9807739257812,1.8989245290867984E-5,7.221120176836848E-5,1.928569981828332E-4,-4.894473552703857,13.682525634765625,-16.54673194885254,0.005436278879642487,-0.01513431966304779,0.024962425231933594,0.07787797,-0.12798762,9.776517,0
2,989.9756469726562,-7.797014550305903E-4,0.00100427505094558,4.592830373439938E-4,-4.68577241897583,13.667240142822266,-16.5779972076416,0.004912532866001129,-6.811916828155518E-4,0.05337810516357422,0.08024123,-0.13752005,9.767046,0
2,990.0029907226562,1.5291808813344687E-4,7.378757582046092E-4,-0.0011383917881175876,-4.5688395500183105,13.197174072265625,-16.414541244506836,0.009247399866580963,-0.005430117249488831,0.043918609619140625,0.07782465,-0.13751945,9.759942,0
2,990.0029907226562,1.5291808813344687E-4,7.378757582046092E-4,-0.0011383917881175876,-4.5688395500183105,13.197174072265625,-16.414541244506836,-0.004573836922645569,-6.586909294128418E-4,0.029712677001953125,0.08735764,-0.14466855,9.767041,0
2,989.9983520507812,1.5317513316404074E-4,-9.932193206623197E-4,-7.301825098693371E-5,-4.301332950592041,12.815666198730469,-16.664392471313477,-0.004509523510932922,-0.005417987704277039,0.024979591369628906,0.08016124,-0.14228472,9.762304,0
2,989.980224609375,1.534320617793128E-4,-3.274712071288377E-4,1.934077008627355E-4,-4.824171543121338,13.590461730957031,-16.78312873840332,0.008619703352451324,0.004064351320266724,0.03910636901855469,0.083414465,-0.14707237,9.776587,0
2,989.9879150390625,-5.163575406186283E-4,6.052837707102299E-4,-3.409382770769298E-4,-5.343019008636475,13.525703430175781,-16.160497665405273,0.013550058007240295,0.0037773549556732178,0.0485687255859375,0.073863775,-0.14230606,9.771853,0
2,989.980224609375,1.4508962340187281E-4,-4.5927485916763544E-4,1.8983238260261714E-4,-4.240024089813232,12.820682525634766,-17.13603401184082,0.018185347318649292,-0.010431736707687378,0.04383659362792969,0.06909281,-0.139923,9.755282,0
2,989.980224609375,1.4508962340187281E-4,-4.5927485916763544E-4,1.8983238260261714E-4,-4.240024089813232,12.820682525634766,-17.13603401184082,0.0040051937103271484,-0.010610312223434448,0.02962779998779297,0.07866132,-0.13515666,9.767119,0
2,989.9827270507812,1.1760552297346294E-5,-3.260891535319388E-4,7.223908323794603E-4,-4.869173526763916,12.863594055175781,-16.88762855529785,0.023385219275951385,0.003765493631362915,0.05803203582763672,0.076280296,-0.13277367,9.767121,0
2,989.9827270507812,1.1760552297346294E-5,-3.260891535319388E-4,7.223908323794603E-4,-4.7021307945251465,12.756526947021484,-16.753137588500977,-0.014719836413860321,0.013315275311470032,0.010685920715332031,0.08823866,-0.14945671,9.783692,0
3,990.0078735351562,2.7799076633527875E-4,-5.975937165203504E-5,9.886700427159667E-4,-4.685527324676514,12.666810989379883,-16.904417037963867,-3.245249390602112E-4,-8.86276364326477E-4,0.029623985290527344,0.08346772,-0.1446904,9.767122,0
3,989.9901123046875,1.4474747877102345E-4,-5.923771532252431E-4,5.891595501452684E-4,-4.982081890106201,13.706371307373047,-17.38145637512207,0.009129643440246582,-7.088631391525269E-4,0.03909492492675781,0.07391703,-0.14230734,9.760022,0
3,989.9976196289062,2.7781963581219316E-4,3.397422842681408E-4,1.8964902847073972E-4,-4.571202754974365,12.931854248046875,-16.860559463500977,0.013803079724311829,0.008418858051300049,0.03908824920654297,0.083485514,-0.14945742,9.769492,0
3,989.9976196289062,2.7781963581219316E-4,3.397422842681408E-4,1.8964902847073972E-4,-4.571202754974365,12.931854248046875,-16.860559463500977,-0.01011543720960617,-0.001031726598739624,0.03909015655517578,0.09066409,-0.14469111,9.764758,0
3,990.0050659179688,-2.5237572845071554E-4,6.150998524390161E-4,7.589402957819402E-4,-5.058471202850342,13.792539596557617,-16.835832595825195,-0.010250233113765717,-0.006105512380599976,0.04382038116455078,0.085893154,-0.14469135,9.760024,0
3,990.0050659179688,-1.1930346954613924E-4,2.1564000053331256E-4,2.2627180442214012E-4,-4.491907596588135,12.742713928222656,-16.861711502075195,0.013214193284511566,-0.006133928894996643,0.005947113037109375,0.07156265,-0.13992491,9.776595,0
3,990.0050659179688,-1.1930346954613924E-4,2.1564000053331256E-4,2.2627180442214012E-4,-4.491907596588135,12.742713928222656,-16.861711502075195,0.008363425731658936,0.013080835342407227,0.04855823516845703,0.07396144,-0.1446917,9.755292,0
3,989.9844360351562,-2.5254697538912296E-4,3.488118527457118E-4,-4.0080747567117214E-5,-4.4714179039001465,12.919792175292969,-16.64427375793457,-0.010646626353263855,-0.010849490761756897,0.04855632781982422,0.08352992,-0.14230868,9.750558,0
3,990.0000610351562,-1.195600489154458E-4,4.819975874852389E-4,6.256356136873364E-4,-4.822106838226318,13.223644256591797,-16.76198387145996,-0.006454966962337494,0.008096590638160706,0.048557281494140625,0.09548825,-0.14707544,9.764762,0
3,989.9844970703125,-2.528037875890732E-4,6.151693523861468E-4,-4.019076004624367E-5,-4.8997416496276855,13.52017593383789,-17.537214279174805,0.012686178088188171,0.008258536458015442,0.048560142517089844,0.07637793,-0.13992587,9.771865,0
3,990.0121459960938,4.129004664719105E-4,-7.163962000049651E-4,2.2608847939409316E-4,-4.138282299041748,13.548149108886719,-17.271265029907227,0.022291995584964752,-0.010677263140678406,0.06749820709228516,0.07638687,-0.13515952,9.764764,0
3,989.97119140625,1.46498903632164E-4,3.4888129448518157E-4,-3.065799828618765E-4,-4.893792629241943,13.420150756835938,-17.147356033325195,-0.006229788064956665,0.013191252946853638,0.043824195861816406,0.083565414,-0.14469275,9.76003,0
3,989.97119140625,4.1272921953350306E-4,-3.1689449679106474E-4,-1.7345871310681105E-4,-4.470576763153076,13.183635711669922,-16.120954513549805,0.003197215497493744,0.013182416558265686,0.015417098999023438,0.0764046,-0.14945957,9.771867,0
3,989.989013671875,1.463277731090784E-4,4.820670292247087E-4,0.0012912419624626637,-4.530086994171143,13.391927719116211,-17.124765396118164,0.007399417459964752,-9.525418281555176E-4,0.034361839294433594,0.083583176,-0.1399267,9.7695,0
3,989.989013671875,1.3084383681416512E-5,0.0010147127322852612,4.922576481476426E-4,-4.084584712982178,13.545799255371094,-17.35638999938965,0.007623307406902313,0.008515521883964539,0.024888038635253906,0.06925264,-0.13516039,9.774236,0
3,989.99951171875,1.299858558923006E-5,-5.831687594763935E-4,-7.062004879117012E-4,-4.221194744110107,12.890371322631836,-16.142221450805664,0.012427978217601776,-0.001039758324623108,0.04382610321044922,0.07882112,-0.14231044,9.774236,0
3,989.989013671875,-2.5340274441987276E-4,8.81582556758076E-4,-4.044745583087206E-5,-4.115621089935303,12.252067565917969,-16.6600284576416,-0.0024153143167495728,0.022731363773345947,0.06750011444091797,0.08360982,-0.15899363,9.745831,0
3,989.9864501953125,-2.5348819326609373E-4,-4.4998302473686635E-4,-3.068000078201294E-4,-3.9982523918151855,12.52005386352539,-16.770784378051758,0.006892062723636627,-0.01075395941734314,0.05329608917236328,0.0836187,-0.1375443,9.774238,0
3,989.9841918945312,-1.2041616719216108E-4,0.0010147682623937726,9.263702668249607E-5,-4.034068584442139,13.434589385986328,-16.58782386779785,0.002110205590724945,-0.0012963861227035522,0.024888038635253906,0.078362346,-0.14229912,9.776562,0
3,989.9763793945312,1.26564409583807E-5,2.1583447232842445E-4,8.91548115760088E-4,-4.054015636444092,12.889219284057617,-16.70680809020996,0.0031631886959075928,-0.015695959329605103,0.02024364471435547,0.08263624,-0.13513687,9.771781,0
3,990.009033203125,-5.131372017785907E-4,-3.165707748848945E-4,2.3231087834574282E-4,-4.248178005218506,13.181610107421875,-16.847963333129883,-0.011275291442871094,-0.010974138975143433,0.034447669982910156,0.08977547,-0.13513616,9.77888,0
3,989.97607421875,-2.4536417913623154E-4,-3.1680730171501637E-4,2.3293535923585296E-4,-4.306304454803467,13.285453796386719,-17.230005264282227,0.003507651388645172,-0.005991876125335693,0.04865550994873047,0.08257532,-0.14228529,9.767041,0
3,989.97607421875,4.207191232126206E-4,-4.500129143707454E-4,3.6621905746869743E-4,-4.544327259063721,13.746959686279297,-16.5274715423584,-0.0012243911623954773,-0.006113156676292419,0.07232856750488281,0.092104495,-0.147051,9.762303,0
3,989.9862060546875,2.153843524865806E-5,2.1572916011791676E-4,1.0002890485338867E-4,-4.524137020111084,13.29190444946289,-16.73491096496582,-0.02025771141052246,-0.010712474584579468,0.029722213745117188,0.09685388,-0.14466703,9.778871,0
3,989.9912719726562,-1.1132567306049168E-4,-3.1695025973021984E-4,-2.9931915923953056E-4,-5.279510021209717,13.269821166992188,-17.310075759887695,-0.010321304202079773,-0.010934174060821533,0.015517234802246094,0.08726379,-0.14466631,9.776502,0
4,990.0006713867188,1.5528322546742857E-4,-5.833137547597289E-4,1.0028044926002622E-4,-4.931321620941162,12.594730377197266,-16.939306259155273,0.013405628502368927,-0.015786364674568176,0.048659324645996094,0.075283885,-0.12798259,9.774131,0
4,989.979736328125,-2.4389688041992486E-4,8.813759195618331E-4,3.6672205897048116E-4,-4.85713529586792,12.769462585449219,-16.80699348449707,-0.015247292816638947,-0.020393237471580505,0.020256996154785156,0.089592814,-0.1327484,9.767027,0
4,990.016845703125,-6.427840562537313E-4,0.0010144386906176805,8.99605336599052E-4,-5.238830089569092,12.991844177246094,-17.300081253051758,0.01279892772436142,0.007931172847747803,0.03920173645019531,0.08239269,-0.14228079,9.776492,0
4,990.016845703125,-6.427840562537313E-4,0.0010144386906176805,8.99605336599052E-4,-5.238830089569092,12.991844177246094,-17.300081253051758,-0.01120419055223465,-0.006375253200531006,0.025000572204589844,0.09670162,-0.13989672,9.778857,0
4,990.0015258789062,2.3592350771650672E-5,-5.835518823005259E-4,-2.9856449691578746E-4,-5.445464611053467,12.640308380126953,-17.24766731262207,0.003614477813243866,-0.01579289138317108,0.029737472534179688,0.07994187,-0.13989595,9.762284,0
4,990.0015258789062,2.3592350771650672E-5,-5.835518823005259E-4,-2.9856449691578746E-4,-5.445464611053467,12.640308380126953,-17.24766731262207,0.0034721344709396362,-0.01091320812702179,0.05814838409423828,0.087081134,-0.13989526,9.774117,0
4,990.01416015625,2.3886299459263682E-5,8.219013398047537E-5,1.0103496606461704E-4,-5.078172206878662,12.246744155883789,-17.28123664855957,-0.024733342230319977,0.012563690543174744,0.02973651885986328,0.10139012,-0.15181094,9.76938,0
4,990.0062255859375,-5.084524163976312E-4,-9.831211064010859E-4,-1.6515509923920035E-4,-5.614029407501221,12.745906829833984,-17.30485725402832,-0.010561615228652954,-0.00650729238986969,0.020270347595214844,0.091800034,-0.13989371,9.769378,0
4,990.0062255859375,-5.084524163976312E-4,-9.831211064010859E-4,-1.6515509923920035E-4,-5.652644634246826,12.65707015991211,-17.293710708618164,-0.001444503664970398,0.012658312916755676,0.029748916625976562,0.08459991,-0.14465955,9.778844,0
4,990.0062255859375,8.234207052737474E-4,0.0015468322671949863,-1.6502931248396635E-4,-5.4443488121032715,13.115989685058594,-18.122499465942383,0.003276221454143524,-0.006034776568412781,0.06763267517089844,0.08934924,-0.14465883,9.759903,0
4,990.01318359375,4.2453347123228014E-4,-5.837901262566447E-4,2.3469599545933306E-4,-5.39369535446167,13.110694885253906,-18.053014755249023,0.008263900876045227,-0.0013152658939361572,0.02975940704345703,0.07975921,-0.14465806,9.764634,0
4,990.01318359375,4.2453347123228014E-4,-5.837901262566447E-4,2.3469599545933306E-4,-5.39369535446167,13.110694885253906,-18.053014755249023,-0.001264922320842743,-0.006192907691001892,0.03449249267578125,0.086898446,-0.13274089,9.759898,0
4,989.9906616210938,2.5646499125286937E-5,-5.125362076796591E-5,-3.1368457712233067E-5,-5.375844478607178,12.810623168945312,-16.883440017700195,0.003394313156604767,-0.0015235096216201782,0.05343437194824219,0.09164786,-0.13750675,9.766995,0
4,989.9906616210938,2.5646499125286937E-5,-5.125362076796591E-5,-3.1368457712233067E-5,-5.375844478607178,12.810623168945312,-16.883440017700195,-0.010996140539646149,-0.006456032395362854,0.04396629333496094,0.10117701,-0.13988933,9.776462,0
4,989.9832763671875,-6.395562086254358E-4,4.812828847207129E-4,2.3519896785728633E-4,-5.6502814292907715,12.922388076782227,-16.847688674926758,-0.011446557939052582,-0.002058863639831543,0.02503204345703125,0.09158695,-0.15418819,9.771726,0
4,990.0054321289062,-7.724207825958729E-4,8.807091508060694E-4,-2.973070368170738E-4,-5.322146892547607,12.808273315429688,-16.96856117248535,-0.00652322918176651,0.0026965588331222534,0.04396820068359375,0.0867767,-0.14227107,9.764621,0
4,990.0004272460938,6.51476439088583E-4,0.001335466979071498,-2.3540967958979309E-4,-5.001485347747803,12.79271125793457,-17.401987075805664,0.0027811527252197266,0.0029616355895996094,0.05344867706298828,0.08435637,-0.14465365,9.76225,0
4,989.9799194335938,1.1913766502402723E-4,-5.287919193506241E-4,-2.3528395104222E-4,-5.256412029266357,12.7117919921875,-16.973047256469727,0.01767691969871521,0.0026847124099731445,0.04870796203613281,0.081936,-0.14465281,9.769349,0
4,990.0004272460938,-6.795161170884967E-4,-0.001194629119709134,-1.020001363940537E-4,-4.954174518585205,12.152332305908203,-17.602758407592773,-0.0060485899448394775,0.0024727582931518555,0.02978515625,0.088995755,-0.14226684,9.774074,0
4,990.0004272460938,-4.125286650378257E-4,1.368410885334015E-4,-3.68028151569888E-4,-4.919283390045166,12.500598907470703,-16.858667373657227,-0.01545272022485733,-0.021283581852912903,0.02031993865966797,0.08410123,-0.12081453,9.766961,0
4,989.9775390625,-5.459365202113986E-4,-5.282594356685877E-4,-7.631679181940854E-4,-4.813953876495361,12.86271858215332,-17.050058364868164,-0.005852155387401581,0.012045666575431824,0.048727989196777344,0.084064424,-0.1541796,9.769325,0
4,989.9775390625,-1.4610806829296052E-4,2.706307277549058E-4,-0.0014288057573139668,-4.757213115692139,12.86331558227539,-17.2897891998291,-0.010783828794956207,-0.0022750943899154663,0.029794692993164062,0.08880746,-0.14464548,9.771689,0
4,989.9950561523438,5.200360901653767E-4,8.032049518078566E-4,-2.3023219546303153E-4,-4.726207256317139,12.944791793823242,-16.91441535949707,0.01330631971359253,0.007598131895065308,0.044007301330566406,0.08638078,-0.1374948,9.778787,0
4,989.9950561523438,5.203905748203397E-4,-6.61590020172298E-4,-6.295540952123702E-4,-4.707239627838135,13.120393753051758,-16.61967658996582,0.003542497754096985,0.007519051432609558,0.03453826904296875,0.086344,-0.15179357,9.778785,0
5,990.0003051757812,1.2127126683481038E-4,4.036159079987556E-4,-6.294021150097251E-4,-3.927110195159912,12.691837310791016,-16.483858108520508,0.00805053859949112,0.007626935839653015,0.048750877380371094,0.08152741,-0.14225951,9.778781,0
5,990.0050659179688,-1.1532072676345706E-5,8.030321914702654E-4,-9.66184597928077E-5,-4.54182767868042,14.11819839477539,-16.78053092956543,-0.0012353435158729553,0.0030381083488464355,0.0440216064453125,0.07910073,-0.13749209,9.762207,0
5,990.0050659179688,3.8829646655358374E-4,2.703429199755192E-4,-3.6278238985687494E-4,-4.1790995597839355,13.720211029052734,-16.582185745239258,-0.006407476961612701,0.002854570746421814,0.03455543518066406,0.08862358,-0.14225772,9.764571,0
5,990.0026245117188,-1.4398092753253877E-4,-2.6234635151922703E-4,3.68434120900929E-5,-4.073228359222412,13.714040756225586,-16.675127029418945,-0.0011418089270591736,-0.011346697807312012,0.020353317260742188,0.081417024,-0.14225683,9.766935,0
5,989.979736328125,2.55847378866747E-4,3.911933163180947E-6,-0.0011614260729402304,-4.2704339027404785,14.003482818603516,-16.661672592163086,-0.0060346052050590515,0.00782613456249237,0.029829025268554688,0.09332982,-0.14463922,9.776401,0
5,990.0023803710938,-1.011413405649364E-5,2.701702469494194E-4,1.7030522576533258E-4,-4.253830432891846,13.913768768310547,-16.812952041625977,-0.010907016694545746,0.01247154176235199,0.01562976837158203,0.08612329,-0.15655467,9.762194,0
5,989.9796752929688,-2.7607541414909065E-4,2.7011267957277596E-4,4.367730289231986E-4,-3.8223233222961426,13.422250747680664,-16.773698806762695,-0.010380290448665619,-0.0020908713340759277,0.034560203552246094,0.08608657,-0.14702073,9.776394,0
5,989.9796752929688,-1.4256287249736488E-4,-9.283663239330053E-4,-9.570681140758097E-5,-3.9639058113098145,13.236610412597656,-16.125146865844727,0.013500824570655823,0.003104075789451599,0.058246612548828125,0.07171032,-0.14701977,9.771655,0
5,990.007080078125,6.567393429577351E-4,2.6999766123481095E-4,-2.287128008902073E-4,-4.16858434677124,13.624603271484375,-16.424245834350586,-0.015333257615566254,0.017390847206115723,0.04404640197753906,0.09557259,-0.14463559,9.769286,0
5,990.0025634765625,3.9077785913832486E-4,1.3678212417289615E-4,1.7091294284909964E-4,-4.135812282562256,12.707122802734375,-16.452592849731445,-9.73530113697052E-4,0.008148908615112305,0.029850006103515625,0.08597615,-0.14940128,9.781117,0
5,989.9819946289062,1.2481657904572785E-4,-2.6274926494807005E-4,1.710649230517447E-4,-4.234755992889404,12.9830322265625,-16.14555549621582,-0.005629457533359528,0.003091976046562195,0.058254241943359375,0.0931091,-0.13748392,9.7669115,0
5,990.0145874023438,-5.406186683103442E-4,1.3666701852343976E-4,1.7121684504672885E-4,-4.294265270233154,13.191324234008789,-17.149370193481445,-0.005535304546356201,0.007979348301887512,0.04405498504638672,0.093072295,-0.14224967,9.771642,0
5,990.01220703125,7.91315222159028E-4,4.029253905173391E-4,-9.49470850173384E-5,-4.219100475311279,13.735816955566406,-17.192811965942383,-0.010152742266654968,-0.006065472960472107,0.02985858917236328,0.08347595,-0.13509884,9.771638,0
5,990.01220703125,7.916698232293129E-4,1.3655191287398338E-4,5.709945689886808E-4,-4.54171895980835,13.011852264404297,-16.40787696838379,-0.010539710521697998,-0.01067325472831726,0.015664100646972656,0.08821893,-0.14463109,9.783472,0
5,990.0095825195312,-6.568589014932513E-6,-0.0010619846871122718,-3.608071128837764E-4,-4.332337856292725,12.734193801879883,-17.039770126342773,-0.010010741651058197,-0.005615070462226868,0.02987384796142578,0.09057209,-0.13986364,9.783467,0
5,990.0020141601562,-2.7252998552285135E-4,1.3637923984788358E-4,-2.2749725030735135E-4,-5.300136089324951,12.986824035644531,-16.828432083129883,0.004303649067878723,-9.54747200012207E-4,0.025140762329101562,0.08097565,-0.14224598,9.773995,0
5,990.0020141601562,-2.7252998552285135E-4,1.3637923984788358E-4,-2.2749725030735135E-4,-5.013523578643799,12.886842727661133,-17.48262596130371,0.013474933803081512,-7.082074880599976E-4,0.04882335662841797,0.07376918,-0.14462844,9.757422,0
5,989.9993286132812,7.930878782644868E-4,9.352692868560553E-4,5.716023151762784E-4,-4.917081356048584,12.239696502685547,-17.53660011291504,0.009013310074806213,0.00886012613773346,0.05829429626464844,0.085681885,-0.14462748,9.76452,0
5,989.9993286132812,5.271265981718898E-4,-5.295255687087774E-4,4.385963547974825E-4,-4.908332347869873,13.143047332763672,-16.974931716918945,0.008511029183864594,0.008737698197364807,0.034628868103027344,0.08086532,-0.15415964,9.783455,0
5,989.9993286132812,5.271265981718898E-4,-5.295255687087774E-4,4.385963547974825E-4,-4.908332347869873,13.143047332763672,-16.974931716918945,0.002729855477809906,0.008733302354812622,0.04873943328857422,0.0890221,-0.14703408,9.778811,0
5,990.0120849609375,-2.7146641514264047E-4,0.001201470149680972,-2.270414843223989E-4,-5.391469478607178,13.270097732543945,-16.907915115356445,0.01213972270488739,0.008756965398788452,0.03453826904296875,0.07946631,-0.1446509,9.774076,0
5,990.0020141601562,-1.210576738230884E-5,1.3733570813201368E-4,-3.631801810115576E-4,-4.715148448944092,12.48089599609375,-16.658021926879883,-0.0072630345821380615,0.003720030188560486,0.03927040100097656,0.0794701,-0.14703423,9.766975,0
5,990.0068969726562,-1.4529883628711104E-5,9.366769809275866E-4,-9.790324838832021E-5,-5.180022716522217,12.62562370300293,-17.51866340637207,-0.002511627972126007,0.003532111644744873,0.03453350067138672,0.077084005,-0.14941764,9.755139,0
5,990.0068969726562,-5.471983458846807E-4,2.7089304057881236E-4,3.015548863913864E-4,-5.527803897857666,12.82650375366211,-17.09190559387207,-0.007469385862350464,-0.01045498251914978,0.020336151123046875,0.09142718,-0.13988462,9.7882805,0
5,990.0233154296875,1.1851827730424702E-4,-2.617267600726336E-4,3.015235415659845E-4,-5.398696422576904,12.36822509765625,-17.546892166137695,0.006669983267784119,0.003973439335823059,0.04401111602783203,0.08187139,-0.14226797,9.769343,0
6,990.0233154296875,1.1851827730424702E-4,-2.617267600726336E-4,3.015235415659845E-4,-5.398696422576904,12.36822509765625,-17.546892166137695,-0.0024932846426963806,-0.010185271501541138,0.06294631958007812,0.08665499,-0.13035163,9.762242,0
6,989.995361328125,5.179556319490075E-4,4.5950437197461724E-6,-2.3112387862056494E-4,-5.570847988128662,12.839162826538086,-17.547922134399414,0.002457946538925171,-0.014608487486839294,0.03454399108886719,0.077099144,-0.13273504,9.764609,0
6,989.9995727539062,3.8472426240332425E-4,6.703967228531837E-4,-2.311552525497973E-4,-5.480899333953857,12.660335540771484,-18.0902042388916,0.012228839099407196,-5.974322557449341E-4,0.05347442626953125,0.07710296,-0.14703485,9.76461,0
6,990.0349731445312,-4.142597026657313E-4,-0.0010606505675241351,-2.3117091041058302E-4,-5.7237868309021,12.485282897949219,-17.580629348754883,-0.016497820615768433,-0.005252912640571594,0.044007301330566406,0.09144619,-0.13750178,9.766977,0
6,990.0043334960938,1.1833550524897873E-4,-2.616971032693982E-4,3.0144519405439496E-4,-5.502068996429443,12.745628356933594,-17.70701026916504,0.007127143442630768,-0.009857624769210815,0.053481101989746094,0.081890345,-0.12796882,9.774079,0
6,990.0037841796875,2.7808875893242657E-4,0.0010078398045152426,3.317173104733229E-5,-5.215051174163818,12.171438217163086,-17.563676834106445,-0.0023878514766693115,0.009079426527023315,0.039275169372558594,0.08428407,-0.14703509,9.774079,0
6,990.0037841796875,-3.877373819705099E-4,-3.237336059100926E-4,1.6631392645649612E-4,-5.4363322257995605,12.649147033691406,-17.711496353149414,0.0025585442781448364,-0.010271787643432617,0.04400348663330078,0.08667776,-0.14226863,9.778815,0
6,990.0316772460938,-6.540896138176322E-4,-5.741178756579757E-5,5.657721194438636E-4,-5.702617168426514,12.39999008178711,-17.963823318481445,0.003040611743927002,0.003688901662826538,0.04399299621582031,0.07951182,-0.1470353,9.769346,0
6,990.0416870117188,-5.209685768932104E-4,-0.0012558273738250136,-2.3319124011322856E-4,-5.7583794593811035,12.769155502319336,-17.89984703063965,-0.01161925494670868,0.0033941715955734253,0.04872608184814453,0.09624493,-0.13988551,9.76698,0
6,990.0416870117188,-9.204789530485868E-4,0.001007863669656217,3.310895408503711E-5,-6.079583644866943,13.153007507324219,-17.56487464904785,-0.011416077613830566,0.0031639933586120605,0.029783248901367188,0.086689115,-0.14703548,9.771714,0
6,989.9805908203125,-6.541995098814368E-4,-3.237098571844399E-4,-2.332225558348E-4,-5.730418682098389,12.84768295288086,-17.369863510131836,-0.006701752543449402,-0.0016086101531982422,0.039252281188964844,0.07713333,-0.15418538,9.76698,0
6,990.01513671875,-1.2160427286289632E-4,-1.9054590666200966E-4,4.325514892116189E-4,-5.152359485626221,12.072013854980469,-17.413549423217773,0.0028760358691215515,0.0030861198902130127,0.058188438415527344,0.09147656,-0.14703566,9.759879,0
6,990.0119018554688,4.1099070222117007E-4,3.4209166187793016E-4,5.656937137246132E-4,-5.240649700164795,12.358230590820312,-17.647645950317383,-0.016024067997932434,-0.020763620734214783,0.03451347351074219,0.08909041,-0.13273612,9.762246,0
6,990.0119018554688,-6.543092895299196E-4,-5.900079850107431E-4,-4.995854687876999E-4,-5.597968578338623,13.024482727050781,-17.554582595825195,0.007993564009666443,-0.001760244369506836,0.03451061248779297,0.07714468,-0.14226928,9.783552,0
6,990.0214233398438,2.777598856482655E-4,-5.90001989621669E-4,-3.6644324427470565E-4,-5.359645366668701,13.195114135742188,-17.832246780395508,-0.010945327579975128,-0.0013033002614974976,0.043984413146972656,0.09626773,-0.13750276,9.769349,0
6,990.0011596679688,9.435128886252642E-4,-4.5683811185881495E-4,-4.996167845092714E-4,-5.690280437469482,12.937992095947266,-17.458314895629883,0.00832616537809372,-0.010771572589874268,0.05818748474121094,0.07954222,-0.1279698,9.764615,0
6,990.0011596679688,1.445286034140736E-4,-3.2367423409596086E-4,-2.3331650299951434E-4,-5.611963748931885,12.37908935546875,-17.28371238708496,-0.005712322890758514,0.008222952485084534,0.02504253387451172,0.0867157,-0.15895253,9.769349,0
6,990.0164794921875,-2.5498177274130285E-4,-3.236682969145477E-4,0.0013645628932863474,-6.138687610626221,12.887090682983398,-17.77115821838379,-0.024294838309288025,-0.006251871585845947,0.0297698974609375,0.096279085,-0.13988635,9.766982,0
6,990.0159912109375,1.1297786841169E-5,-0.00125576788559556,-2.3334793513640761E-4,-5.424838542938232,12.92330551147461,-17.729310989379883,0.004370860755443573,-0.020361244678497314,0.043974876403808594,0.07931709,-0.125581,9.766961,0
6,989.9884033203125,-2.544909657444805E-4,-1.9059005717281252E-4,2.9950987664051354E-4,-6.223093509674072,13.440103530883789,-17.636545181274414,0.014747999608516693,-0.0012564212083816528,0.04401683807373047,0.08146006,-0.1398746,9.778774,0
6,989.9934692382812,4.1531401802785695E-4,-8.570315549150109E-4,1.6807272913865745E-4,-5.987271785736084,13.239498138427734,-17.661142349243164,-0.009004466235637665,-0.0011810213327407837,0.08189201354980469,0.09100437,-0.13510764,9.738531,0
6,990.0133056640625,-5.166443297639489E-4,3.4136598696932197E-4,1.681357971392572E-4,-5.6365838050842285,12.935644149780273,-17.54343605041504,0.005291946232318878,-0.010921046137809753,0.029814720153808594,0.08381942,-0.14464042,9.769303,0
6,990.0107421875,1.492925512138754E-4,-5.8131685364060104E-5,-3.644329262897372E-4,-5.646556377410889,12.662960052490234,-17.60292625427246,-0.004115186631679535,-0.0010775178670883179,0.034552574157714844,0.08380413,-0.14940661,9.764567,0
6,989.9981079101562,5.48913492821157E-4,2.081602724501863E-4,-0.0010301596485078335,-5.702617168426514,12.39999008178711,-17.963823318481445,-0.004214592278003693,0.0036758333444595337,0.020353317260742188,0.08617878,-0.1446397,9.7764015,0
6,989.9981079101562,5.48913492821157E-4,2.081602724501863E-4,-0.0010301596485078335,-5.702617168426514,12.39999008178711,-17.963823318481445,2.6607513427734375E-4,0.008392244577407837,0.053496360778808594,0.08616346,-0.1398727,9.764565,0
7,990.0057983398438,1.642879215069115E-5,-4.5765331014990807E-4,-4.974647308699787E-4,-6.005397319793701,13.327739715576172,-17.43256187438965,0.00503048300743103,-0.010277971625328064,0.006159782409667969,0.083758354,-0.13987237,9.7835,0
7,990.0235595703125,6.825128803029656E-4,-5.822726234328002E-5,3.529316745698452E-5,-5.533753871917725,12.926528930664062,-17.48176383972168,-0.013730712234973907,-0.0195503830909729,0.020363807678222656,0.074183434,-0.13272217,9.769296,0
7,990.0235595703125,6.825128803029656E-4,-5.822726234328002E-5,3.529316745698452E-5,-6.153228282928467,12.609989166259766,-17.59873390197754,-0.009088173508644104,0.004062637686729431,0.025098800659179688,0.0908975,-0.1398716,9.76456,0
7,990.00830078125,-9.15088108740747E-4,-5.909068277105689E-4,-4.972124588675797E-4,-6.177303791046143,12.798254013061523,-17.760011672973633,0.01033598929643631,-9.953975677490234E-4,0.025094985961914062,0.06937307,-0.13987121,9.776395,0
7,990.00537109375,-6.486250786110759E-4,-5.8298915973864496E-5,4.34956222306937E-4,-6.278205394744873,12.334636688232422,-17.101457595825195,0.005452685058116913,0.013345584273338318,0.048768043518066406,0.07891747,-0.15178728,9.766925,0
7,990.00537109375,-6.486250786110759E-4,-5.8298915973864496E-5,4.34956222306937E-4,-6.278205394744873,12.334636688232422,-17.101457595825195,8.005797863006592E-4,0.01340310275554657,0.0629730224609375,0.078902185,-0.15417013,9.74562,0
7,990.0106811523438,1.506167754996568E-4,3.411271027289331E-4,4.3508230010047555E-4,-6.018712520599365,12.419971466064453,-17.76231575012207,0.010600194334983826,0.003884255886077881,0.048770904541015625,0.07410711,-0.13272029,9.769289,0
7,989.9852294921875,-1.1555184028111398E-4,-7.241603452712297E-4,-6.301181274466217E-4,-6.054826259613037,12.702371597290039,-18.004228591918945,-0.008577398955821991,-0.0010606348514556885,0.020361900329589844,0.08843127,-0.13986975,9.781124,0
7,989.9852294921875,-3.817206888925284E-4,7.476344762835652E-5,-3.6373926559463143E-4,-6.103116512298584,12.972984313964844,-17.627695083618164,0.0057818591594696045,-0.02453753352165222,0.02983856201171875,0.083636224,-0.13510278,9.790591,0
7,990.0006103515625,1.7900398233905435E-5,-1.915763277793303E-4,-2.3051811149343848E-4,-6.084448337554932,12.51645278930664,-17.757829666137695,0.014979101717472076,-5.107372999191284E-4,0.05351734161376953,0.07884115,-0.14463553,9.76455,0
7,990.0157470703125,8.169951615855098E-4,6.07347465120256E-4,-2.304551308043301E-4,-5.651963710784912,12.394695281982422,-17.89433479309082,0.005259484052658081,-0.014802321791648865,0.053521156311035156,0.08121577,-0.13510206,9.759814,0
7,990.002685546875,1.5135263674892485E-4,4.741656011901796E-4,3.0223975772969425E-4,-5.645875453948975,12.400588989257812,-18.203554153442383,-0.01369737833738327,0.004332318902015686,0.015645980834960938,0.076420695,-0.15178469,9.771649,0
7,990.0079345703125,2.8465784271247685E-4,-4.579638480208814E-4,7.017766474746168E-4,-6.02023458480835,12.418498992919922,-17.685007095336914,0.0010203570127487183,-0.005169793963432312,0.039318084716796875,0.09074485,-0.13510129,9.762179,0
7,990.0003662109375,1.8488994101062417E-5,-4.5798777136951685E-4,4.355238052085042E-4,-5.920609951019287,11.880216598510742,-18.592676162719727,-0.003667794167995453,0.032899901270866394,0.05352020263671875,0.08833966,-0.16846687,9.762177,0
7,990.0280151367188,1.863625948317349E-5,-7.243275176733732E-4,-6.296765641309321E-4,-5.88419771194458,12.229955673217773,-17.925893783569336,-0.003818221390247345,-0.0050568729639053345,0.06772899627685547,0.08593452,-0.13510051,9.7550745,0
7,990.0280151367188,5.514150252565742E-4,7.403859635815024E-4,-2.3013976169750094E-4,-6.167086124420166,12.070512771606445,-18.026941299438477,0.006029926240444183,0.01880696415901184,0.058259010314941406,0.07874951,-0.15178314,9.750339,0
7,990.0240478515625,6.847202312201262E-4,-3.249014262109995E-4,3.025550686288625E-4,-6.130534648895264,12.526168823242188,-18.059236526489258,0.0013686642050743103,-0.019055813550949097,0.029857635498046875,0.07395446,-0.12556672,9.766908,0
7,990.0240478515625,-8.709641406312585E-6,-0.0012285207631066442,-4.82121977256611E-4,-5.835066318511963,12.223188400268555,-17.77910041809082,-0.008146852254867554,-0.00476403534412384,0.04406166076660156,0.09305841,-0.13986602,9.759805,0
7,990.0081787109375,-1.4172031660564244E-4,1.0303484305040911E-4,7.16362614184618E-4,-6.178283214569092,12.428489685058594,-17.584253311157227,0.010971516370773315,0.009764090180397034,0.05353832244873047,0.08345294,-0.14463139,9.776372,0
7,990.0081787109375,3.9120492874644697E-4,-2.9648662894032896E-4,7.164884591475129E-4,-6.366357326507568,12.726774215698242,-18.034631729125977,-0.0029413029551506042,-0.009538307785987854,0.07247066497802734,0.08582631,-0.13986447,9.752698,0
7,990.005615234375,-4.08769934438169E-4,-1.6255280934274197E-4,1.862385543063283E-4,-6.214939594268799,13.079177856445312,-17.92461585998535,-0.0030656158924102783,-1.841336488723755E-4,0.02512645721435547,0.08341992,-0.1470139,9.771634,0
7,990.0433959960938,-9.137103916145861E-6,5.03211107570678E-4,-3.463250759523362E-4,-6.775010585784912,13.66069221496582,-17.410432815551758,0.015520371496677399,0.0044843703508377075,0.06300735473632812,0.07145393,-0.14224693,9.762164,0
7,990.0433959960938,-5.416098283603787E-4,5.031852633692324E-4,1.8637484754435718E-4,-6.464321613311768,13.372444152832031,-17.903352737426758,-0.008386343717575073,-0.005136072635650635,0.039336204528808594,0.09055665,-0.13986328,9.757427,0
7,989.9912719726562,-6.746088620275259E-4,2.368436544202268E-4,1.864429796114564E-4,-6.264506816864014,12.347892761230469,-17.797204971313477,-0.008389182388782501,-0.009976565837860107,0.025133132934570312,0.08815026,-0.1398628,9.766894,0
8,990.028564453125,-8.66015034262091E-6,5.031336331740022E-4,-7.980476948432624E-5,-6.159614086151123,11.971961975097656,-17.714387893676758,0.005790151655673981,0.004624158143997192,0.03460979461669922,0.07857415,-0.14462903,9.766893,0
8,989.9926147460938,1.2481560406740755E-4,0.0014351877616718411,8.524370496161282E-4,-6.417691707611084,12.994440078735352,-17.503496170043945,0.009927898645401001,-0.014555886387825012,0.06302165985107422,0.07855767,-0.13271222,9.752688,0
8,989.9926147460938,1.2481560406740755E-4,0.0014351877616718411,8.524370496161282E-4,-6.417691707611084,12.994440078735352,-17.503496170043945,4.6128034591674805E-4,-0.010054633021354675,0.010938644409179688,0.073761344,-0.1303285,9.773992,0
8,989.9926147460938,-0.0010734469396993518,1.0358244617236778E-4,5.355747998692095E-5,-6.472228527069092,12.732942581176758,-17.94169807434082,0.009862981736660004,-0.019441410899162292,0.025147438049316406,0.083304524,-0.13509467,9.785827,0
8,990.0078735351562,1.251335343113169E-4,1.0355666017858312E-4,-0.0010116379708051682,-6.921617031097412,12.312274932861328,-18.07878303527832,0.009893864393234253,0.008955627679824829,0.058287620544433594,0.0785082,-0.13986078,9.769254,0
8,990.0176391601562,-6.734963972121477E-4,5.029789172112942E-4,4.532356688287109E-4,-6.963382244110107,13.326833724975586,-18.285680770874023,-0.004707857966423035,-9.899288415908813E-4,0.0440826416015625,0.080881625,-0.14224371,9.769253,0
8,990.0202026367188,-7.547569111920893E-6,-2.9599457047879696E-4,-2.1248593111522496E-4,-6.775744915008545,12.29050064086914,-17.561098098754883,0.009702168405056,-0.0010294616222381592,0.053551673889160156,0.080865115,-0.13986,9.764517,0
8,990.0202026367188,-7.547569111920893E-6,-2.9599457047879696E-4,-2.1248593111522496E-4,-7.005478382110596,12.496999740600586,-17.845720291137695,0.009970441460609436,0.017916247248649597,0.05354881286621094,0.0880183,-0.14462617,9.766883,0
8,990.0202026367188,-7.547569111920893E-6,-2.9599457047879696E-4,-2.1248593111522496E-4,-7.005478382110596,12.496999740600586,-17.845720291137695,0.009982660412788391,0.003735288977622986,0.029880523681640625,0.080832124,-0.14939234,9.773982,0
8,990.0249633789062,1.260869757970795E-4,0.0010355074191465974,5.403428804129362E-5,-6.930610179901123,12.409355163574219,-18.314027786254883,3.6951154470443726E-4,-8.210092782974243E-4,0.044089317321777344,0.078425735,-0.132709,9.759778,0
8,990.0249633789062,1.260869757970795E-4,0.0010355074191465974,5.403428804129362E-5,-6.930610179901123,12.409355163574219,-18.314027786254883,0.009890727698802948,0.013251110911369324,0.06302452087402344,0.08318907,-0.14462498,9.752675,0
8,990.0249633789062,1.260869757970795E-4,0.0010355074191465974,5.403428804129362E-5,-6.912484645843506,12.321113586425781,-18.54261589050293,-0.014020048081874847,-0.0055125802755355835,0.044094085693359375,0.087952375,-0.13985795,9.757407,0
8,989.9668579101562,-4.063857486471534E-4,3.696919302456081E-4,3.204183012712747E-4,-7.402390956878662,12.704647064208984,-17.565752029418945,0.004465267062187195,0.008862346410751343,0.03463172912597656,0.075986385,-0.15415728,9.766875,0
8,989.9668579101562,9.253526804968715E-4,9.022979065775871E-4,5.868022562935948E-4,-6.6924262046813965,12.474069595336914,-17.89261817932129,0.0047193169593811035,-0.005520820617675781,0.04409980773925781,0.08552948,-0.1398572,9.766873,0
8,989.9945068359375,-4.0590891148895025E-4,-4.293331294320524E-4,5.869385204277933E-4,-6.816967487335205,12.936771392822266,-17.66954231262207,-0.019242316484451294,-0.01052914559841156,0.029895782470703125,0.09268272,-0.13270691,9.764504,0
8,989.9871826171875,-4.057500045746565E-4,9.022204903885722E-4,5.870066815987229E-4,-6.714979648590088,12.663806915283203,-18.131196975708008,-0.005168341100215912,0.003845691680908203,0.044104576110839844,0.07832682,-0.14700624,9.769238,0
8,989.989501953125,2.6019872166216373E-4,2.36404943279922E-4,0.0011197065468877554,-7.083251476287842,12.687612533569336,-17.9218692779541,-0.024118050932884216,0.003966107964515686,0.053574562072753906,0.095039636,-0.15653887,9.7526655,0
8,989.99462890625,5.266735097393394E-4,3.6953709786757827E-4,-0.0012770682806149125,-6.642613887786865,12.20492935180664,-18.34644889831543,0.009522244334220886,-8.832961320877075E-4,0.053572654724121094,0.083073616,-0.1398556,9.766868,0
8,989.9996337890625,-1.3895730080548674E-4,-0.0012283839751034975,5.872109904885292E-4,-6.85740327835083,12.214324951171875,-18.00596046447754,-0.008785918354988098,-0.010443136096000671,0.015745162963867188,0.089960754,-0.13508204,9.781045,0
8,990.0171508789062,-1.3879839389119297E-4,-2.9988303140271455E-5,5.46473020222038E-5,-6.855200290679932,11.953422546386719,-18.68389320373535,-0.008589103817939758,-5.913972854614258E-4,0.029956817626953125,0.089661956,-0.14222464,9.766814,0
8,990.0274047851562,5.294699803926051E-4,-5.619976436719298E-4,-6.05332141276449E-4,-7.0680317878723145,12.702342987060547,-18.69492530822754,-0.00861724466085434,-0.005372434854507446,0.06309890747070312,0.08484411,-0.13269055,9.747873,0
8,990.0274047851562,5.304748774506152E-4,3.699447843246162E-4,-3.385856980457902E-4,-7.418315410614014,12.531990051269531,-18.015100479125977,-0.008129440248012543,-6.704777479171753E-4,0.020488739013671875,0.07524651,-0.14222273,9.76444,0
8,990.0214233398438,-2.6810617418959737E-4,-8.285362273454666E-4,-8.710603578947484E-4,-7.301925182342529,12.430212020874023,-17.950098037719727,-0.008285477757453918,0.003962099552154541,0.058368682861328125,0.087157905,-0.14222178,9.754968,0
8,990.0214233398438,-6.672132876701653E-4,-2.9648083000211045E-5,-7.195543730631471E-5,-7.135831356048584,13.165637969970703,-18.711584091186523,0.010906882584095001,-8.323192596435547E-4,0.0536346435546875,0.08472997,-0.13507098,9.776269,0
8,989.9905395507812,-6.66846230160445E-4,-2.960235869977623E-4,1.9451763364486396E-4,-6.900989055633545,12.595272064208984,-18.560426712036133,0.0012159347534179688,0.003907755017280579,0.05363941192626953,0.08708185,-0.14221987,9.771531,0
9,990.0224609375,3.987837699241936E-4,9.023383026942611E-4,3.278327058069408E-4,-7.043411731719971,12.14578628540039,-18.435197830200195,0.0011606886982917786,0.003940746188163757,0.06311321258544922,0.07987404,-0.14221892,9.754958,0
9,990.0072631835938,2.6599265402182937E-4,3.696471103467047E-4,4.6114789438433945E-4,-7.236190319061279,12.333732604980469,-17.954580307006836,0.010903090238571167,0.008661404252052307,0.05838203430175781,0.087005705,-0.14221802,9.766789,0
9,989.9765014648438,-1.331143284915015E-4,-2.9886254196753725E-5,-7.132667815312743E-5,-7.162003040313721,12.508460998535156,-17.822267532348633,-0.0033429935574531555,0.018042296171188354,0.015771865844726562,0.077408075,-0.149367,9.78099,0
9,989.9892578125,1.3356826093513519E-4,-5.625775083899498E-4,-3.374853986315429E-4,-6.981944561004639,12.677024841308594,-17.782896041870117,0.0014073178172111511,-0.014982983469963074,0.034717559814453125,0.08692959,-0.12553325,9.780987,0
9,989.9996337890625,-3.9869657484814525E-4,-1.6316330584231764E-4,3.2846155227161944E-4,-6.96327543258667,12.22049331665039,-17.913022994995117,-0.013218984007835388,-0.010172262787818909,0.03946113586425781,0.084501654,-0.13983199,9.764413,0
9,989.9996337890625,5.337759503163397E-4,0.0010351985692977905,-8.698027231730521E-4,-6.577559947967529,12.370820999145508,-17.750307083129883,-0.0033740103244781494,-8.178800344467163E-4,0.044193267822265625,0.0844636,-0.1422143,9.764408,0
9,990.022216796875,-5.980197456665337E-4,-8.003577822819352E-4,2.7532572858035564E-5,-6.659898281097412,12.557014465332031,-17.594545364379883,0.0015993192791938782,-8.410364389419556E-4,0.020522117614746094,0.07486594,-0.13268027,9.778609,0
9,990.0015869140625,3.344530123285949E-4,-2.6778559549711645E-4,-5.0494191236794E-4,-6.996047496795654,13.137971878051758,-17.884675979614258,-0.01249590516090393,-5.97730278968811E-4,0.011058807373046875,0.09633702,-0.14459571,9.7809725,0
9,989.9866943359375,-7.300772122107446E-4,-4.0106254164129496E-4,-3.7146962131373584E-4,-6.652288913726807,12.564380645751953,-17.981069564819336,0.007078081369400024,-0.005519747734069824,0.006323814392089844,0.081959546,-0.13267836,9.792805,0
9,990.0042114257812,6.923737237229943E-5,2.646676148287952E-4,5.607932107523084E-4,-6.65976095199585,12.662933349609375,-18.29361915588379,-0.00265570729970932,-0.010286450386047363,0.044205665588378906,0.074751765,-0.13744402,9.757293,0
9,990.0269775390625,-3.298698575235903E-4,-5.343395750969648E-4,-2.379973593633622E-4,-6.647180080413818,12.200510025024414,-18.114534378051758,0.0071318671107292175,0.003856271505355835,0.04893779754638672,0.089053154,-0.1374431,9.764392,0
9,990.0269775390625,-3.298698575235903E-4,-5.343395750969648E-4,-2.379973593633622E-4,-6.647180080413818,12.200510025024414,-18.114534378051758,-0.0021365657448768616,0.0036720186471939087,0.02526378631591797,0.079455435,-0.1493586,9.773856,0
9,990.0116577148438,-1.9597826758399606E-4,-5.344587843865156E-4,2.8632988687604666E-5,-6.759683132171631,12.56907844543457,-17.81083106994629,-0.001964360475540161,0.008205309510231018,0.029998779296875,0.09136692,-0.14459106,9.778587,0
9,990.0116577148438,-1.9597826758399606E-4,-5.344587843865156E-4,2.8632988687604666E-5,-6.759683132171631,12.56907844543457,-17.81083106994629,0.0028305575251579285,-0.0059844255447387695,0.04893970489501953,0.09132886,-0.135057,9.76438,0
9,990.0125732421875,2.0422908710315824E-4,0.0015959490556269884,1.6210530884563923E-4,-6.738513469696045,12.483783721923828,-18.194021224975586,0.0024461597204208374,-0.005978211760520935,0.03948020935058594,0.08173117,-0.14935574,9.754909,0
9,990.0125732421875,2.0422908710315824E-4,0.0015959490556269884,1.6210530884563923E-4,-6.738513469696045,12.483783721923828,-18.194021224975586,0.002460785210132599,0.0032657980918884277,0.048946380615234375,0.08169314,-0.13743839,9.757272,0
9,990.0498657226562,4.712785012088716E-4,5.305667873471975E-4,5.618934519588947E-4,-6.133578777313232,12.52322006225586,-17.904626846313477,0.016679927706718445,0.003720521926879883,0.048958778381347656,0.081655115,-0.14697054,9.762004,0
9,990.0498657226562,4.712785012088716E-4,5.305667873471975E-4,5.618934519588947E-4,-6.133578777313232,12.52322006225586,-17.904626846313477,-0.007178694009780884,-0.010564520955085754,0.05843067169189453,0.09117663,-0.14220312,9.752531,0
9,990.0498657226562,4.712785012088716E-4,5.305667873471975E-4,5.618934519588947E-4,-6.4161696434021,12.995914459228516,-17.58079719543457,0.00741240382194519,-0.005677208304405212,0.05843353271484375,0.08227885,-0.14460263,9.757325,0
9,990.0234985351562,7.21715041436255E-5,-8.01072281319648E-4,5.620507290586829E-4,-6.415626049041748,12.62762451171875,-17.48234748840332,-0.008490793406963348,-9.835809469223022E-4,0.05357170104980469,0.087762356,-0.13508677,9.766859,0
9,990.00537109375,-6.395060336217284E-5,-1.3480137567967176E-4,-2.381672675255686E-4,-6.36124849319458,12.362899780273438,-18.1680965423584,-0.013144753873348236,0.0038906335830688477,0.03463268280029297,0.090170056,-0.14462036,9.766862,0
9,990.0244140625,-2.0724168280139565E-4,2.663174527697265E-4,1.569636515341699E-4,-6.225348949432373,12.068441390991211,-17.70990562438965,0.005785137414932251,0.008655920624732971,0.06777286529541016,0.083018064,-0.14462072,9.757394,0
9,990.0244140625,-2.0724168280139565E-4,2.663174527697265E-4,1.569636515341699E-4,-6.225348949432373,12.068441390991211,-17.70990562438965,0.02011081576347351,-0.01023896038532257,0.048836708068847656,0.07586616,-0.1327048,9.764497,0
9,990.0170288085938,4.5837677316740155E-4,5.326610989868641E-4,-2.425835409667343E-4,-6.002109050750732,12.330259323120117,-17.913591384887695,0.011042870581150055,0.00895516574382782,0.06303596496582031,0.08305359,-0.14938822,9.75503,0
10,990.0062255859375,-2.0775554003193974E-4,-0.0011983364820480347,1.567435683682561E-4,-6.082926273345947,12.517927169799805,-17.835134506225586,-0.012807413935661316,0.013690784573554993,0.034626007080078125,0.09263098,-0.14700529,9.762134,0
10,990.0062255859375,-2.0775554003193974E-4,-0.0011983364820480347,1.567435683682561E-4,-6.082926273345947,12.517927169799805,-17.835134506225586,-0.008064620196819305,0.018230438232421875,0.02988910675048828,0.08547902,-0.14700577,9.766869,0
10,990.0062255859375,5.91021089348942E-4,-3.993611317127943E-4,-3.7596162292174995E-4,-6.672479152679443,13.019439697265625,-17.773630142211914,-0.008342757821083069,-8.912533521652222E-4,0.029888153076171875,0.08788669,-0.14223969,9.764503,0
10,989.9884643554688,8.569947094656527E-4,7.991159218363464E-4,2.3365573724731803E-5,-6.004312038421631,12.59115982055664,-17.23566246032715,-0.003989167511463165,-0.01512502133846283,0.03462409973144531,0.07834485,-0.13270691,9.771607,0
10,989.9884643554688,-8.742298814468086E-4,3.9966992335394025E-4,-5.093396175652742E-4,-6.2164626121521,13.077707290649414,-17.847314834594727,-0.004251517355442047,0.004018515348434448,0.04409503936767578,0.0831424,-0.13509071,9.771607,0
10,990.0413818359375,5.770445568487048E-5,2.6653980603441596E-4,8.22166446596384E-4,-6.108524799346924,12.704719543457031,-17.91910743713379,6.395876407623291E-4,-5.025267601013184E-4,0.04409503936767578,0.08316016,-0.13747445,9.752672,0
10,990.0413818359375,4.570073797367513E-4,1.3340961595531553E-4,2.894614008255303E-4,-5.6785407066345215,12.211723327636719,-17.80254554748535,-0.004035919904708862,-0.005749419331550598,0.025148391723632812,0.083177924,-0.14462462,9.766877,0
10,990.0238647460938,-0.0010079012718051672,-2.660364261828363E-4,6.888617645017803E-4,-6.00819730758667,12.324365615844727,-17.604372024536133,-0.008983045816421509,0.008572205901145935,0.029882431030273438,0.085585594,-0.14700839,9.762145,0
10,990.0111694335938,3.235070616938174E-4,-1.3285067689139396E-4,4.2247248347848654E-4,-6.005152225494385,12.327312469482422,-17.758981704711914,0.005044572055339813,0.0038694292306900024,0.02515125274658203,0.08560336,-0.15415871,9.776349,0
10,990.023193359375,-3.424540045671165E-4,0.0010655985679477453,2.8924131765961647E-4,-6.24181604385376,12.26407241821289,-18.257699966430664,0.009862586855888367,0.0036683380603790283,0.05828571319580078,0.08562112,-0.14700928,9.769249,0
10,989.9830322265625,-3.4262536792084575E-4,-5.322689539752901E-4,-2.4346387363038957E-4,-6.258963108062744,12.722074508666992,-18.20487403869629,0.010087758302688599,-0.0011925995349884033,0.03934192657470703,0.08324897,-0.14939296,9.764517,0
10,989.9830322265625,5.667755613103509E-5,-1.3276732352096587E-4,-1.1037939111702144E-4,-6.058413982391357,13.06771469116211,-17.948068618774414,0.015029676258563995,-0.005957886576652527,0.034605979919433594,0.07609704,-0.1422436,9.762151,0
10,990.0213012695312,1.8966436618939042E-4,-3.990554250776768E-4,-1.1045261635445058E-4,-6.0759968757629395,12.787664413452148,-17.621034622192383,-0.013521961867809296,0.017833411693572998,0.020400047302246094,0.0832845,-0.15416041,9.769254,0
10,990.0032348632812,-4.762964672408998E-4,-5.321855423972011E-4,-1.1052595800720155E-4,-5.872840404510498,12.398195266723633,-17.244630813598633,-0.008763715624809265,0.0031093209981918335,0.03932762145996094,0.08330226,-0.13271132,9.764522,0
10,990.0438842773438,-7.427837117575109E-4,1.3363194011617452E-4,4.2203234625048935E-4,-5.815417766571045,12.136421203613281,-18.084989547729492,4.452019929885864E-4,-0.0018957555294036865,0.04405975341796875,0.080930114,-0.15177801,9.755054,0
10,990.0235595703125,-4.7663907753303647E-4,6.662913947366178E-4,2.8880106401629746E-4,-6.268094539642334,12.713237762451172,-17.741044998168945,0.0049028173089027405,-0.0021569430828094482,0.039322853088378906,0.07616806,-0.1470119,9.764524,0
10,990.0130004882812,-6.09968148637563E-4,4.000033368356526E-4,-3.770618641283363E-4,-6.064256191253662,12.061395645141602,-17.965269088745117,0.019285693764686584,0.021701782941818237,0.06299400329589844,0.06423631,-0.16131198,9.769261,0
10,989.9976806640625,0.004449862986803055,-0.0019968117121607065,-7.766091730445623E-4,-5.90523099899292,12.42116928100586,-18.241777420043945,-0.013805508613586426,-0.001469731330871582,0.039325714111328125,0.088153124,-0.14224622,9.783465,0
10,989.959716796875,-0.0023415349423885345,6.128830136731267E-7,1.5534978592768312E-4,-5.6440558433532715,13.034198760986328,-17.855989456176758,-0.008765801787376404,-0.011582016944885254,0.03457927703857422,0.08578098,-0.13748005,9.766896,0
10,989.959716796875,-0.0023415349423885345,6.128830136731267E-7,1.5534978592768312E-4,-5.6440558433532715,13.034198760986328,-17.855989456176758,-0.0033428966999053955,0.0027244240045547485,0.048862457275390625,0.082544655,-0.14222589,9.764451,0
10,989.9552001953125,4.594105121213943E-4,2.7747591957449913E-7,4.2676334851421416E-4,-5.869797229766846,12.401142120361328,-17.399240493774414,0.006465040147304535,0.0175972580909729,0.044135093688964844,0.08730799,-0.14460874,9.771552,0
10,989.9622192382812,0.002458953997120261,-0.0018642866052687168,5.608530482277274E-4,-5.56946325302124,12.734722137451172,-16.926149368286133,-0.016704030334949493,0.003453359007835388,0.039399147033691406,0.08729148,-0.13984177,9.764449,0
10,990.116943359375,-0.0024677312467247248,7.98846420366317E-4,6.940790917724371E-4,-5.904931545257568,13.053306579589844,-17.816904067993164,0.0069480761885643005,-0.011556804180145264,0.05359649658203125,0.0777154,-0.13745806,9.757346,0
10,989.9672241210938,-6.033609388396144E-4,-2.6644289027899504E-4,-2.3795838933438063E-4,-5.937596797943115,12.86444091796875,-17.4158992767334,-0.003025338053703308,-0.016352549195289612,0.010990142822265625,0.080088794,-0.1374577,9.790485,0
10,989.9951171875,-2.0372829749248922E-4,5.324789090082049E-4,2.8425565687939525E-5,-6.048333644866943,12.234054565429688,-17.51591682434082,0.01120740920305252,-0.0019324570894241333,0.06780815124511719,0.08724207,-0.13745728,9.752608,0
11,989.9976806640625,5.955372471362352E-4,-1.3336243864614516E-4,2.9487774008885026E-4,-6.01550817489624,12.949138641357422,-16.7929744720459,-0.00290796160697937,-0.0016737431287765503,0.0488739013671875,0.08244574,-0.14222345,9.759709,0
11,989.9976806640625,5.955372471362352E-4,-1.3336243864614516E-4,2.9487774008885026E-4,-6.01550817489624,12.949138641357422,-16.7929744720459,-0.012581124901771545,0.003068268299102783,0.039406776428222656,0.08959895,-0.14937285,9.762074,0
11,990.0307006835938,5.956962704658508E-4,9.318753145635128E-4,-1.0452797869220376E-4,-6.215077877044678,12.973262786865234,-17.225542068481445,-0.012796066701412201,-0.0015890002250671387,0.02047443389892578,0.09197235,-0.14698917,9.766807,0
11,990.0307006835938,5.956962704658508E-4,9.318753145635128E-4,-1.0452797869220376E-4,-6.216599941253662,12.97178840637207,-17.14823341369629,0.0020982027053833008,-0.006656035780906677,0.05360698699951172,0.08239627,-0.1374557,9.764439,0
11,990.0077514648438,-0.0010018812026828527,-0.0011987033067271113,2.8766226023435593E-5,-5.79669713973999,13.31245231628418,-17.46382713317871,-0.0021848157048225403,-0.006646960973739624,0.034668922424316406,0.084769666,-0.13745522,9.754968,0
11,990.0001831054688,3.2985713914968073E-4,-6.660973303951323E-4,-1.0432361159473658E-4,-5.795312404632568,13.208009719848633,-16.84205436706543,0.0027580708265304565,0.0075501948595047,0.048870086669921875,0.08236331,-0.15652111,9.759702,1
11,989.9976806640625,-6.945765926502645E-5,-3.9980729343369603E-4,-1.0425550863146782E-4,-5.42236852645874,12.082281112670898,-16.9106388092041,0.007645741105079651,0.002671465277671814,0.05833911895751953,0.0823468,-0.13983771,9.769168,1
11,989.9976806640625,-6.945765926502645E-5,-3.9980729343369603E-4,-1.0425550863146782E-4,-5.42236852645874,12.082281112670898,-16.9106388092041,-0.006718754768371582,-0.0020501911640167236,0.0062618255615234375,0.084720194,-0.1398373,9.778636,1
11,989.99267578125,-2.0245657651685178E-4,-1.3351724192034453E-4,1.6212850459851325E-4,-5.17627477645874,12.7864990234375,-16.450876235961914,0.012411601841449738,-0.0017947107553482056,0.044142723083496094,0.08470374,-0.15175334,9.769165,1
11,990.0001220703125,-3.352967032697052E-4,6.653788150288165E-4,-1.0405108332633972E-4,-5.396876811981201,13.001832962036133,-17.19932746887207,0.007283434271812439,-0.01622818410396576,0.020473480224609375,0.07751751,-0.13268664,9.769164,1
11,990.0051879882812,-4.6829585335217416E-4,2.65879207290709E-4,-5.034568021073937E-4,-5.257934093475342,12.710317611694336,-16.89573860168457,-0.0022979900240898132,-0.001711517572402954,0.053619384765625,0.08706063,-0.13745287,9.757327,1
11,990.0279541015625,5.971267819404602E-4,5.321693024598062E-4,1.6240100376307964E-4,-5.979799747467041,13.140945434570312,-17.348596572875977,0.011940918862819672,-0.010841801762580872,0.044159889221191406,0.082264334,-0.14221898,9.773894,1
11,990.0204467773438,0.0011299174511805177,1.3266962196212262E-4,-2.370047732256353E-4,-5.340272426605225,12.896514892578125,-16.739980697631836,0.0023821815848350525,0.003379419445991516,0.025221824645996094,0.079857945,-0.14221856,9.771526,1
11,989.9796752929688,-2.015031350310892E-4,2.658017911016941E-4,2.9569517937488854E-4,-5.535956859588623,13.187427520751953,-16.803831100463867,-0.012059532105922699,-0.0013054758310317993,0.03469371795654297,0.08462125,-0.14221817,9.764424,1
11,990.0152587890625,1.9812971004284918E-4,-2.6685575721785426E-4,6.952371331863105E-4,-5.252526760101318,12.978582382202148,-16.604333877563477,-0.0022122785449028015,-0.019917428493499756,0.025232315063476562,0.08460477,-0.13268468,9.759686,1
11,990.0530395507812,0.00126355211250484,-6.663553067483008E-4,-6.362742278724909E-4,-5.86506986618042,12.931781768798828,-16.507204055786133,0.0022517889738082886,-0.010951459407806396,0.025226593017578125,-0.058805823,0.060361296,9.773889,1
11,990.0330810546875,-0.0033968165516853333,0.0015973036643117666,-5.030481261201203E-4,-5.440057277679443,12.908575057983398,-16.956262588500977,1.3935675621032715,-0.8307160139083862,-0.10282230377197266,-0.63956845,-0.4448934,9.885146,1
11,990.0253295898438,-0.12337196618318558,-0.033689577132463455,-0.257897287607193,-5.438674449920654,12.804134368896484,-16.334489822387695,-0.14487481117248535,0.6929373145103455,-0.07215023040771484,0.6605217,-0.5402241,9.911183,1
11,989.8984985351562,-0.15532970428466797,0.023967785760760307,-0.0010355435078963637,-5.592017650604248,12.924457550048828,-17.16472816467285,-0.12303236871957779,0.641800045967102,-0.5108184814453125,0.12516713,0.19144288,10.197614,1
11,989.9133911132812,-0.4943496584892273,-0.026898570358753204,0.03824611380696297,-5.725255489349365,14.116374969482422,-16.75203514099121,0.16334235668182373,-1.2875101566314697,-0.6388254165649414,0.3259024,-0.5259236,10.150268,1
11,989.9442138671875,-0.9103349447250366,0.02103825844824314,-0.2875913083553314,-5.725094318389893,14.642593383789062,-15.628084182739258,-0.5167992115020752,-0.4107881784439087,0.43970680236816406,0.251799,-0.7094357,9.511123,1
11,989.9920654296875,-1.0195242166519165,0.003994017373770475,0.014277823269367218,-5.401336193084717,16.262540817260742,-15.464826583862305,0.5594266653060913,0.12263989448547363,-0.4011964797973633,-0.49625683,-1.2528226,10.500611,1
11,989.989501953125,-0.8665255904197693,0.17004194855690002,-0.1592268943786621,-5.19396448135376,17.984262466430664,-15.366571426391602,-0.4874461889266968,0.18110871315002441,-0.02800273895263672,0.4644673,-2.5898416,8.519261,1
11,989.9818725585938,-0.6641253232955933,0.8263773322105408,-0.4696179926395416,-4.74884557723999,19.03264617919922,-14.572698593139648,0.27082154154777527,-0.6708345413208008,-1.2280378341674805,-0.24774003,-1.8939238,10.11002,1
11,990.0018310546875,-0.9091358780860901,-0.057924505323171616,0.18445387482643127,-4.326579570770264,19.638629913330078,-14.44227409362793,-0.48326557874679565,0.3869619369506836,1.0995159149169922,-0.07807346,-2.7161543,8.784385,1
12,990.0275268554688,-0.7826356291770935,0.3138524293899536,0.11414654552936554,-3.6537904739379883,20.847332000732422,-13.384920120239258,0.1732698678970337,-0.41952991485595703,-0.8276739120483398,-0.6229876,-2.5397916,9.245988,1
12,990.0477905273438,-0.5996764898300171,-0.16445091366767883,0.29271140694618225,-3.5723772048950195,21.923938751220703,-12.613641738891602,0.08143872022628784,-0.08530807495117188,1.4306402206420898,-0.527408,-2.8353176,7.4398108,1
12,990.0274658203125,-0.6498767733573914,-0.4946826100349426,0.17952723801136017,-4.078750133514404,22.50310516357422,-12.184579849243164,0.48732274770736694,-0.012647390365600586,-4.262233734130859,0.71293455,-2.7971847,12.593209,1
12,990.0350952148438,-6.5951346186921E-5,-1.7176051139831543,-0.14830753207206726,-5.912197589874268,23.26162338256836,-11.099603652954102,-1.3250348567962646,-0.1991419792175293,-0.20555400848388672,0.810904,-4.053172,7.8540683,1
12,990.0449829101562,-1.2164634466171265,1.0592705011367798,0.3648832142353058,-5.516646862030029,23.578723907470703,-10.178316116333008,0.5206581354141235,-0.8773648738861084,-0.6733636856079102,-0.32192594,-3.021212,10.067401,1
12,990.102783203125,-0.5506736636161804,-0.3177157938480377,0.5268033742904663,-4.706841945648193,24.968643188476562,-9.537607192993164,0.17535029351711273,-0.21799755096435547,-0.050479888916015625,-0.042323872,-3.67423,8.91694,1
12,990.0370483398438,-0.8932889699935913,-0.109323650598526,0.23212489485740662,-3.9757914543151855,26.179420471191406,-8.797296524047852,0.17417925596237183,-0.3098878860473633,-0.0996541976928711,-0.011271656,-4.0245714,9.018727,1
12,990.0296630859375,-0.9422909021377563,-0.03568733483552933,0.08045807480812073,-3.8307061195373535,27.52635955810547,-8.051641464233398,-0.10340844839811325,0.014998435974121094,-0.2145233154296875,0.22770208,-4.734788,8.561856,1
12,990.0167846679688,-1.1601371765136719,-0.027697881683707237,0.05715549737215042,-4.141777515411377,28.70911407470703,-6.533224105834961,-0.06998652964830399,-0.05529451370239258,0.6929330825805664,-0.0041348934,-4.668056,8.00793,1
12,989.9660034179688,-0.9100663661956787,-0.1335584670305252,0.22067350149154663,-4.179797649383545,29.884552001953125,-5.672334671020508,1.008256435394287,-1.3220958709716797,-0.23321914672851562,-0.93621314,-3.6384792,8.486102,1
12,989.9660034179688,-0.9100663661956787,-0.1335584670305252,0.22067350149154663,-3.9755005836486816,30.391071319580078,-4.347736358642578,-0.009778723120689392,-0.4084806442260742,0.4718923568725586,0.29456985,-5.023164,8.019762,1
12,990.102783203125,-0.29088181257247925,-0.2944132685661316,0.48991894721984863,-2.916614055633545,30.8555908203125,-4.153165817260742,-0.11732592433691025,1.5178046226501465,-0.6272754669189453,-0.16908762,-6.1385374,9.6507635,1
12,990.1106567382812,0.5908902883529663,-0.6424881815910339,1.0932576656341553,-1.9834084510803223,30.88683319091797,-4.683719635009766,1.2336910963058472,-0.346282958984375,-1.0766515731811523,-1.1776427,-3.307202,9.638926,1
12,990.2473754882812,0.7406931519508362,-0.5277060866355896,1.0800750255584717,-1.6742405891418457,30.59710693359375,-5.099328994750977,0.7438358068466187,-1.0844230651855469,-1.1312236785888672,-0.54194534,-2.9640098,9.972699,1
12,990.1865234375,0.8778460025787354,-0.1776338517665863,0.9429224133491516,-1.2084107398986816,30.401840209960938,-6.237466812133789,0.8806955814361572,-0.5795490741729736,-0.8259153366088867,-0.013793498,-3.1808877,9.75965,1
12,990.1357421875,1.230581521987915,-0.8757809400558472,0.35729390382766724,-2.3727879524230957,29.048980712890625,-7.364597320556641,-0.022165298461914062,0.04240751266479492,-2.538105010986328,0.9015224,-3.076023,13.265475,1
12,990.0723266601562,1.2846437692642212,-1.3132048845291138,0.16408179700374603,-4.030956745147705,27.81285858154297,-7.883577346801758,0.2580891251564026,0.9510226249694824,-2.25338077545166,0.58165383,-3.4597402,11.075848,1
12,990.0416870117188,0.5470813512802124,1.03317129611969,0.3415810465812683,-3.0885353088378906,26.32628631591797,-10.328332901000977,-0.5285977721214294,-0.9615347385406494,-0.07802772521972656,0.9022914,-1.774772,9.925423,1
12,989.9700317382812,1.13802969455719,0.27110955119132996,0.27673032879829407,-3.0552430152893066,24.620216369628906,-12.081254959106445,-0.22016370296478271,-0.7546924352645874,-0.9233989715576172,0.88795197,-1.8224375,10.862834,1
12,989.980224609375,1.3243176937103271,-0.5270392298698425,-0.0062302835285663605,-3.3657402992248535,22.275470733642578,-12.666048049926758,-0.3269718289375305,1.3452212810516357,-2.5776662826538086,0.84015393,-2.7852821,12.065373,1
12,990.0081787109375,0.8920869827270508,0.46006065607070923,0.09696712344884872,-2.6585440635681152,22.253780364990234,-14.236459732055664,-0.271872878074646,-0.4300496578216553,-0.004254341125488281,0.26657748,-1.2599838,9.960931,1
12,989.9345703125,0.6547995805740356,1.1789802312850952,0.4248019754886627,-1.2097258567810059,20.608348846435547,-15.287248611450195,-0.5663541555404663,0.5451112389564514,-0.8785734176635742,0.45537972,-1.1289035,10.526692,1
12,989.9549560546875,0.9104627966880798,0.2394179254770279,0.2355845421552658,-0.3623933792114258,18.45222282409668,-15.984514236450195,-1.0708646774291992,0.9001665711402893,-2.0078983306884766,0.64657193,-1.474479,11.847591,1
12,989.9827880859375,0.6944806575775146,0.4934832751750946,0.12719398736953735,0.4499955177307129,18.68673324584961,-17.0472354888916,0.15101444721221924,0.9338966608047485,0.31049346923828125,-0.39064556,-1.0168893,9.818898,1
13,989.88623046875,0.7104595303535461,0.8926907777786255,-0.04045186936855316,1.4959487915039062,17.348979949951172,-18.207918167114258,-0.35429850220680237,0.8062059283256531,1.3206253051757812,-0.6009569,-0.43536946,9.504061,1
13,989.9216918945312,0.8024716973304749,0.08921577781438828,-0.23259878158569336,1.4708404541015625,15.534915924072266,-18.944726943969727,-0.33635610342025757,1.5060033798217773,-0.4893932342529297,-0.5340397,-0.99782324,10.75631,1
13,990.0484619140625,1.009399175643921,-0.0511326901614666,-0.41316094994544983,0.857264518737793,13.485786437988281,-19.423131942749023,0.4008394479751587,1.596867322921753,0.8220977783203125,-1.3872346,-0.54261696,8.867284,1
13,989.9924926757812,1.3529466390609741,-0.4342280626296997,-0.46802204847335815,-0.1203160285949707,10.832744598388672,-20.349000930786133,0.5206092596054077,1.6114439964294434,-2.501291275024414,-1.7624493,-0.3233553,11.274728,1
13,989.8934326171875,0.4603889286518097,0.24434475600719452,-0.06695029884576797,-0.1358342170715332,10.185874938964844,-20.000818252563477,-0.6668121218681335,-0.11366868019104004,0.3288383483886719,0.18293092,1.2067093,10.150308,1
13,990.0332641601562,1.4247187376022339,-0.09440901130437851,0.08897765725851059,-0.45739030838012695,8.305030822753906,-20.842012405395508,-0.7549092769622803,-0.008591651916503906,-0.05045032501220703,0.20682994,1.9836581,9.267341,1
13,989.8804321289062,1.8670694828033447,-0.9418261647224426,-0.43246886134147644,-2.7259316444396973,5.548945426940918,-20.870058059692383,-0.07090230286121368,1.615506649017334,-0.7940034866333008,0.21399963,1.409288,10.013009,1
13,989.8831787109375,1.3916956186294556,-0.5970802307128906,-0.7475205659866333,-3.7995476722717285,3.0688371658325195,-20.944421768188477,-0.6918762922286987,0.7748143672943115,-1.0474576950073242,0.3072058,2.3149338,9.861508,1
13,989.8700561523438,1.050678014755249,0.27816689014434814,-0.5476505160331726,-3.3519287109375,0.1169881820678711,-21.533533096313477,0.927735447883606,1.0837867259979248,0.18052291870117188,-1.1697536,2.4650805,8.779696,1
13,989.8497314453125,0.9512091279029846,0.33276161551475525,-0.49491992592811584,-2.96488094329834,-1.469691276550293,-21.500329971313477,0.7484867572784424,1.1917767524719238,0.20110034942626953,-1.086107,2.7844398,8.505101,1
13,989.8799438476562,1.198350191116333,-0.2978743612766266,-0.19824402034282684,-3.492370128631592,-3.544137954711914,-21.066709518432617,0.9470834732055664,0.9092583656311035,0.6056251525878906,-1.1458546,3.3111444,8.166591,1
13,989.8748168945312,0.8718469738960266,-0.529702365398407,0.0884450152516365,-4.285708904266357,-5.129690170288086,-21.159616470336914,0.4208352267742157,0.37001943588256836,0.9853610992431641,-0.3404576,4.028511,7.953542,1
13,989.9306640625,0.2069893628358841,-0.24580959975719452,0.3028292953968048,-4.929286479949951,-6.470231056213379,-20.36612892150879,0.8781444430351257,0.9816293716430664,-0.9020700454711914,-0.89013505,3.1037989,11.113759,1
13,989.9608764648438,-0.42497822642326355,0.11904316395521164,0.29297560453414917,-4.706590175628662,-5.840121269226074,-20.66826820373535,-0.3274151682853699,1.1657931804656982,-2.9137887954711914,0.5557556,4.1095424,9.347825,1
13,990.0852661132812,1.0430880784988403,0.7271754741668701,0.41654616594314575,-3.575497627258301,-6.360698223114014,-21.812902450561523,0.43484553694725037,0.02402639389038086,2.176882266998291,-1.1386847,4.235856,8.069536,1
13,989.889892578125,1.2619996070861816,-0.03102584183216095,-0.24231930077075958,-3.883632183074951,-8.44012451171875,-21.95168113708496,0.7052570581436157,1.7427196502685547,-1.8095197677612305,-0.7252318,4.142908,8.98801,1
13,989.9761962890625,1.3826408386230469,0.23395845293998718,0.045434996485710144,-3.5619149208068848,-10.404524803161621,-21.11646842956543,0.134416401386261,0.8984980583190918,0.2698702812194824,-0.78497934,4.619564,8.015091,1
13,989.8948974609375,1.0308375358581543,0.5838975310325623,0.08032237738370895,-2.7364325523376465,-12.21298885345459,-20.82991600036621,0.23269110918045044,1.2819547653198242,0.1847372055053711,-0.5592091,4.98662,7.778253,1
13,989.8843383789062,0.5113918781280518,0.9399621486663818,0.3304004669189453,-1.9355692863464355,-13.464892387390137,-20.80308723449707,-0.9136638045310974,0.5986313819885254,-2.4163193702697754,0.16488045,5.6181903,10.074435,1
13,989.9120483398438,0.9544147849082947,0.6230452060699463,0.3834000527858734,-0.9197797775268555,-14.62027645111084,-21.815820693969727,-1.2810364961624146,0.37810277938842773,-0.7379603385925293,0.4324987,6.428506,7.470508,1
13,989.9120483398438,0.9544147849082947,0.6230452060699463,0.3834000527858734,-0.09541559219360352,-16.90441131591797,-20.654436111450195,-1.144500732421875,1.1239399909973145,-0.9313955307006836,0.06440312,6.185413,7.5131125,1
13,989.8460083007812,2.000105142593384,0.026097945868968964,-0.16787338256835938,0.1953425407409668,-22.481151580810547,-17.678468704223633,-0.2982046604156494,1.5642352104187012,0.6573419570922852,-0.6215495,6.314111,6.014669,1
13,989.8358154296875,1.976802945137024,0.5323643088340759,-0.09223946928977966,0.9457664489746094,-25.940452575683594,-16.97581672668457,-1.011326551437378,0.6773524284362793,-0.8469405174255371,-0.3133029,7.6272984,4.9352202,1
13,989.8433837890625,1.9822628498077393,0.1633836328983307,-0.17746034264564514,1.0897574424743652,-29.02035903930664,-14.662225723266602,0.49844253063201904,2.116787910461426,-0.8515925407409668,-1.6301895,6.530992,5.6430087,1
13,989.8433837890625,1.9822628498077393,0.1633836328983307,-0.17746034264564514,1.0897574424743652,-29.02035903930664,-14.662225723266602,0.5858500003814697,1.929896354675293,0.05013895034790039,-1.9289781,7.217377,3.3065758,1
14,989.853271484375,2.157099962234497,0.4416835904121399,-0.24963152408599854,2.3931992053985596,-33.80847930908203,-9.270990371704102,-1.1667404174804688,0.7874259948730469,1.3619167804718018,-0.9085407,8.270788,1.8057647,1
14,989.853271484375,2.157099962234497,0.4416835904121399,-0.24963152408599854,2.3931992053985596,-33.80847930908203,-9.270990371704102,0.0082244873046875,1.0452842712402344,1.2228612899780273,-1.9601482,8.001478,1.4175389,1
14,989.8300170898438,1.2554888725280762,-0.019043078646063805,-0.721276581287384,4.220490455627441,-37.78936767578125,-5.008510589599609,-1.5754754543304443,0.25789737701416016,-0.2734999656677246,-0.44500124,9.276534,1.9028108,1
14,989.8098754882812,0.7205938100814819,0.0037268544547259808,-0.7617563009262085,5.652726650238037,-38.924781799316406,-4.084997177124023,0.6097607612609863,1.9122533798217773,0.9020929336547852,-3.9247494,7.4652433,1.4269984,1
14,989.8602905273438,0.9265895485877991,-0.5874944925308228,-1.4310078620910645,6.81289005279541,-39.683109283447266,-2.6797122955322266,0.8569133281707764,0.6672086715698242,0.7109674215316772,-3.4300904,8.644967,0.76180995,1
14,989.855224609375,0.8629407286643982,-0.6066693067550659,-0.8613580465316772,8.01220989227295,-40.72087860107422,-1.1871280670166016,0.1259927749633789,-0.023451805114746094,-0.2745624780654907,-3.3393245,8.995311,1.0884793,1
14,989.8575439453125,0.3710556924343109,0.06444664299488068,-0.7531003952026367,9.221098899841309,-41.01177215576172,-0.43258094787597656,0.9433732032775879,1.1257972717285156,1.192510724067688,-4.0467863,8.363744,0.6789485,1
14,989.8728637695312,0.05533871799707413,0.28016242384910583,-0.5859870910644531,10.529504776000977,-40.734596252441406,-0.9583568572998047,-0.3877997398376465,0.2886199951171875,-1.1708500385284424,-3.1554036,8.866616,2.5727057,1
14,989.8424072265625,0.12644554674625397,0.24713917076587677,-0.3317883014678955,11.352134704589844,-40.807525634765625,-0.4649791717529297,-0.3804948329925537,0.39165210723876953,-1.4897798299789429,-3.339477,8.709321,1.9832678,1
14,989.872314453125,0.535240888595581,0.7263745069503784,-0.42646339535713196,12.461645126342773,-41.56056213378906,0.8708133697509766,-0.8894064426422119,-0.21650218963623047,0.8344322443008423,-3.2988992,8.938117,0.14394692,1
14,989.8572998046875,0.7457640767097473,0.6066654920578003,-0.6493695378303528,14.565122604370117,-41.90904235839844,1.1059551239013672,-0.4540395736694336,0.30579090118408203,-1.0613887310028076,-3.5952978,8.613993,1.088456,1
14,989.8873291015625,0.9690703749656677,0.15406152606010437,-0.7689452171325684,16.11238670349121,-42.621482849121094,3.2957286834716797,-1.6739697456359863,-0.055957794189453125,-0.35034292936325073,-3.6885548,8.409032,-0.114087425,1
14,989.8545532226562,0.8995624780654907,0.6838968992233276,-0.848173975944519,17.698266983032227,-43.245086669921875,5.474355697631836,-0.17310380935668945,-0.46242427825927734,1.2251343727111816,-4.3745074,8.618762,-1.3687093,1
14,989.8846435546875,1.128727912902832,0.09267556667327881,-0.8608237504959106,19.147268295288086,-43.943992614746094,7.370542526245117,-1.657282829284668,-0.08332347869873047,-0.48424530029296875,-4.006513,8.246971,-0.994696,1
14,989.8795776367188,0.9138113260269165,0.1944081336259842,-1.0343283414840698,21.162723541259766,-44.586387634277344,8.868196487426758,-0.537956714630127,0.21828794479370117,0.9436835050582886,-5.027052,7.7321844,-1.8942376,1
14,989.864501953125,0.6757254004478455,0.3408818244934082,-1.1033039093017578,23.322723388671875,-43.51354217529297,11.013053894042969,-0.40731287002563477,0.3044924736022949,-0.5159953832626343,-5.684326,7.322262,-1.4397393,1
14,989.8795776367188,0.6721306443214417,0.29054802656173706,-1.0170173645019531,25.024478912353516,-42.65837097167969,12.086498260498047,0.327700138092041,0.5336260795593262,1.0413745641708374,-6.3936605,6.8193784,-2.4457579,1
14,989.8842163085938,0.6521574258804321,0.142209991812706,-0.8361886739730835,26.903057098388672,-43.376068115234375,13.301712989807129,-0.5409188270568848,0.4257011413574219,-0.26631784439086914,-5.7454996,6.8122163,-2.0716944,1
14,989.8739013671875,0.5201895833015442,0.28535616397857666,-0.6389853954315186,28.44287872314453,-42.77769470214844,14.107199668884277,-1.0446343421936035,0.11884021759033203,0.36803507804870605,-5.496959,6.8622656,-2.72741,1
14,989.9017944335938,0.6023468971252441,0.3233063519001007,-0.7272695899009705,29.90489959716797,-43.20097351074219,15.908267974853516,-0.6865549087524414,0.32935190200805664,0.6193575859069824,-5.982118,6.3975267,-3.1132646,1
14,989.8560791015625,0.5814412236213684,0.20253205299377441,-0.8873254656791687,31.583663940429688,-42.89411926269531,17.017337799072266,-0.8910794258117676,0.09110355377197266,0.9150660037994385,-6.182879,6.163965,-3.548831,1
14,989.8736572265625,0.5653291940689087,-0.002531162928789854,-0.9234111905097961,32.86347961425781,-40.80052947998047,17.313493728637695,-0.9144721031188965,0.11285734176635742,0.13004851341247559,-6.2378554,5.9065714,-3.02568,1
14,989.8785400390625,0.4288424253463745,0.03954673558473587,-0.8814663290977478,34.45547866821289,-40.20598220825195,18.111164093017578,-1.010118007659912,0.26964664459228516,1.3270528316497803,-6.421887,5.422766,-4.2045474,1
14,989.8582763671875,0.4757140576839447,-0.11025596410036087,-0.9544368982315063,36.55430603027344,-39.03224182128906,20.02859115600586,-1.0828757286071777,0.2595829963684082,0.7908115386962891,-6.718243,5.0986404,-3.6908655,1
15,989.8937377929688,0.41552674770355225,-0.33768972754478455,-1.0194178819656372,38.367042541503906,-38.54711151123047,20.875633239746094,-0.386782169342041,0.22690057754516602,0.5813608169555664,-7.722011,4.707783,-3.4991226,1
15,989.9010009765625,0.30580469965934753,-0.3121234178543091,-0.9905226230621338,39.976219177246094,-37.198307037353516,20.54874038696289,-0.1456313133239746,0.2940640449523926,0.6932334899902344,-7.769818,4.500438,-3.278974,1
15,989.9111328125,0.18356582522392273,-0.3082618713378906,-0.8018378615379333,41.38927459716797,-36.29663848876953,20.43220329284668,-0.37923145294189453,0.3905067443847656,0.4143524169921875,-8.156991,3.8569531,-3.3547251,1
15,989.9213256835938,0.10593479126691818,-0.1814955323934555,-0.7453787922859192,42.06067657470703,-34.983489990234375,20.867778778076172,-0.2214508056640625,0.7511038780212402,0.4914867877960205,-8.051845,3.501845,-2.9641376,1
15,989.9213256835938,0.10593479126691818,-0.1814955323934555,-0.7453787922859192,43.290191650390625,-34.99138259887695,21.140682220458984,-0.3422212600708008,0.7317171096801758,0.2418961524963379,-8.474866,3.2682838,-3.0114822,1
15,989.8854370117188,0.1729133278131485,-0.3283687233924866,-0.6118213534355164,44.332916259765625,-33.699092864990234,21.212324142456055,0.2448883056640625,0.29097414016723633,0.6499896049499512,-9.182284,3.387448,-3.2197971,1
15,989.8959350585938,0.4217855930328369,-0.4074645936489105,-0.6156828999519348,45.128021240234375,-33.11248779296875,20.901508331298828,0.8388681411743164,0.20426726341247559,0.5110228061676025,-9.662664,3.4446468,-3.0493593,1
15,989.90576171875,0.5683925747871399,-0.5418209433555603,-0.5417801737785339,45.67634963989258,-32.967735290527344,20.731557846069336,0.5812749862670898,-0.13009166717529297,1.3207709789276123,-9.256391,3.587644,-3.409175,1
15,989.8600463867188,0.09288574010133743,-0.10466346889734268,-0.1846504807472229,46.40642166137695,-32.12672424316406,21.647624969482422,0.5024642944335938,-0.11778378486633301,1.049741506576538,-9.062818,3.504229,-2.6848116,1
15,989.8600463867188,0.09288574010133743,-0.10466346889734268,-0.1846504807472229,46.40642166137695,-32.12672424316406,21.647624969482422,0.6551237106323242,0.3104383945465088,0.7966732978820801,-9.067605,3.0347238,-3.0114863,1
15,989.8573608398438,0.010727383196353912,0.2434113770723343,-0.27186888456344604,46.37335205078125,-31.84138298034668,21.2511043548584,-0.5388107299804688,0.12691831588745117,0.8890542984008789,-8.240708,3.223003,-3.0683002,1
15,989.9992065429688,0.018317559733986855,-0.08815190941095352,-0.014075055718421936,46.81482696533203,-32.060218811035156,21.3498477935791,-0.4035911560058594,0.17366456985473633,-0.2375943660736084,-8.972027,2.9989748,-2.2208424,1
15,989.8086547851562,-0.09886134415864944,0.06844180822372437,-0.07665925472974777,46.64031219482422,-31.854598999023438,20.902801513671875,0.30072498321533203,0.4709007740020752,-0.259685754776001,-9.37593,2.7725635,-2.263453,1
15,989.8087158203125,0.13256724178791046,-0.24820779263973236,-0.006884453352540731,46.83683776855469,-31.881668090820312,21.48997688293457,0.4032888412475586,0.43666672706604004,0.1525893211364746,-9.390278,2.8440623,-2.6303701,1
15,989.8671264648438,0.23216946423053741,-0.3956136405467987,0.05250402167439461,46.78077697753906,-32.14463806152344,21.129079818725586,0.49570655822753906,0.36249542236328125,-0.0738978385925293,-9.390286,2.8750448,-2.3770804,1
15,989.8644409179688,-0.06796845048666,-0.23862044513225555,0.06795038282871246,46.80956268310547,-32.22256851196289,20.359363555908203,0.36752986907958984,0.1792607307434082,-0.3910942077636719,-9.091558,3.187255,-2.0433056,1
15,989.8745727539062,-0.05278835445642471,-0.07164039462804794,0.16156046092510223,46.56376647949219,-32.29464340209961,20.324472427368164,-0.1558389663696289,-0.0918419361114502,-0.11265373229980469,-8.711572,3.411283,-2.3036985,1
15,989.9046020507812,0.03203333914279938,-0.24154995381832123,0.08073361217975616,46.419960021972656,-32.63969039916992,19.827932357788086,0.18991756439208984,-0.035891056060791016,-0.30592668056488037,-9.28119,3.25639,-1.8753102,1
15,989.881591796875,-0.01616588979959488,-0.0964084267616272,0.01855054870247841,45.87138366699219,-31.784019470214844,20.324302673339844,0.17563247680664062,0.08609962463378906,-0.11313533782958984,-9.040677,3.2564116,-1.9629762,1
15,989.8641967773438,-0.08353601396083832,0.017175324261188507,0.06210625171661377,46.05375289916992,-32.98270034790039,20.05840301513672,-0.03779125213623047,0.32070493698120117,0.08217883110046387,-8.918866,3.075284,-2.0174286,1
15,989.8790283203125,-0.12761057913303375,-0.009855854324996471,0.010707584209740162,45.67127227783203,-31.3916072845459,19.79328727722168,0.005860328674316406,0.3365347385406494,-0.07901942729949951,-9.160321,2.9585052,-1.8943408,1
15,989.9166259765625,0.011939645744860172,-0.2211776226758957,-0.034299492835998535,45.66738510131836,-31.658397674560547,19.424575805664062,0.49328041076660156,0.46821165084838867,0.039484620094299316,-9.552338,2.839343,-1.93459,1
15,989.8711547851562,-0.06981862336397171,-0.17497192323207855,0.04546241834759712,45.84660339355469,-31.753684997558594,18.940628051757812,0.45393943786621094,0.33179712295532227,-0.09310591220855713,-9.418576,3.0919724,-1.7901974,1
15,989.893798828125,-0.2702206075191498,0.05858698487281799,0.18967276811599731,45.71415328979492,-31.930482864379883,19.125350952148438,-0.16265487670898438,0.0484156608581543,0.12743628025054932,-8.565455,3.6019957,-1.7570633,1
15,989.8633422851562,-0.2361314743757248,-0.026767369359731674,0.28674519062042236,45.082916259765625,-31.941059112548828,17.529586791992188,-0.5436372756958008,0.13035058975219727,-0.3547234535217285,-8.536851,3.4566178,-1.5629594,0
16,989.8732299804688,-0.18193547427654266,0.14260941743850708,0.20085863769054413,45.2835693359375,-32.70176696777344,18.159053802490234,-0.29022979736328125,0.08422255516052246,0.05700063705444336,-8.37919,3.7187803,-2.0340395,0
16,989.921630859375,-0.12254633754491806,0.18055932223796844,0.21271000802516937,45.05119705200195,-32.97241973876953,18.82657241821289,-0.7622184753417969,-0.007374286651611328,0.6775953769683838,-8.24782,3.873695,-2.4577754,0
16,989.8961181640625,-0.18473036587238312,-2.9762013582512736E-6,0.09526500105857849,45.16468048095703,-32.971221923828125,18.347110748291016,0.2731037139892578,0.2837080955505371,-0.32791364192962646,-9.005492,3.6711183,-1.508534,0
16,989.92138671875,-0.24997706711292267,-0.07457152009010315,0.03068370744585991,44.764564514160156,-33.29273986816406,17.657737731933594,0.31984996795654297,0.06286787986755371,0.24718928337097168,-9.0629225,3.8331828,-2.0056534,0
16,989.9239501953125,-0.28459739685058594,0.13182316720485687,0.090205617249012,44.488609313964844,-33.18244552612305,17.770790100097656,0.13701534271240234,0.34802937507629395,0.056496500968933105,-8.847905,3.6925712,-1.8115494,0
16,989.8984985351562,-0.1529035121202469,-0.07949861139059067,0.05824800953269005,44.471160888671875,-33.35658264160156,17.398746490478516,-0.35413265228271484,0.0411224365234375,0.22222614288330078,-8.499053,3.9642668,-1.9677914,0
16,989.8656005859375,-0.2353275716304779,0.02542973682284355,0.04107094183564186,44.25444412231445,-32.874454498291016,17.01900863647461,-0.112213134765625,-0.09746313095092773,-0.11149728298187256,-8.628182,4.152548,-1.4470136,0
16,989.8927612304688,-0.40417036414146423,0.34008175134658813,0.026690486818552017,43.82196044921875,-32.7526969909668,17.155513763427734,-0.4615936279296875,-0.5277614593505859,0.1066046953201294,-8.405994,4.4170933,-1.7594912,0
16,989.88037109375,-0.20549805462360382,0.14393997192382812,-0.0891566202044487,44.548526763916016,-33.07299041748047,16.677371978759766,-0.9558038711547852,-0.580369234085083,0.35471606254577637,-7.908968,4.5743914,-1.8186779,0
16,989.88037109375,-0.20549805462360382,0.14393997192382812,-0.0891566202044487,44.548526763916016,-33.07299041748047,16.677371978759766,-0.8110251426696777,-0.49555301666259766,0.4681321382522583,-8.420482,4.3169994,-2.3442035,0
16,989.8496704101562,-0.23585662245750427,0.20039868354797363,-0.2798382043838501,44.82756042480469,-31.968074798583984,15.337970733642578,-0.5302419662475586,-0.4106879234313965,0.6742242574691772,-8.458793,4.2335863,-2.4057577,0
16,989.8496704101562,-0.23585662245750427,0.20039868354797363,-0.2798382043838501,44.82756042480469,-31.968074798583984,15.337970733642578,0.20512866973876953,-0.042543888092041016,0.8392939567565918,-9.551051,3.692584,-2.5833044,0
16,989.8724975585938,-0.264884352684021,0.2592543959617615,-0.310730516910553,45.44374465942383,-30.654052734375,15.93597412109375,0.5392684936523438,0.12997126579284668,0.9888701438903809,-9.69452,3.621087,-2.7064056,0
16,989.8592529296875,-0.2007015198469162,0.011846817098557949,-0.014453797601163387,45.35569763183594,-31.36825942993164,15.375457763671875,-0.08364009857177734,-0.050841569900512695,0.4560343027114868,-8.987182,3.7617025,-2.3655353,0
16,989.8643188476562,-0.23545503616333008,-0.1320970207452774,0.17329920828342438,45.16817092895508,-31.438268661499023,15.023530960083008,-0.7778787612915039,-0.6929059028625488,0.39825284481048584,-8.287014,4.409956,-2.0293992,0
16,989.88427734375,-0.049033213406801224,-0.3551366925239563,0.1302894949913025,45.0754508972168,-31.050552368164062,14.322273254394531,-0.2892322540283203,-0.4727339744567871,-0.03404951095581055,-8.48067,4.409958,-1.5086215,0
16,989.8994750976562,-0.17060571908950806,-0.16884885728359222,-0.029899204149842262,44.863162994384766,-30.669923782348633,14.409698486328125,-0.9528360366821289,0.06216096878051758,-0.2183539867401123,-8.064901,4.0786843,-1.4139402,0
16,989.8994750976562,-0.17060571908950806,-0.16884885728359222,-0.029899204149842262,44.863162994384766,-30.669923782348633,14.409698486328125,-1.430633544921875,0.24521517753601074,-1.042144536972046,-7.688447,3.2373564,-0.31071043,0
16,989.88427734375,-0.2184087038040161,-0.0428815521299839,-0.01471889577805996,44.31040954589844,-30.713184356689453,14.112485885620117,-0.6909551620483398,1.0344038009643555,-0.9409382343292236,-8.491476,2.982346,-0.43617412,0
16,989.9044189453125,0.37399834394454956,-0.19774183630943298,0.02522561140358448,44.22624969482422,-31.160598754882812,13.920681953430176,1.1034345626831055,0.5148229598999023,0.1342219114303589,-10.047323,3.5090513,-1.7144654,0
16,989.9019165039062,0.21807058155536652,0.0560571514070034,0.16797101497650146,44.25489044189453,-31.34444236755371,13.850040435791016,0.3089017868041992,-0.060196638107299805,-0.3712936043739319,-8.847614,4.1501536,-0.8172976,0
16,989.858642578125,0.06973285973072052,-0.29068616032600403,0.42749589681625366,42.99727249145508,-31.52099609375,13.746228218078613,-0.7541875839233398,-0.5516314506530762,0.03851056098937988,-8.113935,4.712608,-1.5771716,0
16,989.8612670898438,0.2178046852350235,-0.1692461520433426,0.4152454435825348,42.614166259765625,-32.40643310546875,13.703105926513672,-0.4993257522583008,-0.09406232833862305,0.462041974067688,-8.204774,4.4647474,-1.697901,0
16,989.8635864257812,0.16094647347927094,-0.2456788420677185,0.18674655258655548,42.05879592895508,-31.714584350585938,13.286296844482422,-0.2378530502319336,0.1159663200378418,0.3283611536026001,-8.725794,3.94281,-1.2954783,0
16,989.8609008789062,0.08398139476776123,-0.3399547040462494,0.0011244707275182009,41.90585708618164,-32.06846237182617,13.25358772277832,0.5648193359375,0.2288503646850586,-0.7829271554946899,-9.34958,3.8903785,-0.3320291,0
17,989.8683471679688,0.11767054349184036,-0.5058695077896118,0.1080503836274147,41.415931701660156,-32.10523223876953,12.40742301940918,0.15448284149169922,0.3882415294647217,-0.6911417841911316,-8.840552,3.9189782,-0.23734294,0
17,989.88818359375,0.04656442627310753,-0.25233685970306396,0.2900773584842682,40.81999206542969,-32.24175262451172,12.353275299072266,0.42264842987060547,0.18491744995117188,-0.9842574000358582,-9.093904,4.2168884,-0.002991883,0
17,989.8905639648438,0.17146678268909454,-0.06351891160011292,0.3341527283191681,40.226951599121094,-32.481231689453125,12.84359359741211,0.5361900329589844,0.17444276809692383,-1.2006127834320068,-9.046127,4.3312864,0.54146266,0
17,989.8857421875,0.44111180305480957,0.0884142592549324,0.2947380542755127,39.79914093017578,-33.461402893066406,13.120840072631836,0.1476879119873047,-0.6174101829528809,0.48941099643707275,-8.933824,5.000988,-1.3002228,0
17,989.8804321289062,1.0298032760620117,-0.2142537534236908,0.19034235179424286,39.735877990722656,-34.2059440612793,13.943998336791992,0.7019433975219727,-0.3412356376647949,1.6186726093292236,-9.378367,4.8889747,-2.753687,0
17,989.8599853515625,0.8163512349128723,-0.280300110578537,0.04520028457045555,39.47899627685547,-35.026390075683594,14.724449157714844,0.5925531387329102,-0.2515573501586914,0.863511323928833,-8.895627,4.836543,-1.9961841,0
17,989.8447265625,0.1269928514957428,-0.05672799423336983,0.18581515550613403,39.19488525390625,-34.55516815185547,15.125578880310059,-0.04711723327636719,0.3753504753112793,-0.4149075746536255,-8.40811,4.438536,-1.0777116,0
17,989.8822631835938,-0.14411650598049164,-0.04594223201274872,0.13148680329322815,38.593833923339844,-34.32781219482422,15.20489501953125,0.38698387145996094,0.6143755912780762,-0.48705434799194336,-8.898061,3.9571142,-0.6326796,0
17,989.8624877929688,-0.02786940708756447,-0.08522386103868484,0.06544055044651031,38.559783935546875,-34.4122314453125,14.984128952026367,0.4093313217163086,1.0059173107147217,-0.6877577304840088,-9.163362,3.7736025,-0.41489893,0
17,989.87451171875,0.10755263268947601,-0.5771093964576721,0.5124518871307373,37.18646240234375,-34.7493896484375,14.214685440063477,-0.38669681549072266,1.0362424850463867,-0.0861625075340271,-8.487041,3.830802,-0.8244269,0
17,989.87451171875,0.10755263268947601,-0.5771093964576721,0.5124518871307373,37.18646240234375,-34.7493896484375,14.214685440063477,-0.2785072326660156,0.811974048614502,-0.5289334058761597,-8.32216,4.3551235,-0.19475304,0
17,989.8745727539062,-0.05742984637618065,-0.3282372057437897,0.3718372583389282,36.52546691894531,-35.05179214477539,13.564393997192383,0.15758991241455078,0.3459510803222656,-0.34793609380722046,-8.453626,4.8746786,-0.09769974,0
17,989.8768310546875,0.009149331599473953,-0.049404505640268326,0.20219412446022034,36.00425720214844,-35.38187026977539,13.741008758544922,0.46133899688720703,0.410459041595459,-0.47943246364593506,-8.950747,4.7817316,-0.7013383,0
17,989.8661499023438,-0.10829555988311768,0.04460493102669716,0.10046163946390152,35.579383850097656,-35.25274658203125,13.490987777709961,0.17760276794433594,0.03161287307739258,0.17696142196655273,-8.558824,5.065342,-1.0824599,0
17,989.8661499023438,-0.10829555988311768,0.04460493102669716,0.10046163946390152,35.579383850097656,-35.25274658203125,13.490987777709961,0.6771774291992188,0.2020864486694336,-0.16126012802124023,-9.046386,4.796032,-0.55457574,0
17,989.8788452148438,-0.2688838243484497,0.15659071505069733,0.012577477842569351,35.616477966308594,-35.165382385253906,13.557144165039062,0.25831031799316406,0.6603436470031738,-0.1090693473815918,-8.169313,4.722151,-0.42438155,0
17,989.9117431640625,-0.07433988153934479,-0.17284205555915833,0.09513548761606216,35.93463897705078,-35.55218505859375,13.37678050994873,-0.5174574851989746,0.1341390609741211,-0.04317837953567505,-8.02124,5.077262,-0.59246206,0
17,989.8756103515625,0.03365162014961243,-0.15459947288036346,-0.03296227753162384,35.940181732177734,-35.17799758911133,12.969109535217285,0.46074771881103516,0.3886442184448242,-0.6537660360336304,-8.602092,4.8174872,0.013532069,0
17,989.8658447265625,0.09903255850076675,-0.25020647048950195,0.046536460518836975,36.00798034667969,-35.64129638671875,12.985771179199219,-0.2940540313720703,0.2904691696166992,-0.04100963473320007,-7.911438,4.9604845,-0.5167239,0
17,989.8658447265625,0.09903255850076675,-0.25020647048950195,0.046536460518836975,35.91178512573242,-35.99457931518555,12.713329315185547,0.6353225708007812,0.2933926582336426,0.7500534653663635,-8.743151,4.8341713,-0.9073148,0
17,989.8658447265625,0.09903255850076675,-0.25020647048950195,0.046536460518836975,35.91178512573242,-35.99457931518555,12.713329315185547,0.6008358001708984,0.293093204498291,0.20808380842208862,-9.020408,4.552945,-0.28711033,0
17,989.86572265625,-0.11362040787935257,0.0940067321062088,-0.07503662258386612,36.07219696044922,-35.73925018310547,13.058592796325684,0.7379779815673828,0.6947245597839355,-0.1733420491218567,-8.967858,4.7007093,-0.3249881,0
17,989.8804931640625,-0.3977791666984558,0.08029141277074814,-0.022971749305725098,36.5363655090332,-36.041908264160156,12.69683837890625,0.5297174453735352,-0.2946186065673828,-0.44487929344177246,-8.762353,5.456209,-0.04566077,0
17,989.89599609375,-0.3812670409679413,0.4239719808101654,0.04800165817141533,36.74933624267578,-36.684913635253906,12.00878620147705,0.34395694732666016,0.20534753799438477,-0.2748584747314453,-8.659616,5.0510526,-0.32972762,0
18,989.89599609375,-0.3812670409679413,0.4239719808101654,0.04800165817141533,36.74933624267578,-36.684913635253906,12.00878620147705,0.08699321746826172,0.2535519599914551,-0.6212763786315918,-8.093237,5.2297993,0.013514183,0
18,989.9209594726562,-0.23639096319675446,0.3355550765991211,-0.10566247999668121,37.51109313964844,-36.02479934692383,12.699604034423828,0.040648460388183594,-0.12549257278442383,-0.3160470724105835,-8.999038,4.6792626,-0.48360088,0
18,989.8928833007812,0.06028520688414574,-0.008525106124579906,-0.17570343613624573,37.814605712890625,-35.582359313964844,12.319005966186523,0.8063592910766602,0.2601470947265625,0.17235827445983887,-8.967998,4.82226,-0.7463629,0
18,989.8754272460938,0.09091207385063171,-0.013452038168907166,-0.14813953638076782,38.55696105957031,-35.83591079711914,12.98929214477539,0.3594474792480469,0.4598221778869629,-0.5072162747383118,-8.678847,4.490985,-0.4315275,0
18,989.8770751953125,0.08039286732673645,-0.109858438372612,-0.055195167660713196,38.667945861816406,-36.20595169067383,12.762889862060547,-0.33977794647216797,0.11652040481567383,0.006308019161224365,-8.157876,4.7841287,-0.70375836,0
18,989.889892578125,-0.018676377832889557,-0.11744847893714905,-0.018443457782268524,38.85906219482422,-36.50128936767578,13.0586576461792,-0.31661224365234375,-0.006428718566894531,-0.4695042371749878,-8.239161,4.8270283,-0.07408508,0
18,989.9021606445312,9.916260023601353E-5,-0.34328436851501465,-0.041346509009599686,38.733680725097656,-36.302433013916016,12.758405685424805,-0.14730358123779297,0.18598031997680664,-0.05182477831840515,-8.191391,4.9152107,-0.37472236,0
18,989.8720092773438,0.09477472305297852,-0.38056862354278564,-0.06944271922111511,38.42559814453125,-36.749290466308594,13.370916366577148,-0.7483386993408203,-0.07498741149902344,-0.26775094866752625,-7.9380894,4.8842287,-0.045683764,0
18,989.8720092773438,0.03671814128756523,-0.285493940114975,-0.02962838113307953,38.44041442871094,-36.26035690307617,11.800338745117188,-0.517519474029541,-0.11626386642456055,-0.3341355621814728,-7.8377414,5.0701246,-0.07172555,0
18,989.889404296875,-0.05595952272415161,-0.08855338394641876,-0.0976719781756401,38.86278533935547,-36.76071548461914,12.303421020507812,-0.34990787506103516,-0.027784347534179688,-0.23235201835632324,-8.131727,4.893763,0.09160886,0
18,989.8916625976562,-0.03318924829363823,5.292407004162669E-4,-0.14827188849449158,39.117034912109375,-36.417423248291016,12.475107192993164,-0.205078125,-0.03641462326049805,-0.3034864366054535,-8.399424,4.858014,-0.040957026,0
18,989.8714599609375,0.08612054586410522,-0.046076081693172455,-0.13695332407951355,39.337913513183594,-36.42092514038086,11.825401306152344,0.11699962615966797,0.020288944244384766,0.018510043621063232,-8.68146,4.7579174,-0.2895158,0
18,989.8865356445312,0.13245975971221924,-0.05180191248655319,-0.10925635695457458,39.53984069824219,-36.17973327636719,12.703983306884766,-0.24486446380615234,-0.0856771469116211,0.23166853189468384,-8.440108,4.8032007,-0.5120354,0
18,989.870849609375,0.1256689727306366,-0.022107740864157677,-0.03415517508983612,39.180702209472656,-36.1470832824707,12.449478149414062,-0.40029144287109375,0.01471710205078125,0.20916512608528137,-8.236995,4.7483854,-0.5215068,0
18,989.8784790039062,0.13086239993572235,-0.07736832648515701,-0.014847157523036003,39.24491882324219,-36.24504089355469,12.522298812866211,-0.5412883758544922,-0.051355838775634766,0.2278163731098175,-8.072119,4.7793694,-0.388946,0
18,989.8834228515625,0.13432477414608002,-0.08602364361286163,-0.004460722673684359,39.39407730102539,-37.26429748535156,12.558954238891602,-0.5314512252807617,0.02653646469116211,0.2520061433315277,-8.153404,4.667356,-0.4197222,0
18,989.8832397460938,0.15389926731586456,-0.11931316554546356,-0.04627219960093498,39.26565170288086,-37.06838607788086,12.413311958312988,-0.20687580108642578,0.22787857055664062,0.1361648440361023,-8.404372,4.4194956,-0.55228806,0
18,989.8832397460938,0.23805534839630127,-0.12490584701299667,-0.023368919268250465,39.19977569580078,-37.07782745361328,13.116874694824219,-0.15085411071777344,0.3701815605163574,0.47010424733161926,-8.481511,4.407595,-0.75119376,0
18,989.8628540039062,0.24924392998218536,-0.07856742292642593,0.04813831299543381,39.100425720214844,-36.32770919799805,12.626385688781738,0.024687767028808594,0.05866813659667969,0.5083909034729004,-8.648858,4.738872,-0.8482539,0
18,989.880126953125,0.262160986661911,-0.09960565716028214,0.08170069754123688,38.83843231201172,-36.78428268432617,13.540301322937012,0.14347362518310547,-0.2898545265197754,0.5396360754966736,-8.7277775,5.1535645,-0.8316884,0
18,989.8927612304688,0.13353145122528076,0.01411106064915657,0.09967745840549469,38.625953674316406,-38.14213180541992,13.575512886047363,0.39892005920410156,-0.43805885314941406,0.5222893953323364,-8.8951235,5.2608128,-0.94058454,0
18,989.8927612304688,0.13353145122528076,0.01411106064915657,0.09967745840549469,38.625953674316406,-38.14213180541992,13.575512886047363,0.35466480255126953,-0.37351322174072266,0.28516849875450134,-8.639458,5.2560472,-0.81512773,0
18,989.9076538085938,0.058164555579423904,0.10918574780225754,0.13882611691951752,38.71356201171875,-38.165977478027344,14.410235404968262,-0.6415915489196777,-0.5517549514770508,0.7732630372047424,-7.7528577,5.377596,-1.2862058,0
18,989.8896484375,-0.03997182101011276,0.0977339893579483,-0.10791511088609695,38.423500061035156,-37.59473419189453,14.421506881713867,-0.5623087882995605,-0.10044097900390625,0.38239747285842896,-7.822218,5.055855,-1.0305529,0
18,989.8896484375,-0.03997182101011276,0.0977339893579483,-0.10791511088609695,38.423500061035156,-37.59473419189453,14.421506881713867,-0.3379201889038086,0.012384891510009766,0.3524996042251587,-8.305032,4.71743,-0.9240337,0
19,989.8873901367188,-0.04383288323879242,0.05445758253335953,-0.20272333920001984,38.47719955444336,-37.59708786010742,14.336385726928711,0.04897308349609375,0.18344879150390625,0.613605797290802,-8.685079,4.5887346,-1.222306,0
19,989.8845825195312,-0.09469819813966751,0.04793267324566841,-0.13494551181793213,39.20102310180664,-37.288185119628906,14.437725067138672,0.18352413177490234,0.17595243453979492,0.38255560398101807,-8.787898,4.5553703,-0.9950595,0
19,989.8892822265625,0.0029070964083075523,0.08508365601301193,-0.14306791126728058,39.34246826171875,-37.20846176147461,14.488248825073242,0.1336507797241211,0.18041467666625977,0.6874893307685852,-8.7616625,4.48149,-1.1773388,0
19,989.8892822265625,0.0029070964083075523,0.08508365601301193,-0.14306791126728058,39.62839889526367,-37.04606628417969,14.434684753417969,0.20633411407470703,0.27306413650512695,1.0215815305709839,-8.854922,4.3027453,-1.5821354,0
19,989.8892822265625,0.0029070964083075523,0.08508365601301193,-0.14306791126728058,39.62839889526367,-37.04606628417969,14.434684753417969,0.32690906524658203,0.23035573959350586,0.789313018321991,-9.029438,4.2836804,-1.3264825,0
19,989.9197998046875,0.014625509269535542,0.07256673276424408,-0.176224023103714,40.03129196166992,-36.141483306884766,13.472841262817383,0.30692100524902344,0.28031110763549805,0.6275655031204224,-8.964964,4.20265,-1.1394784,0
19,989.8740844726562,-0.06873084604740143,-0.030364442616701126,-0.17848749458789825,40.436222076416016,-36.815982818603516,13.603879928588867,0.05333900451660156,0.20226526260375977,0.24380546808242798,-8.711687,4.238401,-0.88619256,0
19,989.9091796875,-0.2084130048751831,0.06271287053823471,-0.10445145517587662,40.96033477783203,-36.58887481689453,13.971733093261719,-0.12745952606201172,0.24058961868286133,0.1302770972251892,-8.687841,4.1716704,-0.5453203,0
19,989.8965454101562,-0.24569672346115112,0.045668572187423706,-0.04692700877785683,40.808815002441406,-35.834938049316406,13.48906135559082,0.28140926361083984,0.2995109558105469,-0.15764960646629333,-9.020091,4.157372,-0.44826984,0
19,989.9013671875,-0.2873746454715729,0.11371219903230667,-0.06556890159845352,40.61367416381836,-35.912315368652344,13.523658752441406,0.31107425689697266,0.21068239212036133,-0.2367781102657318,-9.072722,4.276537,-0.45537633,0
19,989.8963012695312,-0.15501463413238525,0.2053246945142746,-0.033743716776371,41.33070373535156,-35.767234802246094,12.71181869506836,-0.15893268585205078,-0.11352062225341797,0.012279212474822998,-8.754918,4.493417,-0.71577346,0
19,989.8963012695312,-0.15501463413238525,0.2053246945142746,-0.033743716776371,41.33070373535156,-35.767234802246094,12.71181869506836,-0.43502330780029297,-0.24269914627075195,0.028615713119506836,-8.265042,4.619732,-0.85070896,0
19,989.875732421875,-0.16819624602794647,0.176029771566391,-0.0296153761446476,40.77519989013672,-35.181304931640625,12.994087219238281,-0.4037179946899414,0.04876279830932617,0.15708202123641968,-8.281825,4.386172,-0.9738083,0
19,989.90576171875,-0.25315046310424805,0.17070336639881134,-0.08088096976280212,41.34912872314453,-35.22333908081055,12.908105850219727,-0.17157268524169922,0.20407342910766602,-0.18014806509017944,-8.520867,4.228877,-0.6424048,0
19,989.893310546875,-0.30428263545036316,0.12143487483263016,-0.0874054953455925,41.724327087402344,-34.9774055480957,12.912883758544922,0.27718353271484375,0.3173356056213379,-0.5348355770111084,-8.920035,4.0834985,-0.22814932,0
19,989.9008178710938,-0.28617262840270996,0.13807952404022217,-0.036139458417892456,41.728492736816406,-34.498775482177734,11.883439064025879,0.16124534606933594,0.24233150482177734,-0.6355470418930054,-8.769525,4.2431793,-0.17844294,0
19,989.9258422851562,-0.1812436580657959,0.14194101095199585,0.08157237619161606,40.996482849121094,-35.65901184082031,13.1419095993042,-0.23364925384521484,-0.12448978424072266,-0.3197346329689026,-8.475338,4.5315504,-0.40093902,0
19,989.8650512695312,-0.0833720713853836,0.14007671177387238,0.10780471563339233,40.99455642700195,-35.186279296875,12.421686172485352,-0.1591348648071289,-0.23949098587036133,-0.25644510984420776,-8.589808,4.7579556,-0.5334799,0
19,989.9024047851562,-0.11347164958715439,0.23248976469039917,0.08410366624593735,41.27051544189453,-35.29656982421875,12.30863094329834,-0.07945442199707031,-0.36573076248168945,-0.21477025747299194,-8.623298,4.855671,-0.6565772,0
19,989.9151000976562,-0.09056885540485382,0.21278245747089386,0.050547704100608826,41.22428894042969,-35.39277267456055,12.706305503845215,-0.1926898956298828,-0.3160700798034668,-0.2831905484199524,-8.458425,4.784173,-0.6187048,0
19,989.8873291015625,-0.054083287715911865,0.18135714530944824,0.022451501339673996,41.37831497192383,-35.775474548339844,12.935916900634766,-0.07954978942871094,-0.07333040237426758,-0.11206179857254028,-8.460845,4.629261,-0.90277183,0
19,989.8998413085938,0.00637070881202817,0.11890602111816406,0.0173916257917881,41.45249938964844,-35.60074234008789,13.068229675292969,-0.48341941833496094,-0.1313495635986328,0.07349282503128052,-8.238614,4.6578608,-1.0092987,0
19,989.9227905273438,-0.04556059464812279,0.06524331867694855,0.0018122720066457987,41.264427185058594,-35.30246353149414,12.617851257324219,0.22075843811035156,-4.6253204345703125E-4,-0.2467496395111084,-8.797881,4.543464,-0.7276045,0
19,989.909912109375,-0.08564084023237228,0.052060630172491074,-0.009239711798727512,41.40435028076172,-35.224212646484375,12.74567985534668,-0.05243873596191406,-0.12691116333007812,-0.27123910188674927,-8.484836,4.7436604,-0.7773184,0
20,989.8995971679688,-0.11640002578496933,0.07895848900079727,0.07997623085975647,41.163963317871094,-35.02803039550781,13.002195358276367,-0.2652168273925781,-0.17833948135375977,-0.25572919845581055,-8.370151,4.7460446,-0.6589612,0
20,989.9071655273438,-0.13557448983192444,0.07469738274812698,0.0324389711022377,41.290462493896484,-34.75120162963867,12.427614212036133,-0.0908041000366211,-0.13846206665039062,-0.4518857002258301,-8.570932,4.6888466,-0.49799415,0
20,989.9071655273438,-0.017995726317167282,-0.015317431651055813,-0.040664609521627426,41.2703742980957,-35.40248489379883,13.007709503173828,0.10888671875,0.024541854858398438,-0.4049321413040161,-8.733476,4.514868,-0.66133386,0
20,989.884033203125,0.08919671177864075,-0.0491395965218544,-0.027082374319434166,41.20561981201172,-34.93624496459961,12.836437225341797,-0.16841888427734375,-0.022552967071533203,-0.24988186359405518,-8.40848,4.5458517,-0.8791193,0
20,989.8639526367188,0.08054174482822418,-0.05513175204396248,0.019789349287748337,41.28461837768555,-35.75752258300781,12.41041374206543,0.021345138549804688,0.1540546417236328,-0.16721993684768677,-8.525616,4.4552875,-0.89095813,0
20,989.9420776367188,-0.00814115907996893,-0.032761264592409134,0.01819157786667347,41.53331756591797,-35.788414001464844,12.98977279663086,0.117279052734375,0.17588520050048828,-0.11668479442596436,-8.645142,4.462438,-0.7205224,0
20,989.92431640625,-0.0692603588104248,-0.04660974070429802,0.06879172474145889,41.31065368652344,-35.206260681152344,12.22017765045166,-0.23284149169921875,0.07112455368041992,-0.3478018641471863,-8.332094,4.574453,-0.57612574,0
20,989.8963623046875,-0.05727585405111313,-0.09787558764219284,0.08170817047357559,40.93545150756836,-35.45219421386719,12.215400695800781,-0.18349742889404297,0.0253143310546875,-0.32862377166748047,-8.470739,4.60067,-0.57849574,0
20,989.904052734375,-0.019458701834082603,-0.108528271317482,0.050682488828897476,40.98969268798828,-35.822837829589844,12.228730201721191,-0.1024789810180664,0.08266162872314453,-0.11641687154769897,-8.360834,4.6197367,-0.66371787,0
20,989.9110717773438,-0.014265251345932484,-0.10226988792419434,0.07917841523885727,40.86833190917969,-35.25126647949219,11.598112106323242,-0.619135856628418,-0.07357311248779297,-0.23973190784454346,-8.035838,4.6817026,-0.49328208,0
20,989.9264526367188,0.007839260622859001,-0.13449417054653168,0.03470379114151001,40.4197883605957,-35.40808868408203,11.984344482421875,-0.12712955474853516,0.1564188003540039,-0.3084108531475067,-8.559257,4.471975,-0.59034014,0
20,989.9113159179688,0.06882589310407639,-0.12384158372879028,0.0016807480715215206,40.6640625,-35.337486267089844,12.096540451049805,-0.11090373992919922,0.1912698745727539,0.27377963066101074,-8.317907,4.5959063,-0.9904001,0
20,989.8955078125,0.03726775199174881,-0.10187055170536041,0.13656987249851227,40.53824234008789,-35.876686096191406,12.07049560546875,-0.40858936309814453,0.0535273551940918,0.028985261917114258,-8.136305,4.7722697,-0.6092833,0
20,989.893310546875,0.09053152054548264,-0.2328980714082718,0.13870064914226532,39.72721862792969,-36.63594055175781,11.931962013244629,-0.052707672119140625,0.1097416877746582,0.1994086503982544,-8.317968,4.829469,-0.65899736,0
20,989.893310546875,0.09053152054548264,-0.2328980714082718,0.13870064914226532,39.72721862792969,-36.63594055175781,11.931962013244629,-0.1580820083618164,0.08632659912109375,0.3063191771507263,-8.251081,4.798487,-0.92649394,0
20,989.8778686523438,0.1168970912694931,-0.27058181166648865,0.1749197244644165,38.94708251953125,-36.2073860168457,11.796147346496582,-0.03238391876220703,0.09747123718261719,0.498512327671051,-8.327588,4.84377,-1.0093489,0
