Timestamp,P,Gx,Gy,Gz,Mx,My,Mz,LiAx,LiAy,LiAz,Ax,Ay,Az,earthAx,earthAy,earthAz,Value,Type
0,988.3328857421875,0.0011817654594779015,-0.0043197148479521275,-1.9314594101160765E-4,-9.844874382019043,22.12086296081543,-39.01649475097656,-0.027705367654561996,0.01747635006904602,0.04599571228027344,0.07767758,-0.14639159,9.7439995,1.746084,-2.017133,9.373118,0
0,988.4219970703125,2.490124898031354E-4,0.0015393393114209175,7.289240602403879E-5,-9.441169738769531,22.0770320892334,-38.38328552246094,0.005485542118549347,0.051273174583911896,0.05579853057861328,0.0800848,-0.14639191,9.765306,-0.008057807,-0.053647965,9.766582,0
0,988.2560424804688,2.3979711113497615E-4,7.343479664996266E-4,5.424767732620239E-5,-6.039555072784424,25.472368240356445,-38.028350830078125,-0.0041207075119018555,0.06082984060049057,0.051062583923339844,0.08249205,-0.15592547,9.760572,-0.0074809045,-0.06360365,9.761956,0
0,988.2560424804688,2.3979711113497615E-4,7.343479664996266E-4,5.424767732620239E-5,-6.039555072784424,25.472368240356445,-38.028350830078125,0.005457386374473572,0.055702321231365204,0.05579185485839844,0.0657801,-0.15115936,9.753473,-0.02239737,-0.055044502,9.754685,0
0,988.2808837890625,2.3946264991536736E-4,4.6808633487671614E-4,5.410425364971161E-5,-6.782292366027832,26.62042808532715,-37.67314147949219,-0.008940428495407104,0.06513016670942307,0.03211688995361328,0.07774699,-0.15115975,9.767677,-0.0119694695,-0.057170853,9.768984,0
0,988.29150390625,5.056111258454621E-4,4.6811357606202364E-4,-2.1228333935141563E-4,-6.856616497039795,26.339780807495117,-37.10637283325195,0.019361838698387146,0.045881882309913635,0.04632091522216797,0.061035007,-0.14162709,9.772413,-0.025774479,-0.043627672,9.773498,0
0,988.29150390625,1.0597013169899583E-4,2.0182481966912746E-4,-3.4551299177110195E-4,-6.122437477111816,26.026853561401367,-37.97104263305664,0.004884824156761169,0.06455407291650772,0.05105113983154297,0.07300189,-0.15592714,9.772415,-0.016002744,-0.060477987,9.773732,0
0,988.2992553710938,-4.268289194442332E-4,4.68167825601995E-4,5.388917634263635E-5,-6.082437992095947,26.011247634887695,-37.36042022705078,-2.0215660333633423E-4,0.054575830698013306,0.06525039672851562,0.075409174,-0.15354432,9.760581,-0.012615781,-0.05846431,9.761897,0
0,988.3117065429688,2.3879349464550614E-4,4.681950667873025E-4,-3.4565641544759274E-4,-6.037191867828369,25.73768424987793,-37.58233642578125,-0.004692800343036652,0.05433179438114166,0.03210258483886719,0.07985097,-0.14638616,9.767652,-0.0070157684,-0.052074462,9.768932,0
0,988.3444213867188,2.3862620582804084E-4,-7.301993318833411E-4,-7.941212970763445E-5,-6.311628341674805,25.849454879760742,-37.54658508300781,9.384900331497192E-4,0.05891895294189453,0.04163360595703125,0.07471156,-0.15114392,9.760517,-0.013658326,-0.055345505,9.761808,0
0,988.2966918945312,1.1050369357690215E-4,-3.315429203212261E-4,-2.104121376760304E-4,-6.316056251525879,25.95094871520996,-38.01374816894531,-0.00357992947101593,0.058482587337493896,0.02742481231689453,0.07231027,-0.1487604,9.777086,-0.015633851,-0.05182177,9.778337,0
0,988.2966918945312,-1.5400262782350183E-4,-4.649946349672973E-4,-4.759524017572403E-4,-6.545790195465088,26.157445907592773,-38.298370361328125,0.01995004713535309,0.043956831097602844,0.06056785583496094,0.06273925,-0.14637677,9.765249,-0.024235029,-0.04714983,9.766403,0
0,988.288818359375,-1.5389261534437537E-4,4.6709307935088873E-4,1.8988444935530424E-4,-6.134368896484375,25.0146427154541,-37.67902374267578,0.010702602565288544,0.05289764702320099,0.051093101501464844,0.06511772,-0.1582929,9.767615,-0.02459886,-0.05874502,9.768908,0
0,988.29638671875,-2.86940427031368E-4,-8.6450413800776E-4,5.677371518686414E-5,-5.902432441711426,24.5472469329834,-38.07233428955078,-0.008438028395175934,0.06224864721298218,0.032154083251953125,0.07944572,-0.15114279,9.772348,-0.008694813,-0.054912627,9.773683,0
0,988.2816162109375,1.1264329077675939E-4,2.007414004765451E-4,5.682080518454313E-5,-6.193717956542969,25.7491512298584,-37.55888748168945,0.001047469675540924,0.04761183261871338,0.027418136596679688,0.0770444,-0.1511425,9.777082,-0.010932218,-0.054002166,9.7784,0
0,988.288818359375,-2.867202856577933E-4,-3.319082024972886E-4,1.9002595217898488E-4,-6.480329990386963,25.84913444519043,-36.90469741821289,0.005966886878013611,0.05188681185245514,0.008475303649902344,0.074643075,-0.15352555,9.788918,-0.014432885,-0.05499834,9.79024,0
0,988.2913818359375,-2.0294624846428633E-5,-6.56101037748158E-5,-6.088746013119817E-4,-6.168257236480713,25.45644187927246,-36.77583694458008,-0.017777040600776672,0.046855807304382324,0.04161357879638672,0.08658114,-0.1582918,9.767611,-0.003416311,-0.062432297,9.769077,0
0,988.2836303710938,1.129735610447824E-4,3.3384584821760654E-4,-6.088273366913199E-4,-6.368774890899658,26.32306480407715,-38.10438537597656,-0.008515283465385437,0.050773754715919495,0.03687477111816406,0.077010155,-0.15352495,9.774712,-0.011174992,-0.054776877,9.776061,0
0,988.294189453125,-0.0014848117716610432,3.33828036673367E-4,-7.614842616021633E-5,-6.12493896484375,25.65561866760254,-37.717979431152344,0.010439753532409668,0.04580210894346237,0.03213977813720703,0.0746088,-0.13922505,9.781813,-0.00994553,-0.040098302,9.783,0
0,988.294189453125,-1.9854342099279165E-5,-0.0015304188709706068,1.9026186782866716E-4,-6.433424472808838,25.68296241760254,-37.90299987792969,-0.012840837240219116,0.045329950749874115,0.04160118103027344,0.0865469,-0.14637454,9.769976,-0.0011342205,-0.049391188,9.771331,0
0,988.294189453125,-1.9854342099279165E-5,-0.0015304188709706068,1.9026186782866716E-4,-6.433424472808838,25.68296241760254,-37.90299987792969,0.006228148937225342,0.04532904922962189,0.03213310241699219,0.06741631,-0.1463743,9.777077,-0.018547941,-0.04509206,9.778283,0
0,988.2867431640625,1.1341372737661004E-4,3.3377448562532663E-4,-7.600686512887478E-5,-6.091837406158447,26.58253288269043,-38.39319610595703,-0.0029461905360221863,0.05925045162439346,0.055800437927246094,0.08413416,-0.15352388,9.75577,-0.0046200566,-0.05542647,9.757181,0
0,988.27392578125,-2.859501983039081E-4,-4.651911440305412E-4,4.5667195809073746E-4,-6.27605676651001,25.93534278869629,-37.40312576293945,0.0067743659019470215,0.049422696232795715,0.03212451934814453,0.06739342,-0.148757,9.769972,-0.020383958,-0.04631243,9.771206,0
0,988.2943725585938,2.4679157650098205E-4,-9.978406596928835E-4,4.567190771922469E-4,-6.59878396987915,26.317724227905273,-36.990848541259766,-0.00706317275762558,0.04907628148794174,0.041586875915527344,0.08411133,-0.14875676,9.755768,-0.0038765408,-0.05002661,9.757136,0
0,988.27392578125,-1.9414059352129698E-5,-9.978585876524448E-4,-7.586547872051597E-5,-6.241869926452637,26.12568473815918,-37.881439208984375,0.007421433925628662,0.0581856369972229,0.04158306121826172,0.0697605,-0.15113969,9.762869,-0.018490445,-0.04858844,9.764149,0
1,988.2867431640625,-4.1877798503264785E-4,6.738706724718213E-5,5.733966827392578E-5,-6.231353759765625,26.030073165893555,-37.72349548339844,-0.0015846490859985352,0.058201998472213745,0.032111167907714844,0.07930869,-0.15828924,9.774704,-0.011266969,-0.057486176,9.776131,0
1,988.2613525390625,3.80279787350446E-4,-0.0016636839136481285,5.738670006394386E-5,-6.1564860343933105,25.94243049621582,-38.191810607910156,0.007994517683982849,0.05801934748888016,0.027376174926757812,0.067347765,-0.14637263,9.767601,-0.019655347,-0.043353416,9.768813,0
1,988.2840576171875,7.798636215738952E-4,-3.321224940009415E-4,-7.572403410449624E-5,-5.915801048278809,26.378385543823242,-38.02345275878906,-0.0018724054098129272,0.033665597438812256,0.04157733917236328,0.0816758,-0.1487556,9.774701,-0.005907245,-0.048167616,9.776053,0
1,988.2989501953125,-6.847637123428285E-4,5.999651039019227E-4,-6.083085900172591E-4,-5.928818225860596,26.102750778198242,-37.92833709716797,-0.011393800377845764,0.05260738730430603,0.03210735321044922,0.08644414,-0.15113856,9.767599,-0.0024497807,-0.05144205,9.769015,0
1,988.28662109375,5.137676489539444E-4,8.662632899358869E-4,-6.082614418119192E-4,-6.2533650398254395,25.85152244567871,-37.863624572753906,0.0027323514223098755,0.06657072901725769,0.03210639953613281,0.07926303,-0.17020456,9.767597,-0.01352486,-0.068089515,9.769156,0
1,988.303955078125,-2.85069749224931E-4,2.0045565906912088E-4,5.7575409300625324E-5,-6.374863624572754,26.317174911499023,-37.795166015625,-0.0019860491156578064,0.051847197115421295,0.041571617126464844,0.07686174,-0.14637144,9.758127,-0.009656873,-0.04418093,9.759423,0
1,988.3240966796875,-5.512757343240082E-4,-3.3219397300854325E-4,1.9078049808740616E-4,-5.937812328338623,26.1998348236084,-38.16358184814453,0.002909064292907715,0.037025175988674164,0.0557708740234375,0.076850295,-0.13922139,9.822041,-0.008909911,-0.035802253,9.823258,0
1,988.268798828125,-4.98475506901741E-4,-3.2423820812255144E-5,2.4164881324395537E-4,-6.279644012451172,26.300687789916992,-37.34696578979492,-0.02090349793434143,0.027485661208629608,-0.03418254852294922,0.07922876,-0.15352078,9.810204,-0.009281278,-0.05048921,9.81159,0
1,988.2865600585938,5.668980302289128E-4,2.3387419059872627E-4,-2.909357426688075E-4,-5.690633773803711,26.16746711730957,-37.506919860839844,0.002136439085006714,0.05569364130496979,0.05569648742675781,0.07761556,-0.14877327,9.767666,-0.008981921,-0.045721523,9.768996,0
1,988.2865600585938,5.668980302289128E-4,2.3387419059872627E-4,-2.909357426688075E-4,-5.690633773803711,26.16746711730957,-37.506919860839844,0.007158428430557251,0.050785623490810394,0.05095672607421875,0.077635854,-0.14639045,9.760567,-0.009471413,-0.04311624,9.761873,0
1,988.2684936523438,4.319654544815421E-4,-4.3162741349078715E-4,1.077775377780199E-4,-6.156486988067627,25.942434310913086,-38.191810607910156,0.016313858330249786,0.05033310502767563,0.050952911376953125,0.07765615,-0.14877422,9.76767,-0.009811811,-0.044948183,9.769003,0
1,988.296142578125,-6.392287323251367E-4,0.0014335464220494032,7.71025603171438E-4,-6.216271877288818,25.93889045715332,-37.79747009277344,0.02102150022983551,0.05985090136528015,0.05095100402832031,0.065726936,-0.16069107,9.770039,-0.023927495,-0.053865783,9.771403,0
1,988.296142578125,4.258392145857215E-4,-6.96948787663132E-4,1.0515208123251796E-4,-6.622179985046387,26.243619918823242,-37.752750396728516,0.016445942223072052,0.07341969013214111,0.04147148132324219,0.07769671,-0.15354185,9.765306,-0.011280894,-0.04876496,9.766695,0
1,988.2941284179688,-1.0698800906538963E-4,-2.974431845359504E-4,1.0506826220080256E-4,-6.247277736663818,25.857419967651367,-38.17284393310547,0.007069990038871765,0.059099502861499786,0.03673267364501953,0.07293719,-0.15830885,9.755839,-0.016628489,-0.05248887,9.75724,0
1,988.30126953125,4.25448059104383E-4,-8.300431654788554E-4,2.3814232554286718E-4,-6.154421806335449,25.575613021850586,-38.17066192626953,-0.0021469295024871826,0.030339069664478302,0.02725696563720703,0.084907025,-0.14639296,9.774778,-0.0022501722,-0.043369487,9.776145,0
1,988.2886352539062,2.920945407822728E-4,1.0209408355876803E-4,-2.825737465173006E-5,-6.683349132537842,26.344518661499023,-37.98017883300781,-0.002091236412525177,0.05380886793136597,0.046189308166503906,0.068197995,-0.1583098,9.770046,-0.022218779,-0.050373822,9.771411,0
1,988.3112182617188,-5.07048680447042E-4,-9.631376597099006E-4,3.711326571647078E-4,-5.978928565979004,25.73975944519043,-37.899375915527344,-0.0022066906094551086,0.034445181488990784,0.050919532775878906,0.0706082,-0.1487772,9.767681,-0.016562466,-0.041809276,9.768967,0
1,988.2782592773438,-3.740862011909485E-4,6.347892922349274E-4,-2.8425012715160847E-5,-5.862539768218994,25.637983322143555,-37.83436965942383,-0.016607262194156647,0.03895500302314758,0.05091571807861328,0.080188096,-0.15592761,9.755846,-0.008440383,-0.05081334,9.757285,0
1,988.3137817382812,-2.4112395476549864E-4,-5.636002751998603E-4,-2.850883174687624E-5,-6.239805221557617,25.758867263793945,-37.86029052734375,-0.002039782702922821,0.029111534357070923,0.06037712097167969,0.06825888,-0.13924517,9.741645,-0.017011225,-0.031553805,9.742814,0
1,988.2860717773438,2.913122298195958E-4,-2.972526999656111E-4,9.035129332914948E-4,-6.6707682609558105,25.88209342956543,-37.80109405517578,-0.0070790499448776245,0.028925329446792603,0.03670310974121094,0.082618594,-0.13924564,9.774788,-0.003444463,-0.03424657,9.776069,0
1,988.2913818359375,1.5795871149748564E-4,2.354108728468418E-4,-8.276241132989526E-4,-6.701230049133301,25.43233299255371,-38.07801818847656,-0.0072913095355033875,0.04764867573976517,0.031963348388671875,0.077859074,-0.15831228,9.767689,-0.012861468,-0.051351443,9.769138,0
1,988.3037719726562,-1.0855298023670912E-4,2.3544259602203965E-4,-1.6191822942346334E-4,-6.655685901641846,25.79090690612793,-37.875064849853516,0.011842846870422363,0.03795706480741501,0.03669452667236328,0.070709705,-0.14639641,9.779526,-0.016495075,-0.03778345,9.780791,0
1,988.2835083007812,2.4409382604062557E-5,6.349480827338994E-4,1.0431383270770311E-4,-6.916019439697266,25.44172477722168,-37.73753356933594,0.006872251629829407,0.046766676008701324,0.031951904296875,0.077899694,-0.15116353,9.77006,-0.010861378,-0.043473884,9.771435,0
1,988.2958374023438,-6.415758980438113E-4,2.3550610058009624E-4,-2.9524380806833506E-4,-6.5899505615234375,25.694425582885742,-37.879547119140625,-0.002624019980430603,0.03689785301685333,0.03668022155761719,0.07791996,-0.14639749,9.777163,-0.009061094,-0.038686723,9.778488,0
2,988.3059692382812,-3.7545571103692055E-4,-3.077805740758777E-5,5.036198999732733E-4,-6.346358299255371,26.027406692504883,-37.166725158691406,0.0020424947142601013,0.041551895439624786,0.01774120330810547,0.07077056,-0.15354778,9.772429,-0.01709282,-0.043965198,9.773778,0
2,988.2984619140625,1.569804735481739E-4,5.018856027163565E-4,-8.280433248728514E-4,-6.447963714599609,25.405858993530273,-37.73057556152344,0.001521676778793335,0.046100273728370667,0.041413307189941406,0.07796055,-0.15354823,9.774798,-0.0099978,-0.045399576,9.776206,0
2,988.26806640625,-1.095309853553772E-4,0.0010345489718019962,3.702942922245711E-4,-6.21116304397583,25.57501792907715,-37.930931091308594,-0.0032990500330924988,0.055350594222545624,0.046142578125,0.08276063,-0.16784836,9.7748,-0.008035667,-0.06024961,9.776402,0
2,988.3009643554688,2.3431493900716305E-5,-4.301565932109952E-4,3.702104731928557E-4,-6.518265247344971,25.497922897338867,-37.49417495727539,-0.008409850299358368,0.03093378245830536,0.046135902404785156,0.085170865,-0.15116604,9.760599,-0.0019141361,-0.044223443,9.762041,0
2,988.2807006835938,-3.7623802199959755E-4,6.351387710310519E-4,-2.934719668701291E-5,-6.416820049285889,25.593252182006836,-38.05427551269531,-0.0033386126160621643,0.05002366751432419,0.04613208770751953,0.080411375,-0.15116651,9.760601,-0.0056833066,-0.04319366,9.762006,0
2,988.3108520507812,6.888299249112606E-4,-4.3009305954910815E-4,1.0372692486271262E-4,-5.866968154907227,25.739484786987305,-38.30153274536133,0.006735086441040039,0.040226370096206665,0.03191947937011719,0.075651854,-0.15116699,9.770072,-0.01114019,-0.041604742,9.771441,0
2,988.3035888671875,-2.4347123689949512E-4,-0.0010958510683849454,1.0364310583099723E-4,-5.936046123504639,25.20088005065918,-38.56731033325195,-0.002707444131374359,0.05435505509376526,0.0555877685546875,0.08284187,-0.15593402,9.77244,-0.005631227,-0.047580592,9.773918,0
2,988.288330078125,2.889648312702775E-4,-6.96345407050103E-4,-2.9591459315270185E-4,-6.377906799316406,26.31422233581543,-37.64055252075195,0.011877834796905518,0.04923441261053085,0.04611015319824219,0.06852269,-0.16070105,9.770076,-0.020942908,-0.048524715,9.771495,0
2,988.30322265625,-6.433363305404782E-4,-1.636819215491414E-4,-4.291563527658582E-4,-6.421088218688965,26.22096824645996,-37.397491455078125,0.0023931562900543213,0.044090501964092255,0.036635398864746094,0.07571274,-0.15116854,9.762976,-0.012412772,-0.040404014,9.764349,0
2,988.3184204101562,1.5541561879217625E-4,-2.9680810985155404E-4,-1.629242324270308E-4,-6.956264019012451,26.457761764526367,-38.02173614501953,0.003828980028629303,0.04393378645181656,0.04148387908935547,0.076809764,-0.14637019,9.76049,-0.0099496655,-0.035989307,9.761818,0
2,988.295654296875,2.961707068607211E-4,-4.3119932524859905E-4,2.398054930381477E-4,-6.586064338684082,25.961217880249023,-37.51083755493164,-0.010324075818061829,0.04854170233011246,0.022545814514160156,0.07438815,-0.15113597,9.781792,-0.013150282,-0.039749146,9.783152,0
2,988.2782592773438,7.005316438153386E-4,-3.251893213018775E-5,1.0874198051169515E-4,-6.32268762588501,26.313352584838867,-37.802978515625,0.00855032354593277,0.020166322588920593,0.05095863342285156,0.064796805,-0.14398535,9.765219,-0.02055598,-0.031112,9.766425,0
2,988.2953491210938,-9.810971096158028E-5,-1.6572652384638786E-4,3.7518906174227595E-4,-6.202712059020996,25.846227645874023,-37.79413604736328,-5.370974540710449E-4,0.03418584167957306,0.050955772399902344,0.07432473,-0.14875115,9.762849,-0.012726121,-0.03756039,9.764185,0
2,988.2979125976562,4.3482764158397913E-4,-9.647237602621317E-4,1.0900408960878849E-4,-6.307606220245361,26.222166061401367,-37.876953125,-0.010204493999481201,0.03381621837615967,0.050955772399902344,0.07907283,-0.14398386,9.762846,-0.0070505366,-0.033616193,9.764166,0
2,988.3381958007812,-3.6381452810019255E-4,1.0049017146229744E-4,-9.561284678056836E-4,-6.397852897644043,25.76885414123535,-37.75953674316406,-4.617273807525635E-4,0.03849416226148605,0.041487693786621094,0.06948149,-0.1511329,9.753374,-0.018347062,-0.03821957,9.7547,0
2,988.3030395507812,4.354390548542142E-4,-1.658753608353436E-4,2.4242408107966185E-4,-6.65318489074707,26.162145614624023,-38.12812805175781,0.009331218898296356,0.033941738307476044,0.041492462158203125,0.07422963,-0.14636554,9.760472,-0.012574714,-0.034907162,9.761782,0
2,988.30810546875,5.689029349014163E-4,-0.0012311884202063084,-6.895505357533693E-4,-6.348584175109863,25.868005752563477,-38.31182098388672,0.009195700287818909,0.052917830646038055,0.04622936248779297,0.07419795,-0.16066445,9.769939,-0.016485576,-0.04840605,9.771408,0
2,988.30810546875,5.689029349014163E-4,-0.0012311884202063084,-6.895505357533693E-4,-6.5577216148376465,25.145238876342773,-38.00634765625,0.009425267577171326,0.043133094906806946,0.05096244812011719,0.07177627,-0.15351377,9.774671,-0.016568016,-0.040805474,9.776039,0
2,988.3003540039062,3.0289252754300833E-4,7.661309209652245E-4,-2.3629923816770315E-5,-6.299452781677246,25.861238479614258,-38.1650276184082,0.005135990679264069,0.04278998076915741,0.041489601135253906,0.06935468,-0.15827955,9.762831,-0.020504601,-0.04452023,9.764236,0
2,988.2949829101562,4.3635594192892313E-4,-8.318139589391649E-4,7.754487451165915E-4,-6.3902435302734375,25.776220321655273,-38.146060943603516,0.009765438735485077,0.0378262996673584,0.05095958709716797,0.08366239,-0.16304536,9.762829,-0.0068202354,-0.052434087,9.764405,0
2,988.3074951171875,4.750268999487162E-6,7.908711559139192E-4,-7.102114614099264E-4,-6.5935378074646,26.05977439880371,-37.82339096069336,-0.014160610735416412,0.03710611164569855,0.027283668518066406,0.069291264,-0.15589477,9.777029,-0.019847963,-0.041071326,9.778411,0
2,988.3251953125,-9.270498412661254E-4,-2.744421362876892E-4,-4.42908494733274E-5,-6.271353721618652,26.045682907104492,-38.33412170410156,0.019339635968208313,0.04165629297494888,0.04622077941894531,0.07164943,-0.16304381,9.760456,-0.018557254,-0.04880376,9.761942,0
2,988.3099975585938,1.3851997209712863E-4,-2.744917874224484E-4,2.221561735495925E-4,-6.396873950958252,26.13861656188965,-37.93529510498047,0.03410903364419937,0.022615008056163788,0.05568981170654297,0.08595717,-0.16065972,9.767553,-0.0047021806,-0.049550667,9.769128,0
2,988.2872314453125,4.051414434798062E-4,-0.0013398048467934132,8.912920020520687E-5,-6.281326770782471,25.77299690246582,-38.39360809326172,-0.012951098382472992,0.04108278453350067,0.055680274963378906,0.08831537,-0.14874263,9.767551,-1.601614E-4,-0.037757576,9.76901,0
2,988.292236328125,-1.2718484504148364E-4,-4.077488847542554E-4,-4.3897831346839666E-5,-6.250619411468506,25.222333908081055,-38.44310760498047,0.06344455480575562,0.012304306030273438,0.05094718933105469,0.047655284,-0.1344421,9.762814,-0.03633672,-0.014296472,9.763778,0
3,988.2899780273438,-6.595111335627735E-4,-8.324685040861368E-6,-4.3766864109784365E-5,-6.398151397705078,25.136720657348633,-38.184410095214844,0.001284174621105194,0.05474422872066498,0.036742210388183594,0.08586198,-0.1558909,9.767546,-0.004327886,-0.043531507,9.769068,0
3,988.2994384765625,-2.597318380139768E-4,-6.741640390828252E-4,2.2268010070547462E-4,-6.624979019165039,25.240243911743164,-37.924560546875,0.03026726096868515,0.059673480689525604,0.04147911071777344,0.06671113,-0.1535068,9.762808,-0.022910055,-0.036616996,9.764147,0
3,988.3199462890625,0.0010721529833972454,-5.410556914284825E-4,8.965312736108899E-5,-6.139339923858643,25.48443031311035,-38.24463653564453,0.006392903625965118,0.04998456686735153,0.050948143005371094,0.07384911,-0.15588932,9.769907,-0.015730891,-0.040779054,9.77133,0
3,988.302001953125,-2.5912089040502906E-4,-8.473580237478018E-6,4.892578581348062E-4,-6.320622444152832,25.946531295776367,-37.78183364868164,0.020850785076618195,0.016365140676498413,0.027276992797851562,0.057088017,-0.13682233,9.769903,-0.027813595,-0.018069327,9.770972,0
3,988.3223266601562,4.0697475196793675E-4,-2.7483905432745814E-4,3.5623094299808145E-4,-6.0024614334106445,25.55973243713379,-37.96220016479492,-0.01716453582048416,0.04015238583087921,0.027276992797851562,0.09051499,-0.16065429,9.774635,-5.231574E-4,-0.04878524,9.776254,0
3,988.3324584960938,2.74122750852257E-4,-9.40678408369422E-4,-4.31117950938642E-5,-5.961483478546143,25.91389274597168,-37.52732849121094,-0.012090824544429779,0.03513079881668091,0.04147815704345703,0.08092368,-0.155887,9.765163,-0.008784033,-0.041876853,9.76665,0
3,988.3297119140625,-2.582035376690328E-4,-1.4178035780787468E-4,-1.7613882664591074E-4,-6.361600875854492,25.592374801635742,-38.216705322265625,0.007118046283721924,0.035152778029441833,0.07462215423583984,0.07850209,-0.14873634,9.746223,-0.010165151,-0.034455776,9.747608,0
3,988.3170166015625,5.410495796240866E-4,-5.413037724792957E-4,-1.7600785940885544E-4,-6.25420618057251,25.587675094604492,-38.38694763183594,0.021601378917694092,0.04926431179046631,0.05568408966064453,0.06891072,-0.15350218,9.767525,-0.0206355,-0.036443383,9.768884,0
3,988.30712890625,1.4188181376084685E-4,-1.4187960186973214E-4,-3.0903471633791924E-4,-6.214749336242676,25.940359115600586,-37.87477111816406,-0.007293343544006348,0.011013641953468323,0.046217918395996094,0.07903868,-0.13683312,9.753374,-0.006505158,-0.02270694,9.754626,0
3,988.2994995117188,9.029696229845285E-6,3.907025675289333E-4,4.900438943877816E-4,-6.015042304992676,26.022153854370117,-38.14128494262695,0.005916759371757507,0.03451307862997055,0.05557441711425781,0.07964319,-0.13923128,9.758163,-0.0062601827,-0.0248027,9.759448,0
3,988.3121337890625,-2.3195170797407627E-6,-2.732448047026992E-4,2.1886412287130952E-4,-6.161893844604492,25.674169540405273,-38.48321533203125,0.019986070692539215,0.015621013939380646,0.022436141967773438,0.06771016,-0.13684835,9.7865715,-0.017501391,-0.019585982,9.787726,0
3,988.2916870117188,-2.478307578712702E-6,3.925706841982901E-4,-5.801515653729439E-4,-6.296408653259277,25.86418342590332,-38.319637298583984,0.01036958396434784,0.03407948464155197,0.041365623474121094,0.07967618,-0.14876522,9.777103,-0.00801599,-0.033509076,9.778499,0
3,988.3244018554688,-6.684270338155329E-4,1.2628064723685384E-4,8.557003457099199E-5,-6.0452070236206055,26.204530715942383,-37.99333953857422,0.014904312789440155,0.03847472369670868,0.04609394073486328,0.06774315,-0.1559154,9.770004,-0.020877384,-0.037677363,9.771389,0
3,988.3065185546875,-4.0227005956694484E-4,6.589382537640631E-4,4.8497572424821556E-4,-6.101703643798828,25.20350456237793,-38.08002853393555,5.208179354667664E-4,0.038237206637859344,0.04135704040527344,0.07253945,-0.15114926,9.760536,-0.015216488,-0.033884287,9.761908,0
3,988.28662109375,2.633606200106442E-4,-4.062994848936796E-4,3.5174962249584496E-4,-5.91957950592041,25.005247116088867,-38.019508361816406,-0.003664642572402954,0.02831204980611801,0.0318756103515625,0.07016602,-0.14638312,9.767641,-0.017269988,-0.027942032,9.768935,0
3,988.3244018554688,-0.001068377634510398,-0.001604695338755846,-3.141082124784589E-4,-6.4549994468688965,26.242467880249023,-38.31733322143555,-0.017982326447963715,0.04244562238454819,0.041342735290527344,0.08452192,-0.16068311,9.770008,-0.006255623,-0.045026854,9.771589,0
3,988.3167114257812,5.293586873449385E-4,-6.7740329541265965E-6,-3.1417631544172764E-4,-6.252248764038086,26.327207565307617,-38.73845672607422,0.0058045461773872375,0.046833865344524384,0.041337013244628906,0.079758644,-0.15591706,9.77001,-0.0094909,-0.03901139,9.771498,0
3,988.2963256835938,-4.0290592005476356E-4,2.595676342025399E-4,8.522951975464821E-5,-6.047569274902344,25.939207077026367,-38.439361572265625,0.010975569486618042,0.022785842418670654,0.046062469482421875,0.07499528,-0.14400105,9.767645,-0.012158986,-0.025936753,9.768953,0
3,988.3089599609375,-2.699068863876164E-4,-9.388281032443047E-4,-1.811545225791633E-4,-6.3621439933776855,25.960668563842773,-38.315155029296875,0.010874472558498383,0.027219124138355255,0.041324615478515625,0.079791605,-0.14161818,9.770013,-0.0070773587,-0.024307981,9.771333,0
3,988.3240356445312,-1.3690785272046924E-4,-2.73012527031824E-4,-4.806474316865206E-5,-6.559786319732666,25.512056350708008,-38.027496337890625,0.006515860557556152,0.06066499650478363,0.03658580780029297,0.079808116,-0.16545133,9.767649,-0.012885492,-0.047541246,9.769251,0
3,988.3115844726562,0.0010613547638058662,-8.056185906752944E-4,-5.807646084576845E-4,-6.466494560241699,25.968305587768555,-38.29951858520508,0.0019918307662010193,0.031865090131759644,0.0318450927734375,0.07743472,-0.14638557,9.777119,-0.011096593,-0.02802451,9.778476,0
3,988.3062744140625,-5.366996047087014E-4,-1.3980301446281374E-4,-1.8135900609195232E-4,-6.62826681137085,26.23772621154785,-37.44352722167969,0.030074656009674072,0.03639241307973862,0.03658008575439453,0.070281476,-0.15591903,9.762917,-0.01910413,-0.03596002,9.764329,0
3,988.3062744140625,-1.3738468987867236E-4,7.92328326497227E-4,2.180467708967626E-4,-6.12784481048584,25.758588790893555,-38.262451171875,0.015759967267513275,0.03152180463075638,0.05551433563232422,0.07985756,-0.13685323,9.767652,-0.005440552,-0.019377396,9.768916,0
3,988.30126953125,6.614039302803576E-4,-6.593530997633934E-6,-7.141269743442535E-4,-5.959280967712402,25.652990341186523,-38.20526123046875,0.011132374405860901,0.06473029404878616,0.03657245635986328,0.09182358,-0.15591986,9.760551,0.0015774742,-0.040519,9.762144,0
4,988.311279296875,2.617713180370629E-4,-6.72357389703393E-4,-1.8156319856643677E-4,-6.3945112228393555,26.403940200805664,-37.48927688598633,0.015839099884033203,0.05013994127511978,0.03183269500732422,0.05599153,-0.1511537,9.76292,-0.032257985,-0.027233422,9.76416,0
4,988.2935791015625,-4.0417740819975734E-4,-2.7285778196528554E-4,2.1784240379929543E-4,-6.391765117645264,25.774747848510742,-38.068756103515625,0.0013876855373382568,0.0356878861784935,0.03656482696533203,0.07990706,-0.16307051,9.78186,-0.011311144,-0.044131696,9.783441,0
4,988.2935791015625,-4.0417740819975734E-4,-2.7285778196528554E-4,2.1784240379929543E-4,-6.1595306396484375,25.939489364624023,-38.037200927734375,-0.008323706686496735,0.03067425638437271,0.03182697296142578,0.07992351,-0.15115453,9.767658,-0.008764863,-0.032399684,9.769095,0
4,988.3087768554688,-1.3802055036649108E-4,0.0010587475262582302,-5.811734590679407E-4,-6.446984767913818,25.775625228881836,-37.90633010864258,-0.0035755187273025513,0.025675877928733826,0.041291236877441406,0.07755014,-0.1487716,9.772394,-0.010795705,-0.029119313,9.773785,0
4,988.3111572265625,-5.180423613637686E-6,2.598513965494931E-4,-3.149937838315964E-4,-6.447825908660889,25.511777877807617,-38.42965316772461,-0.008265085518360138,0.035218797624111176,0.03655529022216797,0.08234641,-0.16068847,9.767661,-0.008788902,-0.041977584,9.769236,0
4,988.30615234375,7.936081965453923E-4,-4.05912462156266E-4,-5.813776515424252E-4,-6.160914421081543,26.043928146362305,-38.658973693847656,0.006187446415424347,0.025626197457313538,0.036551475524902344,0.07280332,-0.14162262,9.77003,-0.013321735,-0.021280155,9.771296,0
4,988.3086547851562,7.934492896310985E-4,-5.390446167439222E-4,-4.48287813924253E-4,-5.94680643081665,26.296911239624023,-38.39883041381836,-0.0032470524311065674,0.025753021240234375,0.05075359344482422,0.089549094,-0.13447322,9.76293,0.0046501085,-0.018179163,9.764251,0
4,988.2957763671875,3.9381656097248197E-4,1.2677087215706706E-4,2.1743366960436106E-4,-6.173633575439453,26.400434494018555,-38.138980865478516,0.006318271160125732,0.021060973405838013,0.03654956817626953,0.08239591,-0.14162345,9.767666,-0.0041031577,-0.02361609,9.769011,0
4,988.3214721679688,5.268154782243073E-4,-9.384668665006757E-4,-3.152661956846714E-4,-6.271353721618652,26.045682907104492,-38.33412170410156,0.011155091226100922,0.035229913890361786,0.05074882507324219,0.0752427,-0.14877363,9.765301,-0.01287429,-0.028820515,9.766673,0
4,988.3137817382812,-3.0850060284137726E-4,-1.9412435358390212E-4,-2.469776081852615E-4,-6.394372940063477,26.509855270385742,-38.1883544921875,0.0160500630736351,0.035194605588912964,0.03654289245605469,0.07525918,-0.14162426,9.767669,-0.011382598,-0.021758318,9.768955,0
4,988.3087158203125,8.897618390619755E-4,3.385331656318158E-4,2.8558610938489437E-4,-6.012542247772217,26.393396377563477,-38.39434814453125,0.006226576864719391,0.03493616729974747,0.031805992126464844,0.07288575,-0.15354098,9.770038,-0.015689705,-0.032803208,9.771448,0
4,988.3036499023438,-8.414504118263721E-4,8.711906848475337E-4,2.855179482139647E-4,-6.140318870544434,25.114667892456055,-38.068878173828125,0.005709022283554077,0.029856927692890167,0.041274070739746094,0.07290226,-0.1487749,9.774773,-0.014564872,-0.027661547,9.776127,0
4,988.2877197265625,-1.7581938300281763E-4,3.3858485403470695E-4,1.5229190466925502E-4,-6.457064628601074,26.609281539916992,-38.33848190307617,0.0011219233274459839,0.034529365599155426,0.03653526306152344,0.07769853,-0.15830837,9.765306,-0.012167852,-0.038048685,9.766817,0
4,988.2980346679688,-1.7597852274775505E-4,-6.0863239923492074E-5,-3.8040796061977744E-4,-6.687234401702881,26.077730178833008,-38.34889221191406,0.010264195501804352,0.02451346069574356,0.045998573303222656,0.0777151,-0.14877571,9.765308,-0.009854987,-0.02826643,9.766705,0
4,988.3004150390625,-4.297960549592972E-5,8.712682174518704E-4,1.8997699953615665E-5,-6.916562080383301,25.81001091003418,-37.83597946166992,0.005544282495975494,0.03359697014093399,0.050726890563964844,0.0801214,-0.14877613,9.767675,-0.007978696,-0.028396294,9.769093,0
4,988.3106689453125,-4.4261233415454626E-4,-1.9396955030970275E-4,-5.137021071277559E-4,-6.546769142150879,25.787683486938477,-38.12261199951172,8.448660373687744E-4,0.038190774619579315,0.02705097198486328,0.07774803,-0.14877649,9.762943,-0.009751782,-0.027690873,9.764342,0
4,988.2957763671875,-7.090872386470437E-4,-6.078582373447716E-5,4.1833525756374E-4,-6.761420726776123,25.902997970581055,-38.481204986572266,5.171447992324829E-4,0.028287306427955627,0.050719261169433594,0.08254433,-0.1487769,9.767679,-0.004925523,-0.028453633,9.76912,0
4,988.3156127929688,-4.429301479831338E-4,4.718717827927321E-4,5.514251533895731E-4,-6.490165710449219,25.6823673248291,-37.66326904296875,0.014305479824543,0.03776797652244568,0.06965827941894531,0.075391114,-0.1583104,9.744009,-0.013272516,-0.036451533,9.745511,0
4,988.3079223632812,4.890164127573371E-4,0.0012708451831713319,-1.144327106885612E-4,-6.889442443847656,25.624696731567383,-37.829315185546875,0.004650764167308807,0.027919836342334747,0.045981407165527344,0.07301769,-0.14639445,9.77005,-0.013083767,-0.023467124,9.771382,0
4,988.3207397460938,-3.100901376456022E-4,2.0560753182508051E-4,2.849730080924928E-4,-6.423450946807861,25.955644607543945,-37.843505859375,-2.495869994163513E-4,0.013338625431060791,0.03177452087402344,0.075424075,-0.14401157,9.765316,-0.009516921,-0.021790028,9.766639,0
4,988.318115234375,8.922454435378313E-5,7.247531902976334E-5,-2.4772697361186147E-4,-6.239262580871582,25.390573501586914,-37.7618408203125,0.00916106253862381,0.03225181996822357,0.036507606506347656,0.06827086,-0.14401193,9.777154,-0.016332623,-0.019869253,9.7784195,0
4,988.3004150390625,-3.104080678895116E-4,2.0565916202031076E-4,-2.477950765751302E-4,-6.18847131729126,25.491201400756836,-38.39143371582031,-0.0052443817257881165,0.022545546293258667,0.045970916748046875,0.08200526,-0.14638041,9.760529,-0.0033431612,-0.025427133,9.761938,0
4,988.3207397460938,-4.437249153852463E-4,3.3884283038787544E-4,-5.14178944285959E-4,-6.33045768737793,25.77976417541504,-38.5404052734375,0.005673408508300781,0.008096352219581604,0.04608345031738281,0.076595426,-0.13921513,9.765205,-0.006910067,-0.017058685,9.76648,0
4,988.3106079101562,-5.684624775312841E-4,-4.5956147368997335E-4,-1.0873953578993678E-4,-6.162437438964844,26.042463302612305,-38.5816650390625,-0.003779776394367218,0.03153305500745773,0.04607963562011719,0.078968525,-0.15828086,9.762836,-0.0095263235,-0.03562334,9.764369,0
4,988.3201904296875,9.897694690153003E-5,-7.26145226508379E-4,-2.4119048612192273E-4,-6.5733466148376465,25.604719161987305,-38.03083038330078,0.005577407777309418,0.026239030063152313,0.03187274932861328,0.0837315,-0.14159758,9.779406,-6.101504E-4,-0.019898191,9.780769,0
5,988.3125610351562,-5.666504730470479E-4,0.001138039631769061,2.5195011403411627E-5,-6.570302486419678,25.6076602935791,-38.18543243408203,5.574002861976624E-4,0.03583131730556488,0.017673492431640625,0.07893485,-0.1535135,9.769935,-0.007900115,-0.030544683,9.771408,0
5,988.322998046875,9.93013964034617E-5,7.385394419543445E-4,1.5842245193198323E-4,-6.6284284591674805,25.71150779724121,-38.567474365234375,-0.008669450879096985,0.035318851470947266,0.055542945861816406,0.083697796,-0.15112986,9.762831,-0.0026230626,-0.028939173,9.764317,0
5,988.3229370117188,-0.0013652732595801353,-8.593822713010013E-4,-1.0782387107610703E-4,-6.553262233734131,26.255998611450195,-38.610923767089844,0.005639106035232544,0.03492865711450577,0.05080413818359375,0.076511264,-0.15589596,9.765198,-0.010984432,-0.031350568,9.766686,0
5,988.3026123046875,9.962607873603702E-5,-6.046087946742773E-5,2.5403627660125494E-5,-6.861886501312256,26.177431106567383,-38.09686279296875,0.010430678725242615,0.025380335748195648,0.04133796691894531,0.07171464,-0.15351231,9.781766,-0.01445004,-0.027961284,9.783183,0
5,988.3098754882812,3.661041264422238E-4,-5.931190098635852E-4,-2.4084275355562568E-4,-6.120234966278076,25.76595115661621,-38.64897155761719,8.417069911956787E-4,0.025140658020973206,0.031867027282714844,0.0812574,-0.14397879,9.767561,-0.0030375607,-0.020756394,9.768938,0
5,988.2951049804688,9.995052823796868E-5,0.001137907849624753,2.918585669249296E-4,-6.298909664154053,25.492948532104492,-38.06657409667969,-0.004295311868190765,0.039372652769088745,0.03186988830566406,0.07885063,-0.158278,9.762826,-0.007945154,-0.034275457,9.764364,0
5,988.2952880859375,3.664288087747991E-4,4.720918368548155E-4,1.587701844982803E-4,-6.0409393310546875,25.576810836791992,-38.650123596191406,0.005489319562911987,0.025163277983665466,0.04134082794189453,0.06927422,-0.15112777,9.772293,-0.01607328,-0.025010675,9.773663,0
5,988.3256225585938,1.00275210570544E-4,-1.9372419046703726E-4,-5.069499020464718E-4,-6.307605266571045,26.222158432006836,-37.876953125,0.005209393799304962,0.029689952731132507,0.04607582092285156,0.0764271,-0.14874409,9.772291,-0.008612398,-0.024011374,9.773689,0
5,988.292236328125,1.004372606985271E-4,7.383550400845706E-4,2.920672413893044E-4,-6.781611919403076,26.35805320739746,-38.273773193359375,2.575218677520752E-4,0.034442998468875885,0.031874656677246094,0.07880017,-0.15827678,9.774657,-0.008045182,-0.033931747,9.776194,0
5,988.3303833007812,1.0059966007247567E-4,-1.937768975039944E-4,-6.399687263183296E-4,-6.246734619140625,25.489126205444336,-38.07439422607422,-0.009121231734752655,0.024728789925575256,0.041342735290527344,0.076393396,-0.15112652,9.762819,-0.009126138,-0.026261017,9.764249,0
5,988.3303833007812,1.0059966007247567E-4,-1.937768975039944E-4,-6.399687263183296E-4,-6.616389751434326,25.61737632751465,-38.486839294433594,-0.0042739138007164,0.02440006285905838,0.041339874267578125,0.078766465,-0.1535094,9.767551,-0.0069742464,-0.028857946,9.769031,0
5,988.3026123046875,-3.239588113501668E-5,-1.9380319281481206E-4,-5.06741285789758E-4,-6.306924819946289,25.95979118347168,-38.47758102416992,0.00508476048707962,0.01930519938468933,0.03660392761230469,0.07635975,-0.14635916,9.7770195,-0.0076207705,-0.020879135,9.778387,0
5,988.3277587890625,-4.317074199207127E-4,2.0564423175528646E-4,-5.066717858426273E-4,-6.494594097137451,25.783864974975586,-38.130428314208984,0.014328420162200928,0.028514109551906586,0.05080699920654297,0.07395303,-0.15589185,9.7675495,-0.011598829,-0.029538676,9.769021,0
5,988.2950439453125,-2.982249134220183E-4,0.0011376971378922462,-3.733747289516032E-4,-6.11221981048584,25.299108505249023,-38.23796844482422,-0.009537853300571442,0.01881764829158783,0.03660297393798828,0.08110589,-0.14874162,9.762814,-0.0028450452,-0.024156824,9.764254,0
5,988.2973022460938,-3.174674930050969E-5,-6.075063720345497E-5,-5.064631695859134E-4,-6.400216102600098,25.503538131713867,-38.20555114746094,2.662092447280884E-4,0.03266303241252899,0.04133129119873047,0.08108902,-0.15589102,9.755711,-0.004851483,-0.030681208,9.757245,0
5,988.3201904296875,-1.647425233386457E-4,-4.602507979143411E-4,-7.727095508016646E-4,-6.071103572845459,25.759183883666992,-38.50218200683594,-1.0294467210769653E-4,0.01815997064113617,0.046067237854003906,0.08107221,-0.14635752,9.762811,-0.0019134991,-0.021238312,9.76422,0
5,988.3128051757812,-2.977382973767817E-4,7.381443283520639E-4,4.2578153079375625E-4,-6.262359619140625,25.948606491088867,-38.09886932373047,-0.00973597913980484,0.037302568554878235,0.05554008483886719,0.078665495,-0.15589018,9.760441,-0.0064662322,-0.03008917,9.761954,0
5,988.3154296875,6.345296860672534E-4,4.7180213732644916E-4,1.5953514957800508E-4,-6.159691333770752,25.413267135620117,-39.16114807128906,0.014401935040950775,0.022907793521881104,0.05554008483886719,0.07147893,-0.14873998,9.765174,-0.012064785,-0.021273375,9.766538,0
5,988.3074951171875,3.683762042783201E-4,-3.271719324402511E-4,2.6446825359016657E-5,-6.033329486846924,25.58418083190918,-39.036651611328125,-0.005139395594596863,0.02735505998134613,0.03186798095703125,0.08102167,-0.1558894,9.774641,-0.0037690848,-0.030091196,9.776173,0
5,988.3226318359375,-0.001096199033781886,0.0010043811053037643,4.259901470504701E-4,-5.840826988220215,25.18440055847168,-38.119110107421875,-1.5814602375030518E-4,0.02727442979812622,0.03660106658935547,0.073835135,-0.14397253,9.765171,-0.008176576,-0.016923726,9.766494,0
5,988.3251953125,6.350164185278118E-4,-1.940667279995978E-4,1.5974388225004077E-4,-6.546769142150879,25.787687301635742,-38.12261199951172,-0.014860659837722778,0.03185895085334778,0.04133796691894531,0.08337796,-0.15350531,9.762802,-0.0011354089,-0.028233752,9.764324,0
5,988.3148193359375,-1.6376894200220704E-4,6.04854547418654E-4,-5.059763207100332E-4,-6.448369026184082,25.880064010620117,-38.52810287475586,0.013053305447101593,0.03137083351612091,0.03653526306152344,0.064947456,-0.16067202,9.772335,-0.020451874,-0.030263826,9.773804,0
5,988.350341796875,-0.0013454373693093657,3.279943484812975E-6,6.302178371697664E-4,-6.106812477111816,25.567373275756836,-37.946563720703125,-0.0015429630875587463,-0.006802082061767578,0.046004295349121094,0.07929826,-0.12730639,9.760499,0.0016598292,-0.0013837367,9.761651,0
5,988.3124389648438,6.476989947259426E-4,8.029148448258638E-4,-3.7385907489806414E-5,-6.3416547775268555,26.137746810913086,-38.09771728515625,0.00743982195854187,0.021935269236564636,0.05547809600830078,0.06736016,-0.15590598,9.762868,-0.016237106,-0.026711062,9.764296,0
5,988.3198852539062,6.475887494161725E-4,5.366167752072215E-4,7.615145877934992E-4,-6.085099220275879,25.11379051208496,-38.23130798339844,-0.006858892738819122,0.01693028211593628,0.027068138122558594,0.081711024,-0.14875649,9.781806,-4.8184395E-4,-0.022532314,9.783253,0
6,988.3223876953125,-2.846267307177186E-4,6.69792527332902E-4,9.56777366809547E-5,-6.207576274871826,25.20967674255371,-37.987091064453125,-0.011665426194667816,0.026462271809577942,0.012864112854003906,0.0888921,-0.14160688,9.781807,0.008092418,-0.017248377,9.783216,0
6,988.30712890625,6.473688408732414E-4,5.366523982957006E-4,6.282622925937176E-4,-6.422908306121826,25.58735466003418,-37.74505615234375,0.0070283785462379456,0.0216139554977417,0.03653717041015625,0.07695407,-0.15590687,9.784175,-0.0065698214,-0.028331786,9.785677,0
6,988.3150634765625,-5.511626368388534E-4,6.698282668367028E-4,4.950572038069367E-4,-6.647097110748291,26.16803550720215,-38.437347412109375,0.0021436065435409546,0.02159920334815979,0.04127025604248047,0.08174527,-0.14875735,9.767607,-1.1713058E-4,-0.022769377,9.769055,0
6,988.2894287109375,7.803067564964294E-4,2.703723148442805E-4,3.618521732278168E-4,-6.284370422363281,25.770055770874023,-38.23899841308594,0.0014719590544700623,0.012063831090927124,0.046009063720703125,0.07219708,-0.14160772,9.76524,-0.0068866573,-0.013795942,9.766521,0
6,988.3023681640625,-1.519088400527835E-4,0.0020014431793242693,-3.766885492950678E-5,-6.237602710723877,25.49796485900879,-38.53822326660156,9.637251496315002E-4,0.03610542416572571,0.05548381805419922,0.07459837,-0.16067423,9.762874,-0.008524127,-0.033244938,9.7644205,0
6,988.2944946289062,0.001445876550860703,8.03039874881506E-4,4.94915759190917E-4,-6.038874626159668,25.209997177124023,-38.62898254394531,7.815584540367126E-4,0.02201049029827118,0.03654956817626953,0.076999724,-0.1439916,9.78418,-0.0021577403,-0.017521411,9.785526,0
6,988.3173217773438,3.805027808994055E-4,4.035838064737618E-4,0.0010275003733113408,-6.089229106903076,25.84742546081543,-38.273597717285156,-0.004304371774196625,0.012080103158950806,0.041278839111328125,0.07223129,-0.14875837,9.769978,-0.0075695217,-0.020937935,9.771352,0
6,988.317626953125,-8.180284639820457E-4,9.362334385514259E-4,9.534764103591442E-5,-6.185427665710449,25.4941463470459,-38.546043395996094,-0.004861384630203247,0.026152268052101135,0.04601287841796875,0.07941243,-0.1439922,9.779448,9.5619634E-4,-0.017718926,9.780814,0
6,988.3048706054688,-1.5234877355396748E-4,5.367773119360209E-4,-3.78573895432055E-5,-6.507175445556641,26.24629020690918,-38.30951690673828,0.005005314946174622,0.007090479135513306,0.02707195281982422,0.06986421,-0.14875896,9.7723465,-0.009784907,-0.020113915,9.773703,0
6,988.3349609375,3.801727434620261E-4,1.3732153456658125E-4,-3.7904479540884495E-5,-6.4839396476745605,25.794172286987305,-38.671566009521484,-1.7172843217849731E-4,0.030722633004188538,0.022337913513183594,0.07704532,-0.15352578,9.779449,-0.0035555474,-0.026243925,9.780922,0
6,988.3627319335938,-1.9410857930779457E-5,8.031290490180254E-4,-3.79516277462244E-5,-6.5247578620910645,25.966238021850586,-37.98248291015625,-0.009492143988609314,0.030404716730117798,0.03179931640625,0.077056766,-0.15114285,9.769981,-0.0030218288,-0.023712307,9.771426,0
6,988.286865234375,-6.853105733171105E-4,-9.279062505811453E-4,4.946329281665385E-4,-6.522256851196289,26.337472915649414,-38.23554611206055,1.5112757682800293E-4,0.02070385217666626,0.05073356628417969,0.07706818,-0.15590964,9.760514,-0.0040281974,-0.028316766,9.762022,0
6,988.2998657226562,2.4668488185852766E-4,-6.615725578740239E-4,-4.375198623165488E-4,-6.110016822814941,25.038209915161133,-38.9159049987793,-0.004618316888809204,0.02037203311920166,0.05072784423828125,0.08185935,-0.14399357,9.760515,0.003268674,-0.01753284,9.761905,0
6,988.3299560546875,-4.192147171124816E-4,8.031826000660658E-4,6.276965723372996E-4,-6.405623435974121,25.235273361206055,-38.49696350097656,-0.009832106530666351,0.020589038729667664,0.036529541015625,0.079480916,-0.15352698,9.762883,-9.938888E-4,-0.026491925,9.764379,0
6,988.3067626953125,9.122545598074794E-4,6.700424710288644E-4,-3.814022056758404E-5,-6.29630184173584,24.757841110229492,-37.94697952270508,-0.014423772692680359,0.03004428744316101,0.022322654724121094,0.07949227,-0.14876063,9.779454,1.1595711E-4,-0.021504566,9.780886,0
6,988.34033203125,1.131970202550292E-4,-2.6204524328932166E-4,6.276023341342807E-4,-6.125236988067627,25.023481369018555,-38.142852783203125,-0.004773840308189392,0.015549615025520325,0.03652191162109375,0.0747239,-0.14161111,9.769987,-0.0028544553,-0.01337643,9.77129,0
6,988.2919921875,-6.858606357127428E-4,2.706043887883425E-4,6.275551859289408E-4,-6.054935455322266,24.93141746520996,-38.379249572753906,-0.0051013752818107605,0.01562364399433136,0.031787872314453125,0.07951513,-0.1439947,9.77709,0.0013122223,-0.016854107,9.7784605,0
6,988.3078002929688,3.7929287645965815E-4,6.700961384922266E-4,-3.8281665183603764E-5,-6.492528915405273,25.417051315307617,-38.109283447265625,-1.6207993030548096E-4,0.02972736954689026,0.05072212219238281,0.077136636,-0.15591128,9.753418,-0.0035361312,-0.02800332,9.75493,0
6,988.3223876953125,2.4602492339909077E-4,-5.283075151965022E-4,4.943028907291591E-4,-6.256409168243408,25.84857749938965,-37.709014892578125,-0.009797625243663788,0.010547339916229248,0.03651618957519531,0.084317744,-0.13684542,9.774725,0.0077816956,-0.010713503,9.776038,0
6,988.3223876953125,2.4602492339909077E-4,-5.283075151965022E-4,4.943028907291591E-4,-6.333501815795898,25.77681541442871,-38.38579559326172,-0.014734417200088501,0.029235318303108215,0.03651142120361328,0.08193928,-0.16067846,9.765257,-2.891682E-4,-0.033142447,9.766867,0
6,988.3248291015625,-2.0400970242917538E-5,6.701318779960275E-4,2.2793991956859827E-4,-6.680740833282471,25.609407424926758,-37.86058044433594,0.009444564580917358,0.024395227432250977,0.05071067810058594,0.07426554,-0.15589948,9.762843,-0.006278813,-0.02663958,9.764333,0
6,988.3299560546875,2.456948859617114E-4,-2.6193802477791905E-4,2.2784562315791845E-4,-6.114146709442139,25.771841049194336,-38.958194732666016,-0.01351068913936615,0.01464816927909851,0.041335105895996094,0.080899835,-0.14635332,9.77463,0.0025011376,-0.01851444,9.776043,0
6,988.31982421875,-2.795003820210695E-4,-7.95777072198689E-4,9.78746684268117E-5,-6.726828575134277,25.619123458862305,-38.1619873046875,0.0059900954365730286,0.023943260312080383,0.041332244873046875,0.071309745,-0.15588565,9.767527,-0.009859145,-0.02521202,9.768993,0
6,988.3248901367188,-2.7924246387556195E-4,2.7177727315574884E-4,1.0153069160878658E-4,-6.5527191162109375,25.88770866394043,-38.51247024536133,0.0059825703501701355,0.014112934470176697,0.06027030944824219,0.07127929,-0.14158519,9.760422,-0.006296266,-0.011261523,9.7617,0
7,988.3198852539062,1.2052507372573018E-4,-3.9406007272191346E-4,5.011304747313261E-4,-5.9567790031433105,26.02422523498535,-38.45832061767578,0.0010279789566993713,0.018688485026359558,0.03659820556640625,0.076028645,-0.13205136,9.767521,0.0010759383,-0.0028539598,9.768708,0
7,988.34521484375,-4.118132055737078E-4,6.711558671668172E-4,-4.308493807911873E-4,-6.777481555938721,25.624418258666992,-38.23147964477539,0.0011215582489967346,0.023581236600875854,0.04133796691894531,0.080778,-0.15350012,9.772252,1.0161474E-4,-0.024878845,9.77376,0
7,988.317626953125,3.874281537719071E-4,-5.273133283481002E-4,-2.9756559524685144E-4,-6.673130989074707,25.61677360534668,-38.247108459472656,0.001288391649723053,0.023489713668823242,0.04133796691894531,0.07357782,-0.1606492,9.760413,-0.00860228,-0.0300868,9.761961,0
7,988.30712890625,-2.7806806610897183E-4,4.047446418553591E-4,3.683498362079263E-4,-6.710362434387207,25.423494338989258,-37.61418914794922,-0.0036141127347946167,0.02800452709197998,0.0555419921875,0.08549684,-0.1439655,9.76041,0.0072115026,-0.016673297,9.761828,0
7,988.3074951171875,5.211732932366431E-4,2.715389709919691E-4,2.3531774058938026E-4,-6.431221961975098,25.42206382751465,-38.580928802490234,-0.0036825984716415405,0.008747071027755737,0.022401809692382812,0.08068663,-0.14634807,9.7793455,0.002209492,-0.01731871,9.780758,0
7,988.2947387695312,-5.437968648038805E-4,5.378072382882237E-4,5.01759466715157E-4,-5.9943084716796875,25.198808670043945,-38.250274658203125,0.0011484771966934204,0.018207252025604248,0.03187274932861328,0.07109654,-0.14396404,9.762772,-0.006276358,-0.012972847,9.764081,0
7,988.282470703125,-1.0871386621147394E-5,-5.275039002299309E-4,-1.6390439122915268E-4,-6.205618381500244,25.949201583862305,-38.338600158691406,6.848648190498352E-4,0.022769615054130554,0.05081367492675781,0.08062568,-0.15587963,9.774606,7.602237E-4,-0.02646637,9.776145,0
7,988.3096313476562,-4.1005172533914447E-4,0.0014698175946250558,-2.969366032630205E-4,-6.248661518096924,25.96185874938965,-38.79461669921875,-0.01852761209011078,0.017864719033241272,0.04608154296875,0.09015483,-0.15111239,9.77697,0.011228006,-0.023856848,9.778518,0
7,988.3098754882812,1.2287386925891042E-4,5.032517947256565E-6,2.3582112044095993E-4,-6.324752330780029,26.680166244506836,-37.824127197265625,-0.00844939798116684,0.017636537551879883,0.05554676055908203,0.082954705,-0.14634515,9.762764,0.005000185,-0.017436698,9.764196,0
7,988.33251953125,-1.4314864529296756E-4,-7.939627394080162E-4,5.02262613736093E-4,-6.902566432952881,26.455408096313477,-38.10685729980469,0.005817346274852753,0.017487123608589172,0.02240753173828125,0.07575452,-0.15111084,9.774597,-0.0034662895,-0.020092815,9.776036,0
7,988.324951171875,3.897768328897655E-4,2.7125305496156216E-4,1.0291475336998701E-4,-6.229151248931885,25.76917839050293,-38.401424407958984,-0.008305400609970093,-0.0013285577297210693,0.017676353454589844,0.07333413,-0.13919373,9.776961,-0.0029671788,-0.008167148,9.778224,0
7,988.3121337890625,1.2045440962538123E-4,-4.08378429710865E-4,-1.3948127161711454E-4,-6.474946022033691,25.69709587097168,-38.436317443847656,0.005966946482658386,0.017891228199005127,0.036620140075683594,0.07569358,-0.14872615,9.769856,-0.0029414631,-0.018233865,9.771265,0
7,988.317626953125,3.870642394758761E-4,3.905214834958315E-4,3.932763065677136E-4,-5.929957389831543,25.206769943237305,-38.87652587890625,-0.003421500325202942,0.008378550410270691,0.036622047424316406,0.07088333,-0.14634208,9.769854,-0.006942909,-0.014875099,9.771193,0
7,988.317626953125,6.536732544191182E-4,-8.999952115118504E-6,6.59717945381999E-4,-6.2979302406311035,25.86271095275879,-38.242332458496094,-0.003512643277645111,0.01329834759235382,0.046095848083496094,0.08041251,-0.15110786,9.776954,0.0011593625,-0.021723062,9.778428,0
7,988.3402099609375,3.876513219438493E-4,-6.748373270966113E-4,-4.0541961789131165E-4,-6.551877975463867,26.15155601501465,-37.9891471862793,0.011333189904689789,0.022734716534614563,0.036624908447265625,0.063652694,-0.15349041,9.753278,-0.016051963,-0.020310745,9.75466,0
7,988.28955078125,6.542604533024132E-4,-8.080428815446794E-4,-1.389780081808567E-4,-6.237602233886719,25.49796485900879,-38.53822326660156,-0.007494568824768066,0.01298476755619049,0.02241992950439453,0.087521255,-0.14157327,9.77458,0.009639204,-0.013649568,9.775984,0
7,988.2772827148438,-8.10182944405824E-4,-5.417746724560857E-4,-1.388521632179618E-4,-6.284370422363281,25.770051956176758,-38.2390022277832,-0.007336877286434174,0.022368967533111572,0.03662300109863281,0.08510089,-0.15587212,9.779312,0.0038982257,-0.026756555,9.780888,0
7,988.317626953125,-1.0942050721496344E-5,-6.749802851118147E-4,1.2758944649249315E-4,-6.2126851081848145,25.573545455932617,-37.8536262512207,0.012714862823486328,0.02211262285709381,0.04608345031738281,0.068341136,-0.15110488,9.772207,-0.012107339,-0.01791209,9.773592,0
7,988.3150634765625,-6.76437804941088E-4,-0.002006607363000512,2.608732902444899E-4,-6.276761054992676,25.77741813659668,-38.625526428222656,-0.0012765824794769287,0.021621957421302795,0.041344642639160156,0.07787025,-0.15587072,9.767469,-0.0041989386,-0.024249196,9.768993,0
7,988.3129272460938,-2.7667084941640496E-4,-6.750755710527301E-4,3.9415701758116484E-4,-6.496520519256592,26.2565975189209,-38.85065460205078,-0.005524374544620514,0.011970221996307373,0.04134178161621094,0.07067013,-0.14633681,9.7627325,-0.0093840435,-0.01315169,9.764072,0
7,988.30712890625,-2.763767843134701E-4,-0.001074597123079002,-4.04664664529264E-4,-6.163714408874512,25.040555953979492,-38.830780029296875,0.0036403685808181763,0.011829718947410583,0.031876564025878906,0.07780936,-0.1344197,9.7722,7.532872E-4,-0.0030368716,9.773434,0
7,988.317626953125,-2.760836505331099E-4,7.895664311945438E-4,-6.708548171445727E-4,-6.132410526275635,25.75417137145996,-38.03053283691406,0.0038966983556747437,0.006898730993270874,0.04607868194580078,0.07589713,-0.14634784,9.765141,-0.004201796,-0.014048621,9.7665205,0
7,988.3201904296875,-1.43837823998183E-4,-6.750228349119425E-4,-5.456153303384781E-6,-6.655548572540283,25.896825790405273,-38.57414245605469,-0.01108456403017044,0.030705183744430542,0.04598236083984375,0.08357495,-0.16780977,9.772289,-0.0022317246,-0.03649199,9.774018,0
7,988.3052978515625,-1.9049097318202257E-5,-8.068221504800022E-4,-6.748324958607554E-4,-6.706040859222412,26.4283390045166,-37.519683837890625,0.003612332046031952,0.021143361926078796,0.05071258544921875,0.07880533,-0.15827687,9.767556,-0.005051736,-0.026020393,9.76912,0
7,988.317626953125,3.803269355557859E-4,-9.399642003700137E-4,1.240731216967106E-4,-6.707861423492432,25.794729232788086,-37.86724853515625,0.003882564604282379,0.016288399696350098,0.036505699157714844,0.06686592,-0.14874406,9.758088,-0.0142429955,-0.014091253,9.759429,0
8,988.2772827148438,3.802292631007731E-4,-5.404745461419225E-4,-8.080744883045554E-4,-6.211025238037109,25.680936813354492,-38.630008697509766,0.003920599818229675,0.01613117754459381,0.03176689147949219,0.0812155,-0.15589412,9.772292,-0.0019623823,-0.023954153,9.773845,0
8,988.3078002929688,-2.8565822867676616E-4,-6.736166542395949E-4,2.571472723502666E-4,-6.101565837860107,25.309423446655273,-38.77910614013672,0.009019739925861359,0.011184245347976685,0.02702808380126953,0.069276154,-0.14636125,9.779394,-0.011634897,-0.011695489,9.780721,0
8,988.3026123046875,-4.189139581285417E-4,-5.404427647590637E-4,-0.0012076320126652718,-6.071646213531494,26.127473831176758,-38.60063171386719,0.014369726181030273,0.011099562048912048,0.05542755126953125,0.07645595,-0.14636149,9.758091,-0.0052505992,-0.013312355,9.759477,0
8,988.3026123046875,-4.189139581285417E-4,-5.404427647590637E-4,-0.0012076320126652718,-6.477691650390625,26.326284408569336,-37.856834411621094,0.0045563578605651855,0.015765219926834106,0.0648956298828125,0.07885605,-0.15589495,9.75099,-0.004620984,-0.023251668,9.752526,0
8,988.297607421875,1.136201317422092E-4,-0.0021383222192525864,-5.41884102858603E-4,-6.084801197052002,25.74592399597168,-37.806434631347656,-0.0052402690052986145,0.02502487599849701,0.04595470428466797,0.08125606,-0.14636205,9.758093,1.4150515E-4,-0.014174342,9.759519,0
8,988.3204345703125,-1.528913271613419E-4,2.585523761808872E-4,-4.0880998130887747E-4,-5.918600559234619,25.37501335144043,-38.19526672363281,0.004463642835617065,0.015487775206565857,0.02228069305419922,0.0740965,-0.14636232,9.781766,-0.0071076714,-0.0122049,9.783132,0
8,988.3153686523438,-1.9831175450235605E-5,-8.066951995715499E-4,-5.420098314061761E-4,-6.245755195617676,25.8588924407959,-38.250152587890625,0.004330925643444061,0.015352308750152588,0.04594993591308594,0.07888645,-0.15351237,9.767564,-0.0039593093,-0.020309836,9.769068,0
8,988.3154296875,-1.5308678848668933E-4,2.585842739790678E-4,-5.420517409220338E-4,-6.0295820236206055,25.745054244995117,-37.9688606262207,0.004700914025306702,0.024734124541282654,0.05067920684814453,0.076506674,-0.15589584,9.767565,-0.006998338,-0.021904439,9.769081,0
8,988.3128051757812,-2.863425179384649E-4,-4.071896255481988E-4,-6.752515910193324E-4,-6.582042694091797,26.333932876586914,-37.84120178222656,7.449090480804443E-5,0.019683867692947388,0.04593849182128906,0.07651687,-0.15589608,9.769933,-0.0074269883,-0.021447644,9.77145,0
8,988.3154296875,-1.5328236622735858E-4,-7.699884008616209E-6,2.5681211263872683E-4,-6.384698390960693,26.15040397644043,-38.553733825683594,0.0047167763113975525,0.02424784004688263,0.04593658447265625,0.081306756,-0.15351309,9.765199,-0.0019013099,-0.0201803,9.766723,0
8,988.3280029296875,2.460937830619514E-4,-1.4084205031394958E-4,-2.758615300990641E-4,-6.453913688659668,25.505887985229492,-38.12043380737305,-0.01407373696565628,0.02914491295814514,0.01279449462890625,0.083706796,-0.15351333,9.786505,-1.9676983E-4,-0.020458743,9.788047,0
8,988.3079223632812,3.791539347730577E-4,-8.066158625297248E-4,-9.587500244379044E-6,-6.834467887878418,26.624250411987305,-37.665321350097656,0.014698177576065063,0.019725069403648376,0.05066967010498047,0.07893717,-0.14636372,9.77467,-0.0032419749,-0.0126300305,9.776075,0
8,988.3156127929688,2.458980889059603E-4,-6.734420312568545E-4,3.898443537764251E-4,-6.514241695404053,25.870630264282227,-37.82453918457031,5.013793706893921E-4,0.014681607484817505,0.041194915771484375,0.078947246,-0.14636399,9.77467,-0.0032520145,-0.012343943,9.776076,0
8,988.3001098632812,-2.0515231881290674E-5,1.2552144471555948E-4,-6.754610221832991E-4,-6.120234966278076,25.76595115661621,-38.64897537231445,0.005421057343482971,0.010113269090652466,0.045928955078125,0.07895747,-0.14636429,9.7604685,-0.0031901672,-0.01276432,9.761876,0
8,988.3078002929688,3.788605681620538E-4,-2.739364863373339E-4,-5.423451075330377E-4,-6.102246284484863,25.57179832458496,-38.17848205566406,0.005255952477455139,-0.004280224442481995,0.041194915771484375,0.06940797,-0.13921471,9.7581005,-0.010714803,-0.0036242306,9.759333,0
8,988.2850952148438,1.1244701454415917E-4,-7.60471448302269E-6,-1.4291307888925076E-4,-6.333501815795898,25.776823043823242,-38.38579559326172,-0.00417734682559967,0.014849618077278137,0.04119396209716797,0.08614743,-0.14874808,9.765203,0.0031517483,-0.01662688,9.766703,0
8,988.29248046875,-2.871244796551764E-4,-6.733785849064589E-4,-8.087445748969913E-4,-6.399535655975342,25.24116325378418,-38.806182861328125,-0.0038281530141830444,0.009896054863929749,0.026984214782714844,0.08376768,-0.1487483,9.7770405,3.6196783E-4,-0.015634239,9.77852,0
8,988.3229370117188,-1.5406444435939193E-4,-2.738888724707067E-4,-1.4299689792096615E-4,-6.200509548187256,25.5853328704834,-38.472068786621094,0.0012211427092552185,0.01909641921520233,0.05538177490234375,0.083777785,-0.14874853,9.760471,4.231371E-4,-0.015497118,9.761953,0
8,988.3154296875,-9.531096438877285E-4,-0.0010728206252679229,-9.88086685538292E-6,-6.096701622009277,25.94597816467285,-38.586151123046875,0.0015009865164756775,0.004849359393119812,0.06484794616699219,0.06944853,-0.14636551,9.746269,-0.013133109,-0.010196596,9.7476015,0
8,988.3181762695312,9.11003618966788E-4,-2.7385709108784795E-4,-9.922659955918789E-6,-6.096403121948242,26.578115463256836,-38.161277770996094,0.006618477404117584,0.01902584731578827,0.031701087951660156,0.07662839,-0.1511323,9.769943,-0.007534042,-0.015919343,9.771397,0
8,988.287841796875,-1.5435757813975215E-4,-0.001339104725047946,5.226671928539872E-4,-6.4958176612854,26.41452980041504,-37.628257751464844,0.011569276452064514,0.03328491747379303,0.04590129852294922,0.06707895,-0.16304891,9.769943,-0.020010807,-0.025087118,9.771482,0
8,988.3028564453125,1.1186051415279508E-4,-1.4066742733120918E-4,-2.7632236015051603E-4,-6.313991546630859,25.584135055541992,-37.99260330200195,0.0023205503821372986,0.023396223783493042,0.04114341735839844,0.08158821,-0.1559033,9.767591,-0.00461879,-0.021080747,9.769153,0
8,988.3028564453125,-2.2155523765832186E-5,-0.0016052655410021544,2.559416461735964E-4,-6.518670082092285,25.97212791442871,-38.29170608520508,-0.0019267797470092773,0.009165182709693909,0.026935577392578125,0.07921481,-0.1511371,9.774694,-0.0062145106,-0.015798047,9.776168,0
8,988.3030395507812,-5.556911346502602E-4,-8.06171097792685E-4,1.2239639181643724E-4,-5.963165760040283,25.386198043823242,-38.573974609375,-0.0022925063967704773,-5.492568016052246E-4,0.03166770935058594,0.0816212,-0.14875431,9.772329,-0.0030318461,-0.013925493,9.77379,0
9,988.3334350585938,6.523870979435742E-4,7.660717237740755E-4,3.173883887939155E-4,-6.459863662719727,25.60590934753418,-38.510292053222656,0.006885729730129242,0.03323549032211304,0.06481552124023438,0.076857924,-0.16067101,9.75576,-0.010543693,-0.02493462,9.757348,0
9,988.3334350585938,6.523870979435742E-4,7.660717237740755E-4,3.173883887939155E-4,-6.459863662719727,25.60590934753418,-38.510292053222656,-0.0030116140842437744,0.009293094277381897,0.022205352783203125,0.0840441,-0.14875506,9.781801,-3.2850355E-4,-0.014783159,9.783282,0
9,988.3004150390625,-6.793513312004507E-4,0.0014318872708827257,5.1004288252443075E-5,-6.702178955078125,26.27482795715332,-38.9739990234375,0.0016140565276145935,0.013853982090950012,0.04587364196777344,0.0816707,-0.1487555,9.772333,-0.0023948066,-0.014193296,9.773796,0
9,988.2928466796875,2.5259534595534205E-4,-1.659822737565264E-4,-8.222163887694478E-5,-6.4742655754089355,25.434720993041992,-39.03694152832031,-0.0029919594526290894,-4.938840866088867E-4,0.06954383850097656,0.088856876,-0.13922276,9.753397,0.006844908,-0.0068014413,9.75479,0
9,988.3007202148438,1.1927849845960736E-4,-6.985882064327598E-4,5.086819874122739E-5,-6.3455400466918945,25.870954513549805,-38.4664306640625,0.0021820515394210815,0.018640249967575073,0.045866966247558594,0.08170366,-0.14875631,9.755766,-0.0027737059,-0.014349729,9.75723,0
9,988.29541015625,2.5211862521246076E-4,-4.322207532823086E-4,-4.8189976951107383E-4,-5.9940104484558105,25.83094596862793,-37.825401306152344,0.02149525284767151,0.018586456775665283,0.0695343017578125,0.07216048,-0.15113993,9.741564,-0.012521662,-0.014742672,9.742985,0
9,988.29541015625,2.5211862521246076E-4,-4.322207532823086E-4,-4.8189976951107383E-4,-5.9940104484558105,25.83094596862793,-37.825401306152344,0.016482718288898468,0.01850387454032898,0.03165912628173828,0.079346746,-0.14399053,9.765238,-0.003934402,-0.008901954,9.766616,0
9,988.3109130859375,-5.469881580211222E-4,-1.6587904246989638E-4,-8.249416714534163E-5,-6.290458679199219,25.764158248901367,-37.929779052734375,-0.002068839967250824,0.0092526376247406,0.06006336212158203,0.08414298,-0.14160769,9.760505,6.904006E-4,-0.007897526,9.76189,0
9,988.305908203125,6.512744002975523E-4,-8.316429448314011E-4,1.8375361105427146E-4,-6.352170944213867,26.23335075378418,-38.25566101074219,-0.002110615372657776,0.008993268013000488,0.05532360076904297,0.08654946,-0.15114118,9.762874,9.7246096E-4,-0.017442763,9.764412,0
9,988.3160400390625,1.1848373105749488E-4,-1.6582741227466613E-4,1.836855080910027E-4,-6.155806541442871,25.6800594329834,-38.79243469238281,0.0027313232421875,0.0230444073677063,0.04111480712890625,0.07461637,-0.15829141,9.765244,-0.012541175,-0.02127701,9.76678,0
9,988.3106079101562,-6.806228193454444E-4,-2.989596105180681E-4,7.162492256611586E-4,-6.287957668304443,26.13539695739746,-38.18284225463867,0.012366242706775665,0.008245021104812622,0.04110527038574219,0.0698531,-0.14875866,9.769978,-0.014770109,-0.010525182,9.771343,0
9,988.3106079101562,-6.806228193454444E-4,-2.989596105180681E-4,7.162492256611586E-4,-6.287957668304443,26.13539695739746,-38.18284225463867,0.002875320613384247,0.012943178415298462,0.026899337768554688,0.0770393,-0.15829222,9.774714,-0.010274049,-0.021111533,9.776273,0
9,988.3160400390625,-6.807817262597382E-4,-3.2617885153740644E-5,5.039136158302426E-5,-6.467336654663086,25.7044620513916,-38.822845458984375,0.0031049251556396484,0.013015687465667725,0.045833587646484375,0.07705578,-0.15114279,9.767614,-0.008527145,-0.014446378,9.769074,0
9,988.32080078125,-1.483089872635901E-4,-8.315396844409406E-4,5.829550209455192E-4,-5.898952484130859,25.288244247436523,-38.50115203857422,0.021712258458137512,0.01751154661178589,0.06477165222167969,0.06751263,-0.14875992,9.762881,-0.016803734,-0.009850591,9.764229,0
9,988.3162231445312,-4.149426822550595E-4,3.6693329457193613E-4,-2.1612882846966386E-4,-6.390786170959473,26.144514083862305,-38.24451446533203,-0.006812155246734619,-0.00168687105178833,0.031624794006347656,0.08186856,-0.14637704,9.774719,-0.002534397,-0.010396168,9.776153,0
9,988.3009643554688,1.1753017315641046E-4,-2.988305641338229E-4,3.164347726851702E-4,-7.058548927307129,26.098581314086914,-37.98495864868164,0.01661442220211029,0.0028534680604934692,0.04582691192626953,0.07232547,-0.14876069,9.762885,-0.012087338,-0.010281295,9.764274,0
9,988.3080444335938,1.1737114982679486E-4,8.99616745300591E-4,-2.162651508115232E-4,-6.801557540893555,25.812681198120117,-38.39275360107422,0.0022393688559532166,0.02657841145992279,0.03162097930908203,0.06995201,-0.15352775,9.760519,-0.015436254,-0.014330447,9.761955,0
9,988.3162231445312,-6.817354005761445E-4,7.664845325052738E-4,-8.31751967780292E-5,-6.26069974899292,26.05599021911621,-38.87525177001953,0.02091718465089798,0.007405713200569153,0.04109001159667969,0.06996852,-0.14161171,9.762888,-0.011970904,-0.0030262917,9.764158,0
9,988.3060913085938,3.833692171610892E-4,-3.243732498958707E-5,1.8307246500626206E-4,-6.821313381195068,27.005796432495117,-38.45951843261719,0.020634733140468597,0.007627755403518677,0.055298805236816406,0.06281528,-0.14876194,9.762888,-0.020455077,-0.008393988,9.764199,0
9,988.3157348632812,-1.626351149752736E-5,0.0010328521020710468,4.493202723097056E-4,-6.860501766204834,26.07298469543457,-37.4750862121582,0.015450239181518555,0.031072229146957397,0.050559043884277344,0.06044188,-0.16067873,9.758156,-0.025445566,-0.01896973,9.759614,0
9,988.29345703125,-5.490542971529067E-4,1.007722457870841E-4,5.824100226163864E-4,-6.705796241760254,25.427915573120117,-37.84610366821289,8.102878928184509E-4,0.02155284583568573,0.03635692596435547,0.07479781,-0.15114601,9.77236,-0.00887128,-0.013156325,9.773803,0
9,988.2883911132812,5.160502041690052E-4,7.665877928957343E-4,1.828681561164558E-4,-6.163415908813477,25.672697067260742,-38.405914306640625,0.010312259197235107,0.016759082674980164,0.050559043884277344,0.07231429,-0.1439939,9.758148,-0.009212717,-0.0059966743,9.759473,0
9,988.3162841796875,-1.4989840565249324E-4,8.99771461263299E-4,1.827999367378652E-4,-6.2324934005737305,25.134092330932617,-38.67168426513672,0.0053507983684539795,0.0216662734746933,0.045848846435546875,0.074603915,-0.15590782,9.772343,-0.009541139,-0.01805751,9.7738495,0
9,988.3010864257812,5.199451115913689E-4,-1.690094213699922E-4,7.139508379623294E-4,-6.3165998458862305,26.319242477416992,-38.11219787597656,6.676539778709412E-4,0.012042611837387085,0.041110992431640625,0.0698317,-0.14875819,9.769977,-0.012504663,-0.010006979,9.771346,0
9,988.2808227539062,1.2066058116033673E-4,2.3043371038511395E-4,-3.5123166162520647E-4,-6.421248912811279,25.694746017456055,-38.52143859863281,0.02947995811700821,0.030872061848640442,0.045841217041015625,0.05788985,-0.16067477,9.765244,-0.02707192,-0.018464252,9.766682,0
10,988.2885131835938,1.2058712309226394E-4,-7.016599993221462E-4,1.8136866856366396E-4,-6.427336692810059,25.68885612487793,-38.21221923828125,0.015324532985687256,0.011873632669448853,0.04110527038574219,0.06506717,-0.15352513,9.767611,-0.018627107,-0.013187289,9.769008,0
10,988.3007202148438,2.536717220209539E-4,-0.0011011217720806599,8.471269393339753E-4,-5.867510795593262,26.107770919799805,-38.39998245239258,0.019745483994483948,0.02154044806957245,0.03637504577636719,0.060294986,-0.14637546,9.772346,-0.02115375,-0.005773917,9.773603,0
10,988.2860107421875,2.535982639528811E-4,6.299432716332376E-4,-2.1816801745444536E-4,-6.313555717468262,26.322187423706055,-38.26681137084961,0.015033639967441559,-0.00228746235370636,0.05057716369628906,0.06508237,-0.14399238,9.7723465,-0.016108166,-0.004212156,9.773609,0
10,988.2732543945312,1.2036686530336738E-4,-3.583449870347977E-5,-2.1819944959133863E-4,-6.395650386810303,25.50795555114746,-38.437469482421875,0.02406477928161621,0.0026815086603164673,0.02691173553466797,0.06509,-0.14875908,9.7770815,-0.016836867,-0.00892368,9.77841,0
10,988.3037109375,6.529252859763801E-4,3.6365119740366936E-4,4.475587629713118E-4,-6.114284992218018,25.665929794311523,-38.259117126464844,0.009475678205490112,0.017072349786758423,0.02691364288330078,0.06748754,-0.15114261,9.772348,-0.014691845,-0.012201697,9.773731,0
10,988.3062744140625,1.2022018199786544E-4,8.962948340922594E-4,1.8121139146387577E-4,-6.117733955383301,26.137189865112305,-38.902034759521484,0.0048642754554748535,0.01698186993598938,0.03637886047363281,0.07466483,-0.14875944,9.774715,-0.0072783045,-0.011360049,9.776124,0
10,988.30615234375,2.5330454809591174E-4,-3.57987591996789E-5,-8.513592183589935E-5,-6.298229217529297,25.230573654174805,-38.667205810546875,0.004584155976772308,0.016907066106796265,0.03164386749267578,0.069892645,-0.14875968,9.769983,-0.011781529,-0.010191023,9.771354,0
10,988.3137817382812,2.5323120644316077E-4,-1.6894476721063256E-4,-7.509571732953191E-4,-6.398258209228516,26.24306297302246,-38.55706787109375,-0.00986645370721817,0.017145410180091858,0.05532073974609375,0.081849754,-0.15590967,9.762881,-0.0015732758,-0.020335287,9.764448,0
10,988.3213500976562,2.531578647904098E-4,4.968568682670593E-4,3.1427497742697597E-4,-6.322549819946289,26.41927146911621,-38.50205993652344,0.014043539762496948,0.012274399399757385,0.045848846435546875,0.067517996,-0.15590988,9.762882,-0.01558077,-0.01694031,9.764333,0
10,988.3189697265625,2.53084406722337E-4,-3.020789008587599E-4,-2.1838827524334192E-4,-6.340132713317871,26.139219284057617,-38.175025939941406,0.008901283144950867,0.011889755725860596,0.04584503173828125,0.0699155,-0.1535268,9.760515,-0.012292914,-0.014886379,9.761954,0
10,988.3290405273438,-4.127786378376186E-4,0.0011626703198999166,1.8105411436408758E-4,-6.340973854064941,25.8753719329834,-38.69834899902344,0.008490122854709625,0.021451354026794434,0.031645774841308594,0.0699231,-0.16067679,9.774719,-0.013457779,-0.02184628,9.776257,0
10,988.3037109375,2.5293760700151324E-4,4.968926077708602E-4,-4.847670206800103E-4,-5.985177040100098,25.2076473236084,-38.71410369873047,0.008398354053497314,0.016766473650932312,0.04585075378417969,0.06993073,-0.15829374,9.777088,-0.0128695555,-0.01958336,9.778591,0
10,988.29638671875,3.8602208951488137E-4,3.6374659975990653E-4,-6.179563933983445E-4,-6.009390830993652,25.289995193481445,-38.176300048828125,0.00767187774181366,0.002346530556678772,0.031650543212890625,0.07232827,-0.14161094,9.779455,-0.00614769,-0.0037543327,9.7807455,0
10,988.3341674804688,-2.503787400200963E-4,0.0014270669780671597,-0.0010124149266630411,-6.765007972717285,26.268339157104492,-38.425045013427734,0.012471958994865417,0.011829480528831482,0.06952476501464844,0.07472575,-0.15114428,9.751049,-0.005874008,-0.014036596,9.752494,0
10,988.3065185546875,-1.1729414109140635E-4,8.94447322934866E-4,5.281704943627119E-5,-6.503289699554443,26.513078689575195,-37.94080352783203,-0.0022588521242141724,0.011431679129600525,0.050583839416503906,0.06995356,-0.15352775,9.760519,-0.010471106,-0.014929995,9.761959,0
10,988.3011474609375,1.5716999769210815E-5,-0.0011028979206457734,5.2754185162484646E-5,-6.254887104034424,25.85004997253418,-37.78631591796875,0.002893008291721344,0.016208037734031677,0.050579071044921875,0.065181375,-0.15352787,9.767622,-0.0155157,-0.013691008,9.769026,0
10,988.3011474609375,1.5716999769210815E-5,-0.0011028979206457734,5.2754185162484646E-5,-6.254887104034424,25.85004997253418,-37.78631591796875,0.0027852505445480347,0.006711184978485107,0.04584503173828125,0.07235873,-0.13684522,9.762888,-0.004735261,8.728355E-4,9.764114,0
10,988.3139038085938,-6.501461612060666E-4,6.28167181275785E-4,-3.4675118513405323E-4,-6.104311466217041,25.93861198425293,-38.19962692260742,0.0075328052043914795,0.015799790620803833,0.05057334899902344,0.07236633,-0.16306134,9.777092,-0.010566622,-0.024013057,9.778684,0
10,988.3114624023438,-6.502195028588176E-4,-4.370844108052552E-4,-4.7994055785238743E-4,-6.12784481048584,25.758588790893555,-38.262451171875,0.012015081942081451,-0.008157595992088318,0.050574302673339844,0.06759414,-0.14399539,9.755787,-0.010578383,-0.004502952,9.757077,0
10,988.3062744140625,2.818126231431961E-4,6.281909300014377E-4,-4.799719899892807E-4,-6.422908306121826,25.58735466003418,-37.74505615234375,0.01207549124956131,0.020643994212150574,0.03637218475341797,0.072381556,-0.14876206,9.774726,-0.0072284713,-0.010174021,9.776117,0
10,988.3062744140625,2.818126231431961E-4,6.281909300014377E-4,-4.799719899892807E-4,-6.262795448303223,25.21055030822754,-37.82466125488281,-0.006902314722537994,0.020796969532966614,0.017434120178222656,0.07477909,-0.15352885,9.774727,-0.0060983747,-0.015522525,9.776203,0
10,988.32177734375,5.48055162653327E-4,-7.033764850348234E-4,4.521021619439125E-4,-6.2487993240356445,25.855947494506836,-38.09553527832031,0.00428067147731781,0.011284992098808289,0.03645610809326172,0.06663519,-0.15112169,9.767536,-0.014183763,-0.011208057,9.768917,0
10,988.3014526367188,6.811397615820169E-4,2.2874103160575032E-4,5.259690806269646E-5,-6.4273362159729,25.68885612487793,-38.21221923828125,0.003999538719654083,0.015910938382148743,0.05539703369140625,0.06660354,-0.15350415,9.762798,-0.014301386,-0.013654232,9.764212,0
10,988.2990112304688,-3.773044445551932E-4,2.3007445270195603E-4,-2.0778941689059138E-4,-6.733458995819092,25.98151969909668,-37.95121765136719,0.023157089948654175,0.025174185633659363,0.04119300842285156,0.05940211,-0.14873679,9.769897,-0.02032451,-0.0066423267,9.771187,0
10,988.311767578125,1.556327915750444E-4,-3.629102138802409E-5,-6.071322713978589E-4,-6.603808879852295,25.154951095581055,-38.30775451660156,0.01372549682855606,0.006580352783203125,0.05066967010498047,0.0593704,-0.14873607,9.758058,-0.020534229,-0.0071907938,9.759348,0
11,988.3092041015625,0.0016206756699830294,-8.352882578037679E-4,4.582621913868934E-4,-6.705658435821533,25.53382682800293,-38.54518127441406,0.008641116321086884,0.020886540412902832,0.041207313537597656,0.064118534,-0.15350182,9.762789,-0.01681586,-0.012997299,9.764184,0
11,988.304443359375,-3.7638802314177155E-4,8.957154350355268E-4,-0.0010063443332910538,-6.402579307556152,25.238218307495117,-38.651573181152344,0.013485170900821686,0.025446444749832153,0.050675392150878906,0.07125655,-0.15826757,9.765154,-0.010907363,-0.019235715,9.766672,0
11,988.3041381835938,2.33912724070251E-5,-5.690715624950826E-4,1.9220815738663077E-4,-6.5120391845703125,25.609731674194336,-38.502471923828125,0.004179477691650391,0.030247271060943604,0.04594230651855469,0.076004654,-0.16779993,9.765151,-0.008825034,-0.029601991,9.76684,0
11,988.2990112304688,-1.0946119436994195E-4,-5.691212136298418E-4,-4.7345057828351855E-4,-6.397715091705322,25.874773025512695,-38.4586181640625,0.01872454583644867,0.005996435880661011,0.05540752410888672,0.05924362,-0.14396642,9.75568,-0.019379497,-0.0022753328,9.756903,0
11,988.2939453125,-1.0915572056546807E-4,-3.653898602351546E-5,3.256279742345214E-4,-6.701773166656494,25.80061912536621,-38.17646789550781,-0.005214489996433258,0.02503351867198944,0.03173828125,0.075941265,-0.14873217,9.774614,-0.004393559,-0.01045382,9.776034,0
11,988.3068237304688,1.5746563440188766E-4,-1.6974651953205466E-4,-7.395046413876116E-4,-6.818161964416504,25.902395248413086,-38.24147415161133,-4.052296280860901E-4,-0.008341759443283081,0.036475181579589844,0.0711298,-0.14158155,9.765142,-0.007265907,-0.00245744,9.766425,0
11,988.319580078125,-6.411771173588932E-4,2.2967776749283075E-4,-0.00113884755410254,-6.6626152992248535,25.521169662475586,-38.08916473388672,0.018300212919712067,0.01556694507598877,0.050685882568359375,0.061538517,-0.14873065,9.769874,-0.017928306,-0.0071439296,9.77118,0
11,988.2841796875,-1.0824023047462106E-4,4.959441139362752E-4,1.9286252791061997E-4,-6.459022521972656,25.8697566986084,-37.986968994140625,0.004005879163742065,-0.003660544753074646,0.04121875762939453,0.075846255,-0.14158,9.772238,-0.002243463,-0.003573656,9.773558,0
11,988.3170776367188,2.915390650741756E-4,9.64207574725151E-5,4.593093181028962E-4,-6.325486660003662,25.30997657775879,-37.97479248046875,0.018027842044830322,0.005780547857284546,0.04122352600097656,0.063865036,-0.1487291,9.765133,-0.015185304,-0.0077925026,9.766458,0
11,988.3041381835938,-1.076292828656733E-4,6.290028104558587E-4,-7.31915351934731E-5,-6.624542236328125,25.978296279907227,-38.198768615722656,0.003916002810001373,0.010426446795463562,0.050690650939941406,0.06861314,-0.1487283,9.755662,-0.010736275,-0.008845374,9.757029,0
11,988.3297119140625,2.9215001268312335E-4,-7.02626071870327E-4,-4.725343897007406E-4,-6.332118034362793,25.67237663269043,-37.76402282714844,0.018051721155643463,0.010476768016815186,0.041228294372558594,0.05902183,-0.15111084,9.767494,-0.020383067,-0.008929789,9.768815,0
11,988.3069458007812,1.592975459061563E-4,6.289036246016622E-4,8.591759251430631E-4,-6.236761093139648,25.761816024780273,-38.01490020751953,-0.005889140069484711,0.01035463809967041,0.050698280334472656,0.075719446,-0.14872675,9.76039,-0.0034137107,-0.010533288,9.76181,0
11,988.29443359375,-7.725025643594563E-4,2.2938032634556293E-4,5.929909530095756E-4,-6.401302337646484,26.2401180267334,-38.40245819091797,0.008130885660648346,0.010141655802726746,0.05070018768310547,0.066128135,-0.16064234,9.765121,-0.015149966,-0.019705772,9.766636,0
11,988.2969970703125,1.5990849351510406E-4,2.2933067521080375E-4,1.9364804029464722E-4,-6.583564758300781,26.332460403442383,-37.76390075683594,0.0035665184259414673,-0.0039174556732177734,0.036502838134765625,0.066096485,-0.14872517,9.769854,-0.012730725,-0.008147389,9.771196,0
11,988.3043212890625,-1.0579644003883004E-4,4.9554742872715E-4,3.270678280387074E-4,-6.187492370605469,25.860960006713867,-38.56718444824219,0.003171779215335846,0.010355398058891296,0.041245460510253906,0.06845468,-0.15110768,9.762749,-0.010492932,-0.011167228,9.764147,0
11,988.3043212890625,-1.0579644003883004E-4,4.9554742872715E-4,3.270678280387074E-4,-6.187492370605469,25.860960006713867,-38.56718444824219,0.012716621160507202,0.01487027108669281,0.01757049560546875,0.06364316,-0.14872362,9.774582,-0.014595248,-0.0073661655,9.775907,0
11,988.299560546875,2.766697434708476E-5,2.2918189642950892E-4,6.0882826801389456E-5,-6.505652904510498,26.24776268005371,-38.38682556152344,0.007981345057487488,0.010119497776031494,0.06491756439208984,0.07317108,-0.141573,9.753275,-0.0035645477,-0.0030155927,9.754576,0
11,988.2791137695312,-1.0518549242988229E-4,-1.7034151824191213E-4,-2.053020871244371E-4,-6.239805221557617,25.75886344909668,-37.86029052734375,0.0032976195216178894,0.009898379445075989,0.027042388916015625,0.07074952,-0.14395554,9.776943,-0.0065712295,-0.0042008758,9.778255,0
11,988.3068237304688,-1.0488001862540841E-4,2.2908265236765146E-4,6.114470306783915E-5,-6.172410011291504,25.769777297973633,-38.64115905761719,0.01745428889989853,4.76837158203125E-4,0.03651618957519531,0.065937996,-0.14633797,9.772206,-0.011614218,-0.0056204796,9.773516,0
11,988.3147583007812,1.6174133634194732E-4,9.587517706677318E-5,-2.050402108579874E-4,-6.196081161499023,25.48383140563965,-38.004905700683594,0.012677803635597229,0.014699146151542664,0.04598712921142578,0.06351641,-0.15110375,9.767469,-0.0150490515,-0.009633869,9.768829,0
11,988.3096313476562,-1.0426907101646066E-4,3.6214146530255675E-4,6.140657933428884E-5,-6.393287181854248,25.77327537536621,-37.991451263427734,0.007677488029003143,0.005290240049362183,0.036525726318359375,0.06895101,-0.14873655,9.781732,-0.009121638,-0.008496895,9.783097,0
11,988.3170776367188,4.286681651137769E-4,9.577599121257663E-5,-4.710943321697414E-4,-6.4850568771362305,25.31849479675293,-37.796730041503906,-0.012826547026634216,0.02893294394016266,0.06006908416748047,0.08398706,-0.16781987,9.751021,0.0010805391,-0.030917749,9.752777,0
11,988.2918701171875,-2.44493770878762E-4,4.942714585922658E-4,5.5697455536574125E-5,-6.51812744140625,25.60384178161621,-38.19325256347656,0.006064362823963165,0.005005627870559692,0.05059814453125,0.06250203,-0.14637096,9.769962,-0.014479037,-0.0045306683,9.771246,0
11,988.3273315429688,-2.4800904793664813E-4,9.536824654787779E-5,-7.896701572462916E-5,-6.842780590057373,26.458951950073242,-38.501197814941406,-0.003705322742462158,0.01891203224658966,0.036388397216796875,0.07208574,-0.16305448,9.777065,-0.008633178,-0.022757143,9.77866,0
12,988.3045654296875,-2.482414129190147E-4,6.280376692302525E-4,-3.4538237378001213E-4,-6.269831657409668,26.047155380249023,-38.41142654418945,0.0011931359767913818,0.01418672502040863,0.01744842529296875,0.06971994,-0.14398886,9.772333,-0.0067352504,-0.0037018508,9.77364,0
12,988.302001953125,1.5100016025826335E-4,-9.698198991827667E-4,1.8714979523792863E-4,-6.458043575286865,26.23952293395996,-38.162723541259766,0.015268795192241669,-2.0276010036468506E-4,0.03164958953857422,0.064964235,-0.14398949,9.774704,-0.0111462325,-0.0023904592,9.775973,0
12,988.2875366210938,2.5588087737560272E-6,9.692770545370877E-4,-8.836416527628899E-4,-6.66633939743042,25.78059959411621,-37.33393096923828,0.010138995945453644,0.028338566422462463,0.04111766815185547,0.06259847,-0.16305627,9.758135,-0.017652512,-0.02063185,9.759661,0
12,988.2945556640625,-3.9714749436825514E-4,4.3668312719091773E-4,1.815222203731537E-4,-6.632152557373047,25.97093391418457,-37.81224060058594,0.009709082543849945,0.028146058320999146,0.04585075378417969,0.065012425,-0.16305687,9.765239,-0.014870077,-0.021037728,9.766782,0
12,988.30224609375,2.0940788090229034E-6,7.030366105027497E-4,8.472123881801963E-4,-6.704519271850586,26.4298152923584,-37.596988677978516,3.0703842639923096E-5,-0.010119274258613586,0.050581932067871094,0.06981635,-0.13684143,9.760507,-0.003808152,0.003224045,9.761715,0
12,988.30224609375,2.0940788090229034E-6,7.030366105027497E-4,8.472123881801963E-4,-6.223606586456299,26.14335823059082,-38.80909729003906,0.009762786328792572,0.018308237195014954,0.012701034545898438,0.06984043,-0.14399184,9.78418,-0.005671244,-0.003127113,9.785486,0
12,988.2994995117188,1.350197708234191E-4,3.0360068194568157E-4,-8.49926145747304E-5,-6.456384658813477,26.346914291381836,-38.939109802246094,-0.0046532973647117615,0.008779123425483704,0.01743316650390625,0.06747466,-0.15352555,9.781816,-0.010292634,-0.011759132,9.783239,0
12,988.3050537109375,1.3972166925668716E-6,-2.289557014591992E-4,-4.8466550651937723E-4,-6.368231773376465,25.954771041870117,-38.00593566894531,3.419071435928345E-5,0.0135049968957901,0.050571441650390625,0.06749874,-0.15829267,9.769981,-0.011092845,-0.016700923,9.771477,0
12,988.3121337890625,-1.319929724559188E-4,1.705558388493955E-4,7.136563071981072E-4,-6.085749626159668,26.58842658996582,-38.702415466308594,0.009274795651435852,0.008750393986701965,0.05530548095703125,0.06991273,-0.15591,9.758148,-0.0076169707,-0.015332714,9.759629,0
12,988.3001098632812,4.00406657718122E-4,3.0375149799510837E-4,5.803987733088434E-4,-6.247820854187012,26.225706100463867,-38.27129364013672,0.004599802196025848,-9.574294090270996E-4,0.036362648010253906,0.06993681,-0.14637746,9.767619,-0.005702872,-0.0056366175,9.768962,0
12,988.30224609375,-2.65615526586771E-4,-0.0010277902474626899,3.139834152534604E-4,-6.137817859649658,25.485902786254883,-38.32194519042969,2.9377639293670654E-4,0.03697289526462555,0.02215099334716797,0.07235086,-0.17021085,9.769988,-0.009250384,-0.029029593,9.771691,0
12,988.3126220703125,4.682224243879318E-7,-4.951207665726542E-4,7.133577018976212E-4,-6.503045082092285,25.51265525817871,-38.26722717285156,0.009776227176189423,0.01784166693687439,0.04581928253173828,0.055645645,-0.16067834,9.758154,-0.023440294,-0.015755698,9.759595,0
12,988.2869873046875,1.333937980234623E-4,4.3702247785404325E-4,4.74684638902545E-5,-6.147492408752441,25.845354080200195,-37.95656204223633,0.019001752138137817,0.017933428287506104,0.045821189880371094,0.06283945,-0.14399596,9.774727,-0.012198463,-0.0014054179,9.775981,0
12,988.3026733398438,3.725290298461914E-9,-2.2872950648888946E-4,-2.1894683595746756E-4,-6.065696716308594,26.027456283569336,-38.21077346801758,0.009626440703868866,-0.0011555850505828857,0.050551414489746094,0.067643344,-0.14637984,9.762894,-0.008180235,-0.0049649924,9.76422,0
12,988.3175659179688,-6.660183425992727E-4,3.762409323826432E-5,5.799010978080332E-4,-6.277740001678467,25.407655715942383,-38.449771881103516,0.004677198827266693,0.003561347723007202,0.04108142852783203,0.06527752,-0.15353025,9.779466,-0.012134921,-0.010977164,9.780875,0
12,988.3123779296875,7.984866388142109E-4,-2.286540693603456E-4,-6.18619960732758E-4,-6.6736741065979,25.98506736755371,-38.34556198120117,0.0042705535888671875,0.008185595273971558,0.045813560485839844,0.067691505,-0.14876436,9.758163,-0.008251417,-0.007115394,9.759526,0
12,988.2973022460938,-2.670090179890394E-4,0.001502437051385641,4.7070207074284554E-5,-6.750606536865234,26.43952751159668,-37.89839172363281,0.008851848542690277,-0.010782063007354736,0.031609535217285156,0.067715645,-0.13684852,9.774736,-0.0052386634,0.004469231,9.775925,0
12,988.3154296875,6.648640846833587E-4,3.77372489310801E-5,-2.1934520918875933E-4,-6.109175682067871,25.302053451538086,-38.39258575439453,-6.978288292884827E-4,0.01306605339050293,0.01740550994873047,0.07729936,-0.14876552,9.784207,0.0012125149,-0.009170309,9.78564,0
12,988.280029296875,-2.674735151231289E-4,-9.538303129374981E-5,3.131871344521642E-4,-6.5567426681518555,25.51500129699707,-38.182106018066406,0.003980070352554321,0.00827750563621521,0.041075706481933594,0.067763805,-0.15114938,9.758169,-0.008695342,-0.009415746,9.759566,0
12,988.3052978515625,-2.677061129361391E-4,-2.285031951032579E-4,-2.1954416297376156E-4,-6.597858905792236,25.0549259185791,-37.91789245605469,-0.005397193133831024,0.008358046412467957,0.03633880615234375,0.07734752,-0.14876671,9.767641,9.891726E-4,-0.0094913095,9.769076,0
12,988.2826538085938,0.0010636411607265472,-2.2846550564281642E-4,-3.5280175507068634E-4,-6.133794784545898,25.858613967895508,-38.652305603027344,0.02354659140110016,0.013004615902900696,0.03633308410644531,0.055862546,-0.1535338,9.760541,-0.021002539,-0.009208202,9.761882,0
12,988.2649536132812,-1.3501255307346582E-4,-0.0011605334002524614,5.792041774839163E-4,-6.410434722900391,26.23127555847168,-37.938621520996094,0.004548944532871246,0.013243287801742554,0.026864051818847656,0.0702104,-0.16068383,9.777113,-0.00903175,-0.019274518,9.778662,0
12,988.2952880859375,3.9742409717291594E-4,-9.523818152956665E-5,-2.19827052205801E-4,-5.972840309143066,25.74565315246582,-38.208595275878906,0.009286396205425262,0.003619179129600525,0.04580116271972656,0.06304824,-0.14876764,9.765278,-0.01304315,-0.0062927753,9.766604,0
12,988.3026733398438,4.0112092392519116E-4,-3.652207087725401E-4,1.7663766629993916E-4,-6.073604583740234,25.387948989868164,-38.249122619628906,0.004314824938774109,-0.0011831074953079224,0.0363311767578125,0.070240796,-0.1487682,9.770014,-0.005929306,-0.0077613145,9.771394,0
12,988.3001098632812,-5.312050343491137E-4,4.337626160122454E-4,4.338519647717476E-5,-6.644489288330078,25.43292808532715,-38.3177490234375,-6.686151027679443E-4,0.01276080310344696,0.05526447296142578,0.06309396,-0.15115203,9.758181,-0.013300337,-0.008062601,9.759543,0
13,988.3204345703125,-3.982672351412475E-4,7.0011435309425E-4,-2.2302509751170874E-4,-6.663701057434082,26.257753372192383,-38.286067962646484,0.008712276816368103,0.007840186357498169,0.041057586669921875,0.07267642,-0.1463861,9.758182,-0.0026077777,-0.005723208,9.759549,0
13,988.3076782226562,-5.31645433511585E-4,3.4360389690846205E-5,-4.894352750852704E-4,-6.604191780090332,26.049463272094727,-37.282257080078125,0.008884534239768982,0.017314419150352478,0.036316871643066406,0.0583598,-0.16068627,9.767653,-0.019954737,-0.016156614,9.769115,0
13,988.2802124023438,5.333979497663677E-4,-3.650776925496757E-4,-6.226875120773911E-4,-6.423015594482422,26.693700790405273,-38.117713928222656,0.008863009512424469,0.012233734130859375,0.05051422119140625,0.06555238,-0.15353696,9.77239,-0.011290815,-0.010435075,9.773804,0
13,988.282958984375,-9.315595380030572E-4,-8.976737735792994E-4,5.756395403295755E-4,-6.308446884155273,25.95831871032715,-38.40027618408203,0.018733009696006775,-0.006954848766326904,0.041039466857910156,0.06557524,-0.14638774,9.777126,-0.009916868,-0.0032696724,9.778438,0
13,988.300537109375,2.6664166944101453E-4,-9.869033237919211E-5,-2.2340251598507166E-4,-6.154964447021484,25.943906784057617,-38.26911544799805,0.013881519436836243,0.021956056356430054,0.045777320861816406,0.07037783,-0.16307126,9.765291,-0.0091704205,-0.021014035,9.766879,0
13,988.3283081054688,7.990531739778817E-4,-3.6497050314210355E-4,-2.2349681239575148E-4,-6.420407772064209,25.958593368530273,-37.99811553955078,0.013714887201786041,0.012321889400482178,0.036304473876953125,0.060841113,-0.14877214,9.765295,-0.014902595,-0.0048822314,9.766605,0
13,988.2775268554688,-2.6643049204722047E-4,1.6769702779129148E-4,1.7588259652256966E-4,-6.302358627319336,25.964208602905273,-38.709495544433594,0.008784957230091095,0.021677017211914062,0.036301612854003906,0.06564379,-0.15830578,9.767664,-0.012192406,-0.015143931,9.769149,0
13,988.3055419921875,1.3282295549288392E-4,1.6773276729509234E-4,-4.900014027953148E-4,-6.139883041381836,25.852720260620117,-38.34308624267578,0.018231675028800964,-0.006834566593170166,0.04103660583496094,0.06088683,-0.14877327,9.7724,-0.014630161,-0.0048214197,9.773709,0
13,988.2699584960938,-6.663449457846582E-4,-4.980211379006505E-4,1.7569377087056637E-4,-6.171568393707275,26.03361701965332,-38.117835998535156,0.008587583899497986,0.011866509914398193,0.06943511962890625,0.0632996,-0.1511571,9.751097,-0.012595788,-0.00766474,9.752464,0
13,988.2952880859375,2.655406133271754E-4,7.004361250437796E-4,-4.901903448626399E-4,-6.081076622009277,25.486501693725586,-38.56167221069336,0.01812800019979477,0.0024088621139526367,0.031558990478515625,0.053762794,-0.1487744,9.774772,-0.021456331,-0.002942428,9.776029,0
13,988.3080444335938,-9.9564203992486E-7,-2.316337777301669E-4,5.749788833782077E-4,-6.092273235321045,25.844480514526367,-38.118988037109375,0.008444979786872864,0.025867566466331482,0.0031452178955078125,0.06334525,-0.15115823,9.774775,-0.012475621,-0.0070538074,9.776137,0
13,988.3004150390625,-4.006897215731442E-4,-9.84400394372642E-5,-4.903789376839995E-4,-6.1836066246032715,26.12775230407715,-38.19847106933594,-0.005632556974887848,0.011392682790756226,0.050482749938964844,0.07770753,-0.14877553,9.765307,0.0018066317,-0.007883728,9.766746,0
13,988.3006591796875,-9.335417416878045E-4,-0.0012968257069587708,1.753161777742207E-4,-6.294887065887451,25.865659713745117,-38.396942138671875,0.01844559609889984,0.0015817731618881226,0.03153800964355469,0.068170786,-0.14400952,9.779512,-0.0065627918,-4.930943E-4,9.7808075,0
13,988.3006591796875,-9.335417416878045E-4,-0.0012968257069587708,1.753161777742207E-4,-6.345540523529053,25.870954513549805,-38.4664306640625,-0.0010068491101264954,0.010714799165725708,0.041001319885253906,0.07536334,-0.15115987,9.770045,-8.482076E-4,-0.008948311,9.771502,0
13,988.29052734375,-4.0113035356625915E-4,5.67421258892864E-4,-2.242519985884428E-4,-6.380568504333496,25.416772842407227,-38.511444091796875,0.008059769868850708,0.005821496248245239,0.031531333923339844,0.06343666,-0.15354373,9.762946,-0.012312766,-0.00877817,9.764347,0
13,988.2903442382812,-0.0010245415614917874,5.970204947516322E-4,-7.435758016072214E-4,-6.067761421203613,26.394269943237305,-38.23191833496094,0.012666136026382446,0.024838536977767944,0.026795387268066406,0.07062924,-0.1583109,9.767683,-0.006303478,-0.014863923,9.769209,0
13,988.2879638671875,3.065973287448287E-4,1.9761823932640254E-4,5.518313264474273E-5,-5.8838701248168945,25.197057723999023,-38.57512664794922,0.007673248648643494,0.015201687812805176,0.05520057678222656,0.073041975,-0.1511616,9.760583,-0.002072528,-0.008505121,9.762023,0
13,988.2832641601562,-2.2625469136983156E-4,8.634435944259167E-4,5.877204821445048E-4,-6.199667930603027,25.84917640686035,-37.94874572753906,-0.0021189898252487183,0.010522067546844482,0.04099750518798828,0.08023456,-0.14877884,9.772421,0.005555894,-0.007752031,9.773879,0
13,988.3106689453125,-2.2647494915872812E-4,5.971634527668357E-4,5.499430699273944E-5,-6.534731388092041,25.693552017211914,-38.04197692871094,-0.006470724940299988,-0.0038097798824310303,0.045726776123046875,0.070697784,-0.14401288,9.767689,-0.0030678958,-8.395612E-4,9.769008,0
13,988.2933959960938,5.722525529563427E-4,-0.0014001699164509773,5.875317147001624E-4,-6.119393348693848,26.02979850769043,-38.12565231323242,0.0032064691185951233,-0.003962218761444092,0.03151702880859375,0.07072061,-0.14401342,9.767691,-0.0031320006,-7.222444E-4,9.769008,0
13,988.2782592773438,3.9400532841682434E-5,-0.0010006602387875319,3.2112147891893983E-4,-6.534730911254883,25.69355583190918,-38.04197692871094,0.013253934681415558,0.02487999200820923,0.03151416778564453,0.06118387,-0.1583137,9.767693,-0.016400024,-0.012353867,9.769146,0
13,988.313720703125,3.054960398003459E-4,-7.343086181208491E-4,-7.844675565138459E-5,-6.607395648956299,25.520299911499023,-38.25159454345703,-4.6190619468688965E-4,0.015285074710845947,0.02683258056640625,0.06776935,-0.14638294,9.777108,-0.0072100274,-0.0021252036,9.778436,0
13,988.298095703125,-9.130861144512892E-5,-4.6842603478580713E-4,-2.1046079928055406E-4,-6.527121543884277,25.700918197631836,-38.428504943847656,0.009118728339672089,0.005670443177223206,0.036299705505371094,0.06776807,-0.14876617,9.777107,-0.0077743866,-0.004388407,9.77847,0
13,988.2705078125,-8.846505079418421E-5,-6.941382889635861E-5,-3.423999878577888E-4,-6.161052703857422,25.938016891479492,-37.959896087646484,0.013346880674362183,0.005387306213378906,0.05050373077392578,0.062987,-0.14638288,9.765272,-0.0111766495,-0.0011483431,9.766566,0
14,988.2984619140625,-4.87926765345037E-4,0.001395321567542851,5.89710776694119E-4,-6.5996246337890625,26.053876876831055,-37.51416778564453,0.012942366302013397,0.02001357078552246,0.017370223999023438,0.06298572,-0.1630658,9.777108,-0.014936198,-0.017391607,9.778645,0
14,988.3082275390625,7.105072727426887E-4,1.968980359379202E-4,1.902421936392784E-4,-6.259315490722656,25.95155143737793,-38.253482818603516,0.007928803563117981,0.02001647651195526,0.03157520294189453,0.06776425,-0.15353264,9.772373,-0.0076495707,-0.009513289,9.773808,0
14,988.2984619140625,3.1104544177651405E-4,8.626857306808233E-4,8.560371352359653E-4,-6.800579071044922,26.18244743347168,-38.568504333496094,-0.011151134967803955,0.024505719542503357,0.0315704345703125,0.08210242,-0.15829916,9.767639,0.005213771,-0.01756306,9.769249,0
14,988.2858276367188,-2.2157421335577965E-4,5.963679868727922E-4,-3.423792659305036E-4,-6.295866012573242,25.495893478393555,-38.221187591552734,0.007905751466751099,0.014830708503723145,0.03156852722167969,0.072541535,-0.15114932,9.772373,-0.0023763254,-0.007873446,9.773809,0
14,988.2756958007812,-3.5471958108246326E-4,-3.357396344654262E-4,1.9025785150006413E-4,-5.797102928161621,24.90936851501465,-38.26372528076172,0.0030597224831581116,-0.008858814835548401,0.050510406494140625,0.06537056,-0.13446636,9.760538,-0.005495541,0.009603962,9.761676,0
14,988.2984008789062,3.1108211260288954E-4,3.300480602774769E-4,1.9026309018954635E-4,-6.029443740844727,25.850969314575195,-38.667938232421875,-0.001825191080570221,0.019724443554878235,0.03157234191894531,0.070149094,-0.15829901,9.767639,-0.0060279854,-0.014583498,9.769161,0
14,988.2705078125,-8.837971836328506E-5,6.3730200054124E-5,-4.7552125761285424E-4,-6.08770751953125,25.84889793395996,-38.35090637207031,0.002637341618537903,0.019919589161872864,0.007906913757324219,0.07253772,-0.14876594,9.779474,-0.0013824627,-0.0058855265,9.780873,0
14,988.2883911132812,5.774226738139987E-4,4.6320210094563663E-4,-3.423580783419311E-4,-5.821722030639648,25.46592140197754,-38.5234489440918,-0.0016189664602279663,-0.0027499496936798096,0.05052947998046875,0.07014656,-0.14876594,9.762903,-0.0043666847,-0.006656915,9.764286,0
14,988.3397827148438,0.0037732250057160854,-0.0016673270147293806,-7.418267778120935E-4,-6.144586086273193,25.74238395690918,-37.41209411621094,-0.005530118942260742,0.007312014698982239,0.01739025115966797,0.07970488,-0.15591575,9.784208,0.0022102892,-0.015722439,9.785763,0
14,988.4964599609375,-3.5465892869979143E-4,-0.001134697231464088,9.892317466437817E-4,-6.431061744689941,25.948286056518555,-37.45698165893555,-0.0013898015022277832,-0.008918076753616333,0.050507545471191406,0.06536421,-0.141616,9.772372,-0.007391516,0.0030444711,9.773613,0
14,988.1973876953125,-0.0036835945211350918,0.001927933539263904,3.2344722421839833E-4,-6.527503967285156,26.595426559448242,-37.40300369262695,0.0029358267784118652,0.01936037838459015,0.02683544158935547,0.060583174,-0.16068216,9.777106,-0.01590116,-0.014198124,9.77859,0
14,988.204833984375,-4.8779218923300505E-4,7.295099785551429E-4,1.9029463874176145E-4,-6.2449140548706055,26.12273597717285,-37.72682571411133,-0.001815803349018097,-0.009449601173400879,0.0363006591796875,0.0725314,-0.14638253,9.76527,-9.4939396E-4,-0.0029651225,9.766638,0
14,988.2529907226562,-4.8778019845485687E-4,-4.689134657382965E-4,-6.086479988880455E-4,-6.09477424621582,25.473241806030273,-37.865928649902344,-0.030385293066501617,0.005920514464378357,0.03157997131347656,0.09642914,-0.14399926,9.777107,0.022589613,-0.006497845,9.778615,0
14,988.3397827148438,0.0025748652406036854,1.9687428721226752E-4,5.714711733162403E-5,-5.679574012756348,25.70357322692871,-37.250526428222656,-0.01661093533039093,0.00999327003955841,0.059981346130371094,0.07969856,-0.15353222,9.760536,0.0046396777,-0.012155011,9.762059,0
14,988.283935546875,-0.0012867029290646315,0.0011289778631180525,-3.4232152393087745E-4,-6.350404262542725,25.23439598083496,-38.659385681152344,-0.016271643340587616,4.4664740562438965E-4,0.04104137420654297,0.08925688,-0.14161588,9.760536,0.016454328,-0.0027025044,9.761957,0
14,988.2451782226562,-2.2142764646559954E-4,-2.0260349265299737E-4,-6.086321664042771E-4,-6.474785804748535,26.223318099975586,-37.31237030029297,0.011652924120426178,5.759596824645996E-4,0.03157997131347656,0.074916214,-0.1487657,9.772371,0.0015096329,-0.006397739,9.773788,0
14,988.2679443359375,1.7805863171815872E-4,0.0019279216649010777,5.897944793105125E-4,-6.159966945648193,25.20143699645996,-37.76299285888672,-0.0030814558267593384,0.005257353186607361,0.036316871643066406,0.082084656,-0.15353216,9.774738,0.007873591,-0.012604505,9.776277,0
14,988.3089599609375,1.7807097174227238E-4,3.300243115518242E-4,9.892736561596394E-4,-5.964825630187988,25.278810501098633,-37.79759216308594,-0.012524686753749847,0.009862303733825684,0.04104804992675781,0.08686319,-0.14876558,9.779472,0.013546072,-0.0087091625,9.780977,0
14,988.3165283203125,-7.540227379649878E-4,5.963380681350827E-4,1.903311931528151E-4,-5.940450668334961,25.72267723083496,-37.211448669433594,0.010518081486225128,0.02875259518623352,0.05051994323730469,0.0653528,-0.1678318,9.770004,-0.01099579,-0.022619665,9.771631,0
14,988.2813720703125,4.493736196309328E-5,0.0017947574378922582,3.2349437242373824E-4,-6.319100379943848,25.9480037689209,-37.85913848876953,0.00580238550901413,-0.004797846078872681,0.02684497833251953,0.06774145,-0.13923247,9.762902,-0.0020106249,0.004739344,9.76413,0
14,988.303955078125,4.4949701987206936E-5,6.370243499986827E-5,5.71837299503386E-5,-6.566960334777832,26.24274253845215,-37.91517639160156,-0.02283402532339096,4.9561262130737305E-5,0.04104900360107422,0.0844695,-0.15114878,9.767636,0.011329114,-0.010801569,9.769158,0
14,988.3143920898438,-6.208281265571713E-4,6.370051414705813E-5,-3.422849695198238E-4,-6.601690292358398,26.420698165893555,-37.535316467285156,8.373036980628967E-4,0.018823593854904175,0.026844024658203125,0.07478273,-0.15591218,9.765257,0.0010595769,-0.012938812,9.76678,0
14,988.3037719726562,-8.818402420729399E-5,5.963302683085203E-4,4.5666805817745626E-4,-6.561147689819336,26.036806106567383,-36.82624053955078,0.0010390058159828186,0.004293665289878845,0.050536155700683594,0.08181763,-0.15352567,9.765245,0.008619595,-0.012069181,9.766783,1
14,988.3037719726562,-8.818402420729399E-5,5.963302683085203E-4,4.5666805817745626E-4,-6.525300979614258,26.33452796936035,-38.0809326171875,0.01046687364578247,0.008906245231628418,0.050537109375,0.0698567,-0.15114208,9.769979,-0.0021912232,-0.006775245,9.771396,1
14,988.2734985351562,-4.8550043720752E-4,1.9650624017231166E-4,-7.503927918151021E-5,-6.112602233886719,26.193620681762695,-37.21247100830078,-0.0182533860206604,0.018072962760925293,0.03632926940917969,0.074625075,-0.16305815,9.769978,-9.6820295E-6,-0.019107461,9.771604,1
15,988.2811889648438,-7.512959418818355E-4,5.958954570814967E-4,5.909735336899757E-4,-6.339727401733398,25.665014266967773,-37.37749481201172,-0.004054427146911621,0.013071030378341675,0.045795440673828125,0.07461366,-0.16305794,9.762876,-9.2539936E-5,-0.019024134,9.764505,1
15,988.3143920898438,-2.1855428349226713E-4,-6.991199916228652E-5,5.910206818953156E-4,-6.052816390991211,26.19716453552246,-37.60681915283203,-0.004045560956001282,0.003689512610435486,0.026862144470214844,0.076992154,-0.14399137,9.767609,0.0066664703,-0.001021266,9.768971,1
15,988.2612915039062,4.473455483093858E-4,3.295439819339663E-4,3.247519489377737E-4,-5.928818225860596,26.102750778198242,-37.92833709716797,-0.00890323519706726,0.02742849290370941,0.041065216064453125,0.07698077,-0.1654406,9.779444,0.0020834059,-0.02167146,9.781122,1
15,988.2865600585938,-1.6843649791553617E-4,-9.554659482091665E-5,-2.0095036597922444E-4,-6.061948776245117,26.188329696655273,-37.142982482910156,9.028539061546326E-4,0.012941256165504456,0.026859283447265625,0.0697996,-0.153524,9.772341,-0.0024731904,-0.00860852,9.773793,1
15,988.2662963867188,-3.0148442601785064E-4,-8.945121080614626E-4,-4.672190989367664E-4,-6.135156631469727,26.383359909057617,-37.451053619384766,-0.02300906926393509,0.017624452710151672,0.012656211853027344,0.08890742,-0.16067345,9.777074,0.014516883,-0.019402802,9.778768,1
15,988.2740478515625,9.809940820559859E-5,8.365233079530299E-4,-6.003297748975456E-4,-6.377906799316406,26.31422233581543,-37.64055252075195,0.005687937140464783,0.007959336042404175,0.041060447692871094,0.060217142,-0.15590663,9.758135,-0.012392774,-0.008461237,9.759555,1
15,988.2764282226562,-3.012642846442759E-4,-7.613899069838226E-4,3.3182287006638944E-4,-6.385952472686768,25.56880760192871,-36.979820251464844,0.005787350237369537,0.002972051501274109,0.04105854034423828,0.06976533,-0.15113981,9.765236,-0.0021026991,-0.0056625903,9.766654,1
15,988.3114013671875,-5.674702697433531E-4,-6.282498361542821E-4,-3.339195973239839E-4,-6.188746452331543,25.27936363220215,-36.9932746887207,0.0013848170638084412,0.01253555715084076,0.05999469757080078,0.07453376,-0.1535228,9.751032,0.0016971827,-0.009274036,9.7525215,1
15,988.3117065429688,9.842956205829978E-5,-9.563594358041883E-5,3.319171955808997E-4,-5.978928565979004,25.73975944519043,-37.89937210083008,-0.012415885925292969,0.012104630470275879,0.045783042907714844,-0.03063336,-0.105857,9.774703,-0.09073584,0.06136807,9.774712,1
15,988.27880859375,-7.004080689512193E-4,-0.0014272332191467285,-0.0017985629383474588,-6.150537014007568,25.842405319213867,-37.80195236206055,1.3051894903182983,-0.9527777433395386,-0.020445823669433594,0.115139216,-0.3584842,9.786537,-0.004690651,-0.21998009,9.791305,1
15,988.3043212890625,-0.0037629306316375732,-0.002758830552920699,-0.6405571699142456,-6.847920894622803,25.610563278198242,-37.295997619628906,-0.25524330139160156,-0.22602812945842743,0.0027132034301757812,0.21311378,0.013307497,9.772333,0.10595321,0.11747934,9.773386,1
15,988.2811889648438,0.02380087599158287,-0.1725352257490158,-0.19314640760421753,-7.343639850616455,26.200040817260742,-37.40807342529297,0.17485123872756958,0.0981215387582779,-0.06993293762207031,-0.06890604,-0.21310373,9.98538,-0.27073458,0.028240964,9.984181,1
15,988.2431030273438,-0.15063591301441193,-0.1526947021484375,-0.33309540152549744,-8.054040908813477,25.692567825317383,-36.80699920654297,-0.10824663937091827,-0.15836913883686066,-0.03947257995605469,0.27283847,-0.22501977,9.999582,0.054714218,0.030369997,10.005639,1
15,988.1799926757812,-0.258893221616745,-0.00781888049095869,-0.2792995572090149,-8.028848648071289,25.979982376098633,-37.52056121826172,-0.701441764831543,0.15376120805740356,-0.5947608947753906,0.4831385,-0.40853196,10.321521,0.3220164,-0.016630769,10.335866,1
15,988.2002563476562,-0.6423879861831665,0.20004063844680786,-0.14054889976978302,-8.187278747558594,26.88448143005371,-36.394309997558594,0.11841945350170135,-0.6647883057594299,0.030725479125976562,0.4926867,-0.6134937,9.561648,0.41762164,0.119048655,9.584135,1
15,988.2431030273438,-1.1059106588363647,-0.048698414117097855,-0.16531623899936676,-8.650447845458984,27.977209091186523,-34.38528060913086,-0.151485875248909,0.6010410785675049,0.39038753509521484,0.06010294,-1.8647145,9.322559,-0.29036373,-0.58533895,9.484934,1
15,988.2734985351562,-0.902178943157196,0.16741691529750824,-0.3209778070449829,-8.693437576293945,29.622426986694336,-34.090003967285156,0.2982088327407837,-0.2828871011734009,-0.41605567932128906,-0.13110057,-1.1878632,10.276542,-0.06239012,0.5230397,10.332378,1
15,988.2562255859375,-0.8041744828224182,0.03905263915657997,0.0646476298570633,-8.540200233459473,30.608449935913086,-33.632423400878906,-0.16016638278961182,-5.42759895324707E-4,-0.1526165008544922,0.014672011,-2.0267768,9.528503,-0.025736034,-0.16889012,9.740187,1
15,988.2891845703125,-0.7322691679000854,0.3762085437774658,0.050532933324575424,-7.775696277618408,30.63936424255371,-33.521087646484375,0.07194818556308746,0.20058798789978027,0.9585227966308594,-0.35338432,-2.1769228,8.950906,-0.23179978,-0.10015726,9.215142,1
15,988.288818359375,-0.7573027014732361,0.21402214467525482,0.11524773389101028,-7.002985954284668,31.941923141479492,-32.946533203125,0.17324189841747284,-0.5064841508865356,-1.0054988861083984,-0.31754717,-2.2960868,9.126078,-0.13183999,0.111542225,9.414263,1
15,988.2836303710938,-0.7284073829650879,0.10296839475631714,-0.014448050409555435,-7.401123046875,32.780235290527344,-32.16439437866211,-0.23134011030197144,0.40316033363342285,0.7431964874267578,0.1460824,-2.9657876,10.120302,0.18744475,0.038076162,10.5451975,1
15,988.3221435546875,-1.1462568044662476,-0.6626898050308228,-0.002863256260752678,-7.792606353759766,33.67646026611328,-29.769996643066406,0.6319595575332642,-0.8727798461914062,0.34558963775634766,-0.4514045,-2.8609233,8.8514805,-0.4114344,0.3142476,9.298889,1
15,988.34228515625,-0.805372416973114,0.044378861784935,-0.14028221368789673,-8.220907211303711,34.6971435546875,-28.83990478515625,5.806460976600647E-4,0.5956258773803711,-0.8986291885375977,0.21775657,-3.8142343,9.585312,0.05486715,-0.21229553,10.316294,1
15,988.3117065429688,-0.8049728274345398,0.12573833763599396,-0.5486775636672974,-8.821795463562012,35.450721740722656,-27.636642456054688,-0.11336460709571838,-0.17495465278625488,0.592987060546875,0.012213647,-3.711753,8.548475,-0.09622693,-0.04621792,9.318923,1
15,988.3069458007812,-0.916425883769989,0.18193098902702332,-0.4353601634502411,-9.407303810119629,36.74524688720703,-26.082481384277344,0.7626314759254456,-0.48357319831848145,0.004975318908691406,-0.44426906,-3.8047004,8.917759,-0.4062854,0.4030187,9.68876,1
16,988.31396484375,-0.5359935760498047,0.275940477848053,-0.6176533102989197,-9.889057159423828,36.767852783203125,-25.393688201904297,-0.2673349380493164,0.4507894515991211,0.14054012298583984,0.33960736,-4.557816,8.650265,0.058297634,-0.4659798,9.772182,1
16,988.2813720703125,-0.4817982017993927,0.405902624130249,-0.8729169964790344,-11.264827728271484,37.69203186035156,-25.158782958984375,-0.48909226059913635,0.09729385375976562,0.04220294952392578,0.79845715,-4.581649,8.778091,0.5300913,-0.49965882,9.907234,1
16,988.2860717773438,-0.4611585736274719,0.32361096143722534,-0.6661226749420166,-12.478313446044922,36.7662353515625,-24.609676361083984,-0.4527733623981476,0.16924667358398438,-0.08906841278076172,0.30373597,-4.7413282,8.726012,0.13143575,-0.19423437,9.932811,1
16,988.3162231445312,-0.6466474533081055,0.034924548119306564,-0.060120850801467896,-11.982839584350586,37.17718505859375,-24.171184539794922,-0.09042453020811081,0.14124488830566406,0.1995229721069336,0.17227995,-5.0606875,8.039522,-0.11677086,-0.39905572,9.492169,1
16,988.3240966796875,-0.7941863536834717,-0.07652866840362549,0.1424124389886856,-11.931727409362793,38.33025360107422,-22.552875518798828,-0.004724025726318359,0.12412643432617188,0.8919258117675781,0.088621974,-5.160785,7.594488,-0.23852146,-0.4578581,9.167949,1
16,988.35693359375,-0.3462429642677307,-0.12912607192993164,0.21857881546020508,-11.843138694763184,38.676170349121094,-21.893909454345703,0.0700962245464325,-0.026129722595214844,0.3166227340698242,-0.064343154,-4.824742,8.3093815,-0.10195696,0.13629985,9.607244,1
16,988.35693359375,-0.3462429642677307,-0.12912607192993164,0.21857881546020508,-11.94528579711914,38.42290496826172,-22.556209564208984,-0.047856107354164124,0.05157470703125,-0.8839654922485352,0.18180531,-4.8819404,9.810186,0.3471409,0.47588682,10.943453,1
16,988.3264770507812,0.3025026321411133,-0.12806084752082825,0.22230729460716248,-11.540901184082031,38.11671447753906,-22.523622512817383,-0.16075721383094788,-0.15337753295898438,-1.1493339538574219,-0.30335617,-4.3051867,8.2880745,0.0020723343,0.16214514,9.343048,1
16,988.339111328125,0.6576350927352905,1.243732213973999,0.027630476281046867,-9.916315078735352,36.847259521484375,-24.701276779174805,0.006556391716003418,-0.09620046615600586,1.7942614555358887,-0.42525262,-4.317103,7.7838597,-0.08722377,-0.38865614,8.902137,1
16,988.2636108398438,0.6757447719573975,0.514692485332489,0.16265267133712769,-8.947400093078613,37.07030487060547,-25.787445068359375,-0.30943167209625244,-0.42203617095947266,-0.11481666564941406,-0.3248881,-3.4543557,8.813592,0.5090053,0.45226288,9.44743,1
16,988.2959594726562,0.5609626770019531,-0.24816936254501343,0.5160538554191589,-9.019384384155273,36.634674072265625,-26.59769058227539,-0.4680134952068329,-0.8844013214111328,0.8166131973266602,-0.05344796,-3.6593513,9.069376,0.5277457,0.076425314,9.765394,1
16,988.3797607421875,0.5902525186538696,-0.6650860905647278,0.28289222717285156,-9.306455612182617,35.57630157470703,-27.492321014404297,0.5553151369094849,1.038517951965332,-1.5790176391601562,-0.86121047,-4.4672837,10.804537,-0.6138202,0.20600486,11.705432,1
16,988.46337890625,0.7529655694961548,-0.8746772408485413,0.29993104934692383,-9.779781341552734,35.44981384277344,-28.489761352539062,0.3305109441280365,0.38721370697021484,-3.0920400619506836,-0.120316565,-2.9348361,12.023649,0.2755221,1.1779141,12.317975,1
16,988.4660034179688,1.3918571472167969,-0.7222113609313965,0.520706832408905,-9.717846870422363,33.559898376464844,-30.31332778930664,0.6583341360092163,-1.3656318187713623,-0.9432449340820312,-0.8587719,-1.5453857,10.177233,-0.3594765,1.6549263,10.189885,1
16,988.3746337890625,0.9218094348907471,-0.0569542720913887,0.26957082748413086,-10.085735321044922,32.68919372558594,-31.129501342773438,1.0239404439926147,-0.7867611646652222,-1.6352615356445312,-0.8515779,-1.731282,11.25668,-0.29366243,1.560706,11.309877,1
16,988.3949584960938,0.4668085277080536,0.0530342198908329,-0.02737145684659481,-9.923718452453613,31.419343948364258,-32.311912536621094,0.6970905065536499,-0.7695518732070923,-1.8984794616699219,-0.38074288,-1.4858049,11.595192,0.010470748,1.375081,11.61508,1
16,988.3821411132812,0.9013026356697083,-0.30822324752807617,-0.18662846088409424,-11.56071662902832,30.097925186157227,-33.21408462524414,0.2023428976535797,-0.08914268016815186,-2.1054153442382812,0.15939927,-1.6812342,11.436592,-0.120987415,0.43365765,11.551836,1
16,988.402099609375,1.6211540699005127,-0.6243401765823364,-0.4959544837474823,-13.445491790771484,27.544599533081055,-35.62266540527344,0.1539921760559082,0.6231112480163574,-1.4640655517578125,0.84054565,-1.7717994,11.562056,-0.14506179,-0.42387187,11.718626,1
16,988.3483276367188,1.3552374839782715,-0.6108911633491516,-0.4851687252521515,-15.115753173828125,24.770048141479492,-36.973567962646484,-0.4022310972213745,0.7293016910552979,-0.9191827774047852,0.9289963,-1.0830325,10.11333,-0.06991312,-0.35978806,10.206916,1
16,988.3289794921875,0.9668156504631042,-0.24457362294197083,-0.3876972794532776,-16.153385162353516,22.693586349487305,-39.00170135498047,0.3598781228065491,0.5697929859161377,0.31771278381347656,0.8764429,-1.2951449,9.893181,-0.5625458,-0.7426999,9.9725895,1
16,988.292724609375,0.6885153651237488,-0.4826599955558777,-0.4766468107700348,-17.44396209716797,21.69603157043457,-39.12937927246094,0.09505987167358398,0.9960877895355225,-1.7105894088745117,0.7713114,-1.0520512,11.635446,-0.82179695,-0.34705365,11.67431,1
16,988.3231811523438,0.15095648169517517,-0.09543664753437042,-0.30247634649276733,-18.030664443969727,20.462011337280273,-39.27470016479492,0.49145668745040894,1.0194185972213745,-2.2928552627563477,0.7330973,-1.2403308,11.775112,-1.0510428,-0.5776502,11.80215,1
16,988.2953491210938,0.4897100329399109,-0.006886587478220463,-0.21086379885673523,-17.755844116210938,19.455734252929688,-40.3359489440918,0.04859435558319092,1.4296461343765259,-0.893223762512207,0.80242884,-1.2045821,10.19619,-1.0860137,-1.0872649,10.183106,1
16,988.2090454101562,1.1331290006637573,-0.032053396105766296,-0.27597811818122864,-17.7999210357666,17.466066360473633,-41.36750030517578,0.5755809545516968,1.201913833618164,0.1428842544555664,0.489376,-0.25842118,10.508664,-0.9510423,-0.41700187,10.471863,1
17,988.1303100585938,0.515542209148407,0.3080320358276367,-0.2386939972639084,-17.217594146728516,16.062679290771484,-42.06797409057617,0.5974021553993225,1.0887280702590942,-2.361361503601074,0.29581833,-0.56824785,11.933722,-1.5556836,-0.7152786,11.827609,1
17,988.2568969726562,0.6222015023231506,-0.03351805731654167,-0.2932888865470886,-16.87967872619629,14.482767105102539,-42.18156433105469,0.5533683896064758,2.2474236488342285,-1.6303024291992188,0.262384,-1.171218,10.702778,-2.0403295,-1.5698512,10.457661,1
17,988.2699584960938,1.1356582641601562,0.1981768012046814,-0.4854358732700348,-17.149059295654297,12.598100662231445,-43.030574798583984,1.1053593158721924,2.034916639328003,0.34091949462890625,-0.54776835,-0.072527245,9.959479,-1.9119301,-0.5685544,9.773322,1
17,988.2060546875,0.5596168041229248,0.5385285019874573,-0.2898269593715668,-15.708694458007812,10.681459426879883,-44.218162536621094,1.1935222148895264,1.2111587524414062,-1.8409738540649414,-0.6074916,-0.020095661,11.509999,-2.1060073,-0.81801796,11.302439,1
17,988.2693481445312,0.21287326514720917,0.15663158893585205,-0.3453539311885834,-15.000250816345215,10.449407577514648,-44.46772003173828,1.2465648651123047,2.069434642791748,-2.209228515625,-0.8488474,-0.38235462,11.481596,-2.4447808,-1.0130471,11.211179,1
17,988.3052978515625,0.09263139963150024,0.22747164964675903,-0.06678758561611176,-14.57567310333252,9.688150405883789,-44.64257049560547,0.6554612517356873,2.389953374862671,-0.6946392059326172,0.34134805,-0.20599262,10.522881,-1.4119731,-1.6672935,10.301283,1
17,988.3147583007812,0.9158135056495667,-0.29770323634147644,1.0088621377944946,-14.12465763092041,9.003942489624023,-44.21012878417969,-0.5262482762336731,1.134070634841919,-1.9695043563842773,0.7739446,1.2144407,11.185699,-0.85162973,-1.3497392,11.164526,1
17,988.206298828125,1.6353987455368042,0.06195641681551933,0.6768993139266968,-13.891934394836426,7.167829513549805,-44.8314094543457,0.27743685245513916,2.1145994663238525,-0.4050474166870117,0.34617656,1.4146354,9.374791,-0.7533306,-1.3007394,9.367408,1
17,988.20068359375,1.5295379161834717,1.0333435535430908,0.29393693804740906,-12.03848648071289,4.215768814086914,-46.17603302001953,-0.5857023000717163,0.7571775913238525,0.20696163177490234,0.8146217,3.1806445,9.154644,0.36534178,-0.7492404,9.689829,1
17,988.1776123046875,2.0567100048065186,0.5822045803070068,0.44147583842277527,-10.699861526489258,1.5716590881347656,-47.22838592529297,-0.8904120326042175,0.7781274318695068,-0.018060684204101562,1.106214,4.029091,8.243273,0.8986684,-0.63226414,9.176136,1
17,988.2208251953125,2.110771894454956,0.5684893131256104,0.2469319999217987,-10.184144020080566,-1.2113494873046875,-47.37596893310547,-1.7703808546066284,-0.18268156051635742,0.8486614227294922,1.2322104,5.227896,7.2631907,1.5634824,-0.005456209,8.897116,1
17,988.1878662109375,1.7183551788330078,0.8434605598449707,0.13294868171215057,-8.879439353942871,-4.625916481018066,-46.453407287597656,-0.7063835859298706,0.48314428329467773,1.6263413429260254,0.30421805,5.39951,6.453542,1.0052851,0.3856845,8.350816,1
17,988.1903686523438,1.3254148960113525,0.9707598686218262,0.0077872006222605705,-7.140154838562012,-7.316799640655518,-46.717933654785156,-1.3943159580230713,0.0774526596069336,1.2945737838745117,0.6674515,5.9524307,6.950652,1.3828154,-0.18891525,9.068661,1
17,988.2509765625,1.6162338256835938,0.48047202825546265,-0.08555568009614944,-5.874715805053711,-9.34557056427002,-46.255332946777344,-1.1646461486816406,0.33017683029174805,-0.08354425430297852,-0.23835313,6.1907597,6.6216083,0.5604278,-0.15151405,9.049363,1
17,988.2611694335938,1.9119778871536255,0.3324003219604492,-0.3057987689971924,-5.243724822998047,-12.706035614013672,-45.46307373046875,0.3513460159301758,1.639235496520996,1.303086280822754,-0.94101596,6.076363,5.108963,0.079799294,0.39411068,7.9842033,1
17,988.18505859375,1.8644407987594604,0.44052451848983765,-0.06265226006507874,-4.437539577484131,-16.534500122070312,-44.82439422607422,-1.7424026727676392,-0.04323387145996094,0.7232890129089355,0.9230758,7.515864,5.807285,1.8204155,-0.592325,9.348801,1
17,988.18505859375,1.8644407987594604,0.44052451848983765,-0.06265226006507874,-4.673720359802246,-19.390548706054688,-43.08119583129883,-1.5294768810272217,1.331037998199463,-0.6549315452575684,0.4498436,6.9414954,5.2912316,1.0407666,-0.9832492,8.62171,1
17,988.1873168945312,1.8350130319595337,-0.015008840709924698,0.20259849727153778,-4.822017669677734,-22.058610916137695,-41.90142822265625,-1.6071889400482178,0.7644748687744141,1.2405898571014404,0.38767445,7.7732596,3.305146,1.5771692,0.31602144,8.301235,1
17,988.15185546875,1.9645764827728271,0.3142906427383423,-0.2349582463502884,-3.455692768096924,-29.579153060913086,-37.437782287597656,-1.1872494220733643,0.821815013885498,1.520087718963623,-0.1453054,8.009205,2.4695203,1.3252621,0.6807437,8.249076,1
17,988.1187744140625,1.652321457862854,0.27927008271217346,-0.44761136174201965,-2.6599693298339844,-31.679445266723633,-36.20574951171875,-2.3811869621276855,0.6401901245117188,1.6496707201004028,0.7198074,8.512076,1.5202695,2.5611405,0.79678416,8.251696,1
17,988.1337280273438,1.2567094564437866,0.2835310697555542,-0.6614629030227661,-1.5544824600219727,-32.8051872253418,-34.53959655761719,0.4648902416229248,0.977574348449707,1.2052264213562012,-2.2867208,8.011589,2.1310048,-0.2499218,0.901399,8.548734,1
17,988.1463012695312,0.6696164608001709,0.2640899419784546,-1.0004829168319702,0.19566965103149414,-33.32697296142578,-33.47002029418945,-1.3894842863082886,0.4752655029296875,0.09043073654174805,-0.6831284,8.650308,3.1678364,1.1870371,-0.8085296,9.12507,1
17,988.1818237304688,0.5979777574539185,0.3642246425151825,-0.5577325224876404,1.832723617553711,-34.744468688964844,-32.94647979736328,-1.3585186004638672,0.6144561767578125,-0.7944796085357666,-1.366672,8.502546,2.8624644,0.7544949,-0.70029044,9.016381,1
