Timestamp,P,Gx,Gy,Gz,Mx,My,Mz,LiAx,LiAy,LiAz,Ax,Ay,Az,Value,Type
0,990.0549926757812,-0.0012941262684762478,0.001594323432072997,3.49009147612378E-4,9.132919311523438,25.235397338867188,-15.99699592590332,-0.01740643009543419,-0.00890040397644043,0.05926227569580078,0.03888458,-0.13726771,9.759003,0
0,990.0784912109375,0.0020290296524763107,0.001241508754901588,-9.265614789910614E-5,3.5171732902526855,24.40298080444336,-17.007532119750977,-0.007760707288980484,-0.004164695739746094,0.04032707214355469,0.03647566,-0.14918366,9.770837,0
0,990.0784912109375,0.0020290296524763107,0.001241508754901588,-9.265614789910614E-5,3.7759850025177,24.750694274902344,-17.067758560180664,-0.007292544469237328,-0.004198670387268066,0.04506111145019531,0.048406124,-0.13965005,9.761367,0
0,989.8525390625,-7.67103920225054E-4,-6.227321573533118E-4,5.732121644541621E-4,3.8407413959503174,24.284446716308594,-16.896486282348633,0.002143317833542824,-0.00887596607208252,0.05926799774169922,0.031657755,-0.13964957,9.758997,0
0,989.9033203125,-5.0042086513713E-4,8.419455261901021E-4,-2.2557811462320387E-4,3.85125732421875,24.1888427734375,-16.73854637145996,0.006569407880306244,-0.018273398280143738,0.045070648193359375,0.036418557,-0.13726583,9.770831,0
0,989.8901977539062,9.644997189752758E-4,7.087578997015953E-4,5.734480218961835E-4,3.926530361175537,23.626991271972656,-16.409326553344727,0.016371354460716248,5.851984024047852E-4,0.035599708557128906,0.024450034,-0.15156502,9.763728,0
0,989.8901977539062,9.644997189752758E-4,7.087578997015953E-4,5.734480218961835E-4,3.926530361175537,23.626991271972656,-16.409326553344727,-0.0027390867471694946,0.005393818020820618,0.026131629943847656,0.031600714,-0.14918128,9.773196,0
0,989.9121704101562,-3.668963327072561E-4,-6.228514248505235E-4,-3.5857895272783935E-4,3.8097362518310547,24.202972412109375,-17.27186393737793,-0.002564365044236183,0.001241445541381836,0.040345191955566406,0.036361486,-0.15394735,9.777928,0
0,989.911865234375,4.3223454849794507E-4,-2.234071580460295E-4,7.067631231620908E-4,4.2903733253479,23.70468521118164,-17.085817337036133,-0.002465561032295227,0.010468244552612305,0.06874942779541016,0.031562626,-0.15633014,9.756621,0
0,989.9038696289062,-0.001431609271094203,-4.897827166132629E-4,3.074466367252171E-4,3.96862530708313,24.456825256347656,-16.84929084777832,-0.0023761428892612457,-0.01803971827030182,0.03087902069091797,0.024373889,-0.13726345,9.7684555,0
0,989.8988647460938,5.659431335516274E-4,-3.5665452014654875E-4,4.120927769690752E-5,3.2662696838378906,24.69477081298828,-16.90895652770996,-0.016678977757692337,0.0013886988162994385,0.054556846618652344,0.043474108,-0.14441282,9.761353,0
0,989.9061889648438,8.324422524310648E-4,1.7594762903172523E-4,-3.5818599280901253E-4,3.7695987224578857,24.11266326904297,-17.183408737182617,-0.002227218821644783,-0.01773613691329956,0.049823760986328125,0.03867528,-0.1348792,9.77082,0
0,989.8861694335938,-9.947997750714421E-5,4.2759827920235693E-5,-9.17915313038975E-5,3.683779716491699,23.557857513427734,-16.59882926940918,0.0025483742356300354,-0.0034216344356536865,0.04982471466064453,0.03387642,-0.153945,9.766083,0
0,989.8811645507812,3.386143362149596E-5,-6.230596918612719E-4,-2.2487089154310524E-4,3.4190711975097656,24.942737579345703,-16.177167892456055,0.007818758487701416,0.020643308758735657,0.07349967956542969,0.036247283,-0.16347763,9.754246,0
0,989.9007568359375,4.335188423283398E-4,1.7585822206456214E-4,1.7468168516643345E-4,3.5586953163146973,24.38884735107422,-16.474210739135742,-0.0070726703852415085,-0.007835626602172852,0.03089618682861328,0.029058576,-0.14202762,9.768447,0
0,989.8961181640625,0.0010994919575750828,8.416181080974638E-4,-9.155567386187613E-5,4.0144147872924805,23.814979553222656,-16.972761154174805,0.007176371291279793,-0.007621645927429199,0.04036998748779297,0.029039562,-0.13964394,9.75661,0
0,989.8834838867188,3.007274935953319E-4,5.752724828198552E-4,-3.577929164748639E-4,3.4309487342834473,24.32238006591797,-17.220476150512695,-0.021307261660695076,0.006863012909889221,0.026170730590820312,0.045749843,-0.14917663,9.768443,0
0,989.90576171875,-9.856309043243527E-5,-3.5686290357261896E-4,-6.24030246399343E-4,3.6088051795959473,24.751842498779297,-16.503175735473633,-0.0021406952291727066,-0.026392951607704163,0.049846649169921875,0.0360291,-0.134873,9.766062,0
0,989.9364013671875,-3.64356383215636E-4,-3.569477121345699E-4,-3.574905276764184E-4,4.106184005737305,24.269760131835938,-17.167482376098633,-0.006769314408302307,0.0017202645540237427,0.04040050506591797,0.0334695,-0.1539351,9.7565775,0
0,989.9210815429688,-0.001029284787364304,9.752995683811605E-4,-3.527226799633354E-4,3.603398323059082,24.48357391357422,-16.794580459594727,-0.0015290174633264542,-0.012615025043487549,0.04040241241455078,0.03343904,-0.13963458,9.766043,0
0,989.8955688476562,1.694300735834986E-4,-0.0012884329771623015,-8.628086652606726E-5,3.51467227935791,24.03174591064453,-16.754465103149414,-0.015603572130203247,-0.003119915723800659,0.02146434783935547,0.042968214,-0.15155026,9.77551,0
0,989.8930053710938,-3.629080893006176E-4,-6.22691004537046E-4,-8.615510887466371E-5,3.436899185180664,24.222354888916016,-16.83062171936035,-0.005814326927065849,-0.0081348717212677,0.04040050506591797,0.03815794,-0.1443997,9.763671,0
0,989.8905639648438,-6.28930632956326E-4,-6.227386766113341E-4,-4.855032020714134E-4,3.4514377117156982,24.499462127685547,-17.0030460357666,0.003989787772297859,-0.00840875506401062,0.05460166931152344,0.035737634,-0.14916548,9.758933,0
0,989.9033203125,-0.0010281107388436794,3.093192935921252E-4,1.8041234579868615E-4,3.867318868637085,24.46741485595703,-16.988271713256836,0.003931473940610886,-0.0038496404886245728,0.040398597717285156,0.03092736,-0.1491647,9.768399,0
1,989.8857421875,3.744606510736048E-5,1.7611369548831135E-4,-2.189356309827417E-4,3.8488943576812744,23.92352294921875,-17.1845645904541,0.008714128285646439,-0.008501291275024414,0.049872398376464844,0.03328681,-0.14201418,9.754193,0
1,989.90576171875,3.7739897379651666E-5,4.290811193641275E-5,4.750594962388277E-5,3.859708786010742,24.460052490234375,-16.601747512817383,-6.523914635181427E-4,0.01513567566871643,0.0593414306640625,0.033256352,-0.15869635,9.7683935,0
1,989.8980712890625,-9.483107714913785E-5,-6.22976862359792E-4,4.4723134487867355E-4,3.4810593128204346,24.685379028320312,-17.24943733215332,-0.005026845261454582,-0.013454094529151917,0.0404052734375,0.042785496,-0.14201263,9.773126,0
1,989.8980712890625,-9.483107714913785E-5,-6.22976862359792E-4,4.4723134487867355E-4,3.4810593128204346,24.685379028320312,-17.24943733215332,0.01416723057627678,9.54747200012207E-4,0.04987621307373047,0.02841568,-0.14916176,9.763654,0
1,989.9057006835938,1.7177793779410422E-4,-8.89340415596962E-4,-8.842223323881626E-4,3.750929355621338,24.569190979003906,-17.05327796936035,0.004690935835242271,-0.004043057560920715,0.04514122009277344,0.033164978,-0.14916104,9.766019,0
1,989.9386596679688,-9.39508609008044E-5,-2.2364602773450315E-4,-3.5133902565576136E-4,3.477036476135254,24.312667846679688,-16.919076919555664,0.004965521395206451,6.558001041412354E-4,0.049877166748046875,0.023574948,-0.14677694,9.75418,0
1,989.9386596679688,-9.39508609008044E-5,-2.2364602773450315E-4,-3.5133902565576136E-4,3.477036476135254,24.312667846679688,-16.919076919555664,-0.013997919857501984,0.014811411499977112,0.04040718078613281,0.03549403,-0.16107592,9.763646,0
1,989.9386596679688,4.3897450086660683E-4,-6.231674342416227E-4,-8.489727042615414E-5,4.015393257141113,24.18474578857422,-17.14851951599121,-0.01358615979552269,0.010275453329086304,0.03094482421875,0.042633235,-0.15392536,9.773111,0
1,989.9077758789062,-9.336366201750934E-5,-9.058341674972326E-5,-4.8424533451907337E-4,3.3887462615966797,24.598892211914062,-17.153169631958008,0.005134452134370804,-0.003935858607292175,0.04041862487792969,0.030653298,-0.14200819,9.7778425,0
1,989.8851928710938,1.7324546934105456E-4,5.751588032580912E-4,4.851218545809388E-5,4.16444730758667,24.271827697753906,-17.48451805114746,0.009809119626879692,0.005579590797424316,0.05935955047607422,0.033012748,-0.15154055,9.76127,0
1,989.8877563476562,-4.922504303976893E-4,3.087951336055994E-4,-4.8399364459328353E-4,4.076562881469727,24.083839416503906,-16.921083450317383,-0.0044616106897592545,0.005428150296211243,0.045157432556152344,0.035372198,-0.15868965,9.756532,0
1,989.9179077148438,0.0011062318226322532,5.750158452428877E-4,4.888957482762635E-5,3.8739495277404785,24.105018615722656,-17.19904136657715,3.7088803946971893E-4,-0.003699272871017456,0.059370994567871094,0.042511463,-0.15153906,9.763631,0
1,989.9179077148438,0.0011062318226322532,5.750158452428877E-4,4.888957482762635E-5,3.76101016998291,23.735532760620117,-16.621126174926758,-0.013741638511419296,7.445961236953735E-4,0.03569602966308594,0.040091097,-0.14438844,9.765996,0
1,989.9179077148438,0.0011062318226322532,5.750158452428877E-4,4.888957482762635E-5,3.76101016998291,23.735532760620117,-16.621126174926758,6.018057465553284E-4,9.067803621292114E-4,0.04516887664794922,0.042450547,-0.14677098,9.76836,0
1,989.907470703125,-0.0010240020928904414,-4.902954678982496E-4,-2.173004613723606E-4,3.8322901725769043,24.01323699951172,-17.033281326293945,-0.013930955901741982,-0.013368979096412659,0.04990673065185547,0.044809997,-0.144387,9.770724,0
1,989.895263671875,3.078712907154113E-4,3.086045617237687E-4,1.8229908891953528E-4,3.7877249717712402,24.02442169189453,-17.411989212036133,-0.018176976591348648,-0.003656357526779175,0.049910545349121094,0.04238966,-0.15153602,9.751784,0
1,989.9102172851562,1.750064839143306E-4,-4.903906956315041E-4,-8.389097638428211E-5,3.782616138458252,24.388290405273438,-17.278528213500977,-0.017988339066505432,-0.012838765978813171,0.04044914245605469,0.042359203,-0.1396189,9.7636175,0
1,989.9102172851562,8.410898735746741E-4,-4.904383094981313E-4,-2.1692310110665858E-4,3.3858401775360107,24.701858520507812,-17.697641372680664,-0.013038773089647293,-0.0032075047492980957,0.04992103576660156,0.044718623,-0.1372349,9.758882,0
1,989.8949584960938,4.419094475451857E-4,3.0846160370856524E-4,-3.499553131405264E-4,3.502091407775879,24.494163513183594,-16.933557510375977,-0.0052285753190517426,-0.007627472281455994,0.05453205108642578,0.04136926,-0.14918643,9.768479,0
1,989.9074096679688,4.3550916598178446E-4,-8.997316763270646E-5,3.1309144105762243E-4,3.8808786869049072,24.374755859375,-16.984941482543945,-3.7408247590065E-4,-0.007785812020301819,0.03558921813964844,0.031837493,-0.13965389,9.777951,0
1,989.93798828125,-1.392438425682485E-4,-4.509394102569786E-8,-7.675203960388899E-5,3.9918599128723145,24.004718780517578,-17.21134376525879,-8.135288953781128E-5,-0.012536048889160156,0.03558635711669922,0.036645174,-0.1396546,9.763751,0
1,989.88720703125,-6.35458854958415E-6,-0.0010652649216353893,1.8944853218272328E-4,3.660682201385498,24.115886688232422,-16.935861587524414,-0.014328695833683014,-0.00783759355545044,0.0545196533203125,0.031893313,-0.13965532,9.756652,0
1,989.90478515625,-4.060975625179708E-4,4.226120609018835E-8,8.551229257136583E-4,3.480623245239258,23.94732666015625,-16.975236892700195,-0.005198884755373001,-0.0030843019485473633,0.03084564208984375,0.036701024,-0.14918914,9.766124,0
1,989.90478515625,-6.89277658239007E-6,3.995597071480006E-4,-7.70978513173759E-5,3.7931318283081055,24.292686462402344,-17.12058448791504,-0.009749770164489746,-0.012485414743423462,0.03557872772216797,0.041508734,-0.14203998,9.782697,0
1,989.9125366210938,-7.161695975810289E-6,5.32761390786618E-4,3.2226069015450776E-4,3.5171732902526855,24.40298080444336,-17.007532119750977,0.013899743556976318,-0.007850706577301025,0.045044898986816406,0.02958715,-0.14680716,9.759027,0
2,989.9197998046875,-1.405884395353496E-4,3.996470768470317E-4,-4.7680229181423783E-4,3.550381660461426,24.223548889160156,-17.310083389282227,0.0041628554463386536,-0.007860556244850159,0.030838966369628906,0.03439483,-0.14919117,9.773232,0
2,989.897216796875,-7.699534762650728E-6,2.6653276290744543E-4,5.5714219342917204E-5,3.6189160346984863,25.130443572998047,-17.14275550842285,-0.01500498503446579,0.0065765827894210815,0.030839920043945312,0.03920254,-0.14919189,9.770867,0
2,989.897216796875,-1.411265111528337E-4,-5.323711666278541E-4,-2.107168547809124E-4,3.6742422580718994,24.02322769165039,-16.932527542114258,0.004078362137079239,-0.02225862443447113,0.04030132293701172,0.029670835,-0.1372762,9.766135,0
2,989.8770751953125,-4.0771131170913577E-4,0.0011987255420535803,-4.7714804532006383E-4,3.3286631107330322,23.963207244873047,-17.18370246887207,-8.788816630840302E-4,-0.026942908763885498,0.05450248718261719,0.03925836,-0.1372768,9.763772,0
2,989.8998413085938,1.2465164763852954E-4,-1.328100624959916E-4,-3.4410535590723157E-4,3.687802314758301,23.93056869506836,-16.9291934967041,-0.010392632335424423,-0.017580360174179077,0.04976177215576172,0.0345065,-0.14919391,9.754305,0
2,989.8641967773438,-4.082491504959762E-4,1.335494889644906E-4,5.878849769942462E-4,3.748673677444458,23.19753074645996,-17.12663459777832,-0.010398343205451965,-0.012884572148323059,0.04029083251953125,0.036924303,-0.14442804,9.759042,0
2,989.8916015625,-5.416761268861592E-4,7.993828621692955E-4,-0.0010101257357746363,3.8397626876831055,23.914684295654297,-16.720727920532227,-0.02012449875473976,0.010644674301147461,0.05448627471923828,0.048901677,-0.163495,9.76378,0
2,989.8916015625,-9.313516784459352E-6,-3.9899497642181814E-4,-4.776091664098203E-4,3.6139140129089355,24.387969970703125,-16.63663673400879,0.003956697881221771,-0.013091877102851868,0.035546302795410156,0.029810369,-0.14204606,9.766149,0
2,989.8839721679688,-1.4274002751335502E-4,-5.321092321537435E-4,-6.108822417445481E-4,3.6266331672668457,24.03146743774414,-17.156625747680664,0.0038495436310768127,-0.0034470856189727783,0.054485321044921875,0.039397895,-0.15157989,9.761416,0
2,989.8839721679688,2.564647584222257E-4,4.000400076620281E-4,5.479220999404788E-5,3.8058509826660156,23.93617820739746,-17.640573501586914,-0.010428816080093384,0.005990132689476013,0.045012474060058594,0.03942579,-0.1539639,9.763785,0
2,989.8690185546875,1.2303778203204274E-4,1.3376778224483132E-4,1.8783481209538877E-4,4.156837463378906,24.26446533203125,-17.097993850708008,-0.00553547590970993,0.0010494738817214966,0.054474830627441406,0.027504206,-0.1563479,9.756688,0
2,989.8966674804688,-4.0986313251778483E-4,-5.319782067090273E-4,-2.1175428992137313E-4,4.019958972930908,24.189163208007812,-17.380434036254883,0.008761446923017502,-0.008339345455169678,0.040271759033203125,0.029922009,-0.14681542,9.766158,0
2,989.9015502929688,2.556577674113214E-4,-1.3246078742668033E-4,4.539201909210533E-4,3.6973700523376465,24.677459716796875,-17.6672306060791,-0.010551277548074722,-0.0035741478204727173,0.045004844665527344,0.041899383,-0.15634921,9.773263,0
2,989.8837280273438,-5.435586790554225E-4,2.67056719167158E-4,-3.451427328400314E-4,3.59494686126709,24.21236801147461,-16.93137550354004,-0.0057997070252895355,0.001084357500076294,0.059203147888183594,0.0395374,-0.15158334,9.763797,0
2,989.8837280273438,-1.4435389311984181E-4,4.0025837370194495E-4,-3.452581004239619E-4,3.3926315307617188,24.865684509277344,-16.784456253051758,-9.628757834434509E-4,0.010153263807296753,0.030786514282226562,0.03478551,-0.16111717,9.778003,0
2,989.865966796875,-8.104127482511103E-4,1.339861046290025E-4,4.5357432099990547E-4,3.648942232131958,24.84215545654297,-16.591623306274414,-0.005681339651346207,0.019592642784118652,0.040251731872558594,0.041983128,-0.15635133,9.768537,0
2,989.865966796875,5.208978545852005E-4,-2.654440759215504E-4,-7.917266339063644E-5,3.6706552505493164,24.388572692871094,-16.876367568969727,-0.0010409839451313019,-0.027655094861984253,0.026052474975585938,0.027671635,-0.13490242,9.7709055,0
2,989.8756713867188,3.874709946103394E-4,9.330210741609335E-4,-2.1244591334834695E-4,3.505678653717041,24.128822326660156,-16.989717483520508,-0.010676264762878418,-0.0037026703357696533,0.044989585876464844,0.041365862,-0.14203647,9.766112,0
2,989.88818359375,-1.4542980352416635E-4,-7.979884976521134E-4,-2.1256116451695561E-4,3.7470450401306152,24.302398681640625,-17.4219913482666,0.02885466068983078,-0.008760720491409302,0.040373802185058594,0.023950517,-0.14440289,9.775518,0
2,989.9193725585938,-9.331214823760092E-4,3.9860568358562887E-4,-7.457920582965016E-5,3.806692123413086,24.200027465820312,-17.11725425720215,-0.02385234273970127,0.010124891996383667,0.03563976287841797,0.043043077,-0.15631863,9.7660475,0
2,989.9168701171875,2.671701950021088E-4,9.309339220635593E-4,4.5885410509072244E-4,3.390810966491699,24.232070922851562,-17.132028579711914,0.014106860384345055,6.215721368789673E-4,0.040378570556640625,0.026287168,-0.14440161,9.77078,0
2,989.9168701171875,1.1112424544990063E-6,2.6510245515964925E-4,3.258061478845775E-4,3.244694709777832,25.2542724609375,-17.32328987121582,-0.004744620993733406,-0.023149162530899048,0.03564739227294922,0.035820127,-0.1396344,9.775512,0
2,989.922607421875,1.3679382391273975E-6,-6.670447182841599E-4,5.960033740848303E-5,3.8458502292633057,23.920576095581055,-17.029951095581055,-0.023582488298416138,4.361867904663086E-4,0.04511451721191406,0.03818339,-0.1563167,9.761306,0
2,989.922607421875,1.3679382391273975E-6,-6.670447182841599E-4,5.960033740848303E-5,3.8458502292633057,23.920576095581055,-17.029951095581055,-0.009439468383789062,-0.008967220783233643,0.0640554428100586,0.03576684,-0.13963309,9.758937,0
2,989.9121704101562,-9.304809500463307E-4,-5.339285125955939E-4,-7.344753248617053E-5,3.380157709121704,24.221759796142578,-16.590890884399414,0.0048064906150102615,3.364831209182739E-4,0.03564929962158203,0.026180625,-0.15154883,9.770769,0
3,989.8912963867188,1.3529608258977532E-4,1.3177780783735216E-4,8.588780183345079E-4,3.7841382026672363,24.38976287841797,-17.355833053588867,0.009423013776540756,-0.0038833171129226685,0.04986381530761719,0.030933797,-0.14678162,9.777869,0
3,989.8912963867188,1.3529608258977532E-4,1.3177780783735216E-4,8.588780183345079E-4,3.7841382026672363,24.38976287841797,-17.355833053588867,-0.0050713904201984406,-0.008677765727043152,0.016724586486816406,0.026127338,-0.14916426,9.792069,0
3,989.90087890625,9.345004218630493E-4,5.312100402079523E-4,4.595142381731421E-4,4.512933254241943,24.22887420654297,-16.688879013061523,0.004564544185996056,0.006009846925735474,0.04987335205078125,0.03327042,-0.15631345,9.770762,0
3,989.8930053710938,9.35013813432306E-4,2.6481071836315095E-4,-7.289747009053826E-5,4.3345561027526855,24.5880126953125,-15.681612014770508,0.004460543394088745,0.005916818976402283,0.021470069885253906,0.023684174,-0.1539295,9.78733,0
3,989.90283203125,4.0263886330649257E-4,1.3161111564841121E-4,1.9352842355147004E-4,4.295803546905518,24.393253326416016,-14.971384048461914,-0.005554648116230965,0.010710284113883972,0.05935096740722656,0.037996918,-0.16346195,9.761289,0
3,989.8573608398438,2.6973761850968003E-4,0.001329990802332759,6.048055365681648E-5,4.6460862159729,24.56360626220703,-15.651205062866211,-0.005653049796819687,-0.0036852508783340454,0.03567790985107422,0.03319049,-0.14439508,9.770755,0
3,989.8927612304688,1.3683649012818933E-4,-1.3478814798872918E-4,6.059059523977339E-5,3.945390462875366,24.90894317626953,-16.487245559692383,0.004459075629711151,0.010698586702346802,0.026212692260742188,0.03794369,-0.15869412,9.775487,0
3,989.8900756835938,-1.2922269525006413E-4,-6.674616015516222E-4,6.0700607718899846E-5,3.7253313064575195,24.75598907470703,-17.13724708557129,0.004402667284011841,0.0013284087181091309,0.045154571533203125,0.033137232,-0.15154362,9.77075,0
3,989.8468627929688,4.527122073341161E-4,3.765147994272411E-6,7.084449753165245E-4,3.9102015495300293,23.928539276123047,-17.656206130981445,-0.005040368065237999,-0.008169710636138916,0.06409454345703125,0.03072071,-0.15154296,9.76838,0
3,989.872314453125,5.349519778974354E-5,3.7234858609735966E-6,0.0011080288095399737,3.6342434883117676,24.038829803466797,-17.543149948120117,-0.0052520353347063065,0.0011577457189559937,0.04515647888183594,0.030694008,-0.14677575,9.766011,0
3,989.9024658203125,-6.120378384366632E-4,6.694715120829642E-4,-2.2344058379530907E-4,3.619704008102417,23.76172637939453,-17.370729446411133,-0.00949193350970745,0.015359804034233093,0.04042243957519531,0.040226996,-0.15392488,9.775477,0
3,989.8648071289062,5.400870577432215E-5,-7.95307569205761E-4,-7.559624500572681E-4,3.9146299362182617,23.82703971862793,-17.189043045043945,-0.004604386165738106,0.005842804908752441,0.0356903076171875,0.03303066,-0.16107413,9.768373,0
3,989.8648071289062,-3.4520853660069406E-4,3.598397597670555E-6,-7.558523211628199E-4,4.122788429260254,24.180042266845703,-17.318761825561523,-0.009617462754249573,-0.008799731731414795,0.04989147186279297,0.03778383,-0.14200717,9.773105,0
3,989.8798828125,-6.112675182521343E-4,2.698726311791688E-4,4.3205422116443515E-5,3.210209369659424,24.43179702758789,-17.269853591918945,8.679740130901337E-5,-0.008677884936332703,0.049895286560058594,0.028197587,-0.14438984,9.756532,0
3,989.9254150390625,7.205684669315815E-4,5.361468065530062E-4,3.096313157584518E-4,3.3841805458068848,24.594467163085938,-16.9212589263916,0.009241148829460144,-0.01290920376777649,0.045174598693847656,0.030560851,-0.1372393,9.761264,0
3,989.8779907226562,7.208252791315317E-4,-1.2968455848749727E-4,7.092151790857315E-4,3.325756788253784,24.066177368164062,-17.728166580200195,0.009471841156482697,-0.012831777334213257,0.0499114990234375,0.0281443,-0.14915511,9.763629,0
3,989.8779907226562,4.5476635568775237E-4,-3.960421308875084E-4,-4.890962736681104E-4,3.4731507301330566,24.045879364013672,-17.28778648376465,-0.009053809568285942,0.006035283207893372,0.02150249481201172,0.037677288,-0.14200458,9.782564,0
3,989.8697509765625,-6.102406186982989E-4,-9.287155698984861E-4,3.0996149871498346E-4,3.3426589965820312,24.608600616455078,-17.45457649230957,0.00994950532913208,-0.003914311528205872,0.016737937927246094,0.028234124,-0.14439073,9.777841,0
3,989.8697509765625,-0.0011432967148721218,-5.291728302836418E-4,4.3463718611747026E-5,3.6823949813842773,23.66230010986328,-17.220598220825195,0.02448747307062149,-0.003948390483856201,0.049877166748046875,0.025969237,-0.14439383,9.770751,0
3,989.8720092773438,-6.137382006272674E-4,-0.0015935651026666164,1.7931906040757895E-4,3.960174083709717,24.18561553955078,-16.986093521118164,-0.008503291755914688,-0.008627206087112427,0.054615020751953125,0.04746312,-0.14439341,9.768381,0
3,989.8639526367188,5.234495620243251E-5,-0.001194138778373599,-2.2002897458150983E-4,3.5123090744018555,23.76642608642578,-17.20048713684082,0.0063711367547512054,-0.022857666015625,0.03567790985107422,0.021159023,-0.13247666,9.763646,0
3,989.8639526367188,5.234495620243251E-5,-0.001194138778373599,-2.2002897458150983E-4,3.5123090744018555,23.76642608642578,-17.20048713684082,0.006302483379840851,0.00568021833896637,0.026208877563476562,0.040262997,-0.1563091,9.770746,0
3,989.8814697265625,-3.4683538251556456E-4,1.3739298447035253E-4,3.1272851629182696E-4,3.9237616062164307,23.835878372192383,-17.65287208557129,0.0016345866024494171,-0.013566851615905762,0.04041004180908203,0.028298259,-0.14677557,9.773112,0
3,989.8814697265625,-3.4683538251556456E-4,1.3739298447035253E-4,3.1272851629182696E-4,3.9237616062164307,23.835878372192383,-17.65287208557129,-0.003127235919237137,0.010191142559051514,0.059348106384277344,0.035452724,-0.15869161,9.749438,0
4,989.8483276367188,1.8608986283652484E-4,6.699771620333195E-4,-8.661951869726181E-5,3.620682716369629,24.131492614746094,-17.546480178833008,0.006359722465276718,-0.003942042589187622,0.045149803161621094,0.033047646,-0.14200827,9.770741,0
4,989.9068603515625,5.3078605560585856E-5,8.031113538891077E-4,-0.0010186622384935617,3.952702045440674,24.284168243408203,-17.298643112182617,-0.0034787654876708984,-0.0040726810693740845,0.04041576385498047,0.035422295,-0.14915773,9.7707405,0
4,989.9068603515625,5.3078605560585856E-5,8.031113538891077E-4,-0.0010186622384935617,3.952702045440674,24.284168243408203,-17.298643112182617,-0.003354150801897049,-0.018362849950790405,0.035681724548339844,0.035407066,-0.1420075,9.782575,0
4,989.9068603515625,-4.794064734596759E-4,-7.948079146444798E-4,-2.1965167252346873E-4,3.9850683212280273,23.840896606445312,-18.124521255493164,0.0062648095190525055,0.014817625284194946,0.04041481018066406,0.030612022,-0.15630683,9.763637,0
4,989.8645629882812,7.193086203187704E-4,2.7040790882892907E-4,-2.1952588576823473E-4,3.1591200828552246,23.69904327392578,-17.065134048461914,0.001473061740398407,0.010349631309509277,0.04989051818847656,0.0329867,-0.15153989,9.756534,0
4,989.8645629882812,7.193086203187704E-4,2.7040790882892907E-4,-2.1952588576823473E-4,3.1591200828552246,23.69904327392578,-17.065134048461914,-0.0030775703489780426,-0.008840993046760559,0.03568553924560547,0.030581623,-0.14438966,9.766,0
4,989.8645629882812,7.193086203187704E-4,2.7040790882892907E-4,-2.1952588576823473E-4,3.831747055053711,24.381526947021484,-17.131731033325195,0.0017419829964637756,-0.004193469882011414,0.03568458557128906,0.028176457,-0.1467726,9.770734,0
4,989.8743286132812,-2.126503095496446E-4,-0.0013275111559778452,-8.630502270534635E-5,3.1475179195404053,24.531227111816406,-17.41997718811035,-0.002767004072666168,-0.008849918842315674,0.026218414306640625,0.042500645,-0.15153882,9.7802,0
4,989.9263916015625,5.3959054639562964E-5,-9.280849481001496E-4,-2.1933723473921418E-4,3.418910503387451,24.416515350341797,-17.301118850708008,-0.007671676576137543,0.019520863890647888,0.06409072875976562,0.0472652,-0.1658381,9.763629,0
4,989.9263916015625,5.3959054639562964E-5,-9.280849481001496E-4,-2.1933723473921418E-4,3.418910503387451,24.416515350341797,-17.301118850708008,-0.007526785135269165,-0.00922277569770813,0.03094959259033203,0.0376904,-0.13962165,9.765995,0
4,989.8668212890625,5.425253766588867E-5,1.3713090447708964E-4,3.1342028523795307E-4,3.738050937652588,24.39947509765625,-17.657236099243164,-0.007585454732179642,0.005173280835151672,0.040421485900878906,0.035285294,-0.15153769,9.773095,0
4,989.8668212890625,5.425253766588867E-5,1.3713090447708964E-4,3.1342028523795307E-4,3.738050937652588,24.39947509765625,-17.657236099243164,0.011402532458305359,-0.00880439579486847,0.02148914337158203,0.023320556,-0.14677069,9.775461,0
4,989.8631591796875,1.8770384485833347E-4,5.365571705624461E-4,5.798619240522385E-4,3.8603897094726562,24.197677612304688,-17.202375411987305,0.006067462265491486,-0.0045044273138046265,0.03095722198486328,0.028085083,-0.1443871,9.775459,0
4,989.8804931640625,-0.0011437287321314216,8.028491865843534E-4,5.799248465336859E-4,3.794654130935669,24.294158935546875,-17.197885513305664,-0.007785830646753311,0.009850472211837769,0.04042530059814453,0.040019453,-0.15391985,9.763622,0
4,989.8623657226562,-7.831855327822268E-5,-7.950699655339122E-4,-3.52117873262614E-4,3.8257970809936523,24.481548309326172,-17.52159309387207,-0.0030954331159591675,-0.004532411694526672,0.026223182678222656,0.037614286,-0.1396198,9.78019,0
4,989.870361328125,1.881440111901611E-4,1.3701184070669115E-4,-2.1889706840738654E-4,3.4393997192382812,24.593597412109375,-17.083681106567383,-0.01244845986366272,-0.009327977895736694,0.02622222900390625,0.039988935,-0.13961938,9.768353,0
4,989.8623657226562,-7.80251866672188E-5,1.3698800466954708E-4,3.1379758729599416E-4,3.5452725887298584,24.587425231933594,-17.17662239074707,0.0023603253066539764,0.005046963691711426,0.0309600830078125,0.039973736,-0.15391871,9.775454,0
4,989.8623657226562,-7.787827053107321E-5,-0.0013277732068672776,4.754459951072931E-5,3.6110081672668457,24.490943908691406,-17.181108474731445,0.007073547691106796,3.941655158996582E-4,0.045165061950683594,0.03756863,-0.14676851,9.768352,0
4,989.9462890625,1.8858429393731058E-4,5.364142125472426E-4,-4.8502435674890876E-4,4.098711967468262,24.368309020996094,-17.48003578186035,0.0012878775596618652,-0.004246070981025696,0.049839019775390625,0.033477664,-0.14916864,9.7660475,0
4,989.9462890625,-8.261160110123456E-5,5.372064188122749E-4,4.5516062527894974E-5,4.087216854095459,24.094154357910156,-17.462221145629883,0.001120883971452713,-0.004377782344818115,0.04510307312011719,0.031100452,-0.13486934,9.761313,0
4,989.9503784179688,5.81414089538157E-4,4.043347726110369E-4,5.773917655460536E-4,3.5051355361938477,24.497108459472656,-17.088167190551758,0.0011901184916496277,-0.003877103328704834,0.03563880920410156,0.043062627,-0.13963616,9.77315,0
4,989.932861328125,3.149759431835264E-4,4.880799679085612E-6,-8.84503242559731E-5,3.4856252670288086,24.689796447753906,-17.481355667114258,-0.023021310567855835,0.0010948926210403442,0.04037666320800781,0.050245076,-0.1491696,9.770785,0
4,989.8908081054688,1.0247333557344973E-4,0.001292360364459455,-5.487330490723252E-4,3.550924062728882,23.85526466369629,-17.211633682250977,-0.008685987442731857,-0.003485053777694702,0.054581642150878906,0.04069814,-0.14440337,9.756583,0
4,989.892333984375,1.023508666548878E-4,-4.386731015983969E-4,5.164779722690582E-4,4.133304119110107,24.08443832397461,-17.16082191467285,-0.01318669319152832,-0.00829729437828064,0.05457878112792969,0.043100744,-0.14440367,9.756584,0
4,989.8705444335938,1.0222874698229134E-4,-4.386533400975168E-4,2.5010976241901517E-4,4.061618804931641,24.28094482421875,-17.54619026184082,0.005941208451986313,-0.0036080926656723022,0.03563880920410156,0.026384115,-0.15155381,9.763686,0
5,989.8672485351562,2.3526445147581398E-4,3.603142104111612E-4,7.826891378499568E-4,3.8793563842773438,24.37328338623047,-16.90763282775879,-0.0036234669387340546,-0.013136833906173706,0.03090381622314453,0.033566475,-0.14440432,9.766055,0
5,989.8700561523438,-4.306473711039871E-4,-7.049295236356556E-4,-1.494688040111214E-4,3.9381630420684814,24.007064819335938,-17.126218795776367,0.0058652907609939575,0.001087099313735962,0.035635948181152344,0.028799355,-0.1515544,9.770791,0
5,989.874267578125,-3.12957854475826E-5,0.0010261435527354479,-1.636322122067213E-5,3.566006660461426,23.764076232910156,-17.285608291625977,9.227544069290161E-4,-0.00822998583316803,0.0593109130859375,0.035981715,-0.14440492,9.766057,0
5,989.84912109375,1.0173991904594004E-4,9.405783202964813E-5,7.825320353731513E-4,3.7690560817718506,24.48094940185547,-17.281862258911133,-0.0087948739528656,0.0011876225471496582,0.05930900573730469,0.03599441,-0.15632161,9.756589,0
5,989.8739624023438,3.679335641209036E-4,-1.7223820032086223E-4,2.4984791525639594E-4,3.6417150497436523,23.94028091430664,-17.230600357055664,-0.013320021331310272,0.019937023520469666,0.03089618682861328,0.040786862,-0.1610885,9.766059,0
5,989.8565063476562,-5.642942851409316E-4,-4.385342472232878E-4,-4.159942327532917E-4,3.746363878250122,24.564773559570312,-16.821359634399414,-0.01808452606201172,0.015106752514839172,0.054564476013183594,0.04079956,-0.15632227,9.754225,0
5,989.8609619140625,-3.178472979925573E-5,4.935911274515092E-4,1.1658522998914123E-4,3.7755494117736816,24.012636184692383,-16.793550491333008,-0.013347581028938293,-0.008475884795188904,0.035628318786621094,0.038422406,-0.13725632,9.777898,0
5,989.8588256835938,3.675666230265051E-4,-3.902070238837041E-5,-4.1609900654293597E-4,3.4875519275665283,24.217063903808594,-16.761133193969727,-0.008569106459617615,-0.0035748183727264404,0.04510021209716797,0.05038458,-0.14678973,9.780266,0
5,989.8588256835938,-1.6518760821782053E-4,6.26788882073015E-4,1.1648025247268379E-4,3.3496949672698975,23.77199935913086,-16.867815017700195,0.005468916147947311,0.0010257363319396973,0.040363311767578125,0.03366795,-0.15393993,9.76133,0
5,989.8453369140625,1.0100603685714304E-4,4.936507320962846E-4,-1.673007500357926E-5,3.526167631149292,24.30590057373047,-16.77228355407715,5.059763789176941E-4,-0.004081264138221741,0.04509162902832031,0.033680618,-0.14202377,9.761331,0
5,989.8630981445312,-2.985899045597762E-4,3.6051266943104565E-4,6.490072701126337E-4,3.5534253120422363,24.22650146484375,-17.464696884155273,-0.009282313287258148,-0.013236790895462036,0.03562641143798828,0.028913498,-0.14917397,9.7637,0
5,989.8630981445312,3.6707756225951016E-4,6.268483120948076E-4,1.1632314999587834E-4,3.9381625652313232,24.00706672668457,-17.126222610473633,-0.0050026848912239075,-0.0037399381399154663,0.030893325805664062,0.036095887,-0.15394083,9.780271,0
5,989.878173828125,-9.64623992331326E-4,0.0012926578056067228,-2.8320311685092747E-4,3.4135031700134277,24.14824676513672,-17.5925235748291,0.01870208978652954,-0.0038274675607681274,0.04509449005126953,0.026548952,-0.15155783,9.7731695,0
5,989.8731689453125,1.0051732533611357E-4,-4.383755149319768E-4,3.825342864729464E-4,3.4234766960144043,24.42093276977539,-17.533029556274414,0.004748769104480743,-0.008548825979232788,0.04509258270263672,0.02417174,-0.13964179,9.758968,0
5,989.8731689453125,1.0051732533611357E-4,-4.383755149319768E-4,3.825342864729464E-4,3.712451934814453,24.586273193359375,-17.7412052154541,-0.004818279296159744,0.010614320635795593,0.045093536376953125,0.024184406,-0.15632507,9.756602,0
5,989.8703002929688,-1.6604291158728302E-4,-5.714937578886747E-4,-4.1651810170151293E-4,3.5409514904022217,23.582576751708984,-17.271127700805664,-3.018137067556381E-4,0.0056539177894592285,0.045088768005371094,0.026587069,-0.15632537,9.780275,0
5,989.8703002929688,-1.6604291158728302E-4,-5.714937578886747E-4,-4.1651810170151293E-4,3.5409514904022217,23.582576751708984,-17.271127700805664,-0.0051980651915073395,9.550303220748901E-4,0.05929279327392578,0.040939152,-0.15870899,9.763705,0
5,989.8477172851562,-1.6616538050584495E-4,6.269475561566651E-4,-1.7096783267334104E-5,3.6963913440704346,24.307693481445312,-17.49147605895996,0.013874858617782593,8.394718170166016E-4,0.04982185363769531,0.030555964,-0.15153888,9.768365,0
5,989.8499755859375,-2.994457900058478E-4,9.433572995476425E-5,1.1600868310779333E-4,4.375213146209717,23.889728546142578,-17.494638442993164,0.0010189022868871689,9.401887655258179E-4,0.049979209899902344,0.027292132,-0.15390074,9.765918,0
5,989.8499755859375,-3.1257368391379714E-5,8.929793839342892E-4,-2.826625423040241E-4,3.4885308742523193,24.586830139160156,-16.936891555786133,-0.013553488999605179,-0.013615712523460388,0.0405120849609375,0.027237535,-0.13721648,9.768281,0
5,989.863037109375,5.142869194969535E-4,4.928198759444058E-4,-5.709589459002018E-6,3.6426939964294434,24.310043334960938,-17.406354904174805,0.005616554990410805,-0.01814281940460205,0.026317596435546875,0.029572904,-0.13721511,9.761174,0
5,989.8577270507812,-1.7819227650761604E-5,7.590504828840494E-4,0.0010597791988402605,3.88240122795105,24.37622833251953,-17.06224250793457,-0.0038696974515914917,-0.003852546215057373,0.049994468688964844,0.029518396,-0.14913014,9.7730055,0
5,989.8322143554688,-0.0010820309398695827,-5.72699645999819E-4,-2.7134944684803486E-4,3.84751033782959,24.027963638305664,-17.806333541870117,0.005749020725488663,-0.0037694722414016724,0.04053211212158203,0.02707392,-0.15389541,9.775367,0
5,989.8369140625,3.832317888736725E-4,4.924784880131483E-4,-1.37966126203537E-4,3.9063162803649902,23.661745071411133,-18.024919509887695,-0.003940906375646591,-0.013093128800392151,0.04527568817138672,0.043748707,-0.13721108,9.770627,0
6,989.8369140625,9.163895156234503E-4,-4.023861765745096E-5,-2.708988031372428E-4,3.7069077491760254,24.21208953857422,-17.33353614807129,-0.008238604292273521,0.0060894787311553955,0.026343345642089844,0.029354751,-0.14912617,9.768255,0
6,989.8871459960938,-1.5190220437943935E-5,-8.392716408707201E-4,-1.3751548249274492E-4,3.1930623054504395,24.88980484008789,-17.21702766418457,0.01094433106482029,0.0011741966009140015,0.031080245971679688,0.02213049,-0.15389135,9.765883,0
6,989.8871459960938,-4.141384270042181E-4,-3.067251527681947E-4,-8.030798053368926E-4,3.7401156425476074,24.03266143798828,-17.63608741760254,0.0016479864716529846,-0.008468493819236755,0.04528522491455078,0.03641534,-0.14912352,9.775348,0
6,989.8564453125,-5.467705195769668E-4,-7.062843069434166E-4,-3.906927304342389E-6,4.099254608154297,24.000022888183594,-17.3815860748291,0.0019246935844421387,0.010811403393745422,0.03109264373779297,0.031580985,-0.14912215,9.768241,0
6,989.8564453125,9.184925584122539E-4,-4.0580005588708445E-5,2.626342757139355E-4,4.1900458335876465,24.085037231445312,-17.40055274963379,0.006789421662688255,-0.008139476180076599,0.050037384033203125,0.024356753,-0.14673749,9.761134,0
6,989.851318359375,2.5322847068309784E-4,-1.73823325894773E-4,-1.3661431148648262E-4,3.9078378677368164,23.663217544555664,-18.10222053527832,-0.0026992447674274445,-0.007988139986991882,0.03583812713623047,0.031471908,-0.14435291,9.763495,0
6,989.851318359375,3.8691237568855286E-4,-3.070665698032826E-4,-1.3638893142342567E-4,3.8603897094726562,24.197677612304688,-17.20237159729004,0.00674777664244175,0.011044904589653015,0.035843849182128906,0.029027462,-0.15865123,9.770593,0
6,989.8461303710938,-1.4519377145916224E-4,3.586378297768533E-4,-3.0056398827582598E-6,3.649080276489258,24.948074340820312,-17.29070472717285,0.002229548990726471,-0.008351042866706848,0.026376724243164062,0.024193078,-0.15150008,9.784791,0
6,989.8486328125,-6.772996857762337E-4,-4.0921378968050703E-5,-1.359382295049727E-4,4.108386993408203,24.00885772705078,-17.845415115356445,0.0073152706027030945,-0.0033416002988815308,0.059523582458496094,0.028918326,-0.14911544,9.76348,0
6,989.866455078125,5.216475110501051E-4,-0.001239428180269897,-2.554996171966195E-6,3.6433749198913574,24.04766845703125,-18.006982803344727,-0.007027667015790939,0.0014052987098693848,0.04532432556152344,0.028863788,-0.14911416,9.761109,0
6,989.8511962890625,3.7110946141183376E-4,2.8319412376731634E-4,0.001169753959402442,3.7756869792938232,24.118553161621094,-17.49262809753418,-0.007211113348603249,0.01084524393081665,0.045330047607421875,0.026419342,-0.1562626,9.75637,0
6,989.8662719726562,1.0531931184232235E-4,0.0014815302565693855,1.0471581481397152E-4,3.8022639751434326,24.301525115966797,-17.584413528442383,0.016998279839754105,0.0015304982662200928,0.035869598388671875,0.023974895,-0.14911142,9.777669,0
6,989.8790283203125,1.0584515985101461E-4,-0.0011817138874903321,-9.603223879821599E-4,3.808213949203491,24.201499938964844,-17.19455909729004,-0.001984488219022751,-0.0031024813652038574,0.05007743835449219,0.035869837,-0.14911011,9.77293,0
6,989.8662719726562,1.0637089144438505E-4,-3.8285163464024663E-4,-2.7991423849016428E-5,3.7695987224578857,24.11266326904297,-17.183408737182617,0.002431873232126236,-0.0030604153871536255,0.04535102844238281,0.023865819,-0.14672545,9.775292,0
6,989.8513793945312,-2.925773151218891E-4,9.486423223279417E-4,-1.6092410078272223E-4,3.7967190742492676,23.92734146118164,-17.17674446105957,-0.012454379349946976,-0.012481793761253357,0.026424407958984375,0.030981004,-0.14195761,9.777654,0
6,989.8513793945312,5.068962927907705E-4,0.0012148729292675853,6.382488645613194E-4,3.518397092819214,23.77231788635254,-17.509706497192383,0.0017459671944379807,0.001778826117515564,0.04062938690185547,0.021366775,-0.14910606,9.758712,0
6,989.8506469726562,3.742639673873782E-4,6.821557763032615E-4,3.721582761500031E-4,3.6677494049072266,24.491539001464844,-17.420839309692383,0.016092495992779732,-0.0071573406457901,0.045379638671875,0.018922359,-0.14195493,9.76344,0
6,989.8508911132812,5.079476395621896E-4,-1.1687717051245272E-4,2.3922568652778864E-4,3.5173110961914062,24.508899688720703,-17.706605911254883,-0.0080767422914505,0.002267688512802124,0.059586524963378906,0.0403769,-0.15863654,9.76817,0
6,989.8508911132812,1.0899954941123724E-4,5.488272290676832E-4,6.389248883351684E-4,3.8358774185180664,23.647891998291016,-17.089441299438477,0.01557203009724617,-0.0026476234197616577,0.05954170227050781,0.024101019,-0.144348,9.765845,0
6,989.853271484375,2.3614297970198095E-4,0.0012166122905910015,3.7704696296714246E-4,3.5944042205810547,24.580657958984375,-17.02982521057129,0.024613892659544945,-0.0026490241289138794,0.0690164566040039,0.014507145,-0.1443471,9.756373,0
6,989.853271484375,2.3614297970198095E-4,0.0012166122905910015,3.7704696296714246E-4,3.5944042205810547,24.580657958984375,-17.02982521057129,-0.008331390097737312,0.006829813122749329,0.026406288146972656,0.024032474,-0.15626267,9.775308,0
6,989.84814453125,3.6963107413612306E-4,-0.0010471262503415346,-2.2285414161160588E-5,3.4539389610290527,24.870697021484375,-17.256105422973633,-0.00346379354596138,0.006721675395965576,0.045345306396484375,0.028778017,-0.15864512,9.763468,0
6,989.83544921875,3.7029138184152544E-4,-0.0011803911766037345,-1.551603781990707E-4,3.9993324279785156,23.906166076660156,-16.89879035949707,0.02118435874581337,-0.007522642612457275,-0.030401229858398438,0.009624541,-0.1443446,9.796605,0
6,989.83544921875,3.7029138184152544E-4,-0.0011803911766037345,-1.551603781990707E-4,3.9993324279785156,23.906166076660156,-16.89879035949707,-0.021808994933962822,-0.04048870503902435,0.09270000457763672,0.043048978,-0.13004413,9.75636,0
6,989.83544921875,3.7029138184152544E-4,-0.0011803911766037345,-1.551603781990707E-4,3.682831048965454,24.400352478027344,-17.49480628967285,-0.027118125930428505,0.02598699927330017,0.016950607299804688,0.03584504,-0.15625936,9.77056,0
7,989.853271484375,3.7062130286358297E-4,1.797662116587162E-5,5.107708275318146E-4,3.727940082550049,24.020877838134766,-17.017648696899414,-0.013446502387523651,-0.002480447292327881,0.026427268981933594,0.028641075,-0.14434204,9.770557,0
7,989.8659057617188,7.704254239797592E-4,0.0016158182406798005,7.772281533107162E-4,4.035882472991943,24.36182403564453,-16.931081771850586,4.5073404908180237E-4,-0.0024159103631973267,0.045371055603027344,0.026216924,-0.15864092,9.768187,0
7,989.8502807617188,-4.273357626516372E-4,1.509737630840391E-4,-2.8775236569345E-4,3.670793294906616,24.494483947753906,-17.575448989868164,-0.00450795516371727,0.0020958930253982544,0.026433944702148438,0.021402836,-0.14672369,9.765817,0
7,989.8502807617188,-4.273357626516372E-4,1.509737630840391E-4,-2.8775236569345E-4,3.670793294906616,24.494483947753906,-17.575448989868164,-0.004320504143834114,-0.007608383893966675,0.04063606262207031,0.033318102,-0.14910614,9.76818,0
7,989.8549194335938,-1.603596901986748E-4,1.7708662198856473E-5,-1.5431147767230868E-4,3.833812713623047,24.014707565307617,-17.1105899810791,0.009695237502455711,-0.0167415589094162,0.050116539001464844,0.028504074,-0.13242233,9.768177,0
7,989.8549194335938,-1.603596901986748E-4,1.7708662198856473E-5,-1.5431147767230868E-4,3.833812713623047,24.014707565307617,-17.1105899810791,-0.004349784925580025,0.002285107970237732,0.026444435119628906,0.026079893,-0.15625426,9.770541,0
7,989.8499145507812,-4.260152636561543E-4,-7.813461706973612E-4,-2.8718641260638833E-4,3.3978781700134277,24.60772705078125,-17.61699867248535,9.213350713253021E-4,0.006718054413795471,0.03117656707763672,0.030825436,-0.14672032,9.772905,0
7,989.8555297851562,-4.2568545904941857E-4,-0.0011808734852820635,7.782184984534979E-4,3.909658670425415,24.296829223632812,-17.754655838012695,0.015336554497480392,0.001911938190460205,0.04538154602050781,0.0236215,-0.1443362,9.768168,0
7,989.8426513671875,-1.590393076185137E-4,1.506522239651531E-4,7.783600012771785E-4,3.7295994758605957,24.128265380859375,-17.794031143188477,-0.0037887468934059143,0.011379450559616089,0.05011749267578125,0.03075695,-0.15386847,9.758697,0
7,989.8453369140625,-1.5870927018113434E-4,2.837565552908927E-4,-2.044613938778639E-5,4.329967498779297,24.163284301757812,-17.272722244262695,9.444430470466614E-4,-0.01745341718196869,0.05011940002441406,0.033112586,-0.14671782,9.768162,0
7,989.8648681640625,-5.578527925536036E-4,-3.820866986643523E-4,3.7916915607638657E-4,3.6788086891174316,24.02764320373535,-17.16444206237793,-0.003653239458799362,-0.012630358338356018,0.021715164184570312,0.030688435,-0.14671698,9.772893,0
7,989.8648681640625,-1.580490788910538E-4,1.5049142530187964E-4,7.787843933328986E-4,3.7186477184295654,23.485820770263672,-17.677766799926758,0.005749929696321487,-0.01262715458869934,0.02645397186279297,0.037823915,-0.13956633,9.772889,0
7,989.8623046875,2.41755013121292E-4,-3.8219394627958536E-4,5.126100732013583E-4,3.6592979431152344,24.22032928466797,-17.55763053894043,-0.008212288841605186,-0.0028762519359588623,0.026459693908691406,0.03061995,-0.14433196,9.775254,0
7,989.86279296875,3.752429911401123E-4,1.7226324416697025E-5,-1.9880244508385658E-5,3.7726426124572754,24.11560821533203,-17.3380184173584,-0.0033563636243343353,-0.007707267999649048,0.0406646728515625,0.03775537,-0.14671442,9.777617,0
7,989.86279296875,-1.570585009176284E-4,-3.8230110658332705E-4,5.128930206410587E-4,3.585409641265869,24.677734375,-17.265077590942383,-0.012923723086714745,-0.012350738048553467,0.031200408935546875,0.037721217,-0.13956377,9.7586775,0
7,989.8729248046875,7.753771496936679E-4,2.834350161720067E-4,3.798765246756375E-4,3.469564437866211,24.411216735839844,-17.231626510620117,-0.003314012661576271,0.0022148191928863525,0.04067516326904297,0.04007685,-0.14909604,9.768144,0
7,989.8349609375,1.0991745512001216E-4,1.5022349543869495E-4,-1.5261367661878467E-4,3.6074209213256836,24.85628890991211,-17.12494468688965,-0.003125205636024475,0.002465352416038513,0.050151824951171875,0.03765267,-0.15386179,9.772874,0
7,989.8624877929688,2.434056659694761E-4,1.7011960153467953E-5,3.801595012191683E-4,3.9069128036499023,24.926021575927734,-17.175180435180664,3.348495811223984E-4,-0.011821925640106201,0.040599822998046875,0.02854395,-0.13957313,9.761079,0
7,989.8472900390625,2.4373570340685546E-4,9.490640368312597E-4,2.47143063461408E-4,3.4490749835968018,24.23413848876953,-17.449060440063477,-0.018668320029973984,-0.011945292353630066,0.03586292266845703,0.04336381,-0.14911804,9.768226,0
7,989.8768920898438,-4.300318250898272E-4,-1.1490451288409531E-4,7.763557368889451E-4,4.0040364265441895,24.01650047302246,-17.829782485961914,-0.018511760979890823,0.006960093975067139,0.05006217956542969,0.043368876,-0.14196834,9.761124,0
7,989.879638671875,-4.312439414206892E-4,1.845021324697882E-5,2.4320452939718962E-4,3.8649556636810303,24.20209503173828,-17.434289932250977,-0.01367875374853611,-0.007113367319107056,0.040596961975097656,0.043373942,-0.14673501,9.765859,0
7,989.8642578125,7.671286584809422E-4,-1.1469976743683219E-4,-1.562901888974011E-4,3.308173656463623,23.786130905151367,-17.40113639831543,-0.009216055274009705,-0.01635737717151642,0.04533672332763672,0.04337901,-0.13958529,9.770593,0
7,989.8699951171875,3.6760602961294353E-4,6.842558505013585E-4,-1.5631126007065177E-4,3.7884058952331543,23.762046813964844,-18.01262092590332,-0.00926155224442482,0.0025376826524734497,0.031129837036132812,0.033824503,-0.14911851,9.761126,0
7,989.8521728515625,-3.5299151204526424E-4,2.7187977684661746E-4,-9.837080142460763E-6,3.873788833618164,23.578798294067383,-18.322988510131836,3.701765090227127E-4,0.011989742517471313,0.04533100128173828,0.029049754,-0.15388528,9.768228,0
7,989.8516845703125,-2.1988258231431246E-4,-0.0010596916545182467,2.56457831710577E-4,3.785223960876465,23.653186798095703,-17.1589298248291,-0.008639400824904442,0.006961047649383545,0.02638721466064453,0.02905482,-0.1515021,9.7611265,0
8,989.8667602539062,-8.677365258336067E-5,-2.6073609478771687E-4,-5.425108247436583E-4,3.7895450592041016,24.658035278320312,-17.064424514770508,-0.01362902857363224,0.011820703744888306,0.035858154296875,0.050568998,-0.16103536,9.768228,0
8,989.84716796875,-2.1998025476932526E-4,5.38219406735152E-4,1.2325799616519362E-4,3.753836154937744,24.46622085571289,-16.508806228637695,-0.004514170810580254,-0.007084935903549194,0.031126022338867188,0.041014493,-0.14673576,9.777698,0
8,989.8643188476562,-0.001019025919958949,-2.607124042697251E-4,-1.4309985272120684E-4,3.5810885429382324,23.672889709472656,-17.359575271606445,-0.0093690175563097,0.0067128390073776245,0.04532146453857422,0.031459957,-0.15626901,9.7634945,0
8,989.8643188476562,-0.001019025919958949,-2.607124042697251E-4,-1.4309985272120684E-4,3.5810885429382324,23.672889709472656,-17.359575271606445,-0.018746627494692802,-0.002698957920074463,0.03585338592529297,0.041024655,-0.15150258,9.7682295,0
8,989.8593139648438,7.119786459952593E-4,-0.0010596520733088255,-5.425945273600519E-4,3.28798246383667,24.241188049316406,-17.193696975708008,-0.004065405577421188,0.006705135107040405,0.026381492614746094,0.03147009,-0.15388599,9.770597,0
8,989.8593139648438,-3.5333377309143543E-4,-1.2753850023727864E-4,-2.762996591627598E-4,3.318988084793091,24.32265853881836,-16.81831932067871,-0.013326471671462059,-0.011998921632766724,0.04532337188720703,0.052984297,-0.13958642,9.768231,0
8,989.8617553710938,9.781966218724847E-4,-0.001192794181406498,-8.089524344541132E-4,3.6823949813842773,23.66230010986328,-17.220605850219727,-0.003725370392203331,-0.002249404788017273,0.026388168334960938,0.03626004,-0.14673638,9.772965,0
8,989.8617553710938,9.781966218724847E-4,-0.001192794181406498,-8.089524344541132E-4,3.6823949813842773,23.66230010986328,-17.220605850219727,-0.013116838410496712,-0.0022880882024765015,0.03585529327392578,0.048214614,-0.15150306,9.775333,0
8,989.8717651367188,-2.2027385421097279E-4,0.0013372148387134075,-2.763416268862784E-4,3.634946584701538,24.196762084960938,-16.32075309753418,-0.0037013478577136993,0.002412557601928711,0.040589332580566406,0.024320692,-0.14197007,9.775333,0
8,989.8592529296875,4.5993365347385406E-5,-5.269884713925421E-4,-1.0046627721749246E-5,3.359668731689453,24.044681549072266,-16.808320999145508,-0.013277970254421234,0.002256914973258972,0.021648406982421875,0.0458349,-0.14912006,9.772967,0
8,989.8336181640625,5.785762332379818E-4,2.7196708833798766E-4,6.557221058756113E-4,3.6190237998962402,24.024099349975586,-16.77010154724121,-0.0037137027829885483,0.0025370121002197266,0.031121253967285156,0.03150052,-0.14673689,9.7706,0
8,989.848876953125,-3.535783616825938E-4,1.3881706399843097E-4,-1.00885663414374E-5,3.6645679473876953,24.382675170898438,-16.567148208618164,-0.003816956654191017,-0.011799439787864685,0.05479240417480469,0.03628543,-0.1515036,9.772968,0
8,989.8612670898438,-2.205180935561657E-4,1.388329255860299E-4,-2.7644640067592263E-4,3.795197010040283,23.92586898803711,-17.09943962097168,-0.008558887988328934,-0.01656346023082733,0.016916275024414062,0.038680375,-0.14435387,9.782437,0
8,989.8612670898438,-2.205180935561657E-4,1.388329255860299E-4,-2.7644640067592263E-4,3.795197010040283,23.92586898803711,-17.09943962097168,-0.013118842616677284,-0.016614854335784912,0.05478954315185547,0.031515777,-0.13958743,9.751664,0
8,989.8616333007812,-3.537739394232631E-4,-0.0010595726780593395,6.556173320859671E-4,3.7120158672332764,23.84821891784668,-17.466997146606445,-0.0031697265803813934,-0.012070387601852417,0.05951881408691406,0.03630066,-0.13720426,9.758765,0
8,989.8616333007812,-3.537739394232631E-4,-0.0010595726780593395,6.556173320859671E-4,3.7120158672332764,23.84821891784668,-17.466997146606445,0.0014690198004245758,-0.007434546947479248,0.04531383514404297,0.04108554,-0.14673749,9.765868,0
8,989.8616333007812,-6.201876094564795E-4,1.388647360727191E-4,-1.4337226457428187E-4,3.7289185523986816,24.390640258789062,-17.19340705871582,-0.02179524302482605,-0.012127786874771118,0.04531288146972656,0.053040117,-0.13958779,9.765868,0
8,989.86376953125,-8.760485798120499E-5,-9.263908723369241E-4,-1.0235278750769794E-5,3.8915324211120605,24.38507080078125,-17.52607536315918,0.011656276881694794,0.011572986841201782,0.05004405975341797,0.033766896,-0.14911714,9.761121,0
8,989.86376953125,-4.863705253228545E-4,-2.6071612956002355E-4,-0.0013415112625807524,3.7009572982788086,24.312110900878906,-17.723390579223633,-0.01633993536233902,0.016124725341796875,0.03586769104003906,0.035993338,-0.16341284,9.76584,0
8,989.8842163085938,5.811910377815366E-4,-7.937209447845817E-4,-1.421048800693825E-4,3.5653252601623535,24.026451110839844,-16.684980392456055,0.0030250512063503265,-0.021749868988990784,0.040604591369628906,0.026426136,-0.13481322,9.761105,0
8,989.8387451171875,4.8632617108523846E-5,-6.605748785659671E-4,-5.415472551248968E-4,3.661661148071289,24.48564910888672,-17.11161231994629,0.003002334386110306,-0.011879205703735352,0.02167224884033203,0.026418507,-0.15387931,9.780042,0
8,989.8387451171875,7.144957780838013E-4,-5.274288705550134E-4,-8.078317041508853E-4,3.3135814666748047,24.054393768310547,-17.10972785949707,-0.010505974292755127,-0.007214263081550598,0.026404380798339844,0.03597051,-0.1419627,9.770572,0
8,989.8739624023438,-4.838524619117379E-4,-0.0011932305060327053,-1.4201052545104176E-4,3.5549471378326416,24.22797393798828,-17.5419979095459,0.0040558986365795135,-0.002324119210243225,0.026406288146972656,0.03357297,-0.1395793,9.765837,0
8,989.8687133789062,1.8201081547886133E-4,-5.274527356959879E-4,1.2433681695256382E-4,3.74674654006958,23.670265197753906,-17.84685707092285,-6.375685334205627E-4,0.002509176731109619,0.06428337097167969,0.028785586,-0.1491122,9.756368,0
9,989.8583374023438,4.4840003829449415E-4,-1.2799080286640674E-4,5.238420562818646E-4,3.423476219177246,24.420936584472656,-17.533029556274414,-4.459545016288757E-5,-0.016645610332489014,0.05007648468017578,0.033557773,-0.13957888,9.761101,0
9,989.8809204101562,-2.1731643937528133E-4,-0.0017258981242775917,-1.4191619993653148E-4,3.8137588500976562,24.57568359375,-17.60222816467285,-3.8297101855278015E-4,0.0023161470890045166,0.04060840606689453,0.03832996,-0.15387839,9.772936,0
9,989.8611450195312,-0.001149348565377295,8.040909306146204E-4,-5.413586623035371E-4,3.2979559898376465,24.513870239257812,-17.13421058654785,-1.3302266597747803E-4,-0.007622286677360535,0.04060077667236328,0.03832233,-0.1467283,9.770569,0
9,989.8611450195312,-7.498012855648994E-4,-2.611845266073942E-4,-2.750112325884402E-4,4.042651653289795,24.10533905029297,-17.84092903137207,0.00954565778374672,-0.007906526327133179,0.0642690658569336,0.031145036,-0.14672819,9.756365,0
9,989.8637084960938,-4.8341217916458845E-4,-3.943543415516615E-4,-0.0012070853263139725,3.788160800933838,24.762474060058594,-17.68619728088379,-0.009577896445989609,0.006227657198905945,0.03586101531982422,0.03830713,-0.14434466,9.758731,0
9,989.8709106445312,-3.5018078051507473E-4,6.708973669447005E-4,1.2452546798158437E-4,4.006399631500244,24.281822204589844,-17.38376808166504,-0.014629211276769638,-0.008194416761398315,0.02639293670654297,0.033519745,-0.14911112,9.765832,0
9,989.8709106445312,-2.1694949828088284E-4,4.0456949500367045E-4,-4.080748767592013E-4,4.08112907409668,24.088260650634766,-17.15300178527832,-4.212595522403717E-4,-0.003683537244796753,0.040592193603515625,0.04068178,-0.1443443,9.7753,0
9,989.8709106445312,-8.826658595353365E-4,1.3824168127030134E-4,-6.743593257851899E-4,3.616116762161255,24.127071380615234,-17.3145694732666,-0.014616481959819794,0.005873128771781921,0.050063133239746094,0.045453966,-0.1491107,9.768197,0
9,989.867919921875,-2.1680269856005907E-4,-5.275599542073905E-4,-1.4169605856295675E-4,3.9297118186950684,23.735851287841797,-17.263017654418945,-0.009664691984653473,9.855031967163086E-4,0.054795265197753906,0.04066658,-0.14911053,9.761096,0
9,989.8607788085938,5.822182865813375E-4,5.376916960813105E-4,-2.7482258155941963E-4,3.5452723503112793,24.587425231933594,-17.176618576049805,-0.004898324608802795,-0.01778891682624817,0.02165985107421875,0.038269073,-0.14196044,9.761094,0
9,989.858154296875,4.965974949300289E-5,2.713639405556023E-4,-9.405807941220701E-4,3.880037784576416,24.110912322998047,-17.508264541625977,-0.01920999214053154,0.0013918876647949219,0.026395797729492188,0.045431137,-0.14196032,9.777665,0
9,989.8555908203125,8.486808510497212E-4,-3.9443772402592003E-4,-5.410755984485149E-4,3.82786226272583,24.114730834960938,-17.50044822692871,0.004457004368305206,0.011396750807762146,0.03114032745361328,0.033474028,-0.16340962,9.775296,0
9,989.8653564453125,4.0404024184681475E-4,3.1690922332927585E-4,3.618162591010332E-4,3.225834369659424,23.97232437133789,-17.245370864868164,-0.00530155748128891,-0.008066549897193909,0.0406036376953125,0.038246214,-0.13481012,9.775296,0
9,989.8783569335938,-7.943080272525549E-4,9.82687110081315E-4,4.950056318193674E-4,3.492661476135254,23.853191375732422,-16.89459800720215,0.01376255601644516,0.001387476921081543,0.0406036376953125,0.023899198,-0.15149286,9.761092,0
9,989.887939453125,-3.9468726026825607E-4,5.055764631833881E-5,3.6191061371937394E-4,3.9182169437408447,23.461694717407227,-17.245203018188477,0.004139117896556854,-0.008245795965194702,0.045337677001953125,0.0334512,-0.13957629,9.768193,0
9,989.887939453125,-3.9468726026825607E-4,5.055764631833881E-5,3.6191061371937394E-4,3.9182169437408447,23.461694717407227,-17.245203018188477,-0.019496150314807892,-0.008196085691452026,0.03586769104003906,0.04300317,-0.14434263,9.77056,0
9,989.8806762695312,2.711756678763777E-4,1.8370365432929248E-4,-3.7531746784225106E-5,3.8869664669036865,24.38064956665039,-17.294160842895508,0.004116315394639969,0.0013948827981948853,0.02640247344970703,0.042995572,-0.14910898,9.782394,0
9,989.8806762695312,2.711756678763777E-4,1.8370365432929248E-4,-3.7531746784225106E-5,3.812535285949707,25.206348419189453,-17.100053787231445,0.009035784751176834,-0.008000418543815613,0.05007743835449219,0.03342837,-0.14672557,9.765824,0
9,989.8404541015625,4.9332447815686464E-6,-8.262413030024618E-5,-4.3697416549548507E-4,3.7445437908172607,23.931163787841797,-17.16892433166504,-7.524751126766205E-4,-0.0033327043056488037,0.04059028625488281,0.028832972,-0.14196345,9.76584,0
9,989.885498046875,2.700247860047966E-4,4.5020628022029996E-4,7.609226740896702E-4,3.6962532997131348,24.201778411865234,-16.79239845275879,-0.0055565498769283295,-0.01236395537853241,0.06427001953125,0.038392574,-0.1371969,9.751637,0
9,989.842529296875,6.690508453175426E-4,-2.155106485588476E-4,-3.8216880057007074E-5,3.7095158100128174,23.47698211669922,-17.213937759399414,-3.944225609302521E-4,0.025542110204696655,0.04059314727783203,0.038392574,-0.16102973,9.772942,0
9,989.842529296875,-3.962126502301544E-4,-3.4866860369220376E-4,-3.8216880057007074E-5,3.8549818992614746,23.929412841796875,-17.4937801361084,-0.009981121867895126,-0.003029182553291321,0.016921043395996094,0.04078248,-0.15387988,9.780044,0
9,989.842529296875,-3.962126502301544E-4,-3.4866860369220376E-4,-3.8216880057007074E-5,3.8549818992614746,23.929412841796875,-17.4937801361084,-0.005142968147993088,-0.007642105221748352,0.04059600830078125,0.04317236,-0.1491133,9.768208,0
9,989.8449096679688,5.358929047361016E-4,5.834369803778827E-4,-3.8216880057007074E-5,3.6282925605773926,24.13885498046875,-17.933008193969727,0.009050130844116211,-0.0024475008249282837,0.045337677001953125,0.024053186,-0.14911333,9.761106,0
9,989.8449096679688,5.358929047361016E-4,5.834369803778827E-4,-3.8216880057007074E-5,3.6282925605773926,24.13885498046875,-17.933008193969727,-0.009839609265327454,-0.007167890667915344,0.031134605407714844,0.038392574,-0.14434674,9.76584,0
10,989.8800659179688,8.022087858989835E-4,-4.818265442736447E-4,3.612569416873157E-4,3.7922909259796143,24.028839111328125,-17.643903732299805,-0.004638422280550003,0.0022228658199310303,0.026395797729492188,0.038392574,-0.15149659,9.777677,0
10,989.8800659179688,-6.625285604968667E-4,-8.813003660179675E-4,3.612569416873157E-4,3.5058159828186035,24.2347412109375,-17.688791275024414,7.618963718414307E-5,0.007046341896057129,0.054802894592285156,0.04078245,-0.15864643,9.763473,0
10,989.869873046875,-1.2989676906727254E-4,3.1712109921500087E-4,3.612569416873157E-4,3.4355146884918213,24.326801300048828,-17.452394485473633,-0.014039598405361176,-0.0026209652423858643,0.040596961975097656,0.04317236,-0.14673004,9.772942,0
10,989.869873046875,-1.2989676906727254E-4,-4.818265442736447E-4,-9.703223477117717E-4,3.5373644828796387,23.947921752929688,-17.214967727661133,0.005061756819486618,-0.012059420347213745,0.03113079071044922,0.03122285,-0.13004708,9.772942,0
10,989.857177734375,1.364191120956093E-4,-0.0010144582483917475,9.494106052443385E-5,3.4519810676574707,24.13117218017578,-16.90459632873535,0.005131278187036514,-0.011950835585594177,0.026397705078125,0.036002666,-0.1371969,9.76584,0
10,989.857177734375,5.358929047361016E-4,7.165948045440018E-4,-3.8216880057007074E-5,3.5181522369384766,24.772743225097656,-17.183286666870117,0.004846867173910141,0.007462203502655029,0.04534149169921875,0.03122285,-0.14434674,9.76584,0
10,989.8648681640625,1.364191120956093E-4,7.165948045440018E-4,2.2809900110587478E-4,3.850416421890259,23.92499542236328,-17.261865615844727,0.004820842295885086,-0.011333882808685303,0.03587627410888672,0.038392544,-0.14196345,9.780044,0
10,989.84716796875,-1.2989676906727254E-4,-2.155106485588476E-4,3.612569416873157E-4,3.70342755317688,23.471092224121094,-16.90471839904785,-0.004544049501419067,-0.025815650820732117,0.012201309204101562,0.038392574,-0.13958022,9.777677,0
10,989.84716796875,4.0273499325849116E-4,1.8396317318547517E-4,3.612569416873157E-4,3.1815669536590576,24.615646362304688,-17.1992130279541,1.4465302228927612E-5,0.0025368928909301758,0.031136512756347656,0.036002666,-0.15149659,9.763473,0
10,989.8541259765625,-7.956865010783076E-4,5.834369803778827E-4,-4.3769070180132985E-4,3.725874900817871,24.3876953125,-17.03879737854004,0.00978914275765419,-0.01207616925239563,0.05480194091796875,0.036002696,-0.14196345,9.76584,0
10,989.858642578125,-5.293706199154258E-4,-8.813003660179675E-4,-1.71374820638448E-4,3.922675848007202,24.572460174560547,-17.84977912902832,3.593042492866516E-5,0.011608123779296875,0.05480003356933594,0.03122285,-0.15626314,9.768208,0
10,989.8580322265625,-5.293706199154258E-4,8.497528615407646E-4,-1.7137470422312617E-4,3.5243473052978516,23.672292709350586,-17.119844436645508,-0.00431482121348381,-0.002392813563346863,0.026396751403808594,0.045562267,-0.14673004,9.777677,0
10,989.8650512695312,5.358929047361016E-4,-0.0012807742459699512,-3.8216880057007074E-5,3.826883316040039,23.74496841430664,-17.32468605041504,-0.00437358021736145,0.0023761242628097534,0.03113269805908203,0.038392574,-0.15387985,9.763473,0
10,989.852294921875,-1.2989676906727254E-4,1.8396317318547517E-4,9.494106052443385E-5,3.1138741970062256,23.97260284423828,-16.843217849731445,-0.013744663447141647,-0.007322788238525391,0.03586292266845703,0.04078245,-0.14434674,9.76584,0
10,989.8549194335938,4.0273499325849116E-4,-3.4866860369220376E-4,7.607307634316385E-4,3.6100289821624756,24.121177673339844,-17.00535011291504,-0.008961640298366547,0.002366378903388977,0.045334815979003906,0.04078248,-0.15149659,9.7587385,0
10,989.8419799804688,3.2611715141683817E-6,1.8396317318547517E-4,-4.37690585386008E-4,3.9834089279174805,23.73350715637207,-17.3481388092041,-0.013601336628198624,-0.011802226305007935,0.035866737365722656,0.047952175,-0.14196345,9.763473,0
10,989.8750610351562,-5.293706199154258E-4,5.0805232604034245E-5,-1.71374820638448E-4,3.6656839847564697,24.858360290527344,-17.441980361938477,7.019974291324615E-4,0.012052863836288452,0.04060173034667969,0.036002666,-0.16102973,9.76584,0
10,989.8750610351562,6.690508453175426E-4,-7.481424254365265E-4,2.2809900110587478E-4,3.617095708847046,24.49683380126953,-17.490327835083008,-0.008783739060163498,-0.011835649609565735,0.05480384826660156,0.047447324,-0.13718456,9.768161,0
10,989.8670654296875,2.707813691813499E-4,-3.488641232252121E-4,-4.371745162643492E-4,3.601034641265869,24.21826171875,-17.2405948638916,0.0020132623612880707,-0.0021625906229019165,0.04069709777832031,0.03974235,-0.14670452,9.751542,0
10,989.8670654296875,1.451698481105268E-4,4.498567432165146E-4,1.0316283442080021E-4,3.632040500640869,24.299728393554688,-16.86522102355957,-0.011996157467365265,-0.0021164268255233765,0.03123188018798828,0.044481575,-0.14193702,9.770474,0
10,989.8772583007812,1.455610035918653E-4,-0.001148102106526494,-2.9827409889549017E-5,4.10466194152832,24.268287658691406,-17.090173721313477,-0.011710274964571,0.002728015184402466,0.05490684509277344,0.042050987,-0.1562357,9.761003,0
10,989.8569946289062,1.459521590732038E-4,-3.4921796759590507E-4,7.692879298701882E-4,3.8006041049957275,24.194137573242188,-16.808034896850586,-0.001960914582014084,-0.002121254801750183,0.050174713134765625,0.034840703,-0.14908484,9.770469,0
10,989.8486938476562,-2.53130157943815E-4,-3.4928147215396166E-4,3.6998186260461807E-4,3.506657361984253,24.498584747314453,-17.16547203063965,0.012564092874526978,-0.0017526745796203613,0.06438636779785156,0.02524048,-0.14193407,9.758629,0
10,989.84130859375,0.0036088412161916494,-0.0014146085595712066,1.0383361950516701E-4,3.62815523147583,24.03293800354004,-17.23393440246582,0.013268310576677322,-1.8170475959777832E-4,0.01706695556640625,0.022810042,-0.14908281,9.782298,0
11,989.9911499023438,-0.004140583798289299,0.0012200629571452737,9.325069840997458E-4,3.6862807273864746,23.929094314575195,-16.85188865661621,-0.002076629549264908,-0.011579751968383789,0.045454978942871094,0.027549207,-0.14908189,9.76809,0
11,989.75244140625,-5.4492789786309E-4,2.1578034647973254E-5,-3.9890475454740226E-4,3.4490745067596436,24.234142303466797,-17.449064254760742,0.0028389617800712585,0.007277235388755798,0.03598594665527344,0.025118709,-0.14669761,9.772821,0
11,989.75244140625,-5.4492789786309E-4,2.1578034647973254E-5,-3.9890475454740226E-4,3.4490745067596436,24.234142303466797,-17.449064254760742,0.012462310492992401,0.01248110830783844,0.054932594299316406,0.03463775,-0.1562297,9.777552,0
11,989.75244140625,-5.4492789786309E-4,2.1578034647973254E-5,-3.9890475454740226E-4,3.6471219062805176,24.208545684814453,-16.93919563293457,0.013499133288860321,-0.010068148374557495,0.05495166778564453,0.020257771,-0.14669564,9.768079,0
11,989.8993530273438,-8.104613516479731E-4,-1.1170693323947489E-4,2.6722028269432485E-4,3.8227531909942627,24.478599548339844,-17.366979598999023,0.012857086956501007,0.0020843148231506348,0.04545879364013672,0.022607058,-0.14669457,9.760974,0
11,989.7366943359375,-0.0038727030623704195,0.0010866511147469282,6.668618298135698E-4,3.5270092487335205,24.569747924804688,-16.248960494995117,0.012536518275737762,0.006854712963104248,0.05019855499267578,0.029736161,-0.15622672,9.765704,0
11,989.7366943359375,-0.0038727030623704195,0.0010866511147469282,6.668618298135698E-4,3.5270092487335205,24.569747924804688,-16.248960494995117,0.007779441773891449,-0.007639572024345398,0.050197601318359375,0.029695481,-0.1490759,9.763333,0
11,989.7804565429688,2.5558480410836637E-4,5.539556732401252E-4,9.333454072475433E-4,3.5029330253601074,24.758010864257812,-16.410234451293945,0.017574768513441086,-0.007646843791007996,0.05966949462890625,0.027265012,-0.14907488,9.7704315,0
11,989.7804565429688,-4.0981362690217793E-4,-3.78213357180357E-4,-2.649082744028419E-4,3.8768553733825684,24.00204849243164,-16.654573440551758,0.012796793133020401,0.001643359661102295,0.050200462341308594,0.02961433,-0.15145722,9.756225,0
11,989.873779296875,3.899166767951101E-4,0.001219554920680821,1.3490088167600334E-4,3.7700042724609375,23.63845443725586,-16.385881423950195,0.026480332016944885,0.0016824454069137573,0.031271934509277344,0.0176242,-0.14907286,9.777525,0
11,989.873779296875,3.899166767951101E-4,0.001219554920680821,1.3490088167600334E-4,3.7700042724609375,23.63845443725586,-16.385881423950195,0.007433611899614334,0.01603838801383972,0.021805763244628906,0.024753332,-0.15622178,9.775154,0
11,989.8204956054688,3.9069922058843076E-4,-2.4530960945412517E-4,4.015521553810686E-4,3.894981622695923,23.913806915283203,-16.88315773010254,0.012435626238584518,-0.00312592089176178,0.045479774475097656,0.017543018,-0.14668763,9.768048,0
11,989.8609619140625,-9.404885349795222E-4,-2.453731431160122E-4,2.6856199838221073E-4,3.460432291030884,24.402381896972656,-16.767797470092773,0.012211736291646957,-0.00327455997467041,0.054950714111328125,0.022282243,-0.14906988,9.768045,1
11,989.833251953125,-1.4114976511336863E-4,6.866689654998481E-4,6.682034581899643E-4,3.9697110652923584,23.72024917602539,-16.65239143371582,0.012383755296468735,-0.003375411033630371,0.03128242492675781,0.029411346,-0.14668566,9.775143,1
11,989.8508911132812,-4.0707437437959015E-4,-7.781317690387368E-4,-5.300502525642514E-4,4.140776634216309,23.985889434814453,-16.848264694213867,0.007287252694368362,-0.0037891417741775513,0.05968761444091797,0.029370725,-0.15621772,9.758569,1
11,989.848388671875,-4.06682986067608E-4,5.533839575946331E-4,2.690650580916554E-4,4.106046676635742,24.163841247558594,-16.468408584594727,0.02145303413271904,-0.0085335373878479,0.036017417907714844,0.029330105,-0.15145022,9.765668,1
11,989.8560791015625,-6.817776011303067E-6,5.533205112442374E-4,-9.291886817663908E-4,3.458367109298706,24.76919937133789,-16.788942337036133,0.007109887897968292,-0.008280843496322632,0.0076198577880859375,0.0340693,-0.14668265,9.791702,1
11,989.8458862304688,2.598893770482391E-4,1.5378303942270577E-4,-6.627051625400782E-4,4.125694751739502,24.077072143554688,-16.774293899536133,0.016147661954164505,0.015231460332870483,0.0691680908203125,0.02207923,-0.16098133,9.753823,1
11,989.848388671875,-0.0016039303736761212,9.52667323872447E-4,6.690419977530837E-4,3.653615713119507,23.740230560302734,-16.450883865356445,-0.008989669382572174,0.022813037037849426,0.05014801025390625,0.039402902,-0.17529559,9.765715,1
11,989.815185546875,-0.0028049976099282503,0.0016188864829018712,-7.968293502926826E-4,3.940227746963501,23.640247344970703,-17.105073928833008,-0.2691993713378906,1.2821847200393677,-0.05441761016845703,0.20907077,-0.8306968,10.019004,1
11,989.7059936523438,-0.12558215856552124,-0.03925786167383194,0.13356180489063263,3.7139973640441895,25.00804901123047,-15.995485305786133,0.12340826541185379,-1.1172056198120117,-0.5667715072631836,-0.09446201,0.4062251,10.194175,1
11,989.7764282226562,-0.10547515749931335,0.23491430282592773,0.13316237926483154,4.662827968597412,24.579811096191406,-16.501558303833008,0.6647274494171143,-1.0707652568817139,0.5190448760986328,-0.48164135,0.57305497,9.813054,1
11,989.7846069335938,-0.4994893968105316,0.07086371630430222,-0.12489765137434006,4.489996433258057,25.313125610351562,-15.901960372924805,-0.12778878211975098,0.5907232761383057,0.11091995239257812,0.31657064,-1.2001039,10.18707,1
11,989.8076171875,-1.2072237730026245,-0.29279065132141113,-0.28854870796203613,3.6883151531219482,26.72148895263672,-14.629083633422852,-0.09704992920160294,0.04416477680206299,0.03134918212890625,0.19706038,-1.3859992,9.637877,1
11,989.83544921875,-1.1462372541427612,0.010809426195919514,-0.07429750263690948,3.4777095317840576,27.629810333251953,-13.495016098022461,-0.33210521936416626,-0.6973532438278198,-0.28191375732421875,0.63917696,-0.58045065,9.997691,1
12,989.85009765625,-1.2604866027832031,-0.07760746777057648,0.08615788072347641,3.4604783058166504,29.614459991455078,-11.991819381713867,-1.3640514612197876,-0.14950132369995117,0.1816701889038086,0.69890934,-2.0890656,9.775173,1
12,989.8272094726562,-1.3427780866622925,0.14649730920791626,-0.3059922158718109,3.377511501312256,31.695594787597656,-10.484140396118164,0.6436095237731934,0.9038424491882324,0.46538352966308594,-1.444848,-3.3903353,10.009524,1
12,989.8377075195312,-0.8173366785049438,1.0795350074768066,-0.30346211791038513,4.13416051864624,32.719573974609375,-9.659856796264648,-0.42502132058143616,0.3230400085449219,1.9935131072998047,-0.43154472,-2.6443686,7.334584,1
12,989.8275756835938,-0.661541759967804,1.0054991245269775,-0.21451257169246674,4.6185760498046875,33.59442138671875,-9.477754592895508,1.1025729179382324,-1.9313772916793823,9.025312423706055,-1.0840032,-3.7120771,7.3393173,1
12,989.903564453125,-0.760877251625061,-2.0954830646514893,-0.5093241930007935,3.0450258255004883,33.964073181152344,-8.256113052368164,-1.6333894729614258,0.39954471588134766,-4.646599769592285,2.187757,-3.6286616,11.702071,1
12,989.9618530273438,-0.8743277788162231,-1.2094500064849854,-0.19320717453956604,0.21872377395629883,34.79372787475586,-6.945323944091797,-0.38776689767837524,-0.1580801010131836,0.27971649169921875,-0.31448525,-4.086251,6.7593503,1
12,989.8504638671875,-1.0427722930908203,-0.23939456045627594,-0.13235385715961456,1.3046705722808838,37.01987838745117,-3.470693588256836,0.24947786331176758,-0.2587409019470215,0.12544918060302734,-0.0468314,-4.3364944,8.922973,1
12,989.8504638671875,-1.0427722930908203,-0.23939456045627594,-0.13235385715961456,1.3046705722808838,37.01987838745117,-3.470693588256836,0.016016673296689987,-0.16848421096801758,-0.03146839141845703,0.26384056,-4.8250666,8.501609,1
12,989.88037109375,-1.2422428131103516,0.20202401280403137,-0.2697727680206299,1.4992914199829102,37.88584899902344,-1.7807159423828125,-0.35436493158340454,0.023923873901367188,0.6116452217102051,0.35225177,-5.3231716,7.5547256,1
12,989.8499145507812,-0.4748532772064209,-0.2718851566314697,0.42784181237220764,1.4687676429748535,39.383033752441406,1.2157554626464844,1.094894528388977,-2.596587657928467,-0.7164382934570312,-0.43404123,-4.152981,8.09208,1
12,989.8499145507812,-0.4748532772064209,-0.2718851566314697,0.42784181237220764,1.8072800636291504,39.06739807128906,1.9519023895263672,-0.5067192912101746,-1.7687087059020996,-0.3625621795654297,-0.1639975,-2.355989,9.112342,1
12,989.8729858398438,0.7063909769058228,0.05688179284334183,-0.07962306588888168,0.6189947128295898,39.220977783203125,-1.1073131561279297,-0.7553234696388245,1.4732789993286133,-0.15369796752929688,0.7393702,-5.7902927,8.482665,1
12,989.8729858398438,0.7063909769058228,0.05688179284334183,-0.07962306588888168,0.6189947128295898,39.220977783203125,-1.1073131561279297,-0.6022111177444458,1.7330126762390137,0.09656810760498047,0.08213198,-5.9094563,8.721751,1
12,989.9285888671875,1.4048044681549072,0.382186621427536,-0.644612193107605,0.09069490432739258,38.094940185546875,-2.268749237060547,1.1783244609832764,-0.063812255859375,-1.4193248748779297,-1.0052886,-3.7549725,10.66759,1
12,989.9619140625,0.8609877228736877,0.36966970562934875,-0.3816251754760742,0.18322992324829102,36.760704040527344,-4.514467239379883,0.043092578649520874,-0.8711185455322266,-2.3005332946777344,0.3402109,-3.3140655,11.730463,1
12,989.9717407226562,0.6711046099662781,-0.37668052315711975,0.12384245544672012,-0.6316828727722168,35.734649658203125,-5.021711349487305,0.25869014859199524,0.03465008735656738,-3.430479049682617,-0.104326054,-2.6824965,11.29963,1
12,990.0221557617188,1.4286401271820068,-0.4180926978588104,-0.037145428359508514,-1.0385079383850098,33.72266387939453,-8.07463264465332,0.8816653490066528,-1.2961004972457886,3.0776758193969727,0.230245,-0.76872337,9.289874,1
12,990.0301513671875,2.740112781524658,-0.04019046574831009,-0.43595340847969055,-3.1310582160949707,29.921825408935547,-11.378992080688477,-0.1517091989517212,-0.24575138092041016,-3.570063591003418,1.2268189,-1.6004871,11.756497,1
12,989.915283203125,0.834090530872345,-0.08626318722963333,-0.46151962876319885,-6.588075160980225,25.580841064453125,-14.518472671508789,0.5971301198005676,0.5419415235519409,-3.177645683288574,0.6125988,-1.7744662,11.792005,1
12,989.9457397460938,0.6624500751495361,0.09336687624454498,-0.5154485106468201,-7.211731433868408,24.365367889404297,-15.429025650024414,0.17544591426849365,-0.4322703778743744,0.5813055038452148,0.9258481,-0.6304966,10.028455,1
12,989.95849609375,1.1609935760498047,-0.08466532081365585,-0.3414110243320465,-7.910607814788818,20.97283935546875,-17.04743003845215,0.19469022750854492,0.4002012610435486,-2.8367080688476562,0.9021317,-0.73774874,11.370675,1
12,989.7984619140625,0.5881446003913879,-0.3363332450389862,-0.40972253680229187,-8.436683654785156,20.006210327148438,-17.06377601623535,-0.35205161571502686,-0.2195960283279419,-2.7587890625,1.3347028,-0.4183893,12.177891,1
12,989.9102783203125,0.39413341879844666,0.44823333621025085,-0.25778934359550476,-7.9411234855651855,18.890514373779297,-18.075647354125977,0.3797023296356201,1.367365837097168,-1.818436622619629,0.80653334,-1.3168852,10.293597,1
12,989.9124145507812,1.1834936141967773,-0.042853161692619324,-0.2778961658477783,-7.997375965118408,16.889060974121094,-18.48875617980957,1.2608495950698853,-0.21382665634155273,-0.4124641418457031,0.022644311,0.31089395,8.875643,1
12,989.7191162109375,0.45378822088241577,0.020663175731897354,-0.2081213891506195,-7.23705530166626,16.021053314208984,-19.171003341674805,-0.20528817176818848,-0.26183146238327026,-3.4245691299438477,1.243883,0.058266446,13.546132,1
13,989.7571411132812,0.1183633878827095,0.3465006649494171,-0.0034576451871544123,-6.544290065765381,14.615913391113281,-20.196332931518555,0.5360971093177795,1.0033491849899292,-2.27187442779541,0.34049892,-0.029914856,11.531644,1
13,989.90966796875,1.1456769704818726,0.5767307877540588,-0.07509660720825195,-5.2929768562316895,12.627792358398438,-21.658540725708008,-0.40332162380218506,0.3845018148422241,-0.9804477691650391,1.2462707,1.2141565,10.213113,1
13,989.7188110351562,1.8747166395187378,0.08537792414426804,-0.11664188653230667,-5.336103916168213,9.79562759399414,-21.794111251831055,0.23221445083618164,0.3064086437225342,0.6218719482421875,0.20188224,1.3476202,9.339614,1
13,989.683349609375,2.0136003494262695,-0.3784111738204956,-0.46604833006858826,-5.473662853240967,5.611224174499512,-22.60584831237793,0.5011857748031616,2.0224571228027344,-1.0783100128173828,0.3787338,1.2570555,10.08765,1
13,989.667724609375,1.3733769655227661,0.3857822120189667,-0.07522976398468018,-4.757258892059326,3.2797718048095703,-23.195695877075195,0.6951638460159302,0.830618143081665,0.35548877716064453,-0.41471475,2.1484017,8.766752,1
13,989.6654663085938,0.8930763602256775,0.7520998120307922,-0.0627129077911377,-3.1043052673339844,1.6146316528320312,-24.045835494995117,-0.011152207851409912,0.8797919750213623,0.025200843811035156,0.23533738,2.689406,9.060285,1
13,989.6575317382812,1.2636548280715942,-0.46509701013565063,0.008393443189561367,-3.9113402366638184,0.01582193374633789,-23.443002700805664,-0.05742943286895752,1.3802411556243896,0.6016836166381836,0.6368397,2.6941724,8.735977,1
13,989.6956787109375,1.452872395515442,-1.1917400360107422,-0.25512608885765076,-5.733675479888916,-2.4284634590148926,-22.480268478393555,0.9250024557113647,1.4396042823791504,-0.4359912872314453,0.14451873,3.24471,8.648391,1
13,989.6854858398438,0.707187831401825,-0.057234231382608414,-0.1354171186685562,-5.879035472869873,-3.9872357845306396,-21.827768325805664,0.1105073094367981,0.9626164436340332,-0.9628572463989258,1.1482764,3.7213655,9.787015,1
13,989.8221435546875,1.2970774173736572,0.10268845409154892,-0.17203554511070251,-5.0209431648254395,-7.239397048950195,-22.693513870239258,0.4090992212295532,1.351473331451416,0.7285008430480957,0.87343645,4.0454917,8.20099,1
13,989.8221435546875,1.2970774173736572,0.10268845409154892,-0.17203554511070251,-5.0209431648254395,-7.239397048950195,-22.693513870239258,0.2521491050720215,0.9386844635009766,1.033400058746338,0.05130902,3.8858118,6.839847,1
13,989.6671752929688,0.06842928379774094,0.48711541295051575,0.32397782802581787,-3.158555030822754,-7.549624443054199,-23.424253463745117,-2.1589531898498535,-0.985595703125,0.48706626892089844,1.8963121,5.9139814,8.664961,1
13,989.6671752929688,0.06842928379774094,0.48711541295051575,0.32397782802581787,-3.158555030822754,-7.549624443054199,-23.424253463745117,-1.4370813369750977,0.15163898468017578,0.4208860397338867,1.0837444,4.243304,8.390366,1
13,989.7454223632812,1.1524680852890015,0.24889585375785828,-0.1754976511001587,-3.8888258934020996,-10.921073913574219,-21.497774124145508,1.5419961214065552,2.181328773498535,0.48647451400756836,-0.89748555,3.3924737,7.8293376,1
13,989.7454223632812,1.1524680852890015,0.24889585375785828,-0.1754976511001587,-3.8888258934020996,-10.921073913574219,-21.497774124145508,0.553057074546814,1.367128849029541,0.7376613616943359,0.42890882,5.215681,7.284881,1
13,989.7151489257812,0.7386133074760437,0.7008339166641235,0.5315710306167603,-2.873716354370117,-11.814081192016602,-21.909883499145508,-0.7121245861053467,0.4555544853210449,-0.1646723747253418,0.7706636,5.8520164,7.242272,1
13,989.6712036132812,1.3113255500793457,-0.08679531514644623,0.42118316888809204,-2.8703508377075195,-15.130167007446289,-20.94651985168457,-0.005320370197296143,0.8243508338928223,0.6657257080078125,0.4456358,5.952114,6.2456794,1
13,989.6712036132812,1.3113255500793457,-0.08679531514644623,0.42118316888809204,-2.8703508377075195,-15.130167007446289,-20.94651985168457,-0.04167652130126953,0.662285327911377,0.6785769462585449,0.45280433,6.2428746,5.919005,1
13,989.7042846679688,0.6632458567619324,0.23478110134601593,0.49441999197006226,-3.2274560928344727,-16.676605224609375,-20.108144760131836,0.008006513118743896,0.802391529083252,0.6814961433410645,0.6416054,6.261941,5.665714,1
13,989.7042846679688,0.6632458567619324,0.23478110134601593,0.49441999197006226,-3.2274560928344727,-16.676605224609375,-20.108144760131836,-0.598504364490509,0.1504201889038086,-0.7616205215454102,1.6854209,7.119935,7.886098,1
13,989.73193359375,0.22542259097099304,0.16420738399028778,0.6566063761711121,-3.1510672569274902,-16.762771606445312,-20.653764724731445,-0.6489183902740479,0.25260400772094727,-0.7032628059387207,1.36037,6.833942,6.3403125,1
13,989.71630859375,0.9464770555496216,0.31361088156700134,0.4058741629123688,-2.5605640411376953,-18.10678482055664,-19.81928825378418,-0.2702021598815918,0.37143468856811523,1.0170130729675293,1.140475,7.0412884,4.9744344,1
13,989.71630859375,0.9464770555496216,0.31361088156700134,0.4058741629123688,-2.5605640411376953,-18.10678482055664,-19.81928825378418,-0.36842286586761475,0.26427173614501953,0.2769813537597656,1.4654776,7.3654146,6.20301,1
13,989.7314453125,0.4304905831813812,0.19989390671253204,0.4354354441165924,-2.367680072784424,-19.40106773376465,-19.927248001098633,-0.03019857406616211,0.43824291229248047,0.2708702087402344,1.1834451,7.2510176,6.020734,1
14,989.7314453125,0.4304905831813812,0.19989390671253204,0.4354354441165924,-2.367680072784424,-19.40106773376465,-19.927248001098633,-0.23940587043762207,0.2688469886779785,0.26209402084350586,1.3674434,7.4988794,5.7437687,1
14,989.6984252929688,0.5010647177696228,0.34317177534103394,0.37378349900245667,-2.2249889373779297,-19.53171157836914,-18.555871963500977,-0.9211368560791016,-0.4308772087097168,0.23277807235717773,1.8692986,8.139981,5.4999447,1
14,989.6984252929688,0.5010647177696228,0.34317177534103394,0.37378349900245667,-2.2249889373779297,-19.53171157836914,-18.555871963500977,-0.6619882583618164,0.034743309020996094,0.023084163665771484,1.5585874,7.846839,5.414723,1
14,989.710693359375,0.6193091869354248,0.23757748305797577,0.3238493800163269,-1.98036527633667,-21.56787109375,-18.39743995666504,-0.07775545120239258,0.30736207962036133,0.11493206024169922,1.39127,8.049418,5.066742,1
14,989.68994140625,0.7061285972595215,0.16061212122440338,0.058066319674253464,-1.6259827613830566,-23.34341812133789,-17.963232040405273,-0.4299999475479126,0.14846229553222656,-0.03913307189941406,1.4916219,8.190032,4.8773637,1
14,989.69775390625,0.5605872273445129,0.366074800491333,0.07644221931695938,-1.795961856842041,-24.345632553100586,-17.570459365844727,-0.26106560230255127,0.08449172973632812,0.05470752716064453,1.4509693,8.435511,4.6169696,1
14,989.7026977539062,0.4929432272911072,0.4114816188812256,0.0713823139667511,-1.1423325538635254,-25.05101776123047,-16.86005973815918,0.027693748474121094,0.3934154510498047,-0.09571075439453125,1.0088135,8.170967,4.5743575,1
14,989.70751953125,0.6565945148468018,0.17086517810821533,0.046082403510808945,-1.0218138694763184,-25.886425018310547,-16.752763748168945,-0.548438310623169,0.16225814819335938,0.0695648193359375,1.4939395,8.497478,4.2382126,1
14,989.7025756835938,0.6619210839271545,0.1309177577495575,0.13396674394607544,-0.7487921714782715,-27.106006622314453,-16.338552474975586,-0.3613131046295166,0.17529010772705078,-0.35244035720825195,1.3505212,8.578509,4.614595,1
14,989.7355346679688,0.6004023551940918,0.15621770918369293,0.08869314938783646,-0.9295320510864258,-27.01219367980957,-15.777299880981445,-0.216660737991333,0.4195594787597656,-0.2280111312866211,1.28358,8.526076,4.1979656,1
14,989.72509765625,0.7969437837600708,0.04236765205860138,0.07844008505344391,-1.0764141082763672,-28.57244300842285,-15.047494888305664,-0.6338424682617188,0.014716148376464844,-0.4859144687652588,1.8690816,9.112365,4.0322595,1
14,989.7174072265625,0.8544681668281555,0.09256815910339355,0.06459175050258636,-1.2441668510437012,-29.415264129638672,-13.509622573852539,-0.2697117328643799,0.48011112213134766,-0.26707959175109863,1.106679,8.60711,3.4546597,1
14,989.7094116210938,0.8484762907028198,0.19789603352546692,-0.013971325010061264,-0.7353239059448242,-30.835445404052734,-13.120012283325195,-0.155045747756958,0.19745540618896484,-0.1466507911682129,1.4531907,9.160031,3.2061014,1
14,989.6738891601562,0.9306349158287048,0.14876072108745575,0.0893593356013298,-0.7304902076721191,-31.41115379333496,-11.855325698852539,-0.5106792449951172,0.21143054962158203,-0.21419334411621094,1.4197079,9.238681,2.6000953,1
14,989.6713256835938,0.7419503927230835,0.4331860840320587,-0.09093642234802246,-0.3170037269592285,-32.9207763671875,-11.21483039855957,-0.0772789716720581,-0.049233436584472656,0.6056623458862305,0.98472154,9.367378,1.804713,1
14,989.668701171875,0.5866884589195251,0.3650091588497162,-0.25338900089263916,0.20653915405273438,-33.53764343261719,-9.873697280883789,0.29213786125183105,0.3849325180053711,0.5198071002960205,0.2796765,8.897872,2.1195488,1
14,989.673583984375,0.5720413327217102,-0.05523734167218208,-0.3709673285484314,0.6174173355102539,-34.312156677246094,-9.352800369262695,-0.20885378122329712,0.2064800262451172,-0.31832194328308105,0.79587114,9.388829,2.5503774,1
14,989.7235717773438,0.61345374584198,-0.08519792556762695,-0.23740984499454498,1.294581413269043,-34.837520599365234,-8.579580307006836,0.03318256139755249,0.15828418731689453,-0.27865099906921387,0.40868294,9.348313,1.8402145,1
14,989.7235717773438,0.5492717623710632,0.24609899520874023,-0.28987398743629456,1.740732192993164,-36.15827560424805,-8.340093612670898,0.4508635997772217,0.5038566589355469,-0.47643160820007324,0.07168269,9.3506975,2.0532606,1
14,989.7083129882812,0.5854910016059875,0.03917152062058449,-0.2681691646575928,2.1921534538269043,-37.31669235229492,-7.110124588012695,-0.033183157444000244,0.3752784729003906,-0.19496583938598633,0.7002028,9.469861,1.6011226,1
14,989.761474609375,1.1676578521728516,-0.9667036533355713,-0.35951536893844604,1.896815299987793,-37.69975662231445,-5.194574356079102,-1.0064388513565063,0.06541633605957031,-0.8437557816505432,0.67873377,9.634307,0.84362155,1
14,989.7408447265625,1.1552739143371582,-0.7601755857467651,-0.6294266581535339,1.872133731842041,-39.567718505859375,-3.310831069946289,1.446907877922058,0.7529697418212891,1.1929093599319458,-1.338365,9.02657,-1.2631905,1
14,989.7205810546875,0.5291652679443359,0.010009923949837685,-0.5292918682098389,2.754410743713379,-39.743019104003906,-2.512716293334961,0.9073141813278198,0.8009529113769531,1.599176287651062,-1.085057,9.121903,-0.71163434,1
14,989.6925659179688,-0.13063211739063263,-0.05497118830680847,-0.12675529718399048,3.3816003799438477,-40.52545166015625,-2.4096126556396484,0.3615227937698364,0.008089065551757812,0.41442596912384033,-0.2533927,9.732022,0.27311984,1
14,989.745361328125,-0.8928278088569641,0.8997711539268494,0.17644551396369934,3.9958343505859375,-39.159000396728516,-4.354860305786133,-0.2083001434803009,-0.07701396942138672,-0.8504313230514526,0.14330947,9.739173,2.1076999,1
15,989.7554931640625,-0.03156198188662529,0.6062910556793213,0.03902661055326462,4.5354461669921875,-38.70532989501953,-6.158212661743164,0.9031886458396912,0.691741943359375,0.7940110564231873,-0.60475135,9.281585,0.7181499,1
15,989.7554931640625,-0.03156198188662529,0.6062910556793213,0.03902661055326462,4.5354461669921875,-38.70532989501953,-6.158212661743164,0.7766246795654297,0.647028923034668,0.732907772064209,-0.11245319,9.372149,0.59505343,1
15,989.71728515625,0.12716250121593475,0.13717558979988098,0.16978779435157776,4.671100616455078,-37.999366760253906,-5.373598098754883,-1.238487958908081,-0.44823455810546875,0.05640554428100586,0.9032335,10.041852,1.1584457,1
15,989.7678833007812,-0.1748393028974533,0.6447736024856567,-0.26563847064971924,5.544085502624512,-38.70972442626953,-5.235603332519531,0.1938544511795044,0.49830150604248047,0.4065275192260742,-0.38494515,9.102839,0.9264578,1
15,989.7678833007812,-0.1748393028974533,0.6447736024856567,-0.26563847064971924,6.417506217956543,-38.682029724121094,-5.371816635131836,-0.8859332799911499,-0.044417381286621094,-1.1578941345214844,0.31049484,9.629545,1.816524,1
15,989.7376098632812,0.05086362361907959,0.28511396050453186,-0.15272045135498047,7.21910285949707,-38.56373977661133,-5.19432258605957,-0.5441719889640808,0.0691518783569336,1.3275810480117798,0.46342695,9.839274,0.4624822,1
15,989.729736328125,0.3367539346218109,0.567808210849762,-0.36484092473983765,8.647890090942383,-39.2278938293457,-4.913724899291992,-0.2908814549446106,-0.20537853240966797,0.2792662978172302,-0.36828053,9.93699,0.13343912,1
15,989.7345581054688,-0.07963074743747711,0.3114791810512543,-0.43674618005752563,9.120267868041992,-38.258914947509766,-4.812261581420898,-1.1797263622283936,-0.37801265716552734,-0.7363686561584473,0.14791676,9.984654,1.908839,1
15,989.7345581054688,-0.07963074743747711,0.3114791810512543,-0.43674618005752563,9.120267868041992,-38.258914947509766,-4.812261581420898,-0.41492652893066406,0.18956565856933594,0.8466857671737671,-1.0016477,9.558049,-0.36367732,1
15,989.7597045898438,0.06351445615291595,0.1859111487865448,-0.5356823801994324,11.413755416870117,-38.58646011352539,-6.301279067993164,-0.03194928169250488,0.3323984146118164,-2.0695815086364746,-1.3075767,9.460336,2.0627031,1
15,989.7597045898438,0.06351445615291595,0.1859111487865448,-0.5356823801994324,11.413755416870117,-38.58646011352539,-6.301279067993164,0.06162738800048828,0.8168039321899414,-1.9348207712173462,-1.1737636,8.976529,1.7052536,1
15,989.7947387695312,0.21651335060596466,0.1671358197927475,-0.18068309128284454,11.31576156616211,-39.15304946899414,-5.098260879516602,-0.3264138102531433,0.1821269989013672,1.6630439758300781,-0.6002088,9.808294,-0.16010384,1
15,989.683349609375,0.36964520812034607,-0.07388009130954742,-0.11410403996706009,11.6141357421875,-39.558998107910156,-4.273658752441406,-0.22841644287109375,0.14858055114746094,-0.2134484052658081,-0.70299613,9.677215,1.1868323,1
15,989.6906127929688,0.5388891100883484,-0.3793444335460663,-0.3841482698917389,11.728865623474121,-39.76816177368164,-3.432270050048828,0.20143938064575195,0.1936016082763672,1.0191709995269775,-0.85119164,9.395988,-1.4194593,1
15,989.7464599609375,0.2817613482475281,-0.5224893093109131,-0.37882182002067566,11.281841278076172,-39.92350769042969,-3.123342514038086,-5.156999588012695,-1.468214988708496,-3.571998119354248,3.768467,9.391223,1.044796,1
15,989.6693725585938,-0.1973406970500946,-3.436251401901245,-0.9487377405166626,10.99191665649414,-39.24634552001953,-3.8111495971679688,2.528343439102173,-2.357760429382324,-3.6395983695983887,-7.7317624,10.9522705,3.1800108,1
15,989.7285766601562,-0.3456784188747406,-0.754983127117157,-2.514941453933716,13.58323860168457,-39.611549377441406,-4.574014663696289,2.523404359817505,1.8424062728881836,0.8083661794662476,-4.0585046,8.221034,1.111074,1
15,989.6517944335938,-0.042211275547742844,-0.15723712742328644,-0.334479957818985,13.89256477355957,-39.37504577636719,-3.8656749725341797,-1.2303367853164673,-0.5025196075439453,-0.7916228771209717,-2.2254715,9.686751,2.289939,1
15,989.6671752929688,0.46512070298194885,-0.2915935516357422,-0.17628824710845947,14.55021858215332,-39.707725524902344,-3.485647201538086,-0.8285496234893799,-0.4452533721923828,-0.03296339511871338,-2.5672493,9.558055,0.9974443,1
15,989.7052001953125,0.46871617436408997,0.3052203357219696,-0.41304299235343933,15.103519439697266,-40.03276062011719,-3.0899829864501953,-0.18699359893798828,0.25835132598876953,-0.3659156560897827,-3.2465248,8.940799,1.1110202,1
15,989.73291015625,0.5716486573219299,0.15302056074142456,-0.5443360805511475,16.490510940551758,-40.89460754394531,-1.9445476531982422,-0.27476930618286133,0.31174755096435547,-0.40161335468292236,-3.2925076,8.804965,0.646996,1
15,989.7200317382812,0.7321085333824158,-0.05363810807466507,-0.5142325162887573,17.54037094116211,-41.54526138305664,-0.9134922027587891,-0.5919749736785889,0.11062335968017578,-0.22380879521369934,-2.797861,9.198209,0.11673687,1
15,989.747802734375,0.8807133436203003,-0.1296713948249817,-0.5299448370933533,17.69858169555664,-41.02903747558594,0.10970306396484375,-0.963463544845581,-0.2025737762451172,-0.06798939406871796,-3.5053358,8.876468,-0.16733322,1
15,989.757568359375,0.7847070693969727,-0.014223553240299225,-0.7939968109130859,19.12665557861328,-42.64308166503906,2.062662124633789,0.36322832107543945,0.43892765045166016,0.19271165132522583,-4.4852586,8.485612,-0.7236316,1
16,989.7451782226562,0.7134681940078735,0.021728988736867905,-0.7192949056625366,20.87862777709961,-42.531253814697266,3.479799270629883,-0.30624866485595703,-0.01767444610595703,-0.4282090365886688,-4.002562,8.704875,-0.31647855,1
16,989.732177734375,1.00654935836792,-0.2836022973060608,-0.6632351279258728,21.605220794677734,-42.431243896484375,4.824686050415039,0.2019181251525879,0.40045833587646484,1.2598457336425781,-4.698087,8.187705,-2.0800502,1
16,989.7092895507812,1.2571532726287842,-0.23499971628189087,-0.7231560349464417,22.454696655273438,-42.90132141113281,6.7228851318359375,-0.8053250312805176,0.1826610565185547,0.36898791790008545,-4.475889,8.054242,-2.1723769,1
16,989.6987915039062,1.0138742923736572,-0.3163593113422394,-0.5812093615531921,23.615156173706055,-43.02751159667969,8.553037643432617,-0.30033445358276367,0.4600696563720703,0.797027587890625,-4.6838746,7.730118,-2.4659157,1
16,989.7089233398438,0.912408709526062,-0.14112357795238495,-0.6392660140991211,24.90472412109375,-43.61198425292969,9.928205490112305,-0.14223814010620117,0.5366621017456055,0.8383262157440186,-5.2025466,7.441743,-3.067191,1
16,989.7188720703125,0.564068615436554,-0.13699586689472198,-0.5969212055206299,27.003522872924805,-43.65050506591797,12.917367935180664,-0.18987703323364258,0.1516728401184082,0.7932310104370117,-5.3364444,7.5132427,-3.2873464,1
16,989.7188720703125,0.564068615436554,-0.13699586689472198,-0.5969212055206299,27.003522872924805,-43.65050506591797,12.917367935180664,0.0681600570678711,0.08679866790771484,0.4012765884399414,-6.0104604,7.4417458,-2.816279,1
16,989.7188720703125,0.3623349964618683,0.07312726229429245,-0.572020411491394,28.16412353515625,-43.670772552490234,14.048444747924805,0.48278379440307617,0.17348003387451172,0.41898655891418457,-6.242344,7.291601,-2.8470583,1
16,989.7337036132812,0.4717920422554016,0.0783202201128006,-0.4142277240753174,29.513530731201172,-42.619140625,15.780562400817871,-0.4752779006958008,0.010781288146972656,0.8992931842803955,-5.678391,7.2630033,-3.4578028,1
16,989.7337036132812,0.4717920422554016,0.0783202201128006,-0.4142277240753174,29.513530731201172,-42.619140625,15.780562400817871,-0.15665292739868164,0.1708521842956543,0.3781280517578125,-5.9676323,6.9412622,-3.230557,1
16,989.766357421875,0.35341525077819824,0.14942646026611328,-0.44352221488952637,30.555675506591797,-42.17082214355469,16.825489044189453,-0.31789398193359375,0.24861907958984375,0.6396548748016357,-6.027444,6.7005525,-3.384431,1
16,989.766357421875,0.35341525077819824,0.14942646026611328,-0.44352221488952637,31.487083435058594,-42.35288619995117,17.770395278930664,-0.11897850036621094,0.1491084098815918,-0.010244607925415039,-6.409891,6.5742407,-3.0790677,1
16,989.7232666015625,0.310806542634964,-0.2732171416282654,-0.6453888416290283,33.64985656738281,-40.69697570800781,18.2640380859375,-0.4399991035461426,0.014482498168945312,-0.33533191680908203,-6.4195137,6.4717607,-2.911002,1
16,989.7206420898438,0.29456186294555664,-0.22461459040641785,-0.7493849992752075,34.52121353149414,-40.302459716796875,18.106679916381836,-0.014957904815673828,0.5069594383239746,-0.24704670906066895,-6.6490083,5.9283752,-2.6340451,1
16,989.7206420898438,0.29456186294555664,-0.22461459040641785,-0.7493849992752075,34.52121353149414,-40.302459716796875,18.106679916381836,0.1195821762084961,0.6143660545349121,-0.3726069927215576,-7.064914,5.4636374,-2.645887,1
16,989.7180786132812,0.2784503698348999,-0.1825367659330368,-0.6499157547950745,36.59914779663086,-38.83159255981445,19.009143829345703,-0.539649486541748,0.358548641204834,-0.7086336612701416,-6.77102,5.454106,-2.4659853,1
16,989.7180786132812,0.2784503698348999,-0.1825367659330368,-0.6499157547950745,36.59914779663086,-38.83159255981445,19.009143829345703,-0.39363670349121094,0.38790369033813477,-0.6056323051452637,-7.136739,5.18718,-2.544109,1
16,989.7252197265625,0.4073478579521179,-0.3633653521537781,-0.6246154308319092,37.782875061035156,-38.197635650634766,19.405515670776367,-0.4851365089416504,0.27770328521728516,-0.17684149742126465,-7.4259796,4.841606,-3.0554304,1
16,989.7203369140625,0.6355812549591064,-0.4628344774246216,-0.7338046431541443,39.58661651611328,-37.61542510986328,20.017311096191406,-0.31734228134155273,0.16509723663330078,-0.07619786262512207,-7.7128315,4.5913634,-2.421026,1
16,989.7176513671875,0.7213355302810669,-0.5109045505523682,-0.854978084564209,40.61259460449219,-36.33934020996094,20.939306259155273,0.05907726287841797,0.4808366298675537,-0.5752348899841309,-8.539802,3.8501656,-2.5962048,1
16,989.7379150390625,0.7350514531135559,-0.8627079725265503,-0.9774832129478455,42.062744140625,-35.35030746459961,20.888925552368164,0.04555797576904297,0.3849680423736572,0.03917193412780762,-8.562459,3.5903578,-2.5913568,1
16,989.7453002929688,0.7309184670448303,-0.8750908374786377,-0.9292821288108826,44.82037353515625,-32.82130432128906,21.23981475830078,0.2845745086669922,0.539130687713623,-0.028763771057128906,-9.391766,2.9182734,-2.4469585,1
16,989.7781982421875,0.5407629609107971,-0.7424646019935608,-0.7897351980209351,45.89320373535156,-33.34394454956055,20.41221809387207,0.832545280456543,0.6761233806610107,0.18611407279968262,-9.463475,2.7633607,-2.5203428,1
16,989.7831420898438,0.17071713507175446,-0.4596371054649353,-0.35603976249694824,45.961334228515625,-31.962848663330078,19.782014846801758,0.2615194320678711,0.7767858505249023,0.029488801956176758,-9.11695,2.710929,-2.2386467,1
16,989.7657470703125,-0.009045973420143127,-0.3204870820045471,-0.11276015639305115,46.4132194519043,-31.17094612121582,19.666044235229492,-0.0378570556640625,0.21713829040527344,-0.11733567714691162,-9.16715,3.068421,-2.1344907,1
17,989.7420043945312,0.034896258264780045,-0.2555060088634491,-0.14857961237430573,46.2546272277832,-30.792665481567383,19.66834831237793,1.7797574996948242,0.9470338821411133,0.6248314380645752,-10.553304,2.4535353,-2.2457504,1
17,989.8335571289062,0.12357956171035767,-0.4608355760574341,-0.1290053427219391,46.364768981933594,-31.426549911499023,18.918624877929688,-0.019317626953125,-0.15383052825927734,0.40978097915649414,-9.22214,3.3329651,-2.1084538,1
17,989.8765258789062,-0.11304199695587158,-0.19625073671340942,0.2745964527130127,46.180824279785156,-31.861909866333008,18.510536193847656,0.5171937942504883,-0.32723188400268555,-0.11932921409606934,-9.336867,3.7309732,-1.7817808,1
17,989.6965942382812,-0.35459035634994507,-0.012492803856730461,0.32426437735557556,45.4841194152832,-32.35612487792969,18.415863037109375,0.23018455505371094,-0.2784769535064697,-1.0777593851089478,-9.281911,3.692841,-0.61238396,1
17,989.6734008789062,-0.2223644256591797,-0.061628103256225586,0.19616647064685822,45.57450866699219,-31.796903610229492,17.599369049072266,0.6598424911499023,0.15054941177368164,-0.39294636249542236,-9.520912,3.4807296,-1.4716794,1
17,989.7489013671875,0.17324788868427277,-0.07574285566806793,0.08431386947631836,45.19764709472656,-32.15022659301758,18.370975494384766,0.16250228881835938,0.22738146781921387,0.07402360439300537,-9.174388,3.3353498,-1.8622689,1
17,989.759521484375,0.23250330984592438,-0.1560371071100235,0.04410021752119064,45.49615478515625,-32.45025634765625,18.496498107910156,0.4644308090209961,0.41938257217407227,0.009430527687072754,-9.504205,3.1661372,-1.6255497,1
17,989.7743530273438,0.12704230844974518,-0.1789402961730957,0.10681765526533127,44.96693420410156,-32.31349182128906,18.26211166381836,0.17235851287841797,0.49246811866760254,-0.1181330680847168,-9.238938,3.1828203,-1.5142922,1
17,989.7772216796875,0.08496452122926712,-0.10836660116910934,0.2451687902212143,44.79045867919922,-32.84739685058594,18.166576385498047,-0.27898216247558594,0.09740781784057617,0.04376089572906494,-8.784867,3.6189609,-1.6042469,1
17,989.7819213867188,0.07977147400379181,-0.037526603788137436,0.3258625566959381,44.55115509033203,-33.38779067993164,18.6199951171875,-0.5613794326782227,-0.2326490879058838,-0.029133200645446777,-8.402495,4.1051497,-1.6397561,1
17,989.76708984375,0.2048068791627884,-0.2187545746564865,0.18444888293743134,43.984703063964844,-33.44430923461914,19.01852798461914,-0.07054996490478516,0.053565263748168945,-0.26482295989990234,-8.677346,3.943087,-1.4338105,1
17,989.7841796875,-0.04313308373093605,-0.04032295569777489,0.06647098064422607,43.559967041015625,-33.209266662597656,18.069427490234375,0.4081869125366211,0.32649898529052734,-0.26645588874816895,-9.274833,3.6618607,-1.3296547,1
17,989.7412719726562,-0.17429353296756744,0.08045127987861633,0.1243947371840477,43.83839416503906,-34.160587310791016,18.775047302246094,-0.007656097412109375,0.20726275444030762,-0.24275195598602295,-8.882899,3.8096242,-1.4787894,1
17,989.7791748046875,-0.020229697227478027,-0.08679511398077011,0.13811005651950836,43.25354766845703,-33.548736572265625,17.905559539794922,0.42400360107421875,0.4514439105987549,-0.246576189994812,-9.136241,3.7047603,-1.1095068,1
17,989.7384643554688,-0.08188171684741974,0.02918543666601181,0.16620640456676483,43.45751953125,-34.094661712646484,16.982257843017578,0.020303726196289062,0.047904014587402344,0.09565854072570801,-8.9355,3.9645379,-1.6255579,0
17,989.7359619140625,-0.030615687370300293,-0.034464094787836075,0.23797862231731415,42.697853088378906,-34.70128631591797,18.13561248779297,0.21105384826660156,0.2522611618041992,-0.08153939247131348,-9.050227,3.9025729,-1.2917836,0
17,989.7359619140625,-0.030615687370300293,-0.034464094787836075,0.23797862231731415,42.697853088378906,-34.70128631591797,18.13561248779297,-0.20219707489013672,0.08244895935058594,-0.2937295436859131,-8.173144,4.3673124,-1.2752142,0
17,989.725830078125,0.02158244326710701,-0.031002024188637733,-0.009561870247125626,42.31098937988281,-35.747596740722656,17.024700164794922,-0.009552955627441406,0.03186178207397461,0.05727982521057129,-8.443215,4.3482466,-1.6989446,0
17,989.7662353515625,-0.013304825872182846,-0.06788678467273712,-0.019149193540215492,42.10174560546875,-35.36402130126953,16.957515716552734,-0.581486701965332,-0.1723613739013672,0.13501882553100586,-8.216187,4.448344,-1.4030452,0
17,989.7662353515625,-0.013304825872182846,-0.06788678467273712,-0.019149193540215492,42.10174560546875,-35.36402130126953,16.957515716552734,0.041855812072753906,0.20644521713256836,0.03655064105987549,-8.96466,3.9716997,-1.343905,0
17,989.7456665039062,-0.140603706240654,0.030250590294599533,-0.12727339565753937,41.88533020019531,-34.249755859375,17.00265121459961,0.4413423538208008,0.5523700714111328,0.3513040542602539,-9.084617,3.6809506,-1.6138082,0
17,989.7582397460938,-0.14565803110599518,0.06913391500711441,0.18512292206287384,42.16693878173828,-35.09221649169922,16.854581832885742,0.22818374633789062,0.07619524002075195,-0.07805109024047852,-8.957997,4.0622764,-1.3841938,0
17,989.733154296875,-0.14086391031742096,0.1516917645931244,0.20536312460899353,41.548744201660156,-34.40685272216797,16.986724853515625,-0.3704185485839844,-0.23455333709716797,-0.09832453727722168,-8.403585,4.5174837,-1.1096025,0
17,989.733154296875,-0.14086391031742096,0.1516917645931244,0.20536312460899353,41.936092376708984,-35.36139678955078,17.444795608520508,-0.5364551544189453,-0.20882320404052734,-0.044979095458984375,-8.028416,4.6509485,-1.5641096,0
17,989.7506713867188,-0.16376663744449615,0.10442062467336655,0.07806432992219925,41.81787872314453,-35.89323043823242,17.0322265625,-0.3697023391723633,-0.21950817108154297,-0.08944594860076904,-8.245943,4.6914654,-1.2989869,0
18,989.7531127929688,-0.11303302645683289,0.047029487788677216,-0.06388185918331146,42.46825408935547,-34.38887023925781,17.15191650390625,0.4298429489135742,0.26349353790283203,0.17009210586547852,-8.8530245,4.2457933,-1.6611732,0
18,989.7531127929688,-0.11303302645683289,0.047029487788677216,-0.06388185918331146,42.46825408935547,-34.38887023925781,17.15191650390625,0.4404611587524414,0.3088521957397461,0.2095785140991211,-8.783763,4.233878,-1.7345606,0
18,989.7654418945312,-0.07614782452583313,0.09376785159111023,-0.16255168616771698,42.11628723144531,-35.08692169189453,16.785093307495117,-0.17040348052978516,0.03194427490234375,0.8349517583847046,-8.802928,4.257712,-2.2742867,0
18,989.7374877929688,-0.10890424251556396,0.12239674478769302,-0.011816713958978653,42.36124038696289,-35.2786865234375,16.296661376953125,0.4729900360107422,0.20803070068359375,-0.08771896362304688,-8.822093,4.2982287,-1.4789112,0
18,989.7730712890625,-0.2568422853946686,0.16966773569583893,-0.031124427914619446,41.9272346496582,-35.15840530395508,16.51047134399414,-0.7506976127624512,-0.07149600982666016,-0.09623384475708008,-8.451703,4.503192,-1.1191006,0
18,989.7476196289062,-0.30943921208381653,-0.05949714779853821,0.10669422894716263,42.57396697998047,-34.9212646484375,15.935029983520508,0.7809419631958008,0.23644256591796875,0.23331737518310547,-8.948848,4.357813,-1.6990693,0
18,989.7476196289062,0.07632021605968475,-0.5081063508987427,0.07646774500608444,41.61445617675781,-34.923641204833984,15.15921401977539,-0.4627199172973633,-0.2877964973449707,4.966259002685547E-4,-7.985763,4.858302,-1.1001713,0
18,989.7349853515625,-0.13140572607517242,-0.44765278697013855,0.08352531492710114,41.431495666503906,-34.989227294921875,14.575370788574219,-0.3450794219970703,-0.28897666931152344,0.1490299105644226,-8.315616,4.7915716,-1.130949,0
18,989.7523193359375,-0.22301796078681946,-0.15577064454555511,0.001633365754969418,41.38372039794922,-35.5072135925293,13.227323532104492,-0.7171592712402344,-0.4636054039001465,-0.9781448841094971,-7.8974285,5.118082,-0.22904916,0
18,989.75244140625,-0.07960641384124756,-0.26642492413520813,-0.10063174366950989,41.56407928466797,-34.706512451171875,13.691569328308105,0.3387870788574219,0.27561283111572266,-0.9208555817604065,-9.006389,4.2219706,-0.08465399,0
18,989.7523193359375,0.21347464621067047,-0.20610447227954865,-0.16428105533123016,41.903709411621094,-34.54646682739258,13.552885055541992,-0.48490428924560547,-0.3815293312072754,-0.11225080490112305,-8.330092,4.6604953,-0.5415282,0
18,989.7572631835938,0.21866825222969055,0.03251448646187782,-0.01833975873887539,41.188636779785156,-33.95201873779297,14.013213157653809,-0.23190021514892578,1.5566823482513428,0.08420854806900024,-8.939563,3.7024179,-0.9321208,0
18,989.76708984375,0.24796344339847565,-0.20450671017169952,0.11361994594335556,41.47633361816406,-34.78858184814453,13.555924415588379,-0.16087913513183594,-0.05857658386230469,-0.034775614738464355,-8.311065,4.5746994,-0.768788,0
18,989.737060546875,0.4467686712741852,-0.6413979530334473,0.06022379919886589,41.28369140625,-34.494720458984375,13.337461471557617,-0.3534841537475586,0.10071039199829102,0.851547360420227,-8.370858,4.226742,-1.1641151,0
18,989.7597045898438,0.49683651328086853,-0.5720227360725403,-3.6287211696617305E-4,41.021156311035156,-34.58300018310547,14.15292739868164,-0.6704063415527344,0.14562129974365234,0.3043026924133301,-8.081725,4.4817533,-1.0646966,0
18,989.7238159179688,0.48591798543930054,-0.5178275108337402,0.07061050832271576,40.627967834472656,-34.63478088378906,13.677655220031738,0.3494873046875,0.13216686248779297,0.4234982132911682,-8.942136,4.293476,-0.8114102,0
18,989.7391357421875,0.5863195061683655,-0.03672799840569496,-0.15069781243801117,40.49513626098633,-33.91707229614258,14.887877464294434,0.012310028076171875,0.8599934577941895,0.6111915707588196,-8.896773,3.8287375,-1.4103165,0
18,989.7437744140625,0.3977683186531067,-0.0026396415196359158,0.007893484085798264,40.55641174316406,-35.12432098388672,15.48796558380127,0.26351356506347656,0.02408599853515625,0.534400463104248,-8.884869,4.1623974,-1.1522957,0
18,989.7412109375,0.02918758988380432,0.21041299402713776,0.2205469012260437,40.24517822265625,-34.4677734375,15.882431030273438,-0.18993282318115234,0.3757176399230957,-0.27869415283203125,-8.583787,4.1647825,-0.5036864,0
18,989.77685546875,0.04490066319704056,-0.21183091402053833,0.20283709466457367,40.09819030761719,-34.92168426513672,16.239578247070312,-0.42757129669189453,-0.45447778701782227,0.6272985339164734,-8.422099,4.6104164,-1.0882423,0
18,989.7588500976562,0.2397053837776184,-0.3684237599372864,0.08112844079732895,39.51236343383789,-34.679595947265625,15.545843124389648,0.4249868392944336,0.8619306087493896,0.24098581075668335,-9.079304,4.1599765,-0.87519234,0
18,989.7738647460938,0.1587357223033905,-0.15057583153247833,0.04463903605937958,39.25202941894531,-35.028778076171875,15.68337631225586,0.574040412902832,-0.1686558723449707,-0.08987408876419067,-8.971739,4.8201447,-0.7662993,0
18,989.78662109375,-0.013704182580113411,0.48125866055488586,0.058220986276865005,38.355777740478516,-35.07857131958008,16.979164123535156,0.3417081832885742,0.26202917098999023,-0.2645179033279419,-8.400533,5.13712,-0.8586184,0
18,989.78662109375,-0.013704182580113411,0.48125866055488586,0.058220986276865005,38.355777740478516,-35.07857131958008,16.979164123535156,0.8519258499145508,0.9760446548461914,0.012376070022583008,-8.950192,4.37447,-1.225533,0
19,989.7656860351562,0.16312937438488007,0.26807284355163574,0.12892776727676392,38.807472229003906,-36.025150299072266,16.810977935791016,-0.28715991973876953,-0.47115039825439453,0.2028997540473938,-8.704013,4.94884,-1.1095383,0
19,989.7484741210938,0.30014869570732117,-0.13060201704502106,0.009351866319775581,38.65581512451172,-35.37712860107422,17.027381896972656,1.070124626159668,-0.059992313385009766,-0.5829861164093018,-9.174806,4.998888,-0.35913348,0
19,989.7255249023438,0.49668964743614197,-0.1602962166070938,-0.032459806650877,38.792694091796875,-35.30182647705078,17.30982208251953,-0.6278386116027832,-0.9002752304077148,0.41416704654693604,-7.9296465,5.1990833,-1.7250075,0
19,989.7406005859375,0.724789023399353,0.07219758629798889,-0.17720258235931396,38.4110221862793,-34.659141540527344,18.63976287841797,-0.23223209381103516,0.6684284210205078,0.5992100238800049,-8.479305,3.9144957,-1.857569,0
19,989.7534790039062,0.6076098680496216,-0.06681927293539047,-0.23592530190944672,39.090545654296875,-34.91918182373047,19.858999252319336,-0.08909416198730469,0.3224458694458008,0.3407331705093384,-8.38608,4.0288925,-1.7818168,0
19,989.7325439453125,0.22837583720684052,0.14223872125148773,-0.0372537337243557,39.232826232910156,-34.57560729980469,20.432846069335938,-0.6764359474182129,0.5869395732879639,1.1164840459823608,-8.213988,3.7500482,-2.226849,0
19,989.7377319335938,-0.07029759883880615,0.28778040409088135,0.017340946942567825,38.90469741821289,-34.46149826049805,20.55371856689453,0.18291568756103516,0.8185577392578125,0.2540804147720337,-8.840123,3.654717,-1.5332572,0
19,989.7576904296875,-0.029950914904475212,0.10655246675014496,0.08658299595117569,38.490882873535156,-34.79627227783203,20.560089111328125,0.03519248962402344,0.5672249794006348,0.49484336376190186,-8.558095,3.9478598,-2.0303679,0
19,989.7576904296875,-0.029950914904475212,0.10655246675014496,0.08658299595117569,38.490882873535156,-34.79627227783203,20.560089111328125,0.16097450256347656,0.2760658264160156,0.4520364999771118,-8.610655,4.4459643,-2.0351005,0
19,989.7526245117188,0.11678893864154816,0.087644062936306,0.19737032055854797,38.26666259765625,-35.427852630615234,20.939533233642578,0.012310028076171875,0.13631391525268555,0.4516714811325073,-8.49592,4.7033577,-2.1392558,0
19,989.76220703125,0.11199508607387543,0.06900198012590408,0.22599920630455017,37.49925231933594,-35.355804443359375,20.283729553222656,0.1515035629272461,-0.27731752395629883,0.5678340196609497,-8.617785,4.8964033,-2.0303626,0
19,989.754638671875,0.1677880734205246,-0.008762228302657604,0.14317487180233002,37.7230339050293,-35.46227264404297,20.178491592407227,-0.1850137710571289,-0.38129138946533203,0.3328179121017456,-8.146956,5.008417,-2.0942752,0
19,989.7470703125,0.10187472403049469,-0.04351641610264778,-0.009823663160204887,37.7735481262207,-35.573482513427734,20.947057723999023,-0.22266387939453125,-0.05223512649536133,0.17133677005767822,-8.483914,4.500778,-1.9356711,0
19,989.7315063476562,-0.10518606007099152,0.34570422768592834,-0.0650842934846878,37.649986267089844,-34.74102020263672,20.99437141418457,0.2509164810180664,0.3709745407104492,0.2163372039794922,-8.749173,3.8739753,-1.9735446,0
19,989.757080078125,-0.12289626896381378,0.3638137876987457,-0.2790691554546356,38.470252990722656,-35.07926559448242,21.041732788085938,0.10893726348876953,0.7383022308349609,0.07038462162017822,-8.756324,3.6118145,-2.1842241,0
19,989.751708984375,0.18323346972465515,0.1061532199382782,-0.2841293215751648,38.914833068847656,-33.66259002685547,21.737157821655273,-0.20884418487548828,0.7565755844116211,1.3981730937957764,-8.574673,3.49265,-3.0198445,0
19,989.786865234375,0.07777220010757446,0.13598062098026276,-0.1456451565027237,39.032203674316406,-33.39460372924805,21.626405715942383,0.4610624313354492,0.703998327255249,-0.00434565544128418,-8.89968,3.5712976,-2.4209406,0
19,989.7515258789062,-0.1926717460155487,0.17033541202545166,0.021201666444540024,38.86418151855469,-33.65729522705078,21.66766929626465,0.032660484313964844,0.13386821746826172,0.06928181648254395,-8.68218,4.002671,-1.9238266,0
19,989.7741088867188,-0.0796208530664444,0.24104231595993042,0.18019217252731323,38.47541809082031,-33.81057357788086,21.65955924987793,0.12143707275390625,0.001026153564453125,0.5524275302886963,-8.658262,4.4507265,-2.6955326,0
19,989.7916870117188,0.008662682957947254,0.27806025743484497,0.13438574969768524,38.29674530029297,-34.083580017089844,22.241958618164062,-0.18589115142822266,-0.08135175704956055,0.27199482917785645,-8.443152,4.5007744,-2.4327712,0
19,989.761474609375,0.036226194351911545,0.1414402276277542,0.08365249633789062,38.02923583984375,-33.70207214355469,22.491809844970703,-0.28574085235595703,0.21437358856201172,0.39705324172973633,-8.127552,4.145722,-2.605784,0
19,989.77392578125,-0.02927430346608162,0.2803237736225128,0.06621935963630676,37.68199920654297,-33.86948013305664,23.017019271850586,-0.4254570007324219,0.4643545150756836,0.13450217247009277,-8.110894,3.919312,-2.4803286,0
19,989.77099609375,-0.07347674667835236,0.310150146484375,0.07674141228199005,37.8562126159668,-34.707237243652344,23.039194107055664,-0.02799510955810547,0.4308600425720215,0.4586806297302246,-8.440772,4.1385756,-2.7052193,0
19,989.768310546875,-0.06775027513504028,0.1687363237142563,0.09684854745864868,37.85620880126953,-34.707237243652344,23.039194107055664,-0.4106144905090332,0.4188108444213867,-0.31938624382019043,-7.9533033,4.1361938,-2.2791295,0
19,989.79638671875,-0.04351484030485153,-0.12434443086385727,0.09738148003816605,37.60903549194336,-34.67487335205078,22.382530212402344,-0.2986001968383789,0.24105405807495117,-0.30127644538879395,-8.089599,4.140962,-2.0258453,0
20,989.7810668945312,-0.042315736413002014,-0.019549235701560974,0.15144389867782593,37.12200927734375,-34.814613342285156,22.080833435058594,-0.44727563858032227,-0.23050308227539062,-0.04043078422546387,-7.917597,4.836881,-2.2602048,0
20,989.7785034179688,-0.023672938346862793,-5.077609093859792E-4,0.1603657752275467,37.069698333740234,-34.916709899902344,22.78772735595703,0.602360725402832,0.1551971435546875,-0.2869682312011719,-8.725454,4.5461226,-2.0897727,0
20,989.7910766601562,-0.05030384287238121,-0.009828927926719189,0.057701289653778076,36.970455169677734,-35.27294158935547,22.669897079467773,-0.0747995376586914,-0.06187105178833008,-0.4542945623397827,-8.324022,4.7177205,-1.9359112,0
20,989.7830200195312,-0.14071740210056305,0.053420983254909515,0.08127053827047348,36.31280517578125,-34.94026184082031,22.289867401123047,0.1854705810546875,-0.22129297256469727,-0.2410569190979004,-8.529626,4.965584,-2.1205592,0
20,989.76806640625,-0.21888042986392975,0.12319563329219818,0.02321397326886654,36.391014099121094,-34.392822265625,22.091814041137695,0.18082046508789062,-0.17521381378173828,-0.1652839183807373,-8.2954855,4.894087,-1.9856353,0
20,989.7750244140625,-0.29211661219596863,0.16647185385227203,0.04225585237145424,36.520118713378906,-34.851104736328125,21.63682746887207,0.1666097640991211,0.0029344558715820312,0.011135578155517578,-8.395932,4.6509943,-2.2294638,0
20,989.8007202148438,-0.28465908765792847,0.15715070068836212,-0.017265453934669495,36.20774841308594,-35.090553283691406,21.083099365234375,0.12074947357177734,-0.08968544006347656,-0.02982783317565918,-8.417512,4.7987595,-2.28865,0
20,989.7849731445312,-0.2327267974615097,0.0522221177816391,-0.07465623319149017,36.90705871582031,-35.33143997192383,21.29737091064453,0.26752185821533203,-0.2733645439147949,-0.32251811027526855,-8.596826,5.029939,-1.8720292,0
20,989.8005981445312,-0.15083397924900055,-0.20277544856071472,-0.20714809000492096,37.6234130859375,-34.923988342285156,21.086158752441406,0.3649406433105469,-0.03409862518310547,-0.45025908946990967,-8.5610485,4.589034,-1.7986524,0
20,989.8206787109375,-0.2629522681236267,0.03517767786979675,-0.2593457102775574,37.67213821411133,-34.45655059814453,20.435422897338867,0.29143810272216797,0.007970333099365234,-0.07101249694824219,-8.788161,4.653384,-2.1939816,0
20,989.8331909179688,-0.2516331672668457,0.16327551007270813,-0.25108960270881653,37.82727813720703,-34.36357116699219,19.79020118713379,0.7449769973754883,-0.056774139404296875,-0.18979835510253906,-9.182565,4.6176367,-2.0306513,0
20,989.794677734375,-0.24590599536895752,-0.18067167699337006,-0.09010109305381775,38.323570251464844,-34.10908126831055,18.92898941040039,-0.235443115234375,-0.36632490158081055,-0.15322721004486084,-8.389189,4.903632,-1.9667432,0
20,989.794677734375,-0.24590599536895752,-0.18067167699337006,-0.09010109305381775,38.323570251464844,-34.10908126831055,18.92898941040039,-0.0868368148803711,-0.13942384719848633,-0.4448322057723999,-8.633029,4.279215,-1.4814733,0
20,989.7816162109375,-0.36987537145614624,-0.23899495601654053,-0.38770875334739685,38.08970642089844,-33.1689453125,18.602079391479492,0.7977218627929688,0.5014786720275879,-0.4940425157546997,-8.776494,3.785878,-1.5572302,0
20,989.7943725585938,-0.3716057538986206,-0.10863345861434937,-0.4031548500061035,39.293766021728516,-32.88412857055664,18.091936111450195,-0.2991304397583008,0.8814656734466553,-1.2123301029205322,-8.420471,3.7954125,-1.0269834,0
20,989.78662109375,-0.43245822191238403,0.3334507942199707,-0.27332553267478943,39.83171844482422,-32.53784942626953,17.064964294433594,-0.1326580047607422,-0.2829103469848633,0.17059874534606934,-8.420542,4.5080147,-2.0803952,0
20,989.7560424804688,-0.46201860904693604,0.509086012840271,-0.230448380112648,40.61714172363281,-31.591796875,17.119529724121094,-0.0554962158203125,0.30699825286865234,0.11695289611816406,-8.4947,4.0218277,-2.212965,0
