Timestamp,P,Gx,Gy,Gz,Mx,My,Mz,LiAx,LiAy,LiAz,Ax,Ay,Az,earthAx,earthAy,earthAz,Value,Type
0,988.4879150390625,1.3667234452441335E-4,-2.587136114016175E-4,2.9732889379374683E-4,-14.420625686645508,19.258760452270508,-38.68280792236328,0.46185019612312317,2.426853895187378,-0.21980762481689453,0.06245035,-0.16149028,9.77302,-1.560383,-1.8916762,9.461959,0
0,988.4317626953125,0.0015940568409860134,0.00146727345418185,9.986592922359705E-4,-7.505764484405518,24.20475959777832,-37.728240966796875,0.4615360498428345,2.400625228881836,-0.2570676803588867,0.055056095,-0.14003523,9.784836,-0.8582215,-2.276982,9.478631,0
0,988.4044799804688,6.641157669946551E-4,9.342905832454562E-4,-7.314663380384445E-4,-6.94485330581665,23.8870906829834,-37.71910858154297,0.4513283669948578,2.4218482971191406,-0.25164794921875,0.054831564,-0.16147925,9.794283,-0.8263388,-2.3100505,9.483559,0
0,988.4266357421875,2.668062224984169E-4,-1.3132422463968396E-4,4.6788272447884083E-4,-7.403616428375244,24.45802116394043,-37.06594467163086,0.4416055977344513,2.400341510772705,-0.26523399353027344,0.05938679,-0.15909041,9.787161,-0.8499773,-2.2937646,9.478056,0
0,988.4166870117188,2.6546185836195946E-6,2.6779831387102604E-4,8.682841435074806E-4,-7.4758453369140625,25.02281379699707,-37.54977035522461,0.4370799958705902,2.3977291584014893,-0.2693328857421875,0.063942045,-0.1447853,9.806078,-0.84024495,-2.283961,9.500617,0
0,988.4413452148438,5.37450541742146E-4,-0.0011972904903814197,7.026398088783026E-5,-6.994229316711426,24.894285202026367,-37.53947830200195,0.44654062390327454,2.3902432918548584,-0.24498271942138672,0.061327606,-0.1423965,9.791855,-0.80957055,-2.2866523,9.487903,0
0,988.4590454101562,6.983173079788685E-6,-3.986941883340478E-4,4.7066539991647005E-4,-7.138173580169678,24.443326950073242,-37.336944580078125,0.43201327323913574,2.387206554412842,-0.23002243041992188,0.07066268,-0.1495408,9.779999,-0.81540024,-2.283926,9.475998,0
0,988.4738159179688,-3.9032637141644955E-4,-2.6588758919388056E-4,-1.941968221217394E-4,-7.024828910827637,24.338605880737305,-37.11732482910156,0.4509710371494293,2.388949155807495,-0.2576770782470703,0.05370885,-0.14715202,9.784712,-0.82614577,-2.2787614,9.481026,0
0,988.4434204101562,9.434174280613661E-4,-5.325548117980361E-4,6.056784186512232E-4,-7.366385459899902,24.651296615600586,-37.6988639831543,0.44606032967567444,2.4007108211517334,-0.2475728988647461,0.060653985,-0.15191306,9.784691,-0.8358301,-2.276051,9.480925,0
0,988.4586181640625,9.455813560634851E-4,-3.9974815445020795E-4,0.001405553543008864,-7.418017864227295,24.286832809448242,-37.59259796142578,0.4507715702056885,2.402385950088501,-0.25154685974121094,0.06281936,-0.14952432,9.789406,-0.82589936,-2.2747455,9.486948,0
0,988.47119140625,-3.8383365608751774E-4,-1.337836147285998E-4,-7.240460254251957E-4,-7.1496686935424805,24.16916847229004,-37.319129943847656,0.4500386118888855,2.418286085128784,-0.24599838256835938,0.060204923,-0.17335154,9.779915,-0.86088485,-2.2807395,9.472987,0
0,988.46337890625,-1.1535361409187317E-4,5.316548049449921E-4,7.582921534776688E-5,-7.6568827629089355,24.4844913482666,-37.413387298583984,0.4401588439941406,2.3913073539733887,-0.24521446228027344,0.06237024,-0.15427984,9.782263,-0.81880176,-2.2736204,9.480537,0
0,988.4679565429688,0.0010852320119738579,-1.344862685073167E-4,6.093884585425258E-4,-7.104125022888184,24.527753829956055,-37.116172790527344,0.43995311856269836,2.3595809936523438,-0.249176025390625,0.06453562,-0.14235787,9.786976,-0.8426359,-2.250149,9.488736,0
0,988.4576416015625,-1.1102505959570408E-4,1.314783003181219E-4,6.10315939411521E-4,-7.479324817657471,24.28181266784668,-37.120948791503906,0.4250328540802002,2.3656461238861084,-0.2341022491455078,0.06431109,-0.14473571,9.77512,-0.8246671,-2.2525659,9.477549,0
0,988.480224609375,-3.7517689634114504E-4,0.0010632326593622565,-5.4546166211366653E-5,-7.250975131988525,24.17976188659668,-37.458106994628906,0.4263920485973358,2.371718168258667,-0.24297428131103516,0.06955522,-0.14242242,9.784849,-0.8107145,-2.2529218,9.488703,0
0,988.480224609375,-3.7517689634114504E-4,0.0010632326593622565,-5.4546166211366653E-5,-7.157140731811523,24.26772117614746,-37.63167953491211,0.4258039891719818,2.3678719997406006,-0.23730087280273438,0.06706259,-0.15910287,9.780106,-0.8146421,-2.2636428,9.48117,0
0,988.4523315429688,-0.0010728491470217705,-9.230388095602393E-4,3.418877022340894E-4,-7.199343204498291,24.544225692749023,-37.56437301635742,0.4351389408111572,2.3690059185028076,-0.23169612884521484,0.06456995,-0.16386689,9.782464,-0.8077624,-2.2681577,9.483173,0
0,988.4598388671875,-4.0966836968436837E-4,-2.5682561681605875E-4,-1.9186222925782204E-4,-6.992462158203125,23.89533042907715,-37.943206787109375,0.4297410249710083,2.3653526306152344,-0.25920867919921875,0.071636945,-0.15433122,9.799025,-0.7762341,-2.2683353,9.502734,0
0,988.4669799804688,3.9026938611641526E-4,2.7564537595026195E-4,3.411938960198313E-4,-6.713160991668701,24.42011833190918,-37.78599548339844,0.4292415380477905,2.357215642929077,-0.25365352630615234,0.061974585,-0.1471789,9.780077,-0.8189917,-2.2394762,9.486275,0
0,988.47705078125,3.9125961484387517E-4,-5.234630079939961E-4,7.53024360165E-5,-7.210838317871094,24.270071029663086,-37.54656219482422,0.43796437978744507,2.3485476970672607,-0.21955490112304688,0.06904155,-0.15432622,9.780069,-0.81219447,-2.2436833,9.486021,0
0,988.4616088867188,3.9224972715601325E-4,1.4216589624993503E-4,7.572676986455917E-5,-7.100836277008057,23.530271530151367,-37.597206115722656,0.4329398274421692,2.344722270965576,-0.24705123901367188,0.061769098,-0.14002408,9.791895,-0.80490613,-2.2319577,9.501321,0
0,988.448974609375,-9.383394499309361E-4,1.4200512669049203E-4,7.615110371261835E-5,-7.036186695098877,24.17036247253418,-37.79859161376953,0.42266738414764404,2.3456809520721436,-0.22718524932861328,0.066446185,-0.15193792,9.782416,-0.80995077,-2.2349627,9.490632,0
0,988.4666748046875,5.273882416076958E-4,-2.576293481979519E-4,2.0973337814211845E-4,-7.231870651245117,24.461286544799805,-37.86244201660156,0.44148698449134827,2.346564292907715,-0.24993515014648438,0.06395358,-0.15670188,9.784775,-0.84626544,-2.2232544,9.492704,0
0,988.4559326171875,2.620623563416302E-4,-1.2463211896829307E-4,-3.2247393392026424E-4,-7.707536697387695,24.489782333374023,-37.48287582397461,0.43095454573631287,2.3380625247955322,-0.23007678985595703,0.06385082,-0.15431614,9.775296,-0.8453403,-2.21475,9.484965,0
0,988.4583129882812,6.625262903980911E-4,4.0783887379802763E-4,-4.55207540653646E-4,-7.599055767059326,23.748502731323242,-37.45621871948242,0.42538443207740784,2.353088855743408,-0.23383045196533203,0.06613797,-0.15908022,9.782389,-0.8193281,-2.2262936,9.49195,0
1,988.4583129882812,-2.6858894852921367E-4,1.4136222307570279E-4,2.1100661251693964E-4,-7.263992786407471,23.904130935668945,-37.36299133300781,0.43457990884780884,2.3394367694854736,-0.2233877182006836,0.061255425,-0.14954455,9.782379,-0.7942423,-2.2222142,9.494841,0
1,988.475341796875,1.328652142547071E-4,-6.579069304279983E-4,2.1185522200539708E-4,-7.35793399810791,24.922510147094727,-37.56207275390625,0.4339105188846588,2.335275888442993,-0.22239112854003906,0.06593251,-0.16145836,9.784737,-0.8120606,-2.2231405,9.495772,0
1,988.4524536132812,-1.3246055459603667E-4,-9.243835229426622E-4,-4.5350997243076563E-4,-7.307036399841309,23.916791915893555,-37.819000244140625,0.42429912090301514,2.3355183601379395,-0.22607898712158203,0.06582978,-0.15668936,9.777626,-0.81609,-2.2103543,9.491006,0
1,988.4498291015625,1.6876147128641605E-6,-6.582283531315625E-4,3.4586191759444773E-4,-7.508265018463135,23.833524703979492,-37.475181579589844,0.43321293592453003,2.3025925159454346,-0.23451900482177734,0.05855733,-0.13762064,9.7894535,-0.8364845,-2.1827428,9.507454,0
1,988.4269409179688,-5.299540353007615E-4,0.0012058221036568284,-1.8634553998708725E-4,-7.246952533721924,24.55246925354004,-37.78847122192383,0.4273008406162262,2.317166566848755,-0.21448993682861328,0.06084454,-0.14953445,9.770506,-0.80586916,-2.1964736,9.487618,0
1,988.4471435546875,-6.621216307394207E-4,6.730294553562999E-4,-3.1907903030514717E-4,-7.166135311126709,24.364805221557617,-37.86692810058594,0.4214474558830261,2.3127150535583496,-0.22761821746826172,0.058351874,-0.15429844,9.7847,-0.8050091,-2.200675,9.501397,0
1,988.4468994140625,-2.616576966829598E-4,7.079070201143622E-6,3.4713500645011663E-4,-6.993984699249268,23.893857955932617,-37.86589813232422,0.4161711037158966,2.298462390899658,-0.22178077697753906,0.07736838,-0.15667926,9.782324,-0.7788391,-2.2034245,9.50067,0
1,988.4442749023438,-2.606675843708217E-4,-2.5939755141735077E-4,-5.1914481446146965E-5,-7.1816534996032715,23.717939376831055,-37.51874923706055,0.4253389537334442,2.303407907485962,-0.244384765625,0.05575651,-0.16144331,9.798884,-0.81795526,-2.1971788,9.515812,0
1,988.4012451171875,1.3979646610096097E-4,-5.258742021396756E-4,-1.8464797176420689E-4,-7.074801921844482,24.081525802612305,-37.787445068359375,0.4340432286262512,2.289510488510132,-0.23861312866210938,0.053263843,-0.14475785,9.77757,-0.80198073,-2.1766968,9.499658,0
1,988.4237060546875,2.7394475182518363E-4,-7.923508528620005E-4,-5.106563912704587E-5,-6.930856704711914,24.53248405456543,-37.98998260498047,0.4238063395023346,2.2944676876068115,-0.22807025909423828,0.065110624,-0.16143821,9.779928,-0.7765649,-2.1962934,9.500029,0
1,988.438720703125,-5.240125465206802E-4,6.722257239744067E-4,4.819905152544379E-4,-6.941128730773926,23.627668380737305,-38.47434616088867,0.43262067437171936,2.2897136211395264,-0.19381427764892578,0.06022811,-0.15190263,9.763348,-0.7844957,-2.1756446,9.4868765,0
1,988.4260864257812,5.422410904429853E-4,-2.6004057144746184E-4,2.1609902614727616E-4,-6.959392070770264,23.6099910736084,-37.54668426513672,0.42229172587394714,2.275407552719116,-0.21163463592529297,0.06251526,-0.1471336,9.782276,-0.7886108,-2.1682248,9.507648,0
1,988.4409790039062,-3.8887414848431945E-4,2.724304504226893E-4,-4.9792404752224684E-5,-6.921862602233887,24.43540382385254,-37.754730224609375,0.4166419506072998,2.2798960208892822,-0.21045398712158203,0.0624125,-0.14713101,9.777533,-0.7747341,-2.1667004,9.504256,0
1,988.4432983398438,-2.547258627600968E-4,4.0542762144468725E-4,-4.936812911182642E-5,-7.098334789276123,23.90150260925293,-37.85026550292969,0.42066386342048645,2.2798354625701904,-0.233001708984375,0.06204027,-0.1661881,9.796436,-0.7950728,-2.1781313,9.519728,0
1,988.39794921875,-6.519205053336918E-4,-1.2757416698150337E-4,-5.810231668874621E-4,-7.371494293212891,25.015165328979492,-37.565399169921875,0.4108423590660095,2.274897336959839,-0.21286869049072266,0.064041734,-0.16617854,9.77983,-0.79802126,-2.167453,9.504847,0
1,988.4203491210938,4.0824199095368385E-4,2.798926143441349E-4,4.949081921949983E-4,-6.937786102294922,24.262746810913086,-38.20408630371094,0.4149271547794342,2.2556562423706055,-0.19752216339111328,0.068697155,-0.1542591,9.7703495,-0.7655244,-2.158662,9.499599,0
1,988.422607421875,9.967014193534851E-6,-3.860917058773339E-4,-4.3668359285220504E-4,-7.454430103302002,23.93709373474121,-38.25938415527344,0.4142064154148102,2.2791330814361572,-0.19633960723876953,0.063792944,-0.16378923,9.772705,-0.80785155,-2.1489182,9.500852,0
1,988.4326171875,-3.7934951251372695E-4,-6.978710880503058E-4,-1.329521182924509E-5,-7.62962532043457,24.405088424682617,-38.10580062866211,0.42806902527809143,2.259692907333374,-0.2046375274658203,0.056498915,-0.1494865,9.779795,-0.81902546,-2.1275506,9.511711,0
1,988.4146728515625,1.544809783808887E-4,-6.980657344684005E-4,-6.785711739212275E-4,-7.131405353546143,24.186845779418945,-38.246788024902344,0.40810567140579224,2.2450413703918457,-0.21292495727539062,0.06832406,-0.14948343,9.779784,-0.79057527,-2.1305332,9.513517,0
1,988.44482421875,-7.764258771203458E-4,1.0068732080981135E-4,-1.2267730198800564E-5,-7.344672203063965,24.19771385192871,-37.983604431152344,0.40753453969955444,2.2441673278808594,-0.20691299438476562,0.07058957,-0.15186365,9.777406,-0.7774928,-2.1308048,9.512145,0
1,988.3666381835938,-0.0011747009120881557,-3.266523708589375E-5,-4.112278111279011E-4,-7.14662504196167,24.172117233276367,-37.47373962402344,0.4112464487552643,2.234243392944336,-0.21045207977294922,0.06568539,-0.1542439,9.793964,-0.75679684,-2.139829,9.5288105,0
1,988.4068603515625,2.9123498825356364E-4,-5.654915585182607E-4,-6.770299514755607E-4,-6.76411247253418,23.79327964782715,-38.280357360839844,0.41049066185951233,2.2289090156555176,-0.19503402709960938,0.06078124,-0.14947428,9.772648,-0.78757817,-2.1140547,9.5100565,0
1,988.401611328125,2.924337168224156E-4,-1.6621232498437166E-4,2.555893443059176E-4,-7.2298054695129395,24.094465255737305,-37.84130096435547,0.4290573298931122,2.204704999923706,-0.1986103057861328,0.05348718,-0.14708789,9.777372,-0.7847049,-2.1096897,9.516036,0
1,988.3939819335938,-1.0584149276837707E-4,-6.9903873372823E-4,2.5610305601730943E-4,-7.118525981903076,24.3565616607666,-37.64282989501953,0.413529634475708,2.2183899879455566,-0.21630859375,0.05097291,-0.15185143,9.791563,-0.8044666,-2.1050177,9.530063,0
2,988.4393310546875,5.611469387076795E-4,7.655040826648474E-4,1.2345885625109076E-4,-7.794303894042969,24.777475357055664,-37.79427719116211,0.4268931746482849,2.2055585384368896,-0.20502662658691406,0.05562836,-0.15423168,9.786818,-0.8189495,-2.094168,9.526409,0
2,988.4393310546875,5.611469387076795E-4,7.655040826648474E-4,1.2345885625109076E-4,-7.794303894042969,24.777475357055664,-37.79427719116211,0.4120197892189026,2.202657699584961,-0.18543052673339844,0.057893872,-0.15422861,9.770235,-0.7990584,-2.091462,9.511673,0
2,988.4163208007812,-6.360757979564369E-4,-5.662699113599956E-4,-9.18540172278881E-6,-7.537993431091309,24.753950119018555,-37.6014404296875,0.4061487019062042,2.1920862197875977,-0.1983184814453125,0.06493923,-0.14469244,9.772591,-0.7942029,-2.0764153,9.517691,0
2,988.4364013671875,-9.011930669657886E-4,4.987989668734372E-4,-8.076193043962121E-4,-7.567614555358887,24.56803321838379,-37.35504913330078,0.40032127499580383,2.1957695484161377,-0.19699859619140625,0.06003505,-0.14945604,9.770212,-0.76570827,-2.0860412,9.51552,0
2,988.41357421875,-8.999945712275803E-4,4.986043786630034E-4,1.2500002048909664E-4,-6.868058681488037,23.326719284057617,-37.467193603515625,0.4184676706790924,2.1899781227111816,-0.21463680267333984,0.057520807,-0.14945294,9.786772,-0.758658,-2.0866237,9.532944,0
2,988.4337768554688,-0.0010319538414478302,4.984097322449088E-4,7.913034060038626E-4,-6.978466510772705,24.54072380065918,-38.214080810546875,0.4031812846660614,2.1940419673919678,-0.18973922729492188,0.06695604,-0.1542164,9.77019,-0.76620793,-2.0772996,9.517491,0
2,988.4464721679688,1.67666410561651E-4,-3.0073238303884864E-4,5.255012074485421E-4,-7.204750061035156,24.275964736938477,-37.85578155517578,0.38800856471061707,2.1931264400482178,-0.19321250915527344,0.07639128,-0.16612975,9.786749,-0.7347561,-2.096716,9.532986,0
2,988.39794921875,-2.3060868261381984E-4,4.980206722393632E-4,-4.060907522216439E-4,-6.825282573699951,23.89417839050293,-38.507789611816406,0.39228734374046326,2.1730525493621826,-0.1966848373413086,0.064317405,-0.14706053,9.777269,-0.7664289,-2.0597448,9.52842,0
2,988.4129638671875,3.03221691865474E-4,-8.337533799931407E-4,6.596866296604276E-4,-7.222195625305176,24.101835250854492,-38.22782516479492,0.3913757801055908,2.1671807765960693,-0.17644882202148438,0.06658295,-0.15182398,9.765422,-0.76715326,-2.054951,9.517332,0
2,988.4431762695312,-2.2821134189143777E-4,-5.676320288330317E-4,-4.0506315417587757E-4,-7.3491010665893555,24.29921531677246,-38.45077133178711,0.3952728509902954,2.171121597290039,-0.18941688537597656,0.064068675,-0.14943762,9.774879,-0.7746608,-2.0462523,9.528244,0
2,988.4303588867188,-9.265594417229295E-5,-7.011792040430009E-4,2.617540303617716E-4,-7.935205459594727,24.329465866088867,-37.7463493347168,0.3944200277328491,2.150933265686035,-0.2023296356201172,0.068724096,-0.14943464,9.793806,-0.803761,-2.0320094,9.548329,0
2,988.42529296875,-4.909311537630856E-4,6.302056135609746E-4,-2.703641075640917E-4,-7.284045696258545,24.465105056762695,-37.8546257019043,0.398027241230011,2.154707193374634,-0.17264747619628906,0.063819915,-0.14943157,9.763021,-0.7617246,-2.035922,9.519339,0
2,988.41748046875,1.7605716129764915E-4,9.737920481711626E-5,-3.534369170665741E-6,-7.430599212646484,24.749258041381836,-37.77168273925781,0.4114086329936981,2.1486146450042725,-0.18078327178955078,0.05174601,-0.1518118,9.774845,-0.7797703,-2.0299177,9.531249,0
2,988.4149780273438,7.098876521922648E-4,4.966583801433444E-4,3.964531351812184E-4,-7.463126182556152,24.66630744934082,-38.069759368896484,0.40070971846580505,2.152562379837036,-0.17955303192138672,0.05879137,-0.16372506,9.765364,-0.773689,-2.0349526,9.521184,0
2,988.4122924804688,-2.2101920330896974E-4,2.3014796897768974E-4,3.9696687599644065E-4,-7.167657375335693,24.36332893371582,-37.78961944580078,0.39409223198890686,2.118070363998413,-0.16889190673828125,0.059654683,-0.13514699,9.763077,-0.75270927,-2.0064666,9.526121,0
2,988.432373046875,-2.4720339570194483E-4,-3.28376074321568E-4,5.428680451586843E-4,-7.500356674194336,24.473020553588867,-37.43683624267578,0.3979712426662445,2.1263859272003174,-0.1676025390625,0.059569687,-0.14229475,9.774904,-0.77444834,-2.0017343,9.537602,0
2,988.4047241210938,1.4960858970880508E-4,-7.274177623912692E-4,1.4225358609110117E-4,-6.853519439697266,23.603818893432617,-37.639617919921875,0.39702892303466797,2.1443214416503906,-0.19000530242919922,0.057094812,-0.17327525,9.789101,-0.749179,-2.0403574,9.546488,0
2,988.452392578125,6.830594502389431E-4,4.7087064012885094E-4,-2.568692434579134E-4,-7.172765731811523,24.727201461791992,-37.656158447265625,0.3864971101284027,2.105013132095337,-0.17452716827392578,0.068959355,-0.15420692,9.770155,-0.7397353,-2.0115047,9.533684,0
2,988.4345703125,1.8088961951434612E-5,-6.189406849443913E-5,8.08745389804244E-4,-7.074664115905762,24.18744468688965,-38.48651885986328,0.3946787714958191,2.1228010654449463,-0.1968851089477539,0.061704636,-0.15420492,9.7914505,-0.7419328,-2.0101304,9.555573,0
2,988.4116821289062,1.5206588432192802E-4,0.0018021840369328856,1.4330667909234762E-4,-7.101378917694092,23.898557662963867,-37.695655822753906,0.3789307475090027,2.0879247188568115,-0.1765918731689453,0.06400955,-0.1470529,9.774874,-0.7438237,-1.9912001,9.542314,0
2,988.4494018554688,-0.0010455362498760223,3.3731380244717E-4,1.4365778770297766E-4,-7.100399971008301,24.26832389831543,-37.87141418457031,0.39213138818740845,2.0913355350494385,-0.17528343200683594,0.056754857,-0.14228429,9.777233,-0.7438187,-1.9815762,9.546616,0
2,988.4494018554688,2.0546140149235725E-5,-1.9545096438378096E-4,1.085083931684494E-5,-7.290431976318359,23.827077865600586,-37.970279693603516,0.3910076916217804,2.099691390991211,-0.14560985565185547,0.05905977,-0.16134842,9.75592,-0.75716555,-1.9846387,9.523414,0
2,988.4287719726562,0.0012197870528325438,3.370478516444564E-4,1.1201947927474976E-5,-6.748189926147461,23.965940475463867,-37.83100891113281,0.3851955533027649,2.088576078414917,-0.17741012573242188,0.07092431,-0.1494299,9.779584,-0.70926476,-1.9861543,9.550903,0
2,988.4339599609375,-0.001176237128674984,-1.957168715307489E-4,2.778689085971564E-4,-7.45785665512085,24.828657150268555,-37.07927322387695,0.3794976770877838,2.0726239681243896,-0.17133331298828125,0.06366962,-0.15419443,9.781944,-0.753959,-1.9694974,9.55337,0
2,988.4160766601562,9.551093680784106E-4,-0.0011279555037617683,1.450620184186846E-4,-7.235755443572998,24.194490432739258,-38.23115539550781,0.3787614703178406,2.080864429473877,-0.18427658081054688,0.06836441,-0.16134213,9.786671,-0.7370088,-1.9769105,9.558152,0
3,988.4638671875,-7.751249941065907E-4,2.0349089754745364E-4,4.117289499845356E-4,-7.684301376342773,24.03767204284668,-37.84492492675781,0.3728986382484436,2.0647778511047363,-0.16870403289794922,0.06588954,-0.15657352,9.774828,-0.7667395,-1.9514444,9.548826,0
3,988.44873046875,5.572738591581583E-4,2.033580094575882E-4,4.1208002949133515E-4,-7.14953088760376,24.27509117126465,-38.01820755004883,0.38628920912742615,2.0585153102874756,-0.15793323516845703,0.058634818,-0.14942165,9.779553,-0.7355107,-1.9517171,9.5559025,0
3,988.4534301757812,-3.740128595381975E-4,7.006712257862091E-5,1.4611516962759197E-4,-6.906100273132324,24.081846237182617,-38.42933654785156,0.38019847869873047,2.056903600692749,-0.17080020904541016,0.06810945,-0.15418606,9.786648,-0.73270345,-1.9504642,9.563772,0
3,988.4508056640625,2.925961744040251E-4,4.694079398177564E-4,-1.198496320284903E-4,-7.270485877990723,24.372446060180664,-37.851295471191406,0.3693201541900635,2.0503971576690674,-0.15523910522460938,0.06802449,-0.14941747,9.77717,-0.7220702,-1.9404761,9.556839,0
3,988.433349609375,-6.386903114616871E-4,0.0014013805193826556,-2.526565222069621E-4,-7.135129928588867,24.446279525756836,-37.491554260253906,0.3628982603549957,2.0394845008850098,-0.1728811264038086,0.072719276,-0.14941536,9.774796,-0.7200082,-1.9331306,9.55609,0
3,988.4559326171875,-9.568047244101763E-5,5.735390004701912E-4,8.885884890332818E-4,-7.364320278167725,24.284482955932617,-37.6777229309082,0.3896842896938324,2.0297350883483887,-0.1377239227294922,0.055904984,-0.1517966,9.767686,-0.7439198,-1.9211553,9.549325,0
3,988.4559326171875,-9.568047244101763E-5,5.735390004701912E-4,8.885884890332818E-4,-7.364320278167725,24.284482955932617,-37.6777229309082,0.37959933280944824,2.0122640132904053,-0.1465444564819336,0.060599804,-0.14226137,9.777147,-0.72477347,-1.9127558,9.562038,0
3,988.4559326171875,-9.568047244101763E-5,5.735390004701912E-4,8.885884890332818E-4,-7.213744640350342,24.3730411529541,-38.091026306152344,0.38334715366363525,2.015678644180298,-0.15476322174072266,0.06529462,-0.15179236,9.770039,-0.71672773,-1.9166266,9.55478,0
3,988.460693359375,7.040861528366804E-4,-3.586994716897607E-4,4.894657176919281E-4,-7.289017200469971,24.93489646911621,-38.42024230957031,0.3675514757633209,2.037659168243408,-0.1486663818359375,0.06281972,-0.16608997,9.774765,-0.74288034,-1.915668,9.558029,0
3,988.4481201171875,-9.404204320162535E-5,0.001105905044823885,9.034291724674404E-5,-7.659651756286621,24.693376541137695,-38.65693283081055,0.3715890347957611,2.007476806640625,-0.1710662841796875,0.06751454,-0.158938,9.7913265,-0.72249717,-1.9118447,9.577198,0
3,988.4478759765625,4.394084680825472E-4,-2.2580749646294862E-4,2.2385193733498454E-4,-7.260810852050781,24.012990951538086,-38.2166748046875,0.3563939034938812,2.010606288909912,-0.1366405487060547,0.074599266,-0.16131924,9.770015,-0.7293733,-1.8990748,9.557527,0
3,988.4351196289062,4.0754093788564205E-5,-0.0010248881299048662,4.905188689008355E-4,-7.511852264404297,24.19886589050293,-37.41902160644531,0.3650466799736023,1.9800894260406494,-0.14003944396972656,0.08168399,-0.1351011,9.772375,-0.66670847,-1.8872269,9.56651,0
3,988.4322509765625,3.0788895674049854E-4,-6.255472544580698E-4,9.13960684556514E-5,-6.773650169372559,24.258649826049805,-38.61405563354492,0.3538219630718231,1.988181471824646,-0.13876628875732422,0.07442927,-0.15416528,9.7628975,-0.6898268,-1.8911052,9.554648,0
3,988.4525756835938,1.7555034719407558E-4,5.727412062697113E-4,-5.740426131524146E-4,-7.008087158203125,24.35481071472168,-37.967681884765625,0.35738256573677063,1.9865503311157227,-0.14694881439208984,0.07242492,-0.14940815,9.779503,-0.7007752,-1.8790234,9.57311,0
3,988.4547119140625,0.0013747906778007746,0.0016378718428313732,-4.105974221602082E-5,-7.210700988769531,24.37598991394043,-38.245635986328125,0.36456194519996643,1.9800783395767212,-0.15046215057373047,0.070448995,-0.15180154,9.770072,-0.6950011,-1.8750192,9.564705,0
3,988.4574584960938,-9.025540202856064E-5,3.0634249560534954E-4,4.914397140964866E-4,-7.12295389175415,24.458059310913086,-38.10999298095703,0.36323752999305725,1.9926453828811646,-0.14443397521972656,0.0656223,-0.16371675,9.770068,-0.7194763,-1.871934,9.563659,0
3,988.4398193359375,2.8667564038187265E-4,2.982373407576233E-4,2.3070690804161131E-4,-7.369727611541748,24.016218185424805,-37.9691276550293,0.3571097254753113,1.9716780185699463,-0.1431102752685547,0.06557536,-0.16371568,9.784267,-0.7241589,-1.8657701,9.579012,0
3,988.4496459960938,-3.782091662287712E-4,2.9809048282913864E-4,9.793674689717591E-5,-7.225239276885986,24.098886489868164,-38.073211669921875,0.3370085060596466,1.9597994089126587,-0.14646053314208984,0.07747793,-0.15656467,9.779528,-0.69360304,-1.8592118,9.577679,0
3,988.4116821289062,-2.4459906853735447E-4,-5.009305896237493E-4,9.813057840801775E-5,-7.525274753570557,24.397443771362305,-38.12143325805664,0.35528233647346497,1.9341704845428467,-0.15465736389160156,0.065481514,-0.14464708,9.777157,-0.71536076,-1.8332834,9.578379,0
3,988.4521484375,-3.773045027628541E-4,-3.678460489027202E-4,4.977982607670128E-4,-7.542857646942139,24.11739158630371,-37.79439926147461,0.344452440738678,1.956088662147522,-0.14861583709716797,0.077384084,-0.15656237,9.784254,-0.70988375,-1.8397218,9.5850725,0
3,988.4392700195312,-1.105363480746746E-4,6.973439594730735E-4,3.6483420990407467E-4,-7.394783020019531,23.8347225189209,-37.954647064208984,0.3526892066001892,1.9300670623779297,-0.12832260131835938,0.067777574,-0.14226158,9.770046,-0.70725185,-1.8172834,9.574754,0
3,988.4619750976562,4.2254780419170856E-4,0.0010967444395646453,6.313439225777984E-4,-7.084774971008301,23.8088436126709,-37.84693908691406,0.3556082844734192,1.9425603151321411,-0.11755084991455078,0.06295079,-0.1613266,9.774776,-0.6960588,-1.8359319,9.577112,0
3,988.451904296875,4.2300019413232803E-4,0.001629302860237658,-7.000414771027863E-4,-6.968088150024414,24.339208602905273,-37.357059478759766,0.35901087522506714,1.9217225313186646,-0.14468669891357422,0.055734158,-0.14702578,9.781874,-0.6892285,-1.8194207,9.587724,0
3,988.45166015625,-3.754951758310199E-4,-3.681398229673505E-4,2.3225785116665065E-4,-7.428396224975586,24.488351821899414,-38.44961929321289,0.3624318540096283,1.9004915952682495,-0.1480855941772461,0.058077157,-0.1374916,9.779502,-0.7028437,-1.7958498,9.588633,0
4,988.4413452148438,-5.082006100565195E-4,2.975765091832727E-4,4.987675929442048E-4,-7.200727462768555,24.648672103881836,-38.18614196777344,0.33283519744873047,1.9078789949417114,-0.13730907440185547,0.0795393,-0.14464025,9.770029,-0.66734946,-1.8034582,9.580338,0
4,988.4413452148438,4.243571311235428E-4,-7.677605608478189E-4,3.658035129774362E-4,-7.362255573272705,23.917661666870117,-37.65657043457031,0.346082478761673,1.9011772871017456,-0.12183284759521484,0.07710248,-0.15178888,9.779494,-0.6887455,-1.7978774,9.589617,0
4,988.4463500976562,2.5335815735161304E-5,3.111374098807573E-5,2.328394039068371E-4,-7.326141357421875,23.63526725769043,-37.41466522216797,0.3257119059562683,1.8895516395568848,-0.1205301284790039,0.08183536,-0.14940448,9.7747555,-0.68328774,-1.7882808,9.586971,0
4,988.4209594726562,-2.405277919024229E-4,9.631458669900894E-4,7.656650268472731E-4,-6.7385149002075195,23.606489181518555,-38.196388244628906,0.3339938223361969,1.8873058557510376,-0.14760875701904297,0.065059125,-0.1541699,9.779486,-0.66188806,-1.7976584,9.591489,0
4,988.410888671875,-5.063913995400071E-4,-2.3534902720712125E-4,-5.657204310409725E-4,-7.31268835067749,24.648954391479492,-37.78398513793945,0.3325808346271515,1.8805944919586182,-0.11792945861816406,0.07457179,-0.14701892,9.767645,-0.6723001,-1.7750443,9.582865,0
4,988.4384155273438,1.5985069330781698E-4,6.96683069691062E-4,1.00263103377074E-4,-7.245728969573975,23.92180824279785,-38.2906494140625,0.34564074873924255,1.8833435773849487,-0.14506053924560547,0.06496525,-0.15655078,9.781844,-0.6839726,-1.7776449,9.596111,0
4,988.4309692382812,-1.0601268149912357E-4,2.9713581898249686E-4,1.004569639917463E-4,-6.986374378204346,23.901227951049805,-38.25242614746094,0.31966665387153625,1.8726619482040405,-0.1335916519165039,0.081647635,-0.158933,9.770003,-0.6507754,-1.7795086,9.586175,0
4,988.4359130859375,-6.381921702995896E-4,8.296940941363573E-4,-2.988230553455651E-4,-7.530681610107422,24.129179000854492,-38.412841796875,0.3285185396671295,1.8596343994140625,-0.13294029235839844,0.074431,-0.14939876,9.784203,-0.6824152,-1.7540942,9.602914,0
4,988.433349609375,2.943658037111163E-4,-2.3564275761600584E-4,-3.231328446418047E-5,-7.4917683601379395,24.850156784057617,-37.99911880493164,0.33711618185043335,1.8529881238937378,-0.12224864959716797,0.06721437,-0.1517808,9.767628,-0.679005,-1.7488937,9.587203,0
4,988.4383544921875,1.6166013665497303E-4,2.969155611936003E-4,6.336703663691878E-4,-7.689953327178955,24.769834518432617,-37.80990982055664,0.32121923565864563,1.8423320055007935,-0.11556529998779297,0.074337125,-0.1493965,9.762889,-0.6815846,-1.7356989,9.584606,0
4,988.425537109375,-9.031508816406131E-4,-6.352634518407285E-4,5.007062572985888E-4,-7.198119640350342,23.913564682006836,-38.066551208496094,0.3208150565624237,1.8437827825546265,-0.13863658905029297,0.07190031,-0.15177853,9.784189,-0.6932151,-1.7304912,9.606425,0
4,988.4280395507812,2.957228571176529E-4,-9.016528492793441E-4,1.0142632527276874E-4,-7.646665573120117,23.756750106811523,-37.68031311035156,0.3248162567615509,1.8417611122131348,-0.11374092102050781,0.076633155,-0.16131045,9.779451,-0.65757835,-1.7452037,9.601637,0
4,988.412841796875,1.630171900615096E-4,-0.0010348842479288578,-3.153778379783034E-5,-7.118824005126953,23.724424362182617,-38.06770324707031,0.32404378056526184,1.829872727394104,-0.10772991180419922,0.07419634,-0.14939298,9.769978,-0.67770565,-1.7160957,9.595625,0
4,988.43310546875,-2.3600412532687187E-4,-6.35483767837286E-4,3.681299276649952E-4,-7.460816383361816,23.299062728881836,-38.375030517578125,0.3327595591545105,1.8326456546783447,-0.11598682403564453,0.06697971,-0.1636915,9.769974,-0.66281104,-1.7308413,9.594193,0
4,988.4027099609375,9.628696134313941E-4,-3.69241286534816E-4,5.01481699757278E-4,-7.229668140411377,24.200380325317383,-38.540374755859375,0.31248435378074646,1.8212007284164429,-0.12425518035888672,0.07891452,-0.15177478,9.777073,-0.65552753,-1.7131679,9.604986,0
4,988.4027099609375,9.628696134313941E-4,-3.69241286534816E-4,5.01481699757278E-4,-7.4705986976623535,24.764860153198242,-38.38230895996094,0.32585394382476807,1.8000094890594482,-0.0946187973022461,0.06452948,-0.14224048,9.772335,-0.6634558,-1.6945714,9.602666,0
4,988.4025268554688,2.973773516714573E-4,-7.687633624300361E-4,2.3529326426796615E-4,-7.235212802886963,23.826200485229492,-38.13270950317383,0.32002314925193787,1.8120508193969727,-0.10283851623535156,0.07643336,-0.1541558,9.76523,-0.65559804,-1.6988938,9.595482,0
4,988.4102172851562,-1.0892050340771675E-4,-1.0734889656305313E-4,5.057891248725355E-4,-7.434484004974365,24.482458114624023,-38.14039611816406,0.3327969014644623,1.7907390594482422,-0.1063089370727539,0.06682813,-0.14462157,9.767592,-0.6583428,-1.6824812,9.6003685,0
4,988.4178466796875,-2.4163885973393917E-4,2.920535043813288E-4,-2.6654161047190428E-5,-7.35366678237915,24.2947940826416,-38.21885681152344,0.30760008096694946,1.77897047996521,-0.12400054931640625,0.08112186,-0.15415354,9.779424,-0.64616483,-1.6890386,9.612342,0
4,988.4227905273438,2.5117304176092148E-5,8.246139623224735E-4,5.061662523075938E-4,-7.37331485748291,24.381559371948242,-37.912967681884766,0.33012476563453674,1.7674223184585571,-0.10859203338623047,0.057177246,-0.13985275,9.774686,-0.65289104,-1.6678209,9.61038,0
4,988.4075317382812,-3.934160340577364E-4,5.56363957002759E-5,1.948434510268271E-5,-7.176651477813721,24.46040916442871,-38.024871826171875,0.3149303197860718,1.76524019241333,-0.08844470977783203,0.07625079,-0.1446182,9.774681,-0.6542152,-1.6611584,9.611643,0
4,988.4376220703125,-2.5981850922107697E-4,-8.765405509620905E-4,1.967287971638143E-5,-7.532203674316406,24.12770652770996,-38.33553695678711,0.31829190254211426,1.748823642730713,-0.08723163604736328,0.06903547,-0.14700033,9.767576,-0.6557875,-1.6555626,9.60526,0
4,988.4326171875,1.400952460244298E-4,0.0012539150193333626,-3.7961246562190354E-4,-7.467829704284668,24.555971145629883,-37.138763427734375,0.32663851976394653,1.7609310150146484,-0.10495662689208984,0.06182012,-0.15891556,9.7770405,-0.6344486,-1.6717737,9.61365,0
4,988.4326171875,4.068512935191393E-4,-8.766834507696331E-4,-7.788978982716799E-4,-6.937785625457764,24.262746810913086,-38.204078674316406,0.31582337617874146,1.7682329416275024,-0.11794281005859375,0.07372403,-0.16368105,9.774669,-0.6488483,-1.6609458,9.612318,0
4,988.4124145507812,7.817056030035019E-6,3.2166659366339445E-4,-2.46077572228387E-4,-7.558344841003418,24.682790756225586,-38.51795959472656,0.3192536234855652,1.7469210624694824,-0.10725688934326172,0.061728895,-0.14938022,9.774665,-0.64423275,-1.6424805,9.615479,0
5,988.4044799804688,-2.580592408776283E-4,-7.787859067320824E-5,-2.458890376146883E-4,-7.148988246917725,23.906797409057617,-37.91975402832031,0.3228699862957001,1.7446476221084595,-0.1060476303100586,0.06885293,-0.15891226,9.78413,-0.62937576,-1.6508621,9.624849,0
5,988.4172973632812,-1.240213168784976E-4,1.8829444888979197E-4,-9.113018168136477E-4,-7.217087268829346,23.737958908081055,-38.361289978027344,0.30759257078170776,1.7517991065979004,-0.10483646392822266,0.078366935,-0.16606094,9.784126,-0.6314124,-1.6480887,9.625381,0
5,988.4550170898438,-3.898974973708391E-4,-0.0010101983789354563,-6.447974592447281E-4,-7.247794151306152,24.288625717163086,-38.311790466308594,0.3212668001651764,1.7210021018981934,-0.08946609497070312,0.0663718,-0.15652673,9.765183,-0.63477826,-1.6282965,9.609028,0
5,988.4198608398438,4.0948973037302494E-4,-0.0010102697415277362,6.869705393910408E-4,-7.788215637207031,24.783369064331055,-38.10350036621094,0.30596745014190674,1.7187421321868896,-0.08354949951171875,0.07110596,-0.1541423,9.762812,-0.65108085,-1.6104443,9.608533,0
5,988.3893432617188,-1.227022148668766E-4,-8.771832217462361E-4,-1.117886567953974E-4,-7.659789562225342,24.587461471557617,-37.957855224609375,0.31469208002090454,1.7121027708053589,-0.11558151245117188,0.063890606,-0.14937465,9.78648,-0.653096,-1.6030113,9.633557,0
5,988.4396362304688,8.098436519503593E-4,-8.77254584338516E-4,-3.7791606155224144E-4,-7.304534912109375,24.288022994995117,-38.07206344604492,0.31370794773101807,1.700681447982788,-0.08132648468017578,0.068624794,-0.15414013,9.769905,-0.6307903,-1.6058943,9.617834,0
5,988.3965454101562,2.7765147387981415E-4,-0.0011436418863013387,-1.1141173308715224E-4,-7.588944911956787,24.127103805541992,-38.095802307128906,0.3176063299179077,1.6983271837234497,-0.08961677551269531,0.06379938,-0.15175565,9.769901,-0.64926815,-1.5892471,9.619294,0
5,988.3916015625,1.1775176972150803E-5,-7.442394853569567E-4,-1.1122316936962306E-4,-7.403341293334961,24.669851303100586,-38.46410369873047,0.30711978673934937,1.6913729906082153,-0.07899951934814453,0.07570323,-0.16605426,9.753326,-0.6211556,-1.6027619,9.602396,0
5,988.3941040039062,4.116890486329794E-4,5.463673733174801E-5,9.542289189994335E-4,-7.581036567687988,24.7666072845459,-38.05746078491211,0.3010203540325165,1.6751257181167603,-0.09208106994628906,0.07565758,-0.14222033,9.774628,-0.62533015,-1.5726192,9.62835,0
5,988.427001953125,5.452870391309261E-4,4.540391964837909E-4,-3.771620395127684E-4,-7.297605991363525,24.557764053344727,-37.85795974731445,0.3042762875556946,1.6683299541473389,-0.09094429016113281,0.07083219,-0.14698581,9.76042,-0.61624455,-1.5722054,9.614617,0
5,988.427001953125,-1.2006307952105999E-4,-2.1182192722335458E-4,2.2500258637592196E-5,-7.175129413604736,24.461881637573242,-38.102176666259766,0.29380741715431213,1.656922459602356,-0.07565784454345703,0.073176414,-0.14698465,9.760416,-0.60607445,-1.568579,9.615869,0
5,988.4041748046875,5.46166324056685E-4,5.4422649554908276E-5,-6.431009387597442E-4,-7.55946159362793,24.20710563659668,-37.643123626708984,0.3117083013057709,1.6594350337982178,-0.08397674560546875,0.061181247,-0.14936684,9.76988,-0.6401251,-1.5537665,9.625625,0
5,988.4038696289062,-1.1918297968804836E-4,5.435117054730654E-5,-9.092283435165882E-4,-6.983330249786377,23.904172897338867,-38.40703582763672,0.29112935066223145,1.6382534503936768,-0.07337570190429688,0.07547504,-0.14698239,9.7651415,-0.5943155,-1.558389,9.623071,0
5,988.4141235351562,1.4414545148611069E-5,8.532273350283504E-4,2.893816854339093E-4,-7.475600242614746,24.02238655090332,-37.876190185546875,0.2993514835834503,1.6502230167388916,-0.10062694549560547,0.0730395,-0.14221473,9.781708,-0.6201578,-1.5388099,9.641309,0
5,988.4345703125,-5.177776329219341E-4,5.420832894742489E-5,-2.4306154227815568E-4,-7.226761817932129,24.097410202026367,-37.99591064453125,0.29789999127388,1.6242610216140747,-0.08056449890136719,0.07538378,-0.14698021,9.7675,-0.6019391,-1.5406506,9.627844,0
5,988.4263916015625,2.816102933138609E-4,5.867687286809087E-4,2.897587255574763E-4,-7.250837802886963,24.285680770874023,-38.15718078613281,0.2919823229312897,1.6462221145629883,-0.06529521942138672,0.0754866,-0.15174927,9.758041,-0.59896487,-1.5380038,9.618935,0
5,988.4164428710938,0.0012137996964156628,-7.903462392278016E-5,-2.4283715174533427E-4,-7.523752689361572,24.398916244506836,-38.19873809814453,0.30945247411727905,1.6444013118743896,-0.06899452209472656,0.06842813,-0.15651856,9.765153,-0.61731845,-1.5310329,9.626122,0
5,988.4240112304688,2.659336314536631E-4,-2.1880422718822956E-4,-0.0012965386267751455,-7.169041633605957,24.467771530151367,-38.41139602661133,0.2843959629535675,1.6234174966812134,-0.06793022155761719,0.082733095,-0.15175118,9.76515,-0.5815874,-1.5301583,9.62852,0
5,988.418701171875,6.657392368651927E-4,1.8061563605442643E-4,7.009727414697409E-4,-7.54850959777832,24.84955406188965,-37.75938415527344,0.29736757278442383,1.6116411685943604,-0.09522151947021484,0.07074916,-0.15175028,9.779349,-0.6115727,-1.5153329,9.6433115,0
5,988.4367065429688,-9.318241500295699E-4,5.800356157124043E-4,4.34799148933962E-4,-7.412908554077148,23.922956466674805,-37.72605895996094,0.2914940416812897,1.6046366691589355,-0.0704507827758789,0.065934956,-0.14698292,9.765144,-0.58989245,-1.509949,9.630996,0
5,988.4138793945312,-1.3254460645839572E-4,-4.852817510254681E-4,3.017834387719631E-4,-7.001456260681152,23.99241065979004,-38.1784553527832,0.28052952885627747,1.6023212671279907,-0.08826923370361328,0.08023989,-0.15889843,9.779343,-0.5686043,-1.522457,9.645002,0
5,988.4288940429688,-3.98528587538749E-4,-2.1901974105276167E-4,-7.633378263562918E-4,-6.843408584594727,23.982419967651367,-38.279205322265625,0.2843727469444275,1.5905507802963257,-0.049312591552734375,0.075425684,-0.14936455,9.765137,-0.5748586,-1.5012394,9.633366,0
5,988.4415283203125,-3.9819657104089856E-4,0.0011125056771561503,-9.740592213347554E-5,-6.864876747131348,23.435583114624023,-38.320884704589844,0.2923944890499115,1.5834417343139648,-0.08133888244628906,0.06822157,-0.15174694,9.774603,-0.6036756,-1.4874837,9.643315,0
5,988.4415283203125,-3.9819657104089856E-4,0.0011125056771561503,-9.740592213347554E-5,-7.363096237182617,23.6538143157959,-38.17989730834961,0.28161898255348206,1.5812854766845703,-0.07553386688232422,0.06579721,-0.15174605,9.769865,-0.6005934,-1.4808854,9.639704,0
5,988.4237670898438,-5.310227279551327E-4,-2.1912754164077342E-4,-4.967374261468649E-4,-7.626145362854004,25.146085739135742,-38.53461456298828,0.27996745705604553,1.5696879625320435,-0.0886688232421875,0.07293248,-0.14936198,9.781698,-0.60064095,-1.4713718,9.653162,0
6,988.4237670898438,-3.975327708758414E-4,1.8029240891337395E-4,-4.965952830389142E-4,-7.717915058135986,24.69130516052246,-38.33989715576172,0.2884520888328552,1.5818278789520264,-0.06394290924072266,0.07289803,-0.16604407,9.765125,-0.57559323,-1.488659,9.635516,0
6,988.4212036132812,2.6858883211389184E-4,7.128703873604536E-4,-4.964529071003199E-4,-7.204474925994873,24.4877986907959,-39.253936767578125,0.28743618726730347,1.5461889505386353,-0.06287765502929688,0.07525349,-0.13982715,9.765121,-0.58048093,-1.4512725,9.640521,0
6,988.4337768554688,-2.6371103012934327E-4,-8.613124373368919E-5,-2.2999473731033504E-4,-7.404319763183594,24.300085067749023,-38.28834533691406,0.2864534556865692,1.539467692375183,-0.07606887817382812,0.06565943,-0.15174268,9.774588,-0.5835392,-1.4585882,9.648932,0
6,988.43896484375,-1.3022118946537375E-4,-7.519748178310692E-4,3.64632869604975E-5,-7.192712306976318,24.18182945251465,-37.775142669677734,0.2753523588180542,1.5618737936019897,-0.07985210418701172,0.072794706,-0.16127495,9.776951,-0.5739905,-1.464555,9.651202,0
6,988.4136352539062,0.001068532234057784,-2.193969557993114E-4,1.6976345796138048E-4,-7.182058334350586,24.192136764526367,-38.31627655029297,0.2643384337425232,1.5263862609863281,-0.06933879852294922,0.0775401,-0.14697446,9.776948,-0.5538135,-1.4490387,9.654528,0
6,988.4288940429688,1.3675837544724345E-4,0.0012452865485101938,-3.6272601573728025E-4,-6.958955764770508,24.34804344177246,-37.82088851928711,0.2727693021297455,1.5338741540908813,-0.06359004974365234,0.07272583,-0.15889002,9.769843,-0.5716103,-1.4469925,9.646752,0
6,988.438720703125,1.370905083604157E-4,-8.634678670205176E-5,-9.626790415495634E-5,-7.180674076080322,24.087697982788086,-37.69450378417969,0.26239198446273804,1.5222423076629639,-0.05784893035888672,0.07747123,-0.14935605,9.776942,-0.57275635,-1.4293696,9.656385,0
6,988.4563598632812,1.3742229202762246E-4,4.6757340896874666E-5,-2.292836143169552E-4,-7.356167793273926,23.923559188842773,-37.965797424316406,0.2664923667907715,1.5059400796890259,-0.07580280303955078,0.07265696,-0.14458866,9.776938,-0.56777775,-1.4199853,9.6579485,0
6,988.4437255859375,7.773039396852255E-5,-0.0016075933817774057,3.629955172073096E-4,-7.259969711303711,24.276838302612305,-37.69335174560547,0.26524797081947327,1.5037224292755127,-0.07003974914550781,0.07979223,-0.14458783,9.772202,-0.54006433,-1.4211588,9.654628,0
6,988.3956909179688,-1.8792180344462395E-4,-9.805895388126373E-6,2.301220374647528E-4,-7.151052951812744,24.273611068725586,-37.94090270996094,0.2691144049167633,1.5115021467208862,-0.06435775756835938,0.0773679,-0.15173675,9.774565,-0.5546191,-1.4168024,9.656925,0
6,988.4234619140625,0.0010108316782861948,-9.419654379598796E-4,9.710632730275393E-5,-7.5995988845825195,24.116796493530273,-37.554664611816406,0.27284306287765503,1.4813244342803955,-0.06343460083007812,0.07494354,-0.13743629,9.784031,-0.5759982,-1.3881502,9.66918,0
6,988.4335327148438,7.448475807905197E-4,2.5640218518674374E-4,-3.5909353755414486E-5,-7.5093512535095215,24.570104598999023,-37.67208480834961,0.26714634895324707,1.4939279556274414,-0.04356670379638672,0.07490915,-0.15173508,9.769824,-0.5673924,-1.397568,9.654168,0
6,988.4158935546875,3.4570577554404736E-4,-9.420731221325696E-4,-3.576709423214197E-5,-7.132926940917969,24.185373306274414,-38.16948699951172,0.2755972146987915,1.477512240409851,-0.07098197937011719,0.07248479,-0.14935099,9.779289,-0.5527414,-1.395352,9.664862,0
6,988.430908203125,-4.529099678620696E-4,-2.763373777270317E-4,-3.562483470886946E-5,-7.262631416320801,23.379384994506836,-38.56424331665039,0.27462300658226013,1.475711464881897,-0.06531143188476562,0.065280646,-0.1445836,9.774551,-0.5689978,-1.3773113,9.661589,0
6,988.4182739257812,3.4636957570910454E-4,-1.0075338650494814E-5,4.971491871401668E-4,-7.13833475112915,23.917112350463867,-38.46088790893555,0.2782050669193268,1.4595121145248413,-0.05488872528076172,0.06285632,-0.13981618,9.7769165,-0.55803573,-1.370336,9.665526,0
6,988.4359130859375,-3.190882271155715E-4,2.561867004260421E-4,-5.6797219440341E-4,-7.540356636047363,24.488630294799805,-38.047462463378906,0.25766104459762573,1.4575165510177612,-0.05867290496826172,0.07971454,-0.14220263,9.779295,-0.55394304,-1.3642375,9.669188,0
6,988.4209594726562,-3.266648855060339E-4,-1.479331695009023E-4,6.348236347548664E-4,-7.930638790130615,24.33388328552246,-37.978267669677734,0.2611805200576782,1.464966893196106,-0.05770301818847656,0.077296734,-0.16126813,9.767457,-0.5763378,-1.3662868,9.655895,0
6,988.4080810546875,3.388177137821913E-4,0.0011836959747597575,5.015342612750828E-4,-7.437528133392334,24.479516983032227,-37.98578643798828,0.26943352818489075,1.4585559368133545,-0.047326087951660156,0.070099145,-0.16126741,9.772188,-0.55803454,-1.368885,9.661333,0
6,988.4332275390625,-1.9354501273483038E-4,-4.142429097555578E-4,1.0217560338787735E-4,-7.2803215980529785,24.205678939819336,-38.60986328125,0.2542557120323181,1.4518524408340454,-0.07480716705322266,0.07963085,-0.15650018,9.78639,-0.5405171,-1.3639821,9.67738,0
6,988.423095703125,3.3935566898435354E-4,-4.1428659460507333E-4,-1.640251139178872E-4,-7.467011451721191,24.39951515197754,-38.43846893310547,0.2666797935962677,1.4469019174575806,-0.04030609130859375,0.06765348,-0.15888281,9.765081,-0.5561514,-1.3521726,9.656551,0
6,988.4331665039062,6.05940236710012E-4,1.1830151197500527E-4,-2.9706774512305856E-4,-7.896589756011963,24.418298721313477,-37.75749969482422,0.26131609082221985,1.424719214439392,-0.0540771484375,0.07240537,-0.14934902,9.774549,-0.56852555,-1.3304505,9.6683,0
6,988.3906860351562,7.393670966848731E-4,-5.47531817574054E-4,-2.969525521621108E-4,-7.404755592346191,23.56203269958496,-38.014137268066406,0.25087255239486694,1.427830696105957,-0.038997650146484375,0.07715726,-0.15888141,9.776914,-0.55001396,-1.3407459,9.670528,0
6,988.4559936523438,-3.256275085732341E-4,5.176881095394492E-4,-5.631532985717058E-4,-7.789737701416016,24.781892776489258,-38.02619171142578,0.2540949285030365,1.4162360429763794,-0.05225181579589844,0.074739456,-0.14696433,9.762707,-0.5517469,-1.3183087,9.658948,0
6,988.41552734375,-5.904282443225384E-5,1.181706611532718E-4,1.0275174281559885E-4,-7.428396224975586,24.48835563659668,-38.449615478515625,0.24340838193893433,1.419111967086792,-0.05607891082763672,0.07949144,-0.15411358,9.769806,-0.53294885,-1.3264376,9.666215,0
7,988.4080810546875,-4.582478431984782E-4,-1.4818893396295607E-4,1.0286696488037705E-4,-7.518643379211426,24.03504753112793,-38.33219909667969,0.2609028220176697,1.4041588306427002,-0.0689077377319336,0.067514,-0.1493463,9.781639,-0.55070376,-1.3108121,9.679142,0
7,988.4104614257812,-7.24294688552618E-4,1.1808334966190159E-4,2.361401275265962E-4,-7.420923709869385,24.389802932739258,-38.13706588745117,0.2556895315647125,1.40560781955719,-0.04952812194824219,0.0746558,-0.1469623,9.774536,-0.533795,-1.3054729,9.673651,0
7,988.430908203125,-1.9139435607939959E-4,3.8435557507909834E-4,3.694132319651544E-4,-7.471577167510986,24.39509391784668,-38.20655822753906,0.2543366551399231,1.3895108699798584,-0.04390525817871094,0.06745821,-0.15411143,9.772165,-0.5289811,-1.3087996,9.67113,0
7,988.4156494140625,7.519044447690248E-5,-1.4831981388852E-4,-2.994528040289879E-5,-7.250539302825928,24.917814254760742,-37.7323112487793,0.2487218677997589,1.3923767805099487,-0.052496910095214844,0.069820225,-0.16126065,9.769796,-0.51867914,-1.3124574,9.66893,0
7,988.4331665039062,-7.234882796183228E-4,-9.473111713305116E-4,3.696437051985413E-4,-6.94691801071167,24.2539119720459,-37.74024963378906,0.2525319457054138,1.376196026802063,-0.070556640625,0.06740242,-0.14457704,9.788732,-0.5334796,-1.2847966,9.690688,0
7,988.440673828125,-5.900616524741054E-4,-4.1472300654277205E-4,-1.628728350624442E-4,-7.457038402557373,24.67220115661621,-38.37897491455078,0.2515840530395508,1.3792979717254639,-0.027103424072265625,0.07215434,-0.15649267,9.765057,-0.5187958,-1.2921605,9.666809,0
7,988.4180297851562,3.4231285098940134E-4,-0.0012137143639847636,6.3619005959481E-4,-7.186486721038818,24.293642044067383,-38.78343963623047,0.2506794035434723,1.3631229400634766,-0.03570842742919922,0.07212645,-0.14934216,9.769789,-0.5369971,-1.2705708,9.673344,0
7,988.4003295898438,-4.5636575669050217E-4,6.504531484097242E-4,2.3683143081143498E-4,-7.710442543029785,24.592756271362305,-38.02734375,0.25901898741722107,1.3566763401031494,-0.039597511291503906,0.06731874,-0.15172477,9.772152,-0.5325888,-1.269123,9.6761675,0
7,988.4003295898438,-4.5636575669050217E-4,6.504531484097242E-4,2.3683143081143498E-4,-7.507829189300537,24.571577072143555,-37.7493896484375,0.23897784948349,1.359997272491455,-0.024590492248535156,0.076850444,-0.15887393,9.760315,-0.5208407,-1.2713532,9.664743,0
7,988.4232788085938,7.423243951052427E-4,-5.480119143612683E-4,-2.9568513855338097E-4,-7.354645729064941,23.925031661987305,-38.04309844970703,0.2666875720024109,1.363362431526184,-0.05220317840576172,0.060093284,-0.15648998,9.779249,-0.52611214,-1.2657595,9.684156,0
7,988.40771484375,4.7627731692045927E-4,-6.812135106883943E-4,5.033777561038733E-4,-7.3744001388549805,25.118139266967773,-38.10987091064453,0.2608092129230499,1.3286523818969727,-0.018276214599609375,0.062455237,-0.1421896,9.755575,-0.51872647,-1.2433574,9.66335,0
7,988.4483032226562,4.7654646914452314E-4,-1.5467405319213867E-5,-4.2861257679760456E-4,-7.276435852050781,24.47246742248535,-38.241153717041016,0.235622376203537,1.3460679054260254,-0.022182464599609375,0.07676676,-0.16840492,9.757939,-0.5166474,-1.2624339,9.663901,0
7,988.440673828125,2.1049927454441786E-4,-1.5511061064898968E-5,7.699241396039724E-4,-7.339563846588135,23.833845138549805,-38.11707305908203,0.2440517246723175,1.33004891872406,-0.016622543334960938,0.06717926,-0.16363777,9.7579365,-0.51314616,-1.2535787,9.665084,0
7,988.3952026367188,2.1076796110719442E-4,2.5076119345612824E-4,5.037233931943774E-4,-7.185102462768555,24.18919563293457,-38.16166687011719,0.23327848315238953,1.3139622211456299,-0.04893207550048828,0.081490785,-0.15172069,9.765036,-0.49564224,-1.2392108,9.67493,0
7,988.4356079101562,-5.879105301573873E-4,2.5071753771044314E-4,-1.6195105854421854E-4,-7.2884745597839355,24.56660270690918,-38.32179260253906,0.23222044110298157,1.312319278717041,-0.02445507049560547,0.074293196,-0.15171997,9.765034,-0.4939971,-1.2342477,9.67559,0
7,988.4179077148438,7.814785931259394E-5,2.5067388196475804E-4,-1.6183580737560987E-4,-6.986374378204346,23.901227951049805,-38.25242614746094,0.24535444378852844,1.306092619895935,-0.03787422180175781,0.06718913,-0.14933832,9.7745075,-0.50609106,-1.2226129,9.685913,0
7,988.4205322265625,-3.210572758689523E-4,-1.5685654943808913E-5,9.035429684445262E-4,-7.3669281005859375,25.01958656311035,-37.79731750488281,0.22980996966362,1.2997956275939941,-0.032375335693359375,0.07443014,-0.14934011,9.772148,-0.51522917,-1.2101814,9.684663,0
7,988.380126953125,-1.8763018306344748E-4,3.8374451105482876E-4,2.3786845849826932E-4,-7.774656295776367,24.690710067749023,-38.10016632080078,0.23883980512619019,1.293094277381897,-0.02683258056640625,0.072019964,-0.15172286,9.762677,-0.5080199,-1.2077583,9.67581,0
7,988.4281005859375,-5.866517312824726E-5,-9.495473932474852E-4,3.72333568520844E-4,-7.168498516082764,24.099485397338867,-38.31294631958008,0.22348615527153015,1.2869280576705933,-0.040279388427734375,0.07199967,-0.15648897,9.762675,-0.49522454,-1.211385,9.676095,0
7,988.4027099609375,-4.5794318430125713E-4,2.4884226149879396E-4,5.055753281340003E-4,-7.631690502166748,24.77190589904785,-38.126949310302734,0.24616670608520508,1.2949572801589966,-0.01110076904296875,0.062419772,-0.15410508,9.757938,-0.5148431,-1.1950017,9.672223,0
7,988.4253540039062,-1.9143195822834969E-4,-4.1697919368743896E-4,-2.6972615160048008E-5,-7.982814788818359,24.337705612182617,-37.9704475402832,0.23558568954467773,1.2934263944625854,-0.04347801208496094,0.07195908,-0.15887119,9.776875,-0.5236612,-1.1898966,9.691627,0
7,988.430419921875,-1.763050677254796E-4,4.319472354836762E-4,7.775111589580774E-5,-7.480464935302734,23.385831832885742,-38.06914520263672,0.22463908791542053,1.2631407976150513,-0.023752212524414062,0.07671857,-0.14218779,9.776873,-0.50139594,-1.1737098,9.694553,0
7,988.4152221679688,-4.424253711476922E-4,-3.670321893878281E-4,-4.5479676919057965E-4,-7.657724380493164,24.220640182495117,-37.936710357666016,0.2382110059261322,1.2426995038986206,-0.018286705017089844,0.06952858,-0.13980402,9.767402,-0.50534403,-1.1629598,9.686003,0
7,988.4456176757812,-4.2755971662700176E-5,3.240993828512728E-5,-4.547130083665252E-4,-7.524295806884766,24.7672061920166,-38.29718780517578,0.21783974766731262,1.255284309387207,-0.026976585388183594,0.079067886,-0.15171991,9.767401,-0.48568487,-1.1749814,9.685809,0
7,988.425537109375,-9.746659779921174E-4,6.981678889133036E-4,6.106343935243785E-4,-7.552394390106201,24.582761764526367,-38.12810134887695,0.23093080520629883,1.263502597808838,-0.02624797821044922,0.074267805,-0.15410258,9.772133,-0.491976,-1.1696925,9.690905,0
8,988.4228515625,9.07933572307229E-5,3.234640462324023E-5,2.1124439081177115E-4,-7.540356636047363,24.488630294799805,-38.047462463378906,0.2249707281589508,1.262432336807251,-0.016082763671875,0.07424754,-0.16363521,9.767396,-0.49222815,-1.1726837,9.685908,0
8,988.43798828125,4.904627567157149E-4,6.981043261475861E-4,2.1132820984348655E-4,-7.563889980316162,24.30860710144043,-38.11028289794922,0.22385281324386597,1.2417975664138794,-0.015336990356445312,0.071837336,-0.1493351,9.760292,-0.4912877,-1.1505287,9.681202,0
8,988.4078369140625,-1.7513136845082045E-4,-2.3403299564961344E-4,-5.875357310287654E-4,-7.580356597900391,24.504240036010742,-38.658084869384766,0.2371237576007843,1.2213466167449951,-0.028820037841796875,0.06464732,-0.14695133,9.767392,-0.49390176,-1.142412,9.6891,0
8,988.4202880859375,-4.4125167187303305E-4,-3.67222644854337E-4,3.4465378848835826E-4,-7.1138224601745605,24.466894149780273,-38.573822021484375,0.22183042764663696,1.2248010635375977,-0.028116226196289062,0.06940681,-0.14695089,9.781593,-0.47076038,-1.1463321,9.704137,0
8,988.435302734375,-5.742140347138047E-4,-2.340964856557548E-4,3.447376366239041E-4,-7.154395580291748,23.638532638549805,-38.21116256713867,0.22072070837020874,1.2234280109405518,-0.04160785675048828,0.06938654,-0.15886666,9.776857,-0.48011744,-1.147759,9.698926,0
8,988.4154663085938,-4.1386811062693596E-5,0.0010974511969834566,-4.541261587291956E-4,-6.9704508781433105,24.073881149291992,-37.80307388305664,0.21932360529899597,1.2365367412567139,-0.03144359588623047,0.07653594,-0.15886618,9.776855,-0.46089202,-1.147707,9.699916,0
8,988.4152221679688,6.245984695851803E-4,-3.673179307952523E-4,7.443791255354881E-4,-7.396847724914551,24.201536178588867,-37.975791931152344,0.2137298882007599,1.2210291624069214,-0.026032447814941406,0.07173586,-0.161249,9.774487,-0.47930402,-1.1367854,9.697925,0
8,988.4103393554688,3.584782825782895E-4,-1.0103377280756831E-4,-5.448464071378112E-5,-7.222631454467773,23.3637752532959,-37.95362091064453,0.22704723477363586,1.1914846897125244,-0.006443023681640625,0.06693578,-0.1421823,9.750813,-0.47717372,-1.1092432,9.67703,0
8,988.4253540039062,4.918318009003997E-4,3.209238639101386E-5,-3.207167028449476E-4,-7.082709789276123,23.44202995300293,-37.82578659057617,0.20190316438674927,1.2093322277069092,-0.01996326446533203,0.08364478,-0.16124804,9.765015,-0.45768088,-1.1295544,9.690365,0
8,988.4177856445312,-7.063939701765776E-4,2.9837648617103696E-4,3.4515681909397244E-4,-7.309942245483398,24.019758224487305,-38.36347198486328,0.2197628915309906,1.2175434827804565,-0.028740882873535156,0.069285065,-0.1564809,9.769747,-0.47155562,-1.1153169,9.695923,0
8,988.4330444335938,9.274936746805906E-5,5.646607023663819E-4,2.1208266844041646E-4,-7.503561973571777,23.94386100769043,-38.40617370605469,0.20887896418571472,1.1830625534057617,-0.00440216064453125,0.074044585,-0.15409715,9.762644,-0.46553785,-1.1070669,9.690002,0
8,988.4177856445312,9.294494520872831E-5,4.314709804020822E-4,3.4532445715740323E-4,-7.198417663574219,23.281431198120117,-38.491416931152344,0.21743303537368774,1.2009100914001465,-0.0037384033203125,0.07402429,-0.16601305,9.762642,-0.46337652,-1.114076,9.689496,0
8,988.4154663085938,6.257721688598394E-4,4.3143919901922345E-4,-5.866973078809679E-4,-7.26385498046875,24.010046005249023,-38.06206512451172,0.21599465608596802,1.1619890928268433,-0.022047996520996094,0.07161409,-0.14694636,9.767375,-0.46968597,-1.0859671,9.696826,0
8,988.4378051757812,0.0010254414519295096,0.0017629868816584349,-3.202976076863706E-4,-7.527775287628174,24.02620506286621,-37.868370056152344,0.19538044929504395,1.1755338907241821,-0.021425247192382812,0.08115339,-0.15886225,9.76974,-0.45130175,-1.0987139,9.698907,0
8,988.4251098632812,9.353144560009241E-5,8.308495744131505E-4,-5.389787838794291E-5,-7.398913383483887,24.568357467651367,-37.99694061279297,0.20843738317489624,1.1746089458465576,-0.03973102569580078,0.071573526,-0.1636282,9.77684,-0.44952628,-1.1008102,9.705907,0
8,988.4251098632812,9.353144560009241E-5,8.308495744131505E-4,-5.389787838794291E-5,-7.033142566680908,24.173311233520508,-37.95320129394531,0.2074468731880188,1.1592620611190796,-0.0154266357421875,0.078691006,-0.15409385,9.7721,-0.43655354,-1.0877886,9.703094,0
8,988.4329223632812,3.6004302091896534E-4,-2.344457316212356E-4,2.1250188001431525E-4,-6.980967044830322,24.16948890686035,-37.96101760864258,0.21110987663269043,1.1532284021377563,0.0041751861572265625,0.066687346,-0.15885909,9.76736,-0.4437588,-1.0850292,9.698289,0
8,988.4326782226562,9.415135718882084E-5,4.312751116231084E-4,-5.36322477273643E-5,-6.919659614562988,24.17450523376465,-38.43266677856445,0.1957310140132904,1.142759084701538,-0.004680633544921875,0.081003904,-0.15409197,9.760258,-0.44940338,-1.0678922,9.69281,0
8,988.4074096679688,-7.11004831828177E-4,2.9165975865907967E-4,-7.131259189918637E-4,-7.679299831390381,24.7801456451416,-38.351043701171875,0.19986724853515625,1.151140809059143,-0.01352691650390625,0.07620126,-0.15409143,9.776825,-0.44879675,-1.0644981,9.709856,0
8,988.4276733398438,4.876368911936879E-4,-9.067975915968418E-4,-4.4671574141830206E-4,-7.430056095123291,24.380964279174805,-37.673240661621094,0.20323458313941956,1.1406723260879517,-0.012908935546875,0.07856828,-0.15170757,9.774456,-0.42319858,-1.0654444,9.708498,0
8,988.4202880859375,8.838321082293987E-5,5.579041317105293E-4,-1.8030538922175765E-4,-6.7822394371032715,23.881521224975586,-38.05177307128906,0.2025255262851715,1.1302400827407837,0.0018863677978515625,0.073765635,-0.15885685,9.76025,-0.436844,-1.0606704,9.694189,0
8,988.4529418945312,-8.435022318735719E-4,2.9155248194001615E-4,3.5242066951468587E-4,-7.213606834411621,24.47895622253418,-38.79010772705078,0.19171705842018127,1.1197962760925293,-0.0022449493408203125,0.085692346,-0.1540898,9.753147,-0.44731456,-1.041963,9.688612,0
8,988.4326782226562,6.214554887264967E-4,-5.074308719485998E-4,8.619911386631429E-5,-7.503454208374023,22.837514877319336,-38.03351593017578,0.20022955536842346,1.1238778829574585,-0.011139869689941406,0.07371992,-0.1517059,9.767348,-0.4290216,-1.0448941,9.70328,0
8,988.4301147460938,4.885176895186305E-4,4.2463900172151625E-4,-4.686438478529453E-5,-7.0248517990112305,23.918302536010742,-38.94035339355469,0.2033851444721222,1.1132947206497192,-0.010519027709960938,0.07130721,-0.15408857,9.757877,-0.4337833,-1.0383945,9.694255,0
9,988.44287109375,-4.3893931433558464E-5,0.0013567087007686496,-9.788755560293794E-4,-7.068170547485352,23.71912956237793,-37.99821472167969,0.20217841863632202,1.1073215007781982,-0.028835296630859375,0.068894506,-0.15647133,9.77918,-0.43873605,-1.0350574,9.715849,0
9,988.4225463867188,-7.094632601365447E-4,9.571991395205259E-4,4.8595608677715063E-4,-7.462147235870361,25.036069869995117,-38.245513916015625,0.19628694653511047,1.111134648323059,0.014364242553710938,0.07604134,-0.1660039,9.746037,-0.43206343,-1.0367608,9.68282,0
9,988.4276733398438,-5.758650368079543E-4,5.576539551839232E-4,-3.1280284747481346E-4,-7.629082202911377,24.036794662475586,-38.00735092163086,0.18581724166870117,1.0910987854003906,-0.00399017333984375,0.07601845,-0.15170367,9.774442,-0.44064036,-1.014683,9.713124,0
9,988.397705078125,9.014492388814688E-5,-6.40803249552846E-4,8.676538709551096E-5,-7.304534912109375,24.288022994995117,-38.07206344604492,0.18975555896759033,1.090161919593811,0.0013189315795898438,0.08077544,-0.15885295,9.760237,-0.42164335,-1.0217108,9.699088,0
9,988.4376831054688,-1.7595081590116024E-4,-6.408390472643077E-4,-4.629814065992832E-5,-7.3021721839904785,24.5533504486084,-37.62604522705078,0.203288733959198,1.0846726894378662,-0.012334823608398438,0.06402326,-0.14931925,9.764969,-0.43299884,-1.0044868,9.704871,0
9,988.4251098632812,9.058532305061817E-5,2.4914887035265565E-5,8.695412543602288E-5,-7.489160537719727,24.115049362182617,-37.87952423095703,0.1974809765815735,1.0744539499282837,-0.0023174285888671875,0.07356,-0.14693548,9.764967,-0.4305994,-0.9951076,9.705974,0
9,988.425048828125,6.234374595806003E-4,8.238267619162798E-4,-1.7926737200468779E-4,-7.3470354080200195,23.93239402770996,-38.42962646484375,0.20103609561920166,1.069185495376587,-0.011251449584960938,0.07114726,-0.14455159,9.772066,-0.42632446,-0.9897702,9.713797,0
9,988.4403686523438,-1.752902753651142E-4,5.574751412495971E-4,-0.0011112785432487726,-7.653158664703369,24.225065231323242,-38.16862487792969,0.19534748792648315,1.0686415433883667,-0.0012578964233398438,0.06873456,-0.1564674,9.769697,-0.43795174,-0.99179715,9.710856,0
9,988.4251098632812,3.5756174474954605E-4,-6.409819470718503E-4,2.2039515897631645E-4,-7.557939529418945,24.20857810974121,-37.720428466796875,0.18949133157730103,1.0677413940429688,-0.0054302215576171875,0.06871167,-0.15646686,9.774429,-0.43378213,-0.9878613,9.716206,0
9,988.4201049804688,6.240980001166463E-4,2.9108781018294394E-4,-1.7898424994200468E-4,-7.481550216674805,24.122411727905273,-38.266048431396484,0.20287007093429565,1.0483169555664062,-1.926422119140625E-4,0.06868881,-0.14454992,9.762591,-0.42588714,-0.9716829,9.706094,0
9,988.4251098632812,-5.883395788259804E-4,-3.470289520919323E-4,-5.10048761498183E-4,-6.9124860763549805,23.443819046020508,-38.54498291015625,0.16827398538589478,1.052065372467041,-0.009093284606933594,0.08300543,-0.15646572,9.76969,-0.39811817,-0.9877337,9.713088,0
9,988.43017578125,-8.544350857846439E-4,1.8556701252236962E-4,-7.762702298350632E-4,-7.580494403839111,24.3983211517334,-37.959007263183594,0.19089949131011963,1.0631017684936523,-0.013055801391601562,0.06147343,-0.15884848,9.769688,-0.4344316,-0.9731282,9.712884,0
9,988.4276733398438,4.7736457781866193E-4,5.237339064478874E-5,2.277173916809261E-5,-7.188689708709717,24.55454444885254,-38.105506896972656,0.18084865808486938,1.0556788444519043,0.00140380859375,0.0805698,-0.16123118,9.772054,-0.39991337,-0.9810969,9.716122,0
9,988.4403076171875,7.811089744791389E-5,4.5181147288531065E-4,1.5602403436787426E-4,-7.174586296081543,24.09358787536621,-38.003726959228516,0.18959292769432068,1.0262736082077026,-0.0075359344482421875,0.070987344,-0.14931421,9.769684,-0.40790305,-0.9605857,9.715191,0
9,988.4401245117188,-1.879847259260714E-4,-6.134878494776785E-4,2.2960477508604527E-5,-7.474621295928955,24.392148971557617,-38.051944732666016,0.1934514343738556,1.0303958654403687,-0.016490936279296875,0.06379479,-0.14931367,9.772049,-0.42070854,-0.9507324,9.717942,0
9,988.4276733398438,-1.8776458455249667E-4,4.51739935670048E-4,-5.095768137834966E-4,-7.28350305557251,24.09681510925293,-37.75617980957031,0.17788004875183105,1.0226558446884155,-0.00629425048828125,0.073331535,-0.15646298,9.772047,-0.40767968,-0.95665187,9.718096,0
9,988.4251098632812,2.1192937856540084E-4,-0.0010130330920219421,-3.763246349990368E-4,-6.869985580444336,23.799448013305664,-38.18742370605469,0.17636698484420776,1.0221600532531738,-0.0058460235595703125,0.07620996,-0.15885822,9.76499,-0.3911111,-0.95923376,9.711488,0
9,988.4251098632812,7.323222234845161E-5,1.8470437498763204E-4,-6.424610619433224E-4,-6.979444980621338,24.17096519470215,-38.03832244873047,0.17606773972511292,1.0099729299545288,-0.010338783264160156,0.069037735,-0.14932503,9.776827,-0.39606068,-0.9436071,9.724512,0
9,988.422607421875,-1.9425770733505487E-4,5.843687104061246E-4,-5.098062683828175E-4,-7.42991828918457,24.48688316345215,-38.372314453125,0.1745203733444214,1.004719853401184,0.0043659210205078125,0.076204896,-0.15170829,9.764991,-0.39854497,-0.93668497,9.713272,0
9,988.4326782226562,7.208262104541063E-5,5.17331063747406E-5,1.5599391190335155E-4,-7.0505876541137695,23.999177932739258,-38.32524490356445,0.17397406697273254,0.9899644255638123,-0.004631996154785156,0.073812455,-0.1397918,9.762622,-0.38512307,-0.9242265,9.712428,0
9,988.435302734375,3.3842294942587614E-4,1.8488697241991758E-4,-1.1031149188056588E-4,-7.1265411376953125,24.82340431213379,-38.0538330078125,0.1728593111038208,0.9992294907569885,0.010038375854492188,0.07380992,-0.15170817,9.764989,-0.39845365,-0.9259373,9.714287,0
9,988.422607421875,-0.0011262899497523904,-6.140645709820092E-4,1.5601480845361948E-4,-7.4073638916015625,24.297143936157227,-38.13373565673828,0.17696881294250488,0.9889026284217834,0.0010662078857421875,0.07380739,-0.14932479,9.769723,-0.39798114,-0.91799736,9.719781,0
9,988.39990234375,-4.604757996276021E-4,-6.140685873106122E-4,1.5602531493641436E-4,-7.474621772766113,24.392148971557617,-38.05194854736328,0.18142753839492798,0.9930379390716553,0.015740394592285156,0.073804855,-0.15647455,9.767357,-0.3779553,-0.92800033,9.717363,0
9,988.435302734375,-1.9413558766245842E-4,-0.0011467041913419962,-5.097538814879954E-4,-6.798705101013184,24.077146530151367,-38.599571228027344,0.18583443760871887,0.9733878374099731,0.016204833984375,0.07380235,-0.15170793,9.753152,-0.38549805,-0.9127221,9.704162,0
9,988.435302734375,-1.9413558766245842E-4,-0.0011467041913419962,-5.097538814879954E-4,-7.04768180847168,23.896207809448242,-37.78077697753906,0.1657920628786087,0.9872167110443115,0.0024700164794921875,0.08574927,-0.14932461,9.767355,-0.37946054,-0.90613675,9.719351,0
10,988.427490234375,-5.935849621891975E-4,-0.0010135503252968192,1.560462696943432E-4,-7.369589805603027,24.122129440307617,-38.66820526123047,0.16025419533252716,0.9823337197303772,0.01710224151611328,0.085746735,-0.16362418,9.760254,-0.38425195,-0.91337276,9.71158,0
10,988.4276733398438,-1.940866932272911E-4,3.1802512239664793E-4,-1.1025910498574376E-4,-7.390217304229736,23.839139938354492,-38.186561584472656,0.18315517902374268,0.9725932478904724,0.0033407211303710938,0.07379466,-0.1564743,9.772089,-0.38641617,-0.9026407,9.7241745,0
10,988.4022827148438,6.048853974789381E-4,-6.140844780020416E-4,-3.76564625184983E-4,-7.198119640350342,23.913564682006836,-38.066551208496094,0.17752192914485931,0.9818151593208313,0.013251304626464844,0.07140225,-0.16600735,9.762621,-0.3846308,-0.90757066,9.714413,0
10,988.4225463867188,4.71751787699759E-4,3.180173225700855E-4,-5.097119719721377E-4,-7.117845058441162,24.09419059753418,-38.24345397949219,0.17629946768283844,0.9390924572944641,-0.010009765625,0.06661993,-0.15409093,9.772089,-0.3940902,-0.8874118,9.725179,0
10,988.3975219726562,4.717763513326645E-4,1.8485524924471974E-4,-3.7654367042705417E-4,-7.504786014556885,24.574525833129883,-37.90399932861328,0.17534275352954865,0.9483179450035095,-0.009569168090820312,0.06900731,-0.14455776,9.776823,-0.37790874,-0.87864816,9.731242,0
10,988.4453735351562,6.049587391316891E-4,5.1693408749997616E-5,-5.096910172142088E-4,-7.1222734451293945,24.1956844329834,-38.71061706542969,0.16015875339508057,0.9574032425880432,0.0050792694091796875,0.07617447,-0.15647407,9.764987,-0.38749596,-0.8790195,9.719179,0
10,988.4326782226562,-7.265963358804584E-4,3.1800533179193735E-4,-2.433647750876844E-4,-7.610115051269531,24.212404251098633,-37.712608337402344,0.1687946915626526,0.933064877986908,0.014997482299804688,0.07378203,-0.1588573,9.76262,-0.37400728,-0.8818376,9.7170925,0
10,988.4401245117188,-3.270980669185519E-4,-3.477883874438703E-4,1.5611958224326372E-4,-7.23934268951416,24.55983543395996,-38.17499542236328,0.17239610850811005,0.9278579354286194,0.015446662902832031,0.0761694,-0.14455752,9.764986,-0.3912507,-0.8528585,9.721172,0
10,988.4428100585938,-8.597052656114101E-4,5.843131802976131E-4,-3.7650176091119647E-4,-8.012297630310059,24.25770378112793,-38.423126220703125,0.16663868725299835,0.9275559782981873,-0.0030622482299804688,0.068997175,-0.16124047,9.772089,-0.3890586,-0.8682132,9.727246,0
10,988.4251098632812,-1.938913483172655E-4,5.843093385919929E-4,1.561405078973621E-4,-7.4455742835998535,23.734098434448242,-37.32505798339844,0.17013581097126007,0.9320430755615234,-0.0073642730712890625,0.07377446,-0.15409048,9.767353,-0.3667112,-0.8633344,9.723711,0
10,988.3999633789062,-3.270002780482173E-4,3.1798536656424403E-4,-1.1015450581908226E-4,-7.349781036376953,24.561582565307617,-37.85014343261719,0.1598941683769226,0.9224839210510254,0.002498626708984375,0.071381986,-0.15409048,9.776822,-0.3720278,-0.8571104,9.733553,0
10,988.4125366210938,-1.9381800666451454E-4,-3.4780820715241134E-4,9.551194962114096E-4,-7.487340450286865,24.748655319213867,-37.531951904296875,0.15838952362537384,0.9147513508796692,0.017343521118164062,0.07376939,-0.15647365,9.760251,-0.37052417,-0.8527401,9.717407,0
10,988.4200439453125,-7.264252053573728E-4,3.179774503223598E-4,4.2249824036844075E-4,-7.343693733215332,24.567480087280273,-38.15936279296875,0.16749151051044464,0.9170985221862793,0.012807846069335938,0.06898701,-0.16124018,9.76972,-0.37133574,-0.85367477,9.726847,0
10,988.4125366210938,3.388626500964165E-4,-8.150030043907464E-5,2.893508062697947E-4,-7.510735511779785,24.67454719543457,-38.29385757446289,0.15747517347335815,0.8980674147605896,0.03212261199951172,0.07854408,-0.13740732,9.746048,-0.3581676,-0.82487273,9.705762,0
10,988.4228515625,-3.269026055932045E-4,-0.0010136098135262728,2.3045402485877275E-5,-7.352580547332764,23.558210372924805,-38.02195739746094,0.1520186811685562,0.8932849764823914,0.023038864135742188,0.07854152,-0.14932372,9.757883,-0.36341223,-0.83114946,9.7170925,0
10,988.4301147460938,-6.0562160797417164E-5,4.511236329562962E-4,1.5621379134245217E-4,-7.117302417755127,23.725900650024414,-38.14500427246094,0.1560099571943283,0.8934747576713562,-2.651214599609375E-4,0.069121,-0.14932711,9.7720995,-0.363224,-0.829227,9.731466,0
10,988.43017578125,0.0012707019923254848,-7.47246784158051E-4,1.56078691361472E-4,-7.263174533843994,23.747671127319336,-38.662689208984375,0.16928914189338684,0.8890987634658813,0.028467178344726562,0.07404852,-0.14694746,9.774479,-0.35993043,-0.8225309,9.734547,0
10,988.44287109375,-3.296078648418188E-4,-8.800126961432397E-4,2.882019616663456E-4,-7.4842963218688965,24.751604080200195,-37.68656539916992,0.16846254467964172,0.8936258554458618,0.014658927917480469,0.06688768,-0.15171416,9.776848,-0.36700517,-0.820599,9.736845,0
10,988.4200439453125,2.0293844863772392E-4,3.184226807206869E-4,-5.107825272716582E-4,-7.10246467590332,24.6351375579834,-37.892555236816406,0.15802672505378723,0.8938146829605103,-0.003914833068847656,0.07406628,-0.15886422,9.760278,-0.3489575,-0.8282316,9.720392,0
10,988.4175415039062,6.96949427947402E-5,0.0011173842940479517,2.1812593331560493E-5,-7.130425930023193,24.556608200073242,-38.422542572021484,0.166123166680336,0.8650900721549988,0.024888038635253906,0.071685255,-0.14218153,9.750811,-0.3456932,-0.80601573,9.712595,0
10,988.4251098632812,-0.0011288124369457364,7.179243257269263E-4,-1.1138204718008637E-4,-7.307579040527344,24.285078048706055,-37.917449951171875,0.15114600956439972,0.884077250957489,0.006321907043457031,0.06452444,-0.15648143,9.765015,-0.36228985,-0.8113702,9.725974,0
10,988.4526977539062,-5.962661234661937E-4,-7.467991672456264E-4,-6.440505967475474E-4,-7.230348587036133,24.462759017944336,-37.93975067138672,0.1597762107849121,0.8746392130851746,0.0208892822265625,0.07170305,-0.1540984,9.765015,-0.34962308,-0.80780077,9.7267475,0
10,988.4351806640625,0.0011347014224156737,-3.4731143387034535E-4,8.206501370295882E-4,-7.398369789123535,24.200063705444336,-37.89848709106445,0.15445128083229065,0.8513793349266052,0.016472816467285156,0.074101835,-0.14694871,9.772118,-0.35109878,-0.7950386,9.734782,0
10,988.4529418945312,3.293900517746806E-4,-2.9654521495103836E-4,-4.079132340848446E-4,-7.4771223068237305,24.020910263061523,-37.79888153076172,0.13425517082214355,0.856343150138855,0.007359504699707031,0.09084004,-0.14456566,9.772119,-0.33592707,-0.79094267,9.73576,0
10,988.422607421875,6.298848893493414E-5,7.687322795391083E-4,1.2468203203752637E-4,-7.431035041809082,24.011198043823242,-37.49748229980469,0.13808321952819824,0.847188413143158,0.0029630661010742188,0.0836792,-0.1421826,9.779221,-0.3399613,-0.7836346,9.74324,0
11,988.4099731445312,6.290280725806952E-5,9.019039571285248E-4,-1.4167057815939188E-4,-7.775634765625,24.32094383239746,-37.924407958984375,0.15142717957496643,0.86637282371521,0.02698993682861328,0.07412851,-0.16839887,9.7673855,-0.3601716,-0.7984984,9.729764,0
11,988.4378051757812,-7.361304014921188E-4,6.356020458042622E-4,-8.549424819648266E-6,-7.284045696258545,24.465105056762695,-37.8546257019043,0.15988928079605103,0.8279238939285278,0.008436203002929688,0.06218788,-0.14456631,9.776855,-0.35536033,-0.7724472,9.741084,0
11,988.4202880859375,-6.030582590028644E-4,-2.964895684272051E-4,2.5772975641302764E-4,-7.506307601928711,24.573049545288086,-37.82669448852539,0.14987996220588684,0.8566998243331909,0.00403594970703125,0.06697655,-0.15648298,9.776856,-0.34856445,-0.78235054,9.740756,0
11,988.4300537109375,1.9580370280891657E-4,-4.296336555853486E-4,5.240089958533645E-4,-7.17404317855835,23.72530174255371,-37.9052734375,0.1586454212665558,0.8141789436340332,0.013829231262207031,0.06459555,-0.15171666,9.762653,-0.3510143,-0.7705996,9.727261,0
11,988.4000244140625,-6.032291566953063E-4,-3.0145864002406597E-5,-1.4181743608787656E-4,-7.369727611541748,24.016218185424805,-37.96912384033203,0.15774434804916382,0.8382103443145752,0.004698753356933594,0.057434738,-0.15410005,9.772123,-0.36079603,-0.76578623,9.736778,0
11,988.4276733398438,5.951062776148319E-4,-4.2960583232343197E-4,-5.413281032815576E-4,-7.705035209655762,24.861021041870117,-37.735939025878906,0.15701210498809814,0.8197848200798035,0.009734153747558594,0.071783006,-0.1469505,9.779226,-0.3299208,-0.76509476,9.74504,0
11,988.3975219726562,-2.0392693113535643E-4,6.356715457513928E-4,-8.732895366847515E-6,-7.162112236022949,24.73750877380371,-38.197296142578125,0.15145424008369446,0.8199518918991089,0.019536972045898438,0.06701213,-0.15410052,9.772125,-0.34241396,-0.76257175,9.737757,0
11,988.3975219726562,-2.0392693113535643E-4,6.356715457513928E-4,-8.732895366847515E-6,-7.421604633331299,24.65217399597168,-37.53643798828125,0.14093731343746185,0.8249120116233826,0.005665779113769531,0.07897049,-0.15410076,9.779227,-0.33438814,-0.7593146,9.745507,0
11,988.4253540039062,1.9546144176274538E-4,-6.958939484320581E-4,-2.7508544735610485E-4,-7.679299354553223,24.780141830444336,-38.351043701171875,0.1496732383966446,0.8203291893005371,0.010728836059570312,0.062250078,-0.154101,9.762657,-0.34338865,-0.75217915,9.728998,0
11,988.4276123046875,-4.704141756519675E-4,3.693836333695799E-4,-2.75122351013124E-4,-7.358232498168945,24.290372848510742,-37.9869384765625,0.15344038605690002,0.8114916086196899,0.01575946807861328,0.06942868,-0.14933468,9.765026,-0.3279723,-0.7481343,9.732193,0
11,988.4225463867188,-2.0418374333530664E-4,3.693974867928773E-4,2.5747285690158606E-4,-7.263418674468994,24.748098373413086,-38.336273193359375,0.14787842333316803,0.8068187832832336,0.006618499755859375,0.06465775,-0.15886788,9.776863,-0.33466387,-0.7520998,9.743656,0
11,988.41748046875,6.204645615071058E-5,-2.9637839179486036E-4,-2.7519563445821404E-4,-7.243908882141113,24.555418014526367,-37.94308090209961,0.1472197026014328,0.7977861762046814,0.011651992797851562,0.069446415,-0.14933507,9.77923,-0.33713526,-0.7352338,9.747114,0
11,988.44287109375,-7.369868690147996E-4,1.031094288919121E-4,-8.916482329368591E-6,-7.542857646942139,24.117395401000977,-37.79439926147461,0.13689745962619781,0.7884019613265991,0.007237434387207031,0.07184523,-0.15171854,9.767395,-0.32961556,-0.73473656,9.73559,0
11,988.4403076171875,5.94506855122745E-4,-1.6319265705533326E-4,-1.42111093737185E-4,-7.4927473068237305,24.48039436340332,-37.8233642578125,0.14027707278728485,0.7795479893684387,0.0075359344482421875,0.06946421,-0.14456896,9.779232,-0.32250124,-0.7269222,9.748163,0
11,988.4376831054688,-6.040002917870879E-4,7.689268095418811E-4,-2.753057051450014E-4,-7.306600093841553,24.654844284057617,-38.09320831298828,0.13950268924236298,0.7990162372589111,-0.0016336441040039062,0.06469327,-0.15410228,9.774498,-0.33068135,-0.7292681,9.743077,0
11,988.43017578125,1.94861670024693E-4,6.357827223837376E-4,7.899210904724896E-4,-7.383831024169922,24.477170944213867,-38.0709114074707,0.15353916585445404,0.7853178381919861,0.031867027282714844,0.06394252,-0.14931728,9.769695,-0.32711112,-0.7208674,9.738926,0
11,988.4378051757812,-7.153989281505346E-5,1.0316495900042355E-4,-1.4222116442397237E-4,-7.316573143005371,24.382158279418945,-38.15270233154297,0.14801141619682312,0.7667711973190308,0.013220787048339844,0.061531067,-0.15408333,9.786264,-0.32675207,-0.72315454,9.755449,0
11,988.4376831054688,-2.0353402942419052E-4,3.6754339816980064E-4,-6.226880941540003E-6,-7.225782871246338,24.46717643737793,-38.171661376953125,0.15656396746635437,0.7718816995620728,0.022995948791503906,0.06389946,-0.14693297,9.760223,-0.32611,-0.7083888,9.730338,0
11,988.4225463867188,-8.653299883008003E-4,2.3373725707642734E-4,-5.371469887904823E-4,-7.433803081512451,24.220083236694336,-38.74102783203125,0.1365206092596054,0.7675480842590332,0.023291587829589844,0.07821733,-0.15169896,9.7649555,-0.31189194,-0.7126392,9.735418,0
11,988.4225463867188,-4.656485980376601E-4,1.0054549784399569E-4,-2.7074216632172465E-4,-7.819657802581787,23.963842391967773,-38.20466613769531,0.14076966047286987,0.7918356657028198,0.014110565185546875,0.06863618,-0.16361485,9.772055,-0.33484712,-0.712664,9.741894,0
11,988.435302734375,6.719084922224283E-5,2.3366979439742863E-4,-5.369689897634089E-4,-7.775092124938965,23.95265769958496,-37.825958251953125,0.1446957141160965,0.7732997536659241,0.01912975311279297,0.066224754,-0.16123106,9.772053,-0.3341407,-0.7061283,9.742337,0
11,988.4403076171875,-4.6523346100002527E-4,1.0047815158031881E-4,3.9522541919723153E-4,-7.543699264526367,23.853548049926758,-38.317726135253906,0.1297292411327362,0.7532596588134766,0.010033607482910156,0.07098299,-0.14931412,9.762582,-0.31926656,-0.69407094,9.734046,0
11,988.4451904296875,0.001266027451492846,-0.0013642929261550307,1.2899853754788637E-4,-7.096813201904297,23.902978897094727,-37.92757034301758,0.12452492117881775,0.7368395924568176,0.029111862182617188,0.06857157,-0.13978054,9.76258,-0.30690414,-0.68567234,9.73488,0
11,988.4124755859375,-4.6481809113174677E-4,1.0041074710898101E-4,2.62245477642864E-4,-7.254860877990723,23.9129695892334,-37.826820373535156,0.1431458592414856,0.7471133470535278,0.010433197021484375,0.063770205,-0.1445465,9.774414,-0.31572095,-0.68418026,9.746607,0
12,988.4276733398438,6.802112329751253E-5,-2.9909677687101066E-4,-9.360870462842286E-4,-7.453994274139404,24.675146102905273,-38.53358840942383,0.15642566978931427,0.7479866147041321,0.024898529052734375,0.054189086,-0.15169583,9.764944,-0.32426995,-0.6848632,9.736832,0
12,988.4354248046875,7.340183947235346E-4,3.6665916559286416E-4,-1.3705046148970723E-4,-7.647208213806152,24.125036239624023,-37.778770446777344,0.13619211316108704,0.7346298098564148,0.02042102813720703,0.06611705,-0.14216222,9.77441,-0.3174584,-0.6715205,9.747409,0
12,988.4453735351562,-6.472168024629354E-5,3.666255797725171E-4,-5.364351090975106E-4,-7.243228435516357,24.29304313659668,-38.54370880126953,0.14495597779750824,0.7209697961807251,0.04436016082763672,0.061315715,-0.14454491,9.753103,-0.3090135,-0.6729342,9.726218,0
12,988.4376220703125,6.86438288539648E-5,7.660656701773405E-4,-1.3687246246263385E-4,-7.247251033782959,23.920331954956055,-38.213340759277344,0.13472765684127808,0.7312467098236084,0.020943641662597656,0.063684046,-0.14216115,9.753101,-0.30723938,-0.6662244,9.726715,0
12,988.44287109375,-4.6378024853765965E-4,2.3340017651207745E-4,-6.694151670671999E-4,-7.5122575759887695,24.673078536987305,-38.216552734375,0.1432291567325592,0.7271310687065125,0.01647663116455078,0.058882713,-0.15646027,9.767303,-0.31584382,-0.6749965,9.740267,0
12,988.44287109375,-5.967305041849613E-4,2.3336647427640855E-4,0.0010617268271744251,-7.3272271156311035,24.37184715270996,-37.61156463623047,0.1283632069826126,0.7229018807411194,0.0167388916015625,0.06603089,-0.15169318,9.772036,-0.30441064,-0.66931194,9.745738,0
12,988.4276733398438,-3.3020705450326204E-4,-2.992990193888545E-4,-1.366055221296847E-4,-7.09170389175415,23.539106369018555,-38.061038970947266,0.14175404608249664,0.7238480448722839,0.02645397186279297,0.061229527,-0.14930935,9.772033,-0.30570728,-0.66282153,9.74607,0
12,988.4251098632812,3.357901005074382E-4,1.0014112922362983E-4,-3.3586984500288963E-6,-7.336519718170166,23.836790084838867,-38.27168273925781,0.11752375960350037,0.7150525450706482,0.03143119812011719,0.08749694,-0.14692564,9.764929,-0.282165,-0.66090727,9.739952,0
12,988.4351806640625,-1.9663397688418627E-4,-9.651561267673969E-4,1.2988821254111826E-4,-7.171542167663574,24.096532821655273,-38.15834045410156,0.12642686069011688,0.7443206310272217,0.03641796112060547,0.070746094,-0.1683745,9.76256,-0.29657406,-0.676018,9.736322,0
12,988.4453735351562,-7.290581706911325E-4,-3.30842740368098E-5,3.9629312232136726E-4,-7.584379196166992,24.131528854370117,-38.327720642089844,0.11666178703308105,0.6976971626281738,0.008231163024902344,0.08028412,-0.13977472,9.772027,-0.2890718,-0.64337856,9.747871,0
12,988.422607421875,7.358867442235351E-4,-4.325917107053101E-4,1.3006615336053073E-4,-7.471034049987793,24.026803970336914,-38.10810852050781,0.1254364401102066,0.7177962064743042,0.02266407012939453,0.075482786,-0.1493072,9.772025,-0.29272074,-0.64874506,9.747508,0
12,988.44287109375,7.030460983514786E-5,6.326381117105484E-4,5.296289455145597E-4,-6.9704508781433105,24.073881149291992,-37.80307388305664,0.13427269458770752,0.6995410919189453,0.013434410095214844,0.06351176,-0.15407331,9.781492,-0.29036146,-0.6534953,9.756743,0
12,988.4278564453125,2.726470120251179E-4,-3.8951507303863764E-4,-2.4953961838036776E-4,-6.83745813369751,23.882394790649414,-37.889347076416016,0.12868961691856384,0.6912150979042053,0.042059898376464844,0.06827003,-0.15645607,9.753083,-0.28369322,-0.6522465,9.728611,0
12,988.4378051757812,6.723285187035799E-4,6.757147493772209E-4,6.826549069955945E-4,-6.918138027191162,24.175981521606445,-38.50996780395508,0.1184799075126648,0.6827858686447144,0.04227924346923828,0.07063842,-0.15407224,9.753081,-0.27518687,-0.64886886,9.729058,0
12,988.4451904296875,-1.2641155626624823E-4,-2.5642450782470405E-4,1.6954145394265652E-5,-6.717046737670898,24.1533260345459,-38.15470886230469,0.12258540093898773,0.7075061202049255,-1.0204315185546875E-4,0.07061684,-0.1540717,9.774385,-0.280288,-0.64375556,9.750608,0
12,988.397705078125,-1.262039877474308E-4,9.857641998678446E-6,4.165169666521251E-4,-6.958275318145752,24.085668563842773,-38.42151641845703,0.11710862815380096,0.6895156502723694,0.02852344512939453,0.07613915,-0.14932336,9.776819,-0.29073638,-0.62895316,9.753675,0
12,988.397705078125,-1.262039877474308E-4,9.857641998678446E-6,4.165169666521251E-4,-7.646665096282959,23.756746292114258,-37.68031311035156,0.11471161246299744,0.6860283017158508,0.01912403106689453,0.0817081,-0.16840889,9.774525,-0.2824408,-0.648191,9.750714,0
12,988.4175415039062,4.066353430971503E-4,4.0929781971499324E-4,-1.1602579616010189E-4,-7.520846366882324,24.29594612121582,-37.654266357421875,0.11426705121994019,0.6916050314903259,0.019341468811035156,0.07457903,-0.15887685,9.7721615,-0.2859148,-0.63318396,9.749016,0
12,988.4479370117188,-2.686046063899994E-4,1.4478398952633142E-5,-1.249276101589203E-4,-7.542719841003418,24.223310470581055,-38.49347686767578,0.12311303615570068,0.6782355904579163,0.0242919921875,0.07461962,-0.14457811,9.757961,-0.2738062,-0.61806536,9.735877,0
12,988.43017578125,7.962672971189022E-4,-1.1861594975925982E-4,1.4122040010988712E-4,-7.300650596618652,24.55482292175293,-37.70335006713867,0.1221463680267334,0.6746885776519775,0.029229164123535156,0.072270334,-0.15649553,9.767435,-0.27673125,-0.626634,9.744908,0
12,988.4378051757812,-5.357034970074892E-4,5.472372868098319E-4,-2.5842117611318827E-4,-7.201706409454346,24.27890968322754,-38.01039123535156,0.126011922955513,0.6805940866470337,0.015232086181640625,0.06275135,-0.1588798,9.767439,-0.28015408,-0.6254844,9.744861,0
12,988.4404907226562,3.960106987506151E-4,-1.1848885333165526E-4,-1.2543099001049995E-4,-7.090289115905762,24.64692497253418,-38.51099395751953,0.11571632325649261,0.6674993634223938,0.015427589416503906,0.072351575,-0.16126402,9.786381,-0.28267294,-0.6222188,9.76409,0
12,988.4152221679688,-3.854394890367985E-6,6.805223529227078E-4,-1.2559874448925257E-4,-7.451386451721191,23.940038681030273,-38.41399002075195,0.11978450417518616,0.6685097217559814,0.025104522705078125,0.07000229,-0.14934875,9.776915,-0.27331626,-0.6092995,9.755477,0
12,988.4152221679688,1.2891192454844713E-4,-3.84677667170763E-4,-5.25240320712328E-4,-7.255266189575195,24.387174606323242,-38.62434387207031,0.11891837418079376,0.6412935853004456,0.02529144287109375,0.06526306,-0.1398166,9.774551,-0.28176764,-0.59208,9.753754,0
12,988.4251098632812,2.616783604025841E-4,5.474915378727019E-4,-7.917239563539624E-4,-7.535247802734375,24.1247615814209,-38.18092346191406,0.11343316733837128,0.6422412395477295,0.02076244354248047,0.07247341,-0.13981758,9.769821,-0.26234788,-0.5950138,9.749428,0
13,988.4276123046875,-4.0450249798595905E-4,2.812391612678766E-4,1.4021387323737144E-4,-7.016538143157959,24.08359718322754,-38.10447692871094,0.11305901408195496,0.6480196714401245,0.020956993103027344,0.07968372,-0.15411825,9.774559,-0.26017213,-0.60617274,9.753818,0
13,988.435302734375,-2.717360621318221E-4,1.4986784663051367E-5,-1.2626976240426302E-4,-7.022083282470703,23.70941734313965,-37.696807861328125,0.11221419274806976,0.6396825313568115,0.044823646545410156,0.077334404,-0.15173592,9.760358,-0.25586203,-0.6011075,9.739959,0
13,988.4129638671875,-2.7251895517110825E-4,2.8142979135736823E-4,2.728684921748936E-4,-6.908164978027344,24.448667526245117,-38.450477600097656,0.12571261823177338,0.6455320715904236,0.02608203887939453,0.07259524,-0.1493537,9.772198,-0.25602508,-0.5959674,9.752063,0
13,988.435302734375,-6.5944623202085495E-6,5.478091188706458E-4,2.727008250076324E-4,-7.065670013427734,24.090368270874023,-38.25127410888672,0.0963977724313736,0.6468173265457153,0.01679515838623047,0.08697522,-0.15650447,9.762733,-0.24754474,-0.60030496,9.74276,0
13,988.4378051757812,6.588035030290484E-4,1.5240977518260479E-5,-1.2694083852693439E-4,-7.505084037780762,23.9423885345459,-38.3288688659668,0.11964578926563263,0.6387332677841187,0.007498741149902344,0.07267648,-0.14458908,9.779307,-0.26784283,-0.57842463,9.759853,0
13,988.4253540039062,-1.4053541235625744E-4,1.5304482076317072E-5,1.3920734636485577E-4,-7.389237880706787,24.208898544311523,-38.36231994628906,0.1047935038805008,0.6354846954345703,0.03133583068847656,0.077496886,-0.15888979,9.776944,-0.26159665,-0.5920782,9.757096,0
13,988.4102172851562,2.58547137491405E-4,-1.1778983753174543E-4,-1.272762892767787E-4,-7.640822410583496,24.763063430786133,-37.66311264038086,0.10881945490837097,0.6320710182189941,0.03151226043701172,0.07753748,-0.15650745,9.78405,-0.26250127,-0.5856978,9.764538,0
13,988.4177856445312,3.9131345693022013E-4,2.817473723553121E-4,-2.6060198433697224E-4,-7.907105922698975,24.5139102935791,-37.915443420410156,0.098412424325943,0.6222431659698486,0.017564773559570312,0.079967976,-0.15412523,9.772217,-0.2644772,-0.5774063,9.753101,0
13,988.4228515625,5.240798927843571E-4,-2.5082071078941226E-4,5.546084139496088E-6,-7.4092912673950195,24.769872665405273,-38.85395812988281,0.09332910180091858,0.6109148859977722,0.012920379638671875,0.06805909,-0.14697637,9.750916,-0.26030713,-0.5687666,9.73218,0
13,988.43798828125,2.573728561401367E-4,1.555861672386527E-5,2.7169426903128624E-4,-6.86870813369751,24.801347732543945,-37.93830490112305,0.09281843900680542,0.6312203407287598,0.027297019958496094,0.08960882,-0.1541272,9.772224,-0.22984762,-0.58286864,9.753746,0
13,988.4253540039062,-9.414399974048138E-4,-2.5069358525797725E-4,-1.2794730719178915E-4,-6.982328414916992,24.694238662719727,-36.759765625,0.10651125013828278,0.6182364225387573,0.013266563415527344,0.070530236,-0.15651144,9.769861,-0.25122347,-0.5759598,9.751143,0
13,988.4330444335938,-1.4288409147411585E-4,0.0012141072656959295,9.371484629809856E-4,-7.009203910827637,23.87912940979004,-37.09284973144531,0.11513541638851166,0.6244764924049377,0.03237152099609375,0.072960734,-0.15412916,9.767498,-0.25118136,-0.5691366,9.749158,0
13,988.4177856445312,2.561984583735466E-4,5.483810673467815E-4,-1.282828743569553E-4,-6.93265438079834,24.319181442260742,-36.51451873779297,0.09993705153465271,0.6065600514411926,0.03255176544189453,0.08017105,-0.14936371,9.765135,-0.2380142,-0.5642598,9.747388,0
13,988.45556640625,-5.431404570117593E-4,-1.1734510189853609E-4,-1.28450570628047E-4,-7.1412177085876465,24.44038200378418,-37.182334899902344,0.10898196697235107,0.5884783267974854,0.013795852661132812,0.07065207,-0.14221479,9.769872,-0.24766372,-0.5502633,9.752512,0
13,988.4227905273438,-0.001076163724064827,-5.167553899809718E-4,-1.286183251067996E-4,-7.208337306976318,24.64130973815918,-37.79962158203125,0.1178637146949768,0.5993473529815674,0.03763389587402344,0.07069266,-0.14698239,9.755672,-0.24701461,-0.5511222,9.738325,0
13,988.4230346679688,3.881820011883974E-4,1.4909787569195032E-4,4.37186099588871E-6,-6.813925266265869,24.062421798706055,-37.82653045654297,0.1124085932970047,0.5963127613067627,0.018842697143554688,0.064795375,-0.14933826,9.786345,-0.24785021,-0.5526978,9.768937,0
13,988.4127197265625,1.297628041356802E-4,-3.848157939501107E-4,7.756054401397705E-6,-7.272007942199707,24.370973587036133,-37.773990631103516,0.09517915546894073,0.6074421405792236,0.02867412567138672,0.077947795,-0.16837533,9.774399,-0.24602818,-0.56743515,9.756577,0
13,988.4329223632812,0.001066633383743465,2.747757826000452E-4,-2.48083146288991E-4,-7.56815767288208,24.936323165893555,-37.45349884033203,0.09452368319034576,0.585258960723877,0.03356647491455078,0.07550585,-0.1516911,9.757824,-0.24564058,-0.5457431,9.740927,0
13,988.4403686523438,4.0134519804269075E-4,2.7469435008242726E-4,1.5160569455474615E-4,-6.85101842880249,23.97505760192871,-37.89268493652344,0.10364867746829987,0.5915479063987732,0.019522666931152344,0.07545382,-0.16122295,9.774389,-0.23757932,-0.55682695,9.757247,0
13,988.4278564453125,-2.6394298765808344E-4,-5.243347259238362E-4,-7.80284870415926E-4,-6.768136024475098,23.420568466186523,-37.94999313354492,0.11271779239177704,0.5977513790130615,0.02441883087158203,0.0634523,-0.15645511,9.7720175,-0.25201955,-0.54378843,9.755083,0
13,988.4378051757812,-1.3028341345489025E-4,-1.249423366971314E-4,-2.4743814719840884E-4,-7.010045051574707,23.61528205871582,-37.616172790527344,0.10731500387191772,0.5850397944450378,0.00563812255859375,0.07534975,-0.14692067,9.781482,-0.2347873,-0.5358881,9.765365,0
13,988.4253540039062,-1.29781779833138E-4,-2.581816806923598E-4,2.854085760191083E-4,-7.052790641784668,24.260080337524414,-37.647315979003906,0.10687987506389618,0.5817347168922424,0.02946949005126953,0.06812802,-0.16360237,9.772008,-0.23875166,-0.5493245,9.755244,0
13,988.4103393554688,1.370356185361743E-4,8.052738849073648E-6,1.5246556722559035E-4,-6.717184066772461,24.047414779663086,-37.45563507080078,0.09220407903194427,0.583376407623291,0.02014636993408203,0.080025434,-0.15883456,9.77437,-0.23834321,-0.5388952,9.758214,0
13,988.4227905273438,9.364850120618939E-4,-1.251865760423243E-4,0.0010847861412912607,-7.187198162078857,23.343751907348633,-37.11107635498047,0.12038925290107727,0.5849548578262329,0.00609588623046875,0.063244104,-0.16121651,9.774366,-0.24778101,-0.53684545,9.758003,0
14,988.422607421875,4.880828782916069E-6,6.736795767210424E-4,-6.46052067168057E-4,-7.214425563812256,24.635419845581055,-37.49039840698242,0.09596537053585052,0.572629988193512,0.025168418884277344,0.07514158,-0.1635985,9.774361,-0.23893568,-0.5380131,9.758279,0
14,988.422607421875,4.880828782916069E-6,6.736795767210424E-4,-6.46052067168057E-4,-7.478888988494873,25.019868850708008,-37.39515686035156,0.08590544760227203,0.5743041634559631,0.02057933807373047,0.08225924,-0.14929761,9.781458,-0.23115785,-0.521708,9.766288,0
14,988.4228515625,6.209295243024826E-4,-5.873481277376413E-4,-1.0215910151600838E-4,-7.599300384521484,24.748929977416992,-37.129798889160156,0.10458853840827942,0.5711103081703186,0.039666175842285156,0.07025769,-0.15644617,9.757781,-0.23752739,-0.52408314,9.7423115,0
14,988.4403076171875,8.879939559847116E-5,2.1151808323338628E-4,-5.014180205762386E-4,-7.176108360290527,24.09211540222168,-37.926422119140625,0.0995514988899231,0.5534204840660095,0.02561473846435547,0.07259557,-0.13976197,9.77198,-0.2276156,-0.5070942,9.75743,0
14,988.4102172851562,-1.7701485194265842E-4,-1.8803717102855444E-4,-3.6804494448006153E-4,-7.036186695098877,24.17036247253418,-37.79859161376953,0.11342568695545197,0.5648376941680908,0.025750160217285156,0.0629839,-0.15644355,9.7648735,-0.23583736,-0.5197489,9.749639,0
14,988.4202880859375,-4.335527773946524E-5,-5.875923670828342E-4,3.164366353303194E-5,-6.997272491455078,24.891340255737305,-37.38487243652344,0.08895395696163177,0.5572260022163391,0.0069446563720703125,0.074881375,-0.1564423,9.790908,-0.23139897,-0.51748544,9.776023,0
14,988.4201049804688,9.030418004840612E-5,-5.5042095482349396E-5,-2.3445708211511374E-4,-7.259969711303711,24.276838302612305,-37.69335174560547,0.09784568846225739,0.5539647340774536,0.026033401489257812,0.067659646,-0.14690794,9.771965,-0.22901393,-0.50512326,9.757554,0
14,988.4276733398438,2.239637542515993E-4,6.106662331148982E-4,-0.0011663477635011077,-6.924363613128662,24.06416893005371,-37.501670837402344,0.10216134786605835,0.5461175441741943,0.04984474182128906,0.0723874,-0.1540565,9.760124,-0.22923407,-0.5078438,9.745694,0
14,988.4303588867188,-3.0816649086773396E-4,-4.546787531580776E-4,-0.0014324488583952188,-7.282524108886719,24.466581344604492,-37.93193054199219,0.09683355689048767,0.5478519797325134,0.021574974060058594,0.07233533,-0.15167196,9.7743225,-0.22797757,-0.5031384,9.760148,0
14,988.44287109375,9.180896449834108E-5,3.4418742870911956E-4,-5.001281388103962E-4,-7.200322151184082,24.174467086791992,-37.38861846923828,0.09678871929645538,0.5403265953063965,0.01695728302001953,0.074673206,-0.14690419,9.776686,-0.22508758,-0.49597532,9.762892,0
14,988.422607421875,7.581004174426198E-4,-1.8852576613426208E-4,3.271852619946003E-5,-7.378561019897461,24.63951301574707,-37.08042526245117,0.09634296596050262,0.5564504265785217,0.04075908660888672,0.069841385,-0.15405266,9.767212,-0.22209254,-0.50225735,9.753227,0
14,988.4099731445312,-4.3931789696216583E-4,-1.8868863116949797E-4,3.314856439828873E-5,-6.956891059875488,23.981225967407227,-37.79974365234375,0.10053199529647827,0.5535421371459961,0.04088878631591797,0.06739944,-0.16120122,9.760106,-0.22784233,-0.50429547,9.745973,0
14,988.425048828125,8.927630260586739E-4,-5.561206489801407E-5,-6.324261194095016E-4,-7.493290424346924,24.84868049621582,-37.92181396484375,0.10973815619945526,0.5363990664482117,0.045746803283691406,0.060177654,-0.15166683,9.762468,-0.23717797,-0.4880437,9.748743,0
14,988.422607421875,4.937908379361033E-4,7.7464384958148E-5,1.6673648497089744E-4,-7.379402160644531,24.375669479370117,-37.60374450683594,0.09498046338558197,0.5192661285400391,0.036400794982910156,0.07207513,-0.14928223,9.762463,-0.22429681,-0.4859509,9.74919,0
14,988.422607421875,-1.7149723134934902E-4,-5.884066922590137E-4,3.001093282364309E-4,-6.984011173248291,24.16654396057129,-37.80640411376953,0.09914928674697876,0.539922297000885,0.02233600616455078,0.0648534,-0.15166427,9.774294,-0.22469088,-0.48677087,9.760972,0
14,988.4276733398438,-3.0415342189371586E-4,6.099333986639977E-4,4.334823170211166E-4,-7.281002044677734,24.468053817749023,-38.00923538208008,0.08425642549991608,0.5134249925613403,0.022452354431152344,0.07436097,-0.14927976,9.779024,-0.21768133,-0.4827399,9.7661,0
14,988.44287109375,3.621377982199192E-4,2.1037808619439602E-4,3.4223427064716816E-5,-7.301629066467285,24.185056686401367,-37.52759552001953,0.11036819219589233,0.5249682068824768,0.031882286071777344,0.06656927,-0.15647294,9.769716,-0.2272718,-0.48403767,9.756554,0
14,988.4149780273438,4.802063340321183E-4,8.772684377618134E-4,6.958866724744439E-4,-6.715662956237793,24.048887252807617,-37.532936096191406,0.095375195145607,0.517528772354126,0.04146003723144531,0.066589594,-0.14455707,9.762618,-0.21325915,-0.47427619,9.750058,0
14,988.4149780273438,8.752188878133893E-4,3.4536089515313506E-4,-1.049729180522263E-4,-7.0745038986206055,24.713666915893555,-37.362571716308594,0.08985348045825958,0.5053685307502747,0.027365684509277344,0.07855934,-0.14455752,9.772088,-0.20414102,-0.47346738,9.759863,0
14,988.43017578125,4.7554937191307545E-4,-1.8723920220509171E-4,2.94417142868042E-4,-7.166135311126709,24.364805221557617,-37.86692810058594,0.08981901407241821,0.5263291597366333,0.03693866729736328,0.06902003,-0.15170793,9.762622,-0.21707715,-0.47371572,9.750131,0
14,988.43505859375,-3.235935000702739E-4,-0.0011193130630999804,2.8017559088766575E-5,-7.791803359985352,25.148710250854492,-38.047340393066406,0.09401164948940277,0.49519503116607666,0.032306671142578125,0.06904036,-0.13502546,9.76499,-0.21867761,-0.4520914,9.753246,0
14,988.4324951171875,-4.5694701839238405E-4,7.449299446307123E-4,-1.0522420052438974E-4,-7.440028667449951,24.108274459838867,-37.73272705078125,0.0885695070028305,0.5111714005470276,0.041896820068359375,0.066670716,-0.15409212,9.764992,-0.22352885,-0.46753728,9.752676,0
14,988.442626953125,-5.766889080405235E-5,0.0011444354895502329,2.9416580218821764E-4,-7.278095722198486,24.365079879760742,-37.46476745605469,0.08762206137180328,0.4984845519065857,0.03255653381347656,0.07864052,-0.14932607,9.769728,-0.20549189,-0.46502414,9.75795,0
14,988.4149780273438,3.41609469614923E-4,7.920368807390332E-5,4.2723992373794317E-4,-7.2659196853637695,24.376863479614258,-38.08320617675781,0.08245733380317688,0.5007328987121582,0.04685401916503906,0.078660786,-0.15170981,9.764996,-0.20450787,-0.46505904,9.753267,0
14,988.4526977539062,4.745719488710165E-4,-1.870804699137807E-4,-1.0547565761953592E-4,-7.057899475097656,24.623952865600586,-37.513851165771484,0.08655260503292084,0.5028814077377319,0.013815879821777344,0.07868105,-0.14932708,9.767365,-0.19844821,-0.46230417,9.75586,0
15,988.4200439453125,-7.240450941026211E-4,-3.202066873200238E-4,-7.713490631431341E-4,-7.218991279602051,24.63100242614746,-37.25848388671875,0.08652065694332123,0.5093325972557068,0.05179882049560547,0.069141746,-0.16362728,9.753163,-0.21292281,-0.46917343,9.741165,0
15,988.4273681640625,-5.84509689360857E-5,-5.3859082981944084E-5,2.7514644898474216E-5,-7.008224964141846,24.2488956451416,-37.26860809326172,0.09067833423614502,0.4924814701080322,0.018754959106445312,0.07155195,-0.14932813,9.776837,-0.20460695,-0.4551443,9.765499,0
15,988.4326171875,7.403013296425343E-4,-4.5330109423957765E-4,4.2690473492257297E-4,-7.566635608673096,24.937795639038086,-37.53080368041992,0.08542166650295258,0.4850720763206482,0.05199432373046875,0.076352,-0.14694531,9.760269,-0.20405293,-0.4483136,9.749239,0
15,988.4248657226562,2.074739895761013E-4,-5.864273407496512E-4,-2.389687579125166E-4,-7.269644737243652,24.636293411254883,-37.327972412109375,0.09481564164161682,0.5059958100318909,0.03789234161376953,0.064422786,-0.16362871,9.757902,-0.21037899,-0.46251595,9.746251,0
15,988.4425659179688,-1.9219540990889072E-4,-5.376379704102874E-5,2.7263304218649864E-5,-6.9415106773376465,24.52217674255371,-37.448848724365234,0.07538394629955292,0.48918718099594116,0.03324699401855469,0.08117241,-0.15171285,9.760271,-0.19108258,-0.4524038,9.749428,0
15,988.45263671875,6.065568886697292E-4,-5.863638361915946E-4,-2.3913627956062555E-4,-7.004202365875244,24.62160301208496,-37.598968505859375,0.07961830496788025,0.4909932613372803,0.033354759216308594,0.07641286,-0.15647991,9.77211,-0.20415422,-0.44984555,9.761169,0
15,988.4376831054688,-0.001124691916629672,-1.8685826216824353E-4,4.265695752110332E-4,-7.556119441986084,24.842191696166992,-37.37286376953125,0.08436629176139832,0.4881373643875122,0.052387237548828125,0.074043274,-0.15409715,9.762643,-0.19975884,-0.4462381,9.751892,0
15,988.4376831054688,-0.001124691916629672,-1.8685826216824353E-4,4.265695752110332E-4,-7.153255939483643,24.534513473510742,-37.262969970703125,0.08379149436950684,0.48082858324050903,0.03354167938232422,0.07167363,-0.15648086,9.774481,-0.2021878,-0.44579074,9.763733,0
15,988.3947143554688,7.353397086262703E-5,-4.531423910520971E-4,1.6016990412026644E-4,-7.144261837005615,24.437437057495117,-37.02771759033203,0.06922584772109985,0.4783781170845032,0.024155616760253906,0.09320307,-0.1612479,9.774483,-0.17743169,-0.4551164,9.764046,0
15,988.41748046875,8.722860366106033E-4,-5.363690434023738E-5,2.692814450711012E-5,-6.9655866622924805,24.710439682006836,-37.61012268066406,0.0737943947315216,0.4661433696746826,0.024245262145996094,0.07649401,-0.14694883,9.767384,-0.19547838,-0.4317209,9.757286,0
15,988.4651489257812,-1.9317283295094967E-4,-8.525527664460242E-4,1.6000226605683565E-4,-7.084912300109863,23.702924728393555,-37.147857666015625,0.08272324502468109,0.47343647480010986,0.019593238830566406,0.07173449,-0.16124897,9.776854,-0.20614243,-0.44104025,9.76632,0
15,988.4322509765625,4.724212922155857E-4,-1.867313403636217E-4,-1.0639743413776159E-4,-7.4135894775390625,24.185331344604492,-37.12543487548828,0.09194402396678925,0.4661383628845215,0.029146194458007812,0.07175478,-0.14694984,9.774488,-0.19851677,-0.42617953,9.764544,0
15,988.4446411132812,8.716994198039174E-4,2.12774146348238E-4,-1.0648119496181607E-4,-7.261491775512695,24.275365829467773,-37.61604690551758,0.08686487376689911,0.47739923000335693,0.05291938781738281,0.064605355,-0.16601647,9.762654,-0.20943539,-0.43939257,9.75214,0
15,988.4219360351562,-4.6007533092051744E-4,-5.861416575498879E-4,6.92382687702775E-4,-7.460762977600098,24.93162727355957,-37.623741149902344,0.08154323697090149,0.4603332281112671,0.03407573699951172,0.07896507,-0.15410058,9.762656,-0.1922373,-0.42858848,9.752887,0
15,988.4296264648438,-4.726065672002733E-4,3.1094776932150126E-4,-5.813587340526283E-4,-7.496334075927734,24.845731735229492,-37.76720428466797,0.09051746129989624,0.4675803780555725,0.03415489196777344,0.05986613,-0.14933456,9.76976,-0.20429961,-0.419298,9.759946,0
15,988.4649047851562,-3.3964443719014525E-4,4.4413743307814E-4,4.838210006710142E-4,-7.0558342933654785,24.25713539123535,-37.492706298828125,0.07534277439117432,0.4647255539894104,0.048458099365234375,0.08611256,-0.16601647,9.760287,-0.18574896,-0.43725425,9.750513,0
15,988.4144897460938,4.5910797780379653E-4,-7.542523089796305E-4,8.426344720646739E-5,-7.304672718048096,24.18210792541504,-37.372982025146484,0.08946862816810608,0.4573553800582886,0.029615402221679688,0.0717268,-0.15171565,9.7721195,-0.18930492,-0.42038035,9.762682,0
15,988.4446411132812,-4.73042658995837E-4,9.768083691596985E-4,0.0011495077051222324,-6.843546390533447,23.876501083374023,-37.58013153076172,0.08410058915615082,0.46434909105300903,0.04864025115966797,0.07652184,-0.16363238,9.757917,-0.18374842,-0.43140566,9.748318,0
15,988.4498901367188,6.383948493748903E-5,-8.660659659653902E-5,2.1603860659524798E-4,-6.890719890594482,24.622800827026367,-38.078433990478516,0.07871493697166443,0.44725656509399414,0.04399871826171875,0.07175726,-0.15171643,9.75555,-0.19143784,-0.412834,9.746376,0
15,988.4395751953125,-6.022435845807195E-4,7.123886607587337E-4,-3.167188842780888E-4,-6.982488632202148,24.168012619018555,-37.88371276855469,0.07802124321460724,0.463675856590271,0.03461933135986328,0.074162364,-0.15648334,9.765021,-0.18537393,-0.4176454,9.755862,0
15,988.4470825195312,-2.0291644614189863E-4,-3.5285099875181913E-4,3.490079543553293E-4,-7.171244144439697,24.728670120239258,-37.733463287353516,0.08258669078350067,0.4516150951385498,0.07257080078125,0.071787715,-0.16363348,9.76739,-0.18949358,-0.42129216,9.758098,0
15,988.464599609375,0.0032590432092547417,-0.0015512487152591348,-4.500025534071028E-4,-7.0392303466796875,24.167417526245117,-37.64398193359375,0.07320374250411987,0.43182313442230225,0.0347137451171875,0.07897264,-0.14933427,9.779228,-0.17947239,-0.40868098,9.770497,0
15,988.5078735351562,6.310595199465752E-5,3.129863180220127E-4,-3.1690747709944844E-4,-7.549488544464111,24.479795455932617,-37.5836296081543,0.0960053950548172,0.43746447563171387,0.05851554870605469,0.06703833,-0.14933465,9.755557,-0.1949322,-0.39856932,9.746837,0
15,988.5711669921875,-0.00220072572119534,9.7879976965487E-4,-5.832863389514387E-4,-7.560142517089844,24.469484329223633,-37.04249572753906,0.06234486401081085,0.4540061950683594,0.044388771057128906,0.08617276,-0.16363461,9.765027,-0.18005101,-0.41506153,9.756294,0
15,988.3458251953125,-7.034547161310911E-5,-2.1959780133329332E-4,-3.1703320564702153E-4,-6.9850969314575195,24.903120040893555,-38.00331115722656,0.07169117033481598,0.4282325506210327,0.01603984832763672,0.079018295,-0.13980229,9.781599,-0.17028446,-0.39328218,9.773525,0
16,988.3937377929688,0.0020600352436304092,-7.522057858295739E-4,2.155356341972947E-4,-7.152276515960693,24.904279708862305,-37.438724517822266,0.08074431121349335,0.44040918350219727,0.035045623779296875,0.07186383,-0.15886883,9.757929,-0.18299425,-0.40635717,9.749307,0
16,988.4924926757812,-0.0014022181276232004,5.793975433334708E-4,-1.840010518208146E-4,-6.826100826263428,24.050634384155273,-37.20808410644531,0.08504904806613922,0.4280369281768799,0.035132408142089844,0.06948912,-0.15886922,9.7745,-0.18300018,-0.40423465,9.765963,0
16,988.4161987304688,-6.034171674400568E-4,-4.8584220348857343E-4,6.148837273940444E-4,-7.006159782409668,23.882078170776367,-37.247459411621094,0.07535359263420105,0.4250856637954712,0.01627826690673828,0.076674044,-0.15648635,9.78397,-0.17821544,-0.39957172,9.775737,0
16,988.4440307617188,-6.035639671608806E-4,-0.001284766010940075,7.479788037016988E-4,-7.226058006286621,24.255342483520508,-36.77350616455078,0.08000387251377106,0.42252928018569946,0.03528785705566406,0.06712967,-0.1564867,9.762667,-0.1882416,-0.393299,9.754412,0
16,988.4364624023438,-4.705528263002634E-4,-3.5263661993667483E-4,-5.103176226839423E-5,-6.946619033813477,24.886045455932617,-37.31537628173828,0.08443684875965118,0.425060510635376,0.01641559600830078,0.06475502,-0.15172048,9.774504,-0.1823065,-0.38934475,9.7664385,0
16,988.4694213867188,7.277220720425248E-4,-4.8577081179246306E-4,-3.1741050770506263E-4,-7.274210453033447,24.631872177124023,-37.09606170654297,0.07948632538318634,0.4131566286087036,0.05909156799316406,0.0767197,-0.14457105,9.769772,-0.17372665,-0.3804146,9.76219,0
16,988.4418334960938,1.9494350999593735E-4,-4.85746975755319E-4,0.0010141059756278992,-7.253178119659424,24.440664291381836,-36.780174255371094,0.07428665459156036,0.42544353008270264,0.026009559631347656,0.07673493,-0.15410455,9.776875,-0.17594308,-0.38770556,9.769117,0
16,988.4414672851562,-2.0467687863856554E-4,1.800665631890297E-4,-4.5069417683407664E-4,-6.643135070800781,24.11622428894043,-36.62424087524414,0.08353942632675171,0.40373170375823975,0.049757957458496094,0.07436025,-0.14218853,9.757938,-0.16659307,-0.3759849,9.750588,0
16,988.4288940429688,-7.166562136262655E-5,4.6932429540902376E-5,3.481906314846128E-4,-6.808517932891846,24.330686569213867,-37.535118103027344,0.0735090970993042,0.4156874418258667,0.016684532165527344,0.07437551,-0.1493387,9.774509,-0.16900314,-0.3805356,9.767062,0
16,988.4237060546875,-3.38128418661654E-4,4.6956236474215984E-5,-1.8450402421876788E-4,-6.962680816650391,24.60746955871582,-37.065650939941406,0.07788753509521484,0.40353184938430786,0.016759872436523438,0.069610894,-0.14933912,9.774511,-0.1740151,-0.37631208,9.767105,0
16,988.4339599609375,-0.0014035382773727179,-2.1933583775535226E-4,6.143806967884302E-4,-7.4126105308532715,24.555097579956055,-37.30119323730469,0.07260410487651825,0.41510266065597534,0.026304244995117188,0.07440594,-0.15887256,9.781614,-0.17036648,-0.38450447,9.774144,1
16,988.4339599609375,-4.715797258540988E-4,-2.1931197261437774E-4,3.480019513517618E-4,-6.9030327796936035,24.505094528198242,-36.76091766357422,0.07238195836544037,0.4078857898712158,0.0405731201171875,0.07442117,-0.14933981,9.769779,-0.1659351,-0.37316653,9.762666,1
16,988.4515991210938,-7.225247099995613E-5,-6.187620456330478E-4,-5.153467645868659E-5,-6.873411655426025,24.691011428833008,-37.0073127746582,0.07242429256439209,0.38668787479400635,0.045360565185546875,0.076826274,-0.13980709,9.76268,-0.16191989,-0.36172974,9.755937,1
16,988.456298828125,5.933903157711029E-4,-0.001151369884610176,8.156028343364596E-5,-6.906076431274414,24.50214958190918,-36.60630798339844,0.06267428398132324,0.413038432598114,0.02648162841796875,0.0840112,-0.15649046,9.77215,-0.15903582,-0.37749097,9.765177,1
16,988.4288940429688,-0.0010046516545116901,4.707532934844494E-5,-0.001116923987865448,-6.952164173126221,24.51186180114746,-36.90770721435547,0.07173646986484528,0.3964415490627289,0.045482635498046875,-0.0043999553,-0.015877381,9.760315,-0.21110299,-0.21538314,9.75567,1
16,988.4288940429688,-0.0010046516545116901,4.707532934844494E-5,-0.001116923987865448,-7.136789798736572,24.33888816833496,-36.71516799926758,0.49536916613578796,0.0485452264547348,0.026680946350097656,-0.21338226,-0.13263203,9.779156,-0.44139814,-0.2751433,9.768544,1
16,988.4310913085938,-0.001403121743351221,4.398816963657737E-5,-0.098717600107193,-7.269782066345215,24.53037452697754,-36.6288948059082,-0.16036181151866913,0.539063036441803,0.041029930114746094,0.22394186,-0.20889623,9.788622,-0.032308295,-0.4565603,9.782711,1
16,988.4310913085938,-0.001403121743351221,4.398816963657737E-5,-0.098717600107193,-7.22021484375,25.26166343688965,-36.756309509277344,-0.017330288887023926,0.5501595735549927,-1.027939796447754,0.3553586,-0.5926034,10.934345,-0.023441821,-0.8201542,10.925389,1
16,988.4082641601562,-0.025765689089894295,-0.00794635433703661,-0.006436854600906372,-7.109371185302734,24.785703659057617,-36.28363037109375,0.15843936800956726,0.47510188817977905,1.867569923400879,-0.20151648,-0.022999093,8.706805,-0.19697219,-0.02793384,8.706896,1
16,988.3624877929688,-0.1971396952867508,0.2401268482208252,-0.03293517231941223,-6.819714069366455,24.68866539001465,-37.092430114746094,0.21807685494422913,-0.27532869577407837,-1.5163373947143555,-0.14657664,-0.18744464,11.09531,-0.2250978,0.16322714,11.0943775,1
16,988.390380859375,-0.6143231987953186,-0.027920134365558624,0.18344660103321075,-7.243151664733887,26.34590721130371,-35.969390869140625,-0.30614835023880005,0.7545987367630005,0.7657489776611328,0.41741228,-1.7937738,8.465345,0.08097945,-1.3532634,8.556638,1
16,988.39794921875,-0.7840993404388428,0.028006162494421005,-0.1378634124994278,-6.784770488739014,26.669492721557617,-35.59705352783203,-0.6787415146827698,0.6145755052566528,-0.7329549789428711,0.694613,-1.2241695,10.444324,0.48657382,-0.17082846,10.5261135,1
16,988.4332275390625,-1.0713207721710205,0.08646246790885925,-0.13719750940799713,-6.8812971115112305,28.84328269958496,-34.09270477294922,0.46867141127586365,-0.5297003388404846,0.24264812469482422,-0.64376,-1.6364759,10.366203,-0.8021047,0.19138777,10.481921,1
16,988.4332275390625,-1.1657294034957886,-0.41820624470710754,0.45815178751945496,-7.0860595703125,30.757925033569336,-32.941436767578125,0.25036558508872986,0.3840066194534302,0.045978546142578125,-0.18253684,-2.244211,9.211006,-0.22147906,-0.43466818,9.469659,1
17,988.4205932617188,-1.0193885564804077,0.08433183282613754,0.2425691783428192,-6.546700477600098,31.42006492614746,-31.523605346679688,-0.004291921854019165,0.10891461372375488,0.7347450256347656,-0.29011035,-2.299026,8.955345,-0.025805652,-0.27063167,9.246295,1
17,988.3828735351562,-0.7184513807296753,0.9380073547363281,-0.09059185534715652,-5.225552558898926,31.761037826538086,-30.74634552001953,0.02742519974708557,-0.3726038932800293,0.12050151824951172,-0.784848,-2.4825377,9.407479,-0.3414588,0.14325857,9.754104,1
17,988.4508056640625,-0.9565374851226807,0.3883313536643982,-0.04425278678536415,-4.926443576812744,32.72528076171875,-29.771080017089844,0.5791233777999878,0.6398420333862305,0.1876697540283203,-0.89959115,-3.2380362,8.5363455,-0.57257986,-0.44949865,9.145132,1
17,988.468505859375,-0.7107273936271667,0.4173596501350403,-0.3743510842323303,-5.502223014831543,35.29291534423828,-27.83100128173828,0.6909205317497253,-0.9545822143554688,6.5606913566589355,-0.81597245,-4.0412,5.399801,-1.0987053,-1.8687778,6.4385934,1
17,988.455810546875,-0.4697113037109375,-1.9069122076034546,-0.6981911659240723,-8.820274353027344,35.45219421386719,-27.713943481445312,-1.5300261974334717,1.2138009071350098,-5.123419761657715,1.6933966,-3.7766557,12.200769,0.84231794,0.1045115,12.855702,1
17,988.4306640625,-0.11045092344284058,-1.5236836671829224,-0.3537113666534424,-10.588422775268555,35.37617492675781,-26.3592529296875,-0.10110348463058472,0.10311627388000488,-0.212799072265625,0.68722,-3.483512,8.446385,0.0029475093,-0.30635548,9.157223,1
17,988.4530029296875,-1.25068199634552,2.303009033203125,-0.49805447459220886,-9.853240966796875,35.85331726074219,-25.576648712158203,0.2826249599456787,0.6084043979644775,1.0003604888916016,0.2235511,-4.3438745,7.9327,-0.2908821,-0.87381434,8.999933,1
17,988.4935913085938,-0.6789015531539917,-0.055617500096559525,-0.19631847739219666,-9.471685409545898,35.5250244140625,-24.384485244750977,-0.0641915425658226,0.41669559478759766,-0.13967418670654297,0.07295939,-4.484487,8.915086,-0.19573295,-0.34333825,9.971886,1
17,988.4806518554688,-0.6840944886207581,-0.015004380606114864,0.054284900426864624,-9.61085033416748,37.237266540527344,-22.538623809814453,0.044006600975990295,0.3871903419494629,0.7017402648925781,0.111169875,-4.751414,8.133905,-0.25520337,-0.6409421,9.39536,1
17,988.4756469726562,-0.5164483785629272,-0.010343896225094795,0.02139499969780445,-9.615415573120117,37.23284912109375,-22.30670928955078,0.054288335144519806,0.3133988380432129,0.04467296600341797,0.051394433,-4.751413,8.829862,-0.15877247,-0.20076728,10.023947,1
17,988.468017578125,-0.3474707305431366,-0.021396050229668617,0.03644196316599846,-9.44543743133545,38.235069274902344,-22.699481964111328,-0.031246446073055267,0.2556476593017578,-0.08078765869140625,0.24255866,-4.9349246,8.559998,-0.005144477,-0.34065318,9.877744,1
17,988.4856567382812,-0.6781015992164612,-0.03630978241562843,0.060011036694049835,-9.349376678466797,38.48243713378906,-21.727962493896484,-0.3323420286178589,0.3254814147949219,0.44123268127441406,0.40504408,-5.290033,7.8332644,0.008872271,-0.7509849,9.431038,1
17,988.4526977539062,-0.6408170461654663,-0.23045410215854645,0.3765275776386261,-8.7094144821167,38.976051330566406,-21.393558502197266,-0.038729891180992126,0.36327457427978516,1.141402244567871,0.22338367,-5.3877463,7.608378,-0.16231668,-0.7289047,9.295562,1
17,988.4448852539062,-0.018303468823432922,-0.3697373569011688,0.5913113355636597,-8.080787658691406,39.72173309326172,-19.917388916015625,0.14381413161754608,0.4238147735595703,0.32010841369628906,-0.2833035,-5.2113833,9.061836,-0.3894403,0.20434284,10.448073,1
17,988.5260009765625,0.26252689957618713,-0.2327178567647934,0.521936297416687,-7.696018695831299,40.714561462402344,-20.65064811706543,0.3670361340045929,-1.102696180343628,-3.3155136108398438,-0.4816933,-3.326209,9.937698,0.25538707,1.9643433,10.301926,1
17,988.6295166015625,0.7749189734458923,1.6348222494125366,-0.0027058960404247046,-6.544734477996826,39.738929748535156,-22.002717971801758,-0.33236730098724365,-0.19282197952270508,1.3472723960876465,-0.3550564,-4.760942,9.639429,0.3020507,0.06277895,10.752489,1
17,988.5740356445312,1.1014224290847778,0.317091166973114,-0.0763421282172203,-6.155454635620117,39.103607177734375,-23.71918487548828,1.316359281539917,1.1676723957061768,-3.0282487869262695,-2.3291433,-4.796691,10.851435,-1.4004211,0.41422868,12.002251,1
17,988.652099609375,1.9576281309127808,0.8915345668792725,-0.19511890411376953,-6.050254821777344,35.780296325683594,-27.236183166503906,0.7455199360847473,0.8556582927703857,-0.6067466735839844,-1.2680547,-3.2952247,10.19335,-0.24712098,0.22204304,10.782414,1
17,988.5685424804688,2.108762741088867,-0.2554880678653717,0.6092883348464966,-5.557763576507568,34.241355895996094,-29.91647720336914,0.1814650297164917,0.052866458892822266,-0.2080221176147461,-1.1581471,-2.3824282,9.388498,-0.37805307,0.11653113,9.747034,1
17,988.575927734375,1.4307228326797485,-0.7925140857696533,0.846442699432373,-5.726946830749512,32.662376403808594,-32.64643096923828,0.8118029832839966,-2.6027913093566895,-0.9283571243286133,-0.8833363,-0.0158322,11.104717,0.19114143,2.2189329,10.914903,1
17,988.4898071289062,1.0127402544021606,-1.544456958770752,0.2682710886001587,-6.4974541664123535,31.098913192749023,-33.89891815185547,0.9289725422859192,1.0378533601760864,-1.3661823272705078,-0.6276447,-2.203681,10.664415,-1.0745382,-0.2368809,10.852152,1
17,988.5277709960938,1.40129554271698,-1.6600381135940552,0.0227279644459486,-9.628868103027344,29.43178367614746,-34.70454788208008,1.2612468004226685,0.2675257921218872,-2.742312431335449,-0.18772371,-1.4934686,12.875399,-1.4167244,0.22695756,12.883438,1
17,988.4970703125,1.146830439567566,-1.0963804721832275,0.0894399955868721,-11.958984375,27.250810623168945,-35.75755310058594,0.7936516404151917,1.2285935878753662,-2.690983772277832,0.47446835,-1.4624907,11.96641,-1.0203644,-0.5341247,12.009685,1
17,988.4365844726562,1.2233905792236328,0.36968743801116943,0.26068100333213806,-12.696123123168945,26.034143447875977,-36.18864440917969,0.16871923208236694,0.6976378560066223,0.3047809600830078,0.00842309,-0.6640919,9.142336,-0.7306372,-0.35517472,9.130358,1
17,988.4365844726562,1.2233905792236328,0.36968743801116943,0.26068100333213806,-11.188224792480469,24.23432731628418,-38.85617446899414,0.8032248020172119,0.30365678668022156,0.1952648162841797,0.053816855,-0.2279516,10.69522,-0.5310901,-0.19367903,10.682838,1
18,988.3276977539062,0.6890279054641724,-0.3332533836364746,0.33578217029571533,-10.803104400634766,23.12038230895996,-39.54319763183594,-0.18525278568267822,1.1458652019500732,-2.6645421981811523,0.5389526,-0.6402584,11.417215,-0.5490991,-1.05173,11.3862,1
18,988.3276977539062,0.6890279054641724,-0.3332533836364746,0.33578217029571533,-10.896417617797852,22.243825912475586,-41.094200134277344,0.16404606401920319,0.2998941242694855,0.7757530212402344,0.22825098,0.584747,9.537655,0.033610135,0.049101233,9.558104,1
18,988.4487915039062,0.7477506995201111,0.2361299842596054,0.21074694395065308,-8.913373947143555,21.204099655151367,-42.41672134399414,-0.5180552005767822,-0.08636310696601868,-1.517228126525879,-0.28798226,-0.14453577,11.142617,-0.15474318,-0.5036252,11.134817,1
18,988.3904418945312,-0.39208105206489563,1.3975335359573364,0.2991638779640198,-6.772365093231201,21.6810359954834,-42.389625549316406,1.0520843267440796,2.023845672607422,-0.8987417221069336,-1.1435816,-1.1216797,10.3069935,-1.306175,-1.3416162,10.261289,1
18,988.41064453125,-0.02802710421383381,0.675417959690094,-0.0728793740272522,-6.529369831085205,20.74974250793457,-42.52655029296875,0.142307311296463,0.5128806233406067,-0.17513751983642578,-0.5293911,-0.01345475,10.981645,-0.29429972,-0.7504334,10.964816,1
18,988.4055786132812,0.7058064341545105,0.036925625056028366,-0.05570194125175476,-5.894730567932129,19.448450088500977,-43.93391418457031,0.05001646280288696,1.375661849975586,-2.63637638092041,-0.70864815,-0.12785183,11.315418,-0.26623356,-1.1091843,11.280784,1
