Timestamp,P,Gx,Gy,Gz,Mx,My,Mz,LiAx,LiAy,LiAz,Ax,Ay,Az,Value,Type
0,989.9608154296875,5.980916321277618E-4,-6.394899683073163E-4,2.816319465637207E-6,4.285447597503662,20.64360809326172,-15.13530158996582,-0.18244701623916626,0.8003057241439819,0.047919273376464844,0.102595985,-0.14666349,9.7537565,0
0,989.9225463867188,0.00440963264554739,0.0016069670673459768,-9.991684928536415E-4,-3.227072238922119,17.400651931762695,-12.094236373901367,-0.16639792919158936,0.8214715719223022,0.038643836975097656,0.08351356,-0.1490477,9.753758,0
0,989.8626098632812,0.0036103306338191032,-0.0023877136409282684,-3.3353071194142103E-4,-2.8550772666931152,17.117420196533203,-13.058801651000977,-0.18958544731140137,0.7838875651359558,0.03419303894042969,0.09072006,-0.14666528,9.75613,0
0,989.8602294921875,-0.0010505516547709703,6.749766180291772E-4,-6.73666363582015E-5,-3.185413360595703,17.492435455322266,-12.25999641418457,-0.1790851652622223,0.7873858213424683,0.05353546142578125,0.10270631,-0.13951638,9.756133,0
0,989.8651733398438,4.138314398005605E-4,9.413500083610415E-4,5.98271144554019E-4,-2.9345107078552246,17.200645446777344,-12.35856819152832,-0.17858949303627014,0.7979514598846436,0.011172294616699219,0.095573366,-0.14905038,9.767972,0
0,989.9008178710938,2.0049279555678368E-5,6.946329958736897E-4,4.163534031249583E-4,-3.106255531311035,17.19738006591797,-11.562067031860352,-0.16376441717147827,0.796175479888916,0.030228614807128906,0.093220234,-0.14428473,9.767976,0
0,989.9055786132812,2.860105596482754E-4,2.8900816687382758E-5,-3.8274613325484097E-4,-2.956085681915283,17.760147094726562,-12.772905349731445,-0.19173312187194824,0.8108689785003662,0.02578258514404297,0.1004267,-0.16811848,9.772714,0
0,989.8956909179688,-7.796072168275714E-4,8.279059547930956E-4,1.497337652835995E-4,-2.7247228622436523,16.44877815246582,-12.192934036254883,-0.16715660691261292,0.778329610824585,0.026040077209472656,0.08851397,-0.14905307,9.756146,0
0,989.9310913085938,1.521439990028739E-4,2.953317598439753E-4,-0.001448313589207828,-3.330881118774414,17.04000473022461,-11.98015022277832,-0.19002851843833923,0.774482250213623,0.016824722290039062,0.09811032,-0.14667073,9.758517,0
0,989.9110717773438,1.8631690181791782E-5,-5.035583162680268E-4,1.4942995039746165E-4,-3.2609848976135254,17.422149658203125,-13.014078140258789,-0.18400534987449646,0.768416166305542,0.026685714721679688,0.095757216,-0.15620473,9.751419,0
0,989.9262084960938,-5.143546732142568E-4,5.617627175524831E-4,-1.1703782365657389E-4,-3.272181987762451,17.780132293701172,-12.57139778137207,-0.1742975115776062,0.7763670682907104,0.036255836486816406,0.09818387,-0.15858892,9.77036,0
0,989.9312133789062,6.837125401943922E-4,-3.7028532824479043E-4,-5.166636547073722E-4,-3.574173927307129,17.339160919189453,-12.268102645874023,-0.18286730349063873,0.7771122455596924,0.02231121063232422,0.09822065,-0.15858987,9.765629,0
0,989.9110717773438,-5.150634096935391E-4,-2.3706984939053655E-4,1.5816360246390104E-5,-3.28922176361084,17.131792068481445,-12.145910263061523,-0.1818183809518814,0.7731663584709167,0.0272979736328125,0.095867515,-0.1585907,9.756164,0
0,989.9215087890625,2.835298655554652E-4,-3.701702516991645E-4,-2.5065147201530635E-4,-3.847494602203369,17.92660903930664,-13.107187271118164,-0.16152995824813843,0.7549737691879272,0.027547836303710938,0.0887346,-0.15144178,9.7538,0
0,989.931396484375,1.500175567343831E-4,-3.70112742530182E-4,6.813022773712873E-4,-3.217099666595459,17.673337936401367,-12.034746170043945,-0.17509210109710693,0.760602593421936,0.01832294464111328,0.098330975,-0.15620926,9.770373,0
0,989.9086303710938,-1.1665280908346176E-4,-2.3689726367592812E-4,1.536071067675948E-5,-3.377511501312256,17.41800880432129,-12.380006790161133,-0.16022667288780212,0.7281316518783569,0.042235374450683594,0.09597784,-0.13714388,9.765641,0
0,989.9136352539062,-6.496389396488667E-4,5.621078889816999E-4,-6.505808560177684E-4,-3.3358521461486816,17.509796142578125,-12.54576301574707,-0.16855737566947937,0.7622319459915161,0.03775310516357422,0.0912348,-0.14906123,9.758544,0
0,989.9237670898438,-5.168353673070669E-4,-6.362560670822859E-4,4.1453074663877487E-4,-2.6356987953186035,17.53274917602539,-11.808176040649414,-0.1724759340286255,0.7535477876663208,0.023792266845703125,0.09127158,-0.15621191,9.770383,0
0,989.9163818359375,-1.1771603021770716E-4,-1.035667082760483E-4,1.4806297258473933E-4,-2.71431303024292,17.459514617919922,-12.407648086547852,-0.1669130027294159,0.7259316444396973,0.005084037780761719,0.0936982,-0.13952991,9.775121,0
0,989.9495239257812,-1.1807039845734835E-4,-1.0350914089940488E-4,-1.1840471415780485E-4,-3.0344324111938477,17.106788635253906,-11.875772476196289,-0.1517155021429062,0.7316402196884155,0.019519805908203125,0.0817855,-0.14906392,9.777492,0
0,989.9339599609375,-5.178984720259905E-4,-1.0345163173042238E-4,-3.8487251731567085E-4,-3.2094902992248535,17.680702209472656,-12.421270370483398,-0.16517212986946106,0.718246340751648,0.048160552978515625,0.10333142,-0.14429823,9.75619,0
0,989.8890380859375,-2.5193707551807165E-4,-6.360257975757122E-4,1.476073230151087E-4,-3.4305272102355957,17.15798568725586,-12.895513534545898,-0.16427461802959442,0.7240134477615356,0.048386573791503906,0.08424896,-0.14191589,9.758561,0
0,989.9214477539062,1.4024320989847183E-5,5.624531186185777E-4,1.4745545922778547E-4,-3.5798258781433105,18.07132339477539,-12.233091354370117,-0.15886375308036804,0.7253178358078003,0.02492046356201172,0.09145543,-0.1490666,9.758564,0
0,989.9494018554688,6.794596556574106E-4,2.9878865461796522E-5,1.4730353723280132E-4,-3.666487216949463,17.252674102783203,-12.171834945678711,-0.17695045471191406,0.7264901399612427,0.034603118896484375,0.10314098,-0.1490601,9.763274,0
1,989.926513671875,1.3315700925886631E-5,-3.695373598020524E-4,-2.523221482988447E-4,-3.6148552894592285,17.617141723632812,-12.278100967407227,-0.14705127477645874,0.712928056716919,0.04436206817626953,0.08373976,-0.14905325,9.760882,0
1,989.9215087890625,-0.0011773973237723112,-2.4025521997828037E-4,2.7887546457350254E-4,-3.236609935760498,17.86602020263672,-12.427934646606445,-0.16037458181381226,0.7137142419815063,0.030393600463867188,0.10048175,-0.14667025,9.770351,0
1,989.9569702148438,-5.117298569530249E-4,-1.0707748879212886E-4,6.782968994230032E-4,-3.4427037239074707,17.14620018005371,-12.277070999145508,-0.14983654022216797,0.6907563209533691,0.030622482299804688,0.07420555,-0.1395207,9.763251,0
1,989.9291381835938,-7.781678577885032E-4,-5.065314471721649E-4,1.2454867828637362E-5,-3.4494948387145996,16.982379913330078,-13.190256118774414,-0.15871964395046234,0.7154988050460815,0.021375656127929688,0.09811726,-0.15620402,9.772721,0
1,989.908935546875,-1.1250085663050413E-4,8.250678656622767E-4,6.781920092180371E-4,-3.4796595573425293,17.164752960205078,-13.042306900024414,-0.1722399890422821,0.6977002620697021,0.026312828063964844,0.09812993,-0.1466712,9.763253,0
1,989.9216918945312,2.0534847863018513E-5,-2.401758247287944E-4,4.1182368295267224E-4,-3.373488426208496,17.790719985961914,-12.71037483215332,-0.1527702659368515,0.6942260265350342,0.02650928497314453,0.09336281,-0.15143806,9.765622,0
1,989.9241943359375,2.867284929379821E-4,6.919496227055788E-4,4.117713251616806E-4,-3.202859401702881,17.318302154541016,-12.632040023803711,-0.14698314666748047,0.6858822107315063,0.050384521484375,0.08620578,-0.14190528,9.763256,0
1,989.9064331054688,1.5344831626862288E-4,-2.401361271040514E-4,8.111927891150117E-4,-3.8148608207702637,16.903213500976562,-12.436464309692383,-0.15575671195983887,0.7019006013870239,0.036355018615722656,0.08382863,-0.15143862,9.76089,0
1,989.904052734375,0.001218589604832232,1.5935752890072763E-4,5.448244628496468E-4,-3.3980002403259277,17.24093246459961,-12.597444534301758,-0.1551843285560608,0.6745640635490417,0.012877464294433594,0.093400896,-0.13952258,9.772727,0
1,989.9320678710938,-1.1311250273138285E-4,4.2569334618747234E-4,-5.204916233196855E-4,-3.6714577674865723,17.722461700439453,-12.737447738647461,-0.1454082727432251,0.6614593863487244,0.02254199981689453,0.088633776,-0.13475636,9.767994,0
1,989.9144897460938,1.9923318177461624E-5,0.0013578188372775912,-3.873860405292362E-4,-3.814423084259033,17.641265869140625,-12.710664749145508,-0.1638297587633133,0.6772897243499756,0.04639434814453125,0.10537577,-0.14905635,9.756159,0
1,989.9369506835938,2.8599484357982874E-4,-1.0687894246075302E-4,2.7829891769215465E-4,-3.225550651550293,17.40212631225586,-12.171541213989258,-0.1436968296766281,0.6595699787139893,0.03238105773925781,0.0982188,-0.14190683,9.767996,0
1,989.9369506835938,2.8599484357982874E-4,-1.0687894246075302E-4,2.7829891769215465E-4,-3.2038378715515137,16.94853973388672,-12.45628547668457,-0.16125155985355377,0.6782499551773071,0.051601409912109375,0.107791066,-0.15144023,9.753795,0
1,989.906982421875,-2.4675962049514055E-4,-7.7264872379601E-4,8.108781185001135E-4,-3.3397374153137207,17.24300193786621,-12.914480209350586,-0.14608702063560486,0.6607635021209717,0.028102874755859375,0.09585428,-0.14429072,9.782202,0
1,989.916748046875,8.183816680684686E-4,-2.3999706900212914E-4,-3.875957627315074E-4,-3.3328075408935547,17.512741088867188,-12.700380325317383,-0.16510973870754242,0.6781179904937744,0.023458480834960938,0.10303664,-0.15859076,9.763265,0
1,989.9292602539062,2.856276696547866E-4,0.0012247600825503469,1.1825672117993236E-5,-3.43966007232666,17.149147033691406,-12.431684494018555,-0.1691303253173828,0.663253903388977,0.004803657531738281,0.10782915,-0.14429131,9.77747,0
1,989.9318237304688,2.855054335668683E-4,0.0010916219325736165,1.449312549084425E-4,-3.5379223823547363,17.16268539428711,-12.72526741027832,-0.14932149648666382,0.6361567974090576,0.028649330139160156,0.08633274,-0.1371418,9.7609,0
1,989.9393920898438,-5.135646788403392E-4,2.6378314942121506E-5,6.775106303393841E-4,-3.5716733932495117,17.710399627685547,-12.52116584777832,-0.163399800658226,0.6629196405410767,0.03347969055175781,0.10546464,-0.15620837,9.763268,0
1,989.9297485351562,1.8944498151540756E-5,4.258721019141376E-4,5.443000700324774E-4,-3.693469524383545,17.543907165527344,-12.87757682800293,-0.14797204732894897,0.667510986328125,0.02426910400390625,0.10069752,-0.15620866,9.768004,0
1,989.9069213867188,0.001117204548791051,3.400040150154382E-4,3.2211607322096825E-4,-3.267477512359619,17.890464782714844,-13.502389907836914,-0.1430240124464035,0.6420060396194458,0.019620895385742188,0.09354046,-0.14667588,9.768005,0
1,989.9322509765625,-6.139707984402776E-4,3.400238056201488E-4,-4.7688395716249943E-4,-3.6690945625305176,17.987781524658203,-12.29142951965332,-0.14690396189689636,0.6479424238204956,0.04347991943359375,0.10311282,-0.14905944,9.772741,0
1,989.9423828125,-6.140930345281959E-4,-5.9430130932014436E-5,-2.1062040468677878E-4,-3.548438549041748,17.25828742980957,-12.883211135864258,-0.13204741477966309,0.6450079679489136,0.04362964630126953,0.08400631,-0.15620962,9.758538,0
1,989.9222412109375,0.0011168374912813306,2.069056499749422E-4,-6.101467879489064E-4,-3.327155590057373,16.78057861328125,-12.735391616821289,-0.14978399872779846,0.6308519840240479,0.04860210418701172,0.095968485,-0.139527,9.75854,0
1,989.9295043945312,5.840834928676486E-4,7.376755092991516E-5,5.882222321815789E-4,-3.375988483428955,17.419483184814453,-12.457315444946289,-0.16348013281822205,0.6385549306869507,0.03449249267578125,0.09837109,-0.15144363,9.756173,0
1,989.9119262695312,1.84487464139238E-4,-7.251601200550795E-4,-7.434095023199916E-4,-3.3621840476989746,16.326396942138672,-12.780397415161133,-0.13899849355220795,0.6208010315895081,0.039412498474121094,0.095834285,-0.14905679,9.760895,0
2,989.9144897460938,-8.138242992572486E-5,6.063468172214925E-4,3.220450598746538E-4,-3.536400318145752,17.16415786743164,-12.802576065063477,-0.14297232031822205,0.641533613204956,0.04430389404296875,0.093450695,-0.15382347,9.76563,0
2,989.92724609375,4.521161608863622E-4,-5.958359543001279E-5,5.887324223294854E-4,-3.496943950653076,17.51683807373047,-12.290399551391602,-0.142049640417099,0.628553032875061,0.0302734375,0.09584695,-0.15144038,9.767997,0
2,989.9246826171875,-3.468927170615643E-4,-5.922054406255484E-4,-7.70833867136389E-5,-3.2338647842407227,17.236831665039062,-13.007413864135742,-0.1413220763206482,0.6251616477966309,0.020972251892089844,0.09107348,-0.15144056,9.767999,0
2,989.899169921875,-8.063783752731979E-5,-5.956373206572607E-5,-2.1026760805398226E-4,-2.7468409538269043,17.376571655273438,-12.705720901489258,-0.1403641402721405,0.6215731501579285,0.021148681640625,0.086300015,-0.14905739,9.760898,0
2,989.9371337890625,-7.46488687582314E-4,-4.590276221279055E-4,-3.434516256675124E-4,-3.289083957672119,17.237707138061523,-12.844987869262695,-0.13466760516166687,0.6042250990867615,0.04497051239013672,0.095865965,-0.14905757,9.777468,0
2,989.9220581054688,5.849685985594988E-4,-5.921657430008054E-4,1.8912774976342916E-4,-3.4721875190734863,17.06620216369629,-12.729753494262695,-0.14777174592018127,0.6092848777770996,0.02624988555908203,0.09826219,-0.14429119,9.770368,0
2,989.9220581054688,5.849685985594988E-4,-5.921657430008054E-4,1.8912774976342916E-4,-3.4721875190734863,17.06620216369629,-12.729753494262695,-0.13296937942504883,0.6170320510864258,0.054741859436035156,0.08870894,-0.15620771,9.753798,0
2,989.9577026367188,-2.1404025028459728E-4,-5.9524092648644E-5,-3.435303224250674E-4,-3.490856170654297,17.522729873657227,-12.59962272644043,-0.14151844382286072,0.6231411099433899,0.0312347412109375,0.09110516,-0.1538246,9.758533,0
2,989.9219360351562,-6.136364536359906E-4,-9.916098788380623E-4,4.553649923764169E-4,-3.569608688354492,17.343582153320312,-12.500020980834961,-0.1206938698887825,0.608496904373169,0.05041694641113281,0.08872169,-0.15620807,9.7561655,0
2,989.9219360351562,-6.136364536359906E-4,-9.916098788380623E-4,4.553649923764169E-4,-3.569608688354492,17.343582153320312,-12.500020980834961,-0.13954168558120728,0.5977036356925964,0.03153800964355469,0.10067752,-0.14429179,9.7680025,0
2,989.9194946289062,-3.474431287031621E-4,7.367360376520082E-5,-2.1047727204859257E-4,-3.937741756439209,17.473304748535156,-12.989770889282227,-0.13842998445034027,0.5881305932998657,0.031762123107910156,0.09112427,-0.14667523,9.763268,0
2,989.9194946289062,-3.474431287031621E-4,7.367360376520082E-5,-2.1047727204859257E-4,-3.937741756439209,17.473304748535156,-12.989770889282227,-0.1285213679075241,0.591438353061676,0.046031951904296875,0.09352052,-0.1538252,9.760901,0
2,989.9222412109375,3.1828557257540524E-4,-4.5894828508608043E-4,-2.1050346549600363E-4,-3.544553279876709,17.525081634521484,-12.514505386352539,-0.1325128674507141,0.6072981357574463,0.02724170684814453,0.08635712,-0.15620866,9.770371,0
2,989.9423828125,3.182244545314461E-4,7.369345257757232E-5,-2.105296589434147E-4,-3.58729887008667,18.169876098632812,-12.545644760131836,-0.1464528739452362,0.5854452848434448,0.017899513244628906,0.095923066,-0.14667565,9.765637,0
2,989.9273071289062,8.507950697094202E-4,7.394930580630898E-4,-2.1055585239082575E-4,-3.796840190887451,17.92131805419922,-13.037698745727539,-0.13156503438949585,0.5966159701347351,0.04171180725097656,0.095929414,-0.16097552,9.758536,0
2,989.8764038085938,-8.137148688547313E-5,4.7318710130639374E-4,7.215235964395106E-4,-3.500392436981201,17.988100051879883,-12.933320999145508,-0.12606239318847656,0.5791478753089905,0.04658985137939453,0.093545854,-0.14905927,9.760903,0
2,989.9248046875,-4.809065430890769E-4,-3.2575061777606606E-4,5.570764187723398E-5,-3.16660737991333,17.141822814941406,-13.089204788208008,-0.12010335177183151,0.5947713851928711,0.03727531433105469,0.091162294,-0.16812566,9.763272,0
2,989.9241943359375,-4.809675447177142E-4,-9.915304835885763E-4,4.5515535748563707E-4,-3.2997374534606934,17.22739601135254,-12.303853988647461,-0.13417403399944305,0.586592972278595,0.03742504119873047,0.088778734,-0.15620944,9.756171,0
2,989.9193725585938,-4.8102866276167333E-4,0.0010058485204353929,5.565525498241186E-5,-3.6565136909484863,17.525358200073242,-12.112340927124023,-0.12385242432355881,0.5696196556091309,0.023340225219726562,0.09117496,-0.15620962,9.770375,0
2,989.9171752929688,0.001249963417649269,-4.5887884334661067E-4,1.8878711853176355E-4,-3.8923354148864746,17.725963592529297,-12.087739944458008,-0.12310388684272766,0.5904784798622131,0.02347087860107422,0.095961094,-0.16335955,9.777476,0
2,989.9248046875,-8.167696068994701E-5,-3.2571094925515354E-4,-3.4387095365673304E-4,-3.803226947784424,17.283287048339844,-13.153348922729492,-0.12176917493343353,0.557300329208374,0.02366924285888672,0.091187626,-0.14667678,9.765641,0
2,989.9144897460938,-2.148961357306689E-4,-1.9254311337135732E-4,7.213664939627051E-4,-3.692383289337158,16.807327270507812,-12.680673599243164,-0.11666502058506012,0.5500378608703613,0.037978172302246094,0.08402428,-0.14429367,9.760908,0
2,989.9170532226562,9.834642987698317E-4,2.0694060367532074E-4,-4.770812811329961E-4,-3.532813549041748,16.798810958862305,-12.858736038208008,-0.13540460169315338,0.5390151739120483,0.04277515411376953,0.088810444,-0.13952723,9.758542,0
2,989.9094848632812,5.839293589815497E-4,2.0695055718533695E-4,4.5499822590500116E-4,-3.471208095550537,17.435962677001953,-12.905511856079102,-0.13956071436405182,0.5692582130432129,0.01923656463623047,0.100498974,-0.16097042,9.772719,0
2,989.9248046875,5.1236507715657353E-5,2.069604815915227E-4,-2.1081767044961452E-4,-3.530855655670166,17.538333892822266,-13.210245132446289,-0.12364459782838821,0.5457206964492798,0.019474029541015625,0.095442176,-0.15619704,9.777431,0
3,989.8843994140625,4.545422561932355E-4,-3.2629334600642323E-4,-8.749651024118066E-4,-3.5755581855773926,17.443607330322266,-12.88987922668457,-0.13278229534626007,0.5523947477340698,0.010126113891601562,0.097816795,-0.15381333,9.782163,0
3,989.925048828125,-0.001008776598609984,8.718977915123105E-4,-7.540959632024169E-5,-3.319247245788574,17.42007827758789,-12.697046279907227,-0.12741748988628387,0.5398147702217102,0.038659095764160156,0.0906319,-0.15142968,9.758489,0
3,989.9171752929688,1.8979169544763863E-4,3.3924225135706365E-4,5.7811266742646694E-5,-3.738715648651123,17.817468643188477,-12.655656814575195,-0.10768011212348938,0.536701500415802,0.05772686004638672,0.088226736,-0.1466628,9.753753,0
3,989.9094848632812,-2.0953567582182586E-4,3.3921844442375004E-4,1.9103207159787416E-4,-3.321610927581787,17.15475845336914,-13.143060684204102,-0.12097432464361191,0.5477192401885986,0.06259632110595703,0.09777117,-0.15142891,9.75612,0
3,989.9144897460938,-4.7570475726388395E-4,-8.592268568463624E-4,3.242529055569321E-4,-3.529066562652588,16.959686279296875,-11.790945053100586,-0.11592105776071548,0.5416078567504883,0.04371356964111328,0.090586185,-0.15142858,9.760852,0
3,989.9220581054688,-2.0924207638017833E-4,-5.929347244091332E-4,-4.7463178634643555E-4,-3.865513324737549,16.90850830078125,-12.505945205688477,-0.12478065490722656,0.5339025259017944,0.048567771911621094,0.09774068,-0.14904493,9.765585,0
3,989.9371337890625,-7.593733607791364E-5,2.059890830423683E-4,3.2437866320833564E-4,-3.6734166145324707,16.98293685913086,-12.385934829711914,-0.11875712871551514,0.529373288154602,0.03454875946044922,0.09772545,-0.15381107,9.770318,0
3,989.9451293945312,-8.295520674437284E-4,-6.400924758054316E-4,7.304013706743717E-4,-3.1967711448669434,17.324193954467773,-12.941259384155273,-0.10382010042667389,0.5264042019844055,0.04413414001464844,0.08576077,-0.1466609,9.772685,0
3,989.9120483398438,5.021740216761827E-4,2.567339106462896E-5,-2.016412909142673E-4,-3.637707233428955,17.17474365234375,-12.941553115844727,-0.10818617790937424,0.5202781558036804,0.029985427856445312,0.08574551,-0.14666054,9.770316,0
3,989.9322509765625,-3.0310795409604907E-5,-2.4066626792773604E-4,7.305272156372666E-4,-3.897604465484619,17.56361198425293,-13.078226089477539,-0.12141580134630203,0.529937744140625,0.030167579650878906,0.09289998,-0.15619329,9.76558,0
3,989.9094848632812,-4.296380502637476E-4,-5.070058978162706E-4,5.974321393296123E-4,-3.3791937828063965,16.890316009521484,-13.426652908325195,-0.11594553291797638,0.5032835602760315,0.04448127746582031,0.09288475,-0.14665976,9.75611,0
3,989.9222412109375,-4.294912505429238E-4,1.5875991084612906E-4,-3.346105804666877E-4,-3.724475383758545,17.46243667602539,-13.252954483032227,-0.10587146878242493,0.5241913795471191,0.044594764709472656,0.09047964,-0.1490427,9.770311,0
3,989.9120483398438,-2.960398269351572E-4,4.250280908308923E-4,8.639366715215147E-4,-3.8815436363220215,17.842191696166992,-13.32795524597168,-0.11001614481210709,0.516398012638092,0.04471015930175781,0.09285432,-0.16095874,9.777411,0
3,989.9120483398438,-2.960398269351572E-4,4.250280908308923E-4,8.639366715215147E-4,-3.8815436363220215,17.842191696166992,-13.32795524597168,-0.13842269778251648,0.5102415084838867,0.02109241485595703,0.10717851,-0.14904192,9.7703085,0
3,989.9144897460938,-2.9577378882095218E-5,4.2500434210523963E-4,-2.012639306485653E-4,-3.6630072593688965,17.993675231933594,-12.600656509399414,-0.11404594779014587,0.5071936845779419,0.02594280242919922,0.09760368,-0.15619138,9.775041,0
3,989.9122924804688,-0.0012277052737772465,6.912725511938334E-4,-3.3429614268243313E-4,-3.853039264678955,17.552425384521484,-12.699518203735352,-0.1135992556810379,0.5022883415222168,0.04032707214355469,0.08802885,-0.15380776,9.760837,0
3,989.9072265625,-5.617690039798617E-4,0.0010907226242125034,-8.668650407344103E-4,-3.58164644241333,17.437713623046875,-12.580656051635742,-0.10396632552146912,0.5091166496276855,0.035691261291503906,0.09040356,-0.15142414,9.765569,0
3,989.9072265625,-5.617690039798617E-4,0.0010907226242125034,-8.668650407344103E-4,-3.58164644241333,17.437713623046875,-12.580656051635742,-0.09853873401880264,0.4981171190738678,0.026277542114257812,0.07604891,-0.14665714,9.763201,0
3,989.9094848632812,1.0416764416731894E-4,1.5859313134569675E-4,6.530346581712365E-5,-3.6601004600524902,17.890701293945312,-12.056184768676758,-0.11685758829116821,0.5047012567520142,0.035854339599609375,0.09993267,-0.16095647,9.772668,0
3,989.92724609375,-2.951596106868237E-4,-7.735362160019577E-4,7.311559747904539E-4,-3.7106165885925293,18.001914978027344,-12.824747085571289,-0.11573714762926102,0.4925779104232788,0.04068470001220703,0.10469729,-0.14665642,9.767932,0
3,989.9476928710938,-6.943400949239731E-4,-9.067417704500258E-4,-3.339818213135004E-4,-3.5249056816101074,17.438312530517578,-12.820390701293945,-0.0999419167637825,0.5121793746948242,0.036103248596191406,0.085562855,-0.16572228,9.758462,0
3,989.9476928710938,-6.943400949239731E-4,-9.067417704500258E-4,-3.339818213135004E-4,-3.5249056816101074,17.438312530517578,-12.820390701293945,-0.09950116276741028,0.5059750080108643,0.03615379333496094,0.087937534,-0.16333863,9.765563,0
3,989.9246826171875,-2.8403446776792407E-5,-7.736076950095594E-4,9.976605651900172E-4,-3.3775105476379395,17.41800880432129,-12.380006790161133,-0.11793754994869232,0.47951310873031616,0.026778221130371094,0.09270209,-0.14903858,9.765561,0
3,989.8992919921875,5.043749697506428E-4,-1.0784179903566837E-4,5.98249607719481E-4,-3.633821487426758,17.44153594970703,-12.572839736938477,-0.11290554702281952,0.48653391003608704,0.04575920104980469,0.10036272,-0.15143391,9.765607,0
4,989.8970947265625,1.0444413055665791E-4,-3.740835818462074E-4,1.9857994630001485E-4,-3.8819804191589355,17.104137420654297,-13.053750991821289,-0.09773841500282288,0.49803006649017334,0.04585552215576172,0.09080815,-0.15143403,9.775075,0
4,989.9501342773438,-2.992675581481308E-4,4.2555213440209627E-4,-6.955215940251946E-5,-3.3376717567443848,16.876182556152344,-12.893331527709961,-0.10653440654277802,0.4846530556678772,0.055454254150390625,0.083643526,-0.14666757,9.760873,0
4,989.9501342773438,-2.992675581481308E-4,4.2555213440209627E-4,-6.955215940251946E-5,-3.3376717567443848,16.876182556152344,-12.893331527709961,-0.12531937658786774,0.47825342416763306,0.05550956726074219,0.09559816,-0.15381756,9.76324,0
4,989.9273071289062,-2.993164525832981E-4,1.592441403772682E-4,1.9674273789860308E-4,-3.5247673988342285,17.544227600097656,-13.519464492797852,-0.105479896068573,0.4789254367351532,0.050909996032714844,0.097993106,-0.15143439,9.760875,0
4,989.9198608398438,-3.3049582270905375E-5,4.2556802509352565E-4,-7.353839464485645E-4,-3.646700859069824,17.271821975708008,-13.176801681518555,-0.09511266648769379,0.4760912358760834,0.032067298889160156,0.09082848,-0.15620106,9.779811,0
4,989.9351806640625,-6.98888092301786E-4,-5.065296427346766E-4,-6.961505278013647E-5,-3.700099468231201,17.906307220458984,-12.666810989379883,-0.0904109999537468,0.4511224329471588,0.0510406494140625,0.09322345,-0.14666805,9.767977,0
4,989.9326782226562,-1.663051953073591E-4,5.58741856366396E-4,-2.027939772233367E-4,-3.429548740386963,17.527748107910156,-13.071268081665039,-0.1039414033293724,0.4630429744720459,0.051117897033691406,0.09322852,-0.14905146,9.763242,0
4,989.9246826171875,4.994354676455259E-4,-2.4019787088036537E-4,-2.0281493198126554E-4,-3.639228343963623,17.173269271850586,-12.864248275756836,-0.10365917533636093,0.46508336067199707,0.055939674377441406,0.0980134,-0.14190182,9.744306,0
4,989.9149169921875,-4.327189817558974E-4,8.250735700130463E-4,-6.02309824898839E-4,-3.888610363006592,17.466533660888672,-12.842981338500977,-0.11264941096305847,0.46095186471939087,0.056072235107421875,0.10757807,-0.14905176,9.756141,0
4,989.92724609375,-4.327678761910647E-4,8.250814862549305E-4,4.629328614100814E-4,-3.51881742477417,17.444202423095703,-13.129610061645508,-0.10758165270090103,0.45979002118110657,0.041904449462890625,0.09802356,-0.14905187,9.765611,0
4,989.9526977539062,-4.3281677062623203E-4,2.6141831767745316E-5,-2.028777962550521E-4,-3.576399803161621,17.179759979248047,-13.413198471069336,-0.08799078315496445,0.4572768807411194,0.041983604431152344,0.093248844,-0.149052,9.770345,0
4,989.9043579101562,-3.3391843317076564E-5,-1.0700817801989615E-4,1.9657501252368093E-4,-3.4234604835510254,17.53363800048828,-13.380487442016602,-0.09671349823474884,0.4641781151294708,0.032596588134765625,0.08608422,-0.1514354,9.763245,0
4,989.9451293945312,-1.6659879474900663E-4,-6.396320532076061E-4,1.9655408686958253E-4,-3.6512675285339355,17.26740264892578,-12.944883346557617,-0.10097624361515045,0.4617820382118225,0.046874046325683594,0.09803873,-0.16335192,9.756143,0
4,989.9351196289062,4.991421010345221E-4,-1.0699231643229723E-4,-6.978277815505862E-5,-3.727954387664795,16.721437454223633,-12.824136734008789,-0.11905310302972794,0.4494571387767792,0.013817787170410156,0.10043377,-0.15143561,9.77745,0
4,989.9222412109375,-6.993282586336136E-4,-0.0010390898678451777,4.628280585166067E-4,-3.6476807594299316,16.902061462402344,-13.001043319702148,-0.0990479439496994,0.45022478699684143,0.03761100769042969,0.10043883,-0.14666918,9.760879,0
4,989.9202880859375,-5.6621921248734E-4,-3.732923069037497E-4,7.291229558177292E-4,-3.7361083030700684,17.08236312866211,-12.536062240600586,-0.07495003938674927,0.4490354061126709,0.051849365234375,0.08849439,-0.15143588,9.763247,0
4,989.9326782226562,-8.32584104500711E-4,2.9250531224533916E-4,-2.030035830102861E-4,-3.814423084259033,17.641265869140625,-12.710664749145508,-0.09794949740171432,0.4358762800693512,0.033019065856933594,0.09566915,-0.15620258,9.767982,0
4,989.9354858398438,9.947261423803866E-5,-3.7327647441998124E-4,4.627651651389897E-4,-3.820809841156006,17.003238677978516,-12.826314926147461,-0.10666682571172714,0.4427688419818878,0.042565345764160156,0.11240357,-0.15143618,9.770349,0
4,989.934814453125,-4.3320792610757053E-4,-1.0695261880755424E-4,-6.988758104853332E-5,-3.6075425148010254,16.99237060546875,-13.089494705200195,-0.10664623230695724,0.44170549511909485,0.018924713134765625,0.09567934,-0.15620285,9.779819,0
4,989.89990234375,7.651646155864E-4,9.583188802935183E-4,-6.990853580646217E-5,-3.5348782539367676,17.165626525878906,-12.879877090454102,-0.07752928137779236,0.4153290390968323,0.06160736083984375,0.088514686,-0.13713673,9.746678,0
4,989.92236328125,-4.333059478085488E-4,-1.0693678632378578E-4,-3.362453426234424E-4,-3.280930995941162,16.876781463623047,-13.133066177368164,-0.09614203870296478,0.4323408901691437,0.037994384765625,0.098079324,-0.14428666,9.772717,0
4,989.9152221679688,1.0166832362301648E-4,2.3463838442694396E-4,2.753585868049413E-4,-3.1937270164489746,17.32714080810547,-13.095869064331055,-0.09075133502483368,0.41466253995895386,0.02862071990966797,0.09569454,-0.14190349,9.77035,0
4,989.9152221679688,1.0166832362301648E-4,2.3463838442694396E-4,2.753585868049413E-4,-3.1937270164489746,17.32714080810547,-13.095869064331055,-0.10985404998064041,0.4180046617984772,0.028661727905273438,0.09569964,-0.15143678,9.772718,0
4,989.905029296875,-2.9785462538711727E-4,0.0011667520739138126,9.02172178030014E-6,-3.3599281311035156,17.69805908203125,-12.707040786743164,-0.0951671376824379,0.430484801530838,0.014507293701171875,0.09809458,-0.16097,9.777453,0
4,989.9179077148438,0.001566307619214058,2.3465431877411902E-4,9.000796126201749E-6,-3.7305617332458496,17.45654296875,-12.943731307983398,-0.10484209656715393,0.4187946915626526,0.06659698486328125,0.098645836,-0.14668384,9.746731,0
5,989.91259765625,2.3209283244796097E-4,1.0192423360422254E-4,-6.579185137525201E-4,-3.7399935722351074,16.815568923950195,-12.90477180480957,-0.08995048701763153,0.4403493106365204,0.033516883850097656,0.08672294,-0.16813406,9.779874,0
5,989.9330444335938,2.3003004025667906E-4,1.0004745854530483E-4,4.043606750201434E-4,-3.8007254600524902,17.654521942138672,-13.406412124633789,-0.08994925022125244,0.4191764295101166,0.03357219696044922,0.09391928,-0.14668515,9.768041,0
5,989.88232421875,7.624051067978144E-4,0.0014316686429083347,4.0425066254101694E-4,-4.023966312408447,17.392704010009766,-13.202722549438477,-0.10421216487884521,0.42173999547958374,0.014692306518554688,0.089166105,-0.16098553,9.77041,0
5,989.9254150390625,0.0011613656533882022,-5.656172288581729E-4,5.371886072680354E-4,-4.13356351852417,17.658302307128906,-12.354547500610352,-0.09373826533555984,0.42341431975364685,0.0289764404296875,0.09636247,-0.16336939,9.779881,0
5,989.9203491210938,3.6216131411492825E-4,3.665299736894667E-4,5.37078594788909E-4,-3.650425910949707,17.53125,-12.421564102172852,-0.10296235233545303,0.4071759879589081,0.024290084838867188,0.10116887,-0.14430389,9.770415,0
5,989.9203491210938,3.6216131411492825E-4,3.665299736894667E-4,5.37078594788909E-4,-3.650425910949707,17.53125,-12.421564102172852,-0.098107248544693,0.4106919467449188,0.04799461364746094,0.101195514,-0.14668775,9.760947,0
5,989.9280395507812,-3.0388496816158295E-4,4.997296491637826E-4,-6.614529993385077E-4,-3.305985927581787,16.695281982421875,-13.118581771850586,-0.09285279363393784,0.40838536620140076,0.062254905700683594,0.091662526,-0.1538383,9.751482,0
5,989.93310546875,-1.709837233647704E-4,3.666133270598948E-4,-2.6208904455415905E-4,-3.383760452270508,16.88589859008789,-13.194734573364258,-0.09733892977237701,0.41069960594177246,0.029176712036132812,0.09407908,-0.15145561,9.765687,0
5,989.9280395507812,7.606085855513811E-4,-2.990930515807122E-4,8.029545424506068E-4,-3.4009060859680176,17.34389877319336,-13.141908645629883,-0.08682596683502197,0.39329853653907776,0.029253005981445312,0.098885536,-0.14192319,9.775159,0
5,989.925537109375,4.940360086038709E-4,4.998963559046388E-4,-3.9557702257297933E-4,-3.7284979820251465,17.0897274017334,-12.922586441040039,-0.11058913171291351,0.39158791303634644,0.04349708557128906,0.10608184,-0.14192379,9.76806,0
5,989.925537109375,4.940360086038709E-4,4.998963559046388E-4,-3.9557702257297933E-4,-3.7284979820251465,17.0897274017334,-12.922586441040039,-0.0769447609782219,0.40000373125076294,0.052992820739746094,0.084599376,-0.15145764,9.756226,0
5,989.9030151367188,2.274633152410388E-4,7.662537973374128E-4,6.69576576910913E-4,-3.9236388206481934,17.012351989746094,-12.88798713684082,-0.11023415625095367,0.40733784437179565,0.04357719421386719,0.1061351,-0.15622479,9.756228,0
5,989.9308471679688,4.935226170346141E-4,2.3366371169686317E-4,4.0315065416507423E-4,-3.574580669403076,17.813371658325195,-13.065633773803711,-0.07995571941137314,0.40469372272491455,0.04837322235107422,0.08943242,-0.15384221,9.770434,0
5,989.9281005859375,0.0011590557405725121,-0.002029979368671775,4.0304067078977823E-4,-3.358704090118408,17.067394256591797,-13.209218978881836,-0.09413914382457733,0.4025447964668274,0.07682991027832031,0.10140854,-0.15145954,9.749131,0
5,989.946044921875,4.930092254653573E-4,1.0058912448585033E-4,4.029306583106518E-4,-3.3798747062683105,17.152690887451172,-12.826025009155273,-0.08898146450519562,0.3870551586151123,0.06738948822021484,0.09904528,-0.15146023,9.763337,0
5,989.9435424804688,-4.3935293797403574E-4,8.995784446597099E-4,2.6966267614625394E-4,-3.6678719520568848,17.357118606567383,-12.793603897094727,-0.08381820470094681,0.38534975051879883,0.02955341339111328,0.094292104,-0.14192769,9.772808,0
5,989.9183959960938,0.0010251278290525079,1.0067244875244796E-4,-3.962369810324162E-4,-3.5444154739379883,17.630996704101562,-13.213579177856445,-0.09329399466514587,0.37768155336380005,0.03908824920654297,0.096708626,-0.15146154,9.760975,0
5,989.9082641601562,9.276543278247118E-5,0.001032819738611579,5.357585614547133E-4,-3.5655856132507324,17.716291427612305,-12.830385208129883,-0.10239136219024658,0.38629287481307983,0.024906158447265625,0.111074686,-0.1538454,9.768079,0
5,989.9158935546875,0.001290930318646133,-3.240213845856488E-5,-3.964569477830082E-4,-3.339874744415283,17.1370849609375,-12.215398788452148,-0.0781502053141594,0.37968868017196655,0.039150238037109375,0.09676191,-0.1466963,9.765714,0
5,989.9259643554688,6.248839199542999E-4,2.3395541938953102E-4,-3.965670184697956E-4,-3.4312081336975098,17.42035675048828,-12.294885635375977,-0.09192746132612228,0.3809763193130493,0.03449249267578125,0.09439862,-0.15384671,9.76335,0
5,989.9082641601562,-5.73794124647975E-4,5.003129481337965E-4,-6.629929412156343E-4,-3.4046311378479004,17.603328704833984,-12.386674880981445,-0.0823836624622345,0.3893641233444214,0.05819225311279297,0.09203532,-0.15146413,9.760984,0
5,989.979248046875,-3.0773505568504333E-4,2.340387727599591E-4,4.02160658268258E-4,-3.484363079071045,17.05441665649414,-12.11131477355957,-0.07686242461204529,0.37244027853012085,0.053513526916503906,0.09684178,-0.14193162,9.75862,0
5,989.9412841796875,8.904298301786184E-4,-3.223551902920008E-5,2.576853148639202E-6,-3.485884189605713,17.05294418334961,-12.034006118774414,-0.08604982495307922,0.38924098014831543,0.05356311798095703,0.096868396,-0.16099858,9.772826,0
5,989.9464721679688,-4.414062714204192E-4,8.999117417261004E-4,-5.301650380715728E-4,-3.8530383110046387,17.55242919921875,-12.699518203735352,-0.093548983335495,0.3679760694503784,0.05375099182128906,0.10328847,-0.14429715,9.760921,0
6,989.9264526367188,4.904427332803607E-4,1.0100584768224508E-4,-3.97116964450106E-4,-3.840022563934326,17.828060150146484,-12.794633865356445,-0.09790277481079102,0.3612465560436249,0.04432964324951172,0.10488206,-0.14904422,9.756113,0
6,989.9111328125,-2.8333684895187616E-5,-5.643322947435081E-4,-6.549297831952572E-4,-3.4977850914001465,17.252994537353516,-12.813722610473633,-0.06887950003147125,0.3508884906768799,0.0538177490234375,0.085727334,-0.14189348,9.765578,0
6,989.90087890625,-2.7991191018372774E-5,1.014018343994394E-4,1.100669032894075E-5,-3.418489933013916,17.063854217529297,-12.814874649047852,-0.09699054807424545,0.366952508687973,0.04915332794189453,0.1000312,-0.16334218,9.765576,0
6,989.9514770507812,2.3866683477535844E-4,7.671359344385564E-4,-3.883203025907278E-4,-3.4515604972839355,17.349197387695312,-13.211397171020508,-0.07698912173509598,0.3600967228412628,0.04446887969970703,0.09282595,-0.14904162,9.775041,0
6,989.9442138671875,5.053254426456988E-4,-2.9818317852914333E-4,4.1077405330725014E-4,-3.465120792388916,17.441856384277344,-13.214731216430664,-0.07693839073181152,0.3592483401298523,0.035017967224121094,0.092790425,-0.15380728,9.767937,0
6,989.9061889648438,2.3969431640580297E-4,-3.197853220626712E-5,6.773835048079491E-4,-3.4003634452819824,16.97561264038086,-13.043458938598633,-0.08098255842924118,0.3562406599521637,0.02088451385498047,0.09036499,-0.13950676,9.770301,0
6,989.9061889648438,2.3969431640580297E-4,-3.197853220626712E-5,6.773835048079491E-4,-3.4003634452819824,16.97561264038086,-13.043458938598633,-0.0805494412779808,0.35503143072128296,0.04931640625,0.092719376,-0.14427242,9.758462,0
6,989.9239501953125,-6.920687737874687E-4,-4.3150794226676226E-4,-2.545753959566355E-4,-3.6026787757873535,17.62892723083496,-12.896539688110352,-0.07094975560903549,0.3581308126449585,0.025684356689453125,0.078344464,-0.15380469,9.767926,0
6,989.9365844726562,0.0010393268894404173,0.0011663318146020174,-3.875864204019308E-4,-3.6873812675476074,17.549800872802734,-13.186796188354492,-0.08484864234924316,0.33266782760620117,0.030455589294433594,0.09025842,-0.14665401,9.775025,0
6,989.9415893554688,5.725645460188389E-4,-1.3617909280583262E-4,-2.975662937387824E-6,-4.049703121185303,17.47357940673828,-12.587617874145508,-0.07940004020929337,0.34503909945487976,0.044701576232910156,0.090222895,-0.13711998,9.760819,0
6,989.9188232421875,-9.28825611481443E-5,-5.357085610739887E-4,-2.8289214242249727E-6,-3.458489418029785,17.079458236694336,-13.425500869750977,-0.06928995251655579,0.3621211051940918,0.03054046630859375,0.097357094,-0.16333517,9.772651,0
6,989.9417114257812,-2.2569789143744856E-4,1.3002566993236542E-4,6.63107552099973E-4,-3.121903896331787,17.236553192138672,-13.409578323364258,-0.08318789303302765,0.35007134079933167,0.0637359619140625,0.09493166,-0.15141794,9.756078,0
6,989.9596557617188,-0.0011574614327400923,-3.1879394555289764E-6,-2.535467501729727E-6,-3.2993555068969727,16.332887649536133,-13.329355239868164,-0.08741579949855804,0.3624498248100281,0.04957389831542969,0.09250623,-0.15856692,9.756074,0
6,989.9443359375,-4.90986742079258E-4,-6.690887967124581E-4,-1.3539983774535358E-4,-3.4576478004455566,17.343305587768555,-12.902177810668945,-0.06747607886791229,0.354695200920105,0.06383991241455078,0.08530098,-0.15618274,9.753705,0
6,989.9443359375,-4.90986742079258E-4,-6.690887967124581E-4,-1.3539983774535358E-4,-3.4576478004455566,17.343305587768555,-12.902177810668945,-0.07179846614599228,0.3346211314201355,0.04492378234863281,0.08526552,-0.149032,9.760802,0
6,989.9066772460938,-9.117032459471375E-5,-4.0282850386574864E-4,-8.010426536202431E-4,-3.4947409629821777,17.255939483642578,-12.968332290649414,-0.0524149127304554,0.35623377561569214,0.059172630310058594,0.08045012,-0.15856424,9.760799,0
6,989.8887939453125,-3.568012034520507E-4,-5.360976210795343E-4,-2.6811749557964504E-4,-4.125411510467529,17.29737663269043,-12.642618179321289,-0.07080250978469849,0.31976082921028137,0.04503345489501953,0.08519441,-0.13949716,9.765531,0
6,989.9697875976562,-6.227749399840832E-4,-3.521396592987003E-6,-2.6797063765116036E-4,-3.8001837730407715,17.286231994628906,-13.307962417602539,-0.05109706148505211,0.33200255036354065,0.05454254150390625,0.07798916,-0.14664611,9.756059,0
6,989.9697875976562,-6.227749399840832E-4,-3.521396592987003E-6,-2.6797063765116036E-4,-3.8001837730407715,17.286231994628906,-13.307962417602539,-0.07977240532636642,0.3357572555541992,0.04509544372558594,0.092293054,-0.14902851,9.758422,0
6,989.9244384765625,4.335735866334289E-5,6.622126675210893E-4,-5.341398064047098E-4,-3.244380474090576,17.332435607910156,-13.16535758972168,-0.06469546258449554,0.33835020661354065,0.030935287475585938,0.09225753,-0.16332737,9.767888,0
6,989.9192504882812,-6.220898358151317E-4,-0.001068896148353815,6.644284585490823E-4,-3.28408145904541,17.980178833007812,-13.351114273071289,-0.06366150081157684,0.3316846489906311,0.059378623962402344,0.092221975,-0.13949367,9.76315,0
6,989.945068359375,-8.911547774914652E-5,-0.001867899321950972,-1.3437247253023088E-4,-3.9709506034851074,17.652729034423828,-12.687215805053711,-0.05818600207567215,0.3297045826911926,0.06414985656738281,0.08023694,-0.13949278,9.753678,0
6,989.9398803710938,-4.882471403107047E-4,-1.3690181367564946E-4,-1.3422573101706803E-4,-3.866598606109619,17.64508628845215,-12.702852249145508,-0.062448181211948395,0.33242613077163696,0.045253753662109375,0.0849812,-0.14902505,9.765511,0
6,989.9320068359375,0.001109990756958723,2.6251646340824664E-4,-1.340789021924138E-4,-3.509823799133301,17.34712791442871,-12.894357681274414,-0.07642098516225815,0.3312673568725586,0.031072616577148438,0.09211537,-0.16094059,9.76314,0
6,989.95263671875,-2.2124605311546475E-4,-2.7017088723368943E-4,-7.742492016404867E-7,-3.576101779937744,17.81189727783203,-12.98832893371582,-0.0727345198392868,0.30557164549827576,0.054635047912597656,0.0936743,-0.14906242,9.760916,0
7,989.9397583007812,3.973497950937599E-5,-2.6930493186227977E-4,1.3009749818593264E-4,-3.507758140563965,16.980308532714844,-12.873212814331055,-0.0582132451236248,0.31323742866516113,0.049930572509765625,0.084142625,-0.14667979,9.758552,0
7,989.9300537109375,-1.0296261461917311E-4,5.31191355548799E-4,1.260090502910316E-4,-3.3072099685668945,17.325946807861328,-12.61640739440918,-0.06747481971979141,0.3161723017692566,0.0641622543334961,0.088950336,-0.1466805,9.751452,0
7,989.9529418945312,2.992663939949125E-5,-1.3967296581540722E-6,-6.730537861585617E-4,-3.1606569290161133,17.041797637939453,-12.699350357055664,-0.06677504628896713,0.30839210748672485,0.05000495910644531,0.096147954,-0.15383106,9.756189,0
7,989.945068359375,-6.361320847645402E-4,1.3180487439967692E-4,3.920944291166961E-4,-3.445610523223877,17.24917221069336,-12.821538925170898,-0.07626978307962418,0.31226301193237305,0.021612167358398438,0.09617585,-0.15144849,9.775129,0
7,989.9426879882812,-3.700853558257222E-4,-1.3093454072077293E-6,-5.401264643296599E-4,-3.723090648651123,17.357994079589844,-12.631181716918945,-0.06676927208900452,0.31525444984436035,0.06425094604492188,0.09142399,-0.14668253,9.758561,0
7,989.96533203125,-1.0403852502349764E-4,0.001197155681438744,2.5870586978271604E-4,-3.511345386505127,17.345653533935547,-12.817056655883789,-0.06148669123649597,0.30397099256515503,0.06427574157714844,0.09145188,-0.14429995,9.763299,0
7,989.9553833007812,-2.3746538499835879E-4,-8.001697715371847E-4,-6.735149072483182E-4,-3.7978196144104004,17.551551818847656,-12.861948013305664,-0.07061074674129486,0.32091233134269714,0.05483722686767578,0.08908984,-0.15383378,9.7562,0
7,989.9531860351562,-9.035238763317466E-4,-1.3433632557280362E-4,-2.7415636577643454E-4,-3.904672145843506,17.187957763671875,-12.59324836730957,-0.0511748306453228,0.3086288571357727,0.05014324188232422,0.089117765,-0.14906797,9.760936,0
7,989.9680786132812,-7.706350879743695E-4,3.983391507063061E-4,3.915179695468396E-4,-3.693904399871826,16.80585479736328,-12.603372573852539,-0.07474453747272491,0.293378084897995,0.03595256805419922,0.08914566,-0.14906853,9.768041,0
7,989.9451904296875,2.94359284453094E-4,-1.3424898497760296E-4,-1.412291021551937E-4,-3.525203227996826,16.806175231933594,-13.245256423950195,-0.055286817252635956,0.29136383533477783,0.04545021057128906,0.08678368,-0.14668599,9.775145,0
7,989.9527587890625,-0.0010374890407547355,-2.673632698133588E-4,1.249715278390795E-4,-3.7722220420837402,17.364757537841797,-12.777971267700195,-0.0640130490064621,0.28871530294418335,0.02654743194580078,0.084421694,-0.13477027,9.777514,0
7,989.9454345703125,-3.7196814082562923E-4,-4.0047752554528415E-4,-4.0777548565529287E-4,-4.179108142852783,17.299724578857422,-12.557504653930664,-0.05417841300368309,0.29253143072128296,0.050232887268066406,0.077279925,-0.14192083,9.758579,0
7,989.9785766601562,-3.722371766343713E-4,-5.335917812772095E-4,7.905306993052363E-4,-3.7456440925598145,17.5477294921875,-12.869760513305664,-0.06805633753538132,0.30975836515426636,0.03605365753173828,0.07969773,-0.15383789,9.76805,0
7,989.947998046875,-2.3934828641358763E-4,-5.335481837391853E-4,-4.0800616261549294E-4,-3.4612345695495605,17.708648681640625,-12.846017837524414,-0.06783220916986465,0.28414884209632874,0.04081153869628906,0.09645495,-0.14668867,9.765686,0
7,989.9251098632812,-1.0645949805621058E-4,2.654432028066367E-4,3.908263170160353E-4,-3.9719290733337402,17.28296661376953,-12.51146125793457,-0.07678649574518204,0.29656165838241577,0.05030345916748047,0.09887272,-0.14907268,9.760955,0
7,989.9178466796875,-7.725179893895984E-4,-7.99776753410697E-4,-1.419207255821675E-4,-3.2589197158813477,17.055334091186523,-12.99293327331543,-0.06184348464012146,0.2803989052772522,0.0645303726196289,0.098900616,-0.1347737,9.756223,0
7,989.9534912109375,-7.727869087830186E-4,-6.665750406682491E-4,3.905957273673266E-4,-3.3357138633728027,17.61570930480957,-13.244844436645508,-0.07079417258501053,0.2880410850048065,0.04088115692138672,0.09653863,-0.1514574,9.765694,0
7,989.9353637695312,-6.398981204256415E-4,-7.99689325504005E-4,-5.416250787675381E-4,-3.440065383911133,17.623353958129883,-13.229211807250977,-0.07975633442401886,0.29110974073410034,0.036167144775390625,0.08700693,-0.151458,9.751493,0
7,989.9610595703125,2.5622532120905817E-5,1.324598997598514E-4,1.2404931476339698E-4,-3.6963753700256348,17.646879196166992,-13.42204475402832,-0.07479545474052429,0.29888686537742615,0.045658111572265625,0.10137427,-0.16099182,9.770432,0
7,989.940673828125,-1.078042114386335E-4,2.6566151063889265E-4,-4.0869778604246676E-4,-3.4709630012512207,16.435535430908203,-13.231931686401367,-0.06022325158119202,0.2733505368232727,0.0362091064453125,0.09184259,-0.14430955,9.77517,0
7,989.9484252929688,-3.7438899744302034E-4,-6.107079570938367E-7,-2.756550966296345E-4,-3.4059081077575684,16.601428985595703,-12.63578987121582,-0.05486617237329483,0.28097647428512573,0.05990314483642578,0.08948061,-0.14907685,9.758602,0
7,989.9407348632812,-0.0011736057931557298,-6.663567619398236E-4,3.9001929690130055E-4,-3.4461522102355957,17.617460250854492,-12.919992446899414,-0.0641404390335083,0.29336997866630554,0.03625297546386719,0.0966782,-0.1490775,9.770441,0
7,989.966064453125,6.270402809605002E-4,2.0065969147253782E-4,3.3553014509379864E-4,-3.198591709136963,16.69058609008789,-13.288827896118164,-0.04959176480770111,0.29129117727279663,0.055214881896972656,0.094316185,-0.16576111,9.768076,0
7,989.966064453125,6.270402809605002E-4,2.0065969147253782E-4,3.3553014509379864E-4,-3.198591709136963,16.69058609008789,-13.288827896118164,-0.06398902088403702,0.2810109853744507,0.050487518310546875,0.10127801,-0.14907303,9.758589,0
7,989.9691162109375,3.6045556771568954E-4,9.996509179472923E-4,-1.9721683929674327E-4,-3.2492446899414062,16.695880889892578,-13.358316421508789,-0.05834334343671799,0.283963143825531,0.026880264282226562,0.08671641,-0.16098401,9.791709,0
8,989.9691162109375,-5.684841889888048E-4,-6.612650759052485E-5,7.045577513054013E-5,-3.697354793548584,17.277116775512695,-13.24629020690918,-0.048685524612665176,0.3012874722480774,0.0600433349609375,0.0891152,-0.15860096,9.758569,0
8,989.9362182617188,-3.011318913195282E-4,6.686315464321524E-5,0.00113616359885782,-3.5981125831604004,17.633344650268555,-13.128458023071289,-0.06729888916015625,0.2713146507740021,0.04585456848144531,0.08912408,-0.1347684,9.760937,0
8,989.953857421875,6.308881565928459E-4,-6.628090341109782E-5,-1.9545250688679516E-4,-3.482703685760498,17.161808013916016,-12.887693405151367,-0.06716862320899963,0.26984381675720215,0.045871734619140625,0.098692596,-0.15621814,9.765672,0
8,989.9335327148438,-3.4987140679731965E-5,8.658386068418622E-4,-3.286471182946116E-4,-3.7182259559631348,17.994548797607422,-12.438226699829102,-0.06719633936882019,0.27312028408050537,0.01748371124267578,0.09631154,-0.15383509,9.78461,0
8,989.9387817382812,-4.34632325777784E-4,5.995504907332361E-4,0.0012691747397184372,-3.6563754081726074,17.631275177001953,-12.811418533325195,-0.06741873174905777,0.27532774209976196,0.03645133972167969,0.091540635,-0.15383527,9.76094,0
8,989.9387817382812,-4.34632325777784E-4,5.995504907332361E-4,0.0012691747397184372,-3.8946986198425293,17.460643768310547,-12.533758163452148,-0.06685785949230194,0.264720618724823,0.036461830139160156,0.08915964,-0.14430234,9.756206,0
8,989.9083862304688,2.310720446985215E-4,6.693262548651546E-5,4.7019042540341616E-4,-3.3919119834899902,17.246822357177734,-12.906660079956055,-0.05720793083310127,0.26882821321487427,0.03173542022705078,0.09872806,-0.15383568,9.768043,0
8,989.961669921875,4.97302389703691E-4,3.3326237462460995E-4,-6.247794954106212E-5,-3.540966510772705,17.159738540649414,-12.570661544799805,-0.05629541352391243,0.25690150260925293,0.05069732666015625,0.09873697,-0.14906937,9.75384,0
8,989.9442138671875,2.3090068134479225E-4,-3.3251335844397545E-4,6.032750243321061E-4,-2.9814391136169434,16.94651222229004,-13.183294296264648,-0.07543046027421951,0.26588910818099976,0.04123401641845703,0.105915576,-0.15145287,9.7704115,0
8,989.9794311523438,2.3081511608324945E-4,-1.993415498873219E-4,2.0376447355374694E-4,-3.5006909370422363,17.355960845947266,-13.358194351196289,-0.07001172006130219,0.2729886472225189,0.02232074737548828,0.09158504,-0.1538364,9.768045,0
8,989.9213256835938,-4.350599192548543E-4,2.001461252802983E-4,6.032016826793551E-4,-3.4139246940612793,17.06827163696289,-13.046789169311523,-0.06496231257915497,0.25250375270843506,0.04600715637207031,0.09637371,-0.15621987,9.756209,0
8,989.9568481445312,-3.567201201803982E-5,4.6647596172988415E-4,7.05332204233855E-5,-3.8796162605285645,17.369455337524414,-12.607728958129883,-0.06484958529472351,0.24708566069602966,0.03181171417236328,0.098772526,-0.13953707,9.777514,0
8,989.9642944335938,2.3055842029862106E-4,-3.32457828335464E-4,3.3681237255223095E-4,-3.598548412322998,16.895294189453125,-12.854249954223633,-0.054871268570423126,0.27347373962402344,0.050769805908203125,0.09400156,-0.153837,9.770415,0
8,989.9672241210938,-3.584302612580359E-5,7.328196079470217E-4,4.6993367141112685E-4,-3.259760856628418,16.791486740112305,-13.516256332397461,-0.05447036027908325,0.23942478001117706,0.03657245635986328,0.09640035,-0.14192083,9.777516,0
8,989.9396362304688,2.3038717336021364E-4,-8.650616509839892E-4,-3.2905061380006373E-4,-3.435093402862549,17.153566360473633,-12.663599014282227,-0.06865160167217255,0.24657432734966278,0.017658233642578125,0.09401935,-0.14668763,9.784619,0
8,989.9495239257812,-4.354882112238556E-4,4.665314918383956E-4,2.035443321801722E-4,-3.280930995941162,16.876781463623047,-13.133066177368164,-0.044613536447286606,0.2451966553926468,0.050812721252441406,0.0844686,-0.14668787,9.756214,0
8,989.9468994140625,-3.0241560307331383E-4,2.0022952230647206E-4,-6.280813249759376E-5,-3.6832518577575684,16.816165924072266,-13.144506454467773,-0.05874932184815407,0.24914515018463135,0.03661632537841797,0.09164718,-0.1514546,9.76805,0
8,989.9443969726562,-3.6185403587296605E-5,5.997172556817532E-4,7.031316636130214E-5,-3.2607407569885254,16.421724319458008,-13.340497970581055,-0.05867648497223854,0.2338114082813263,0.0129547119140625,0.08687627,-0.14430493,9.768051,0
8,989.9647827148438,7.626765873283148E-4,5.997311091050506E-4,4.697502590715885E-4,-3.6924901008605957,17.913671493530273,-13.05333137512207,-0.06313376128673553,0.2561247646808624,0.041375160217285156,0.10361451,-0.15622157,9.777521,0
8,989.9345703125,-3.63565341103822E-5,-6.604463851545006E-5,-6.291820318438113E-5,-3.6322999000549316,17.443008422851562,-12.650148391723633,-0.0627320408821106,0.2500738501548767,0.041385650634765625,0.0940637,-0.14430541,9.775155,0
8,989.9570922851562,-3.6442099371924996E-5,-1.9918869656976312E-4,-6.295478669926524E-5,-3.734447956085205,17.189754486083984,-13.312444686889648,-0.038400422781705856,0.2489040344953537,0.05559730529785156,0.077343285,-0.1490722,9.760953,0
8,989.9924926757812,7.624198915436864E-4,-9.981225011870265E-4,-8.61939275637269E-4,-3.6127896308898926,17.250324249267578,-12.256956100463867,-0.04276164248585701,0.23799437284469604,0.036670684814453125,0.0869118,-0.15383902,9.76332,0
8,989.9320068359375,0.0010285647585988045,-4.6546291559934616E-4,-4.6253870823420584E-4,-3.4667792320251465,17.33446502685547,-12.438348770141602,-0.051798976957798004,0.2505507469177246,0.046154022216796875,0.091700435,-0.1538392,9.760954,0
8,989.9320068359375,0.0010285647585988045,-4.6546291559934616E-4,-4.6253870823420584E-4,-3.4667792320251465,17.33446502685547,-12.438348770141602,-0.04640183970332146,0.2548466920852661,0.022515296936035156,0.0913614,-0.15859744,9.775126,0
9,989.9878540039062,4.962621023878455E-4,-6.604257214348763E-5,7.023423677310348E-5,-3.338352680206299,17.138559341430664,-12.292703628540039,-0.055917125195264816,0.25325071811676025,0.05567169189453125,0.093746245,-0.15621403,9.765656,0
9,989.9848022460938,-4.3294861097820103E-4,3.3296129549853504E-4,-4.611568583641201E-4,-3.5297694206237793,16.801755905151367,-13.013345718383789,-0.05551474168896675,0.24222338199615479,0.055685997009277344,0.09613109,-0.14429751,9.756188,0
9,989.9447631835938,-3.342566196806729E-5,6.663748354185373E-5,7.372855907306075E-4,-3.4948792457580566,17.150020599365234,-12.269258499145508,-0.06484450399875641,0.2457418441772461,0.046227455139160156,0.09612602,-0.15621376,9.751452,0
9,989.94482421875,0.0014314093859866261,4.660954582504928E-4,-6.16201723460108E-5,-3.9167094230651855,17.28209114074707,-12.673891067504883,-0.059664513915777206,0.22525203227996826,0.05097389221191406,0.10807043,-0.13953069,9.760921,0
9,989.94482421875,0.0014314093859866261,4.660954582504928E-4,-6.16201723460108E-5,-3.9167094230651855,17.28209114074707,-12.673891067504883,-0.04499439895153046,0.21034952998161316,0.04624462127685547,0.09611589,-0.13476402,9.777492,0
9,989.9524536132812,-2.9959497624076903E-4,-8.654919220134616E-4,7.155872299335897E-5,-3.7405362129211426,17.18385887145996,-13.00322151184082,-0.05888231471180916,0.22365781664848328,0.060455322265625,0.09611079,-0.14906356,9.763287,0
9,989.9552001953125,7.65717588365078E-4,-1.9971014990005642E-4,0.0012700011720880866,-3.5309934616088867,17.43242073059082,-12.511171340942383,-0.05408165231347084,0.23652246594429016,0.04152965545654297,0.096105695,-0.14906344,9.768022,0
9,989.9804077148438,-2.994970709551126E-4,8.655455312691629E-4,-4.6103112981654704E-4,-3.524362087249756,17.070022583007812,-12.721940994262695,-0.05780922621488571,0.24004705250263214,0.027334213256835938,0.09610063,-0.15621316,9.77749,0
9,989.9423828125,-1.6624134150333703E-4,4.660557024180889E-4,-1.946733391378075E-4,-3.681431293487549,17.44977569580078,-12.796937942504883,-0.06725472211837769,0.22351525723934174,0.04155540466308594,0.09609556,-0.15144649,9.772755,0
9,989.9423828125,-1.6624134150333703E-4,4.660557024180889E-4,-1.946733391378075E-4,-3.681431293487549,17.44977569580078,-12.796937942504883,-0.04816790297627449,0.24674782156944275,0.046296119689941406,0.09131074,-0.16336277,9.760919,0
9,989.9501953125,-4.8198155127465725E-5,7.9163204645738E-5,-3.079409070778638E-4,-2.9648351669311523,16.856800079345703,-13.334573745727539,-0.05705129727721214,0.2213052213191986,0.03683662414550781,0.09130561,-0.14191312,9.76802,0
9,989.9501953125,-4.8198155127465725E-5,7.9163204645738E-5,-3.079409070778638E-4,-2.9648351669311523,16.856800079345703,-13.334573745727539,-0.04771428182721138,0.24451494216918945,0.041579246520996094,0.08891058,-0.15859595,9.763285,0
9,989.9580688476562,6.176403257995844E-4,2.123132289852947E-4,-4.410778929013759E-4,-3.406015396118164,17.707773208618164,-13.008447647094727,-0.07554019242525101,0.2334383726119995,0.03685283660888672,0.10085505,-0.15621257,9.765653,0
9,989.9805297851562,-1.8120952881872654E-4,-8.529660990461707E-4,3.579117183107883E-4,-3.313565731048584,17.90018081665039,-13.803789138793945,-0.05085817724466324,0.2313944548368454,0.05106925964355469,0.0960702,-0.14906254,9.768018,0
9,989.9805297851562,-1.8120952881872654E-4,-8.529660990461707E-4,3.579117183107883E-4,-3.339193820953369,16.874711990356445,-12.81602668762207,-0.04598655179142952,0.2213035225868225,0.03687000274658203,0.09128532,-0.15144572,9.779855,0
9,989.9429321289062,-4.474762827157974E-4,-5.402645911090076E-5,9.161682100966573E-5,-3.8864073753356934,17.20563507080078,-13.520910263061523,-0.05982618033885956,0.22433826327323914,0.046352386474609375,0.10561964,-0.15621215,9.775119,0
9,989.9428100585938,-7.137435022741556E-4,-4.535081679932773E-4,-4.1520193917676806E-5,-3.5047144889831543,16.983253479003906,-13.027826309204102,-0.04024113342165947,0.21300965547561646,0.055830955505371094,0.08649537,-0.15621203,9.763283,0
9,989.9428100585938,-4.7904904931783676E-5,3.45431559253484E-4,-4.4097306090407073E-4,-3.9366564750671387,16.736722946166992,-12.792871475219727,-0.04943365231156349,0.21707093715667725,0.03689765930175781,0.09127012,-0.15382865,9.763282,0
9,989.975830078125,8.530204650014639E-5,-8.529979386366904E-4,6.24311447609216E-4,-3.821897029876709,17.739816665649414,-13.023218154907227,-0.049262333661317825,0.22451066970825195,0.04638195037841797,0.100824594,-0.1562118,9.775117,0
9,989.9555053710938,-4.78068832308054E-5,8.780473726801574E-4,-4.1457300540059805E-5,-3.730562686920166,17.45654296875,-12.943731307983398,-0.039627544581890106,0.2144901305437088,0.0653219223022461,0.081700325,-0.14667857,9.765649,0
9,989.9630737304688,-3.1407398637384176E-4,-1.8722408276516944E-4,7.575112977065146E-4,-3.616239070892334,17.721586227416992,-12.899873733520508,-0.039390042424201965,0.2132594734430313,0.03692340850830078,0.086475074,-0.14429516,9.77275,0
9,989.9354248046875,-1.8086715135723352E-4,3.4539971966296434E-4,-4.141539102420211E-5,-3.581944465637207,16.805578231811523,-13.005525588989258,-0.04876481741666794,0.21178452670574188,0.046402931213378906,0.08647001,-0.14429504,9.763279,0
9,989.958251953125,-4.4713413808494806E-4,-1.8723997345659882E-4,-4.408682289067656E-4,-3.901628017425537,17.190906524658203,-12.747858047485352,-0.06259019672870636,0.20577622950077057,0.032204627990722656,0.09841445,-0.15144476,9.76328,0
9,989.94580078125,2.187045756727457E-4,-3.2040587393566966E-4,-4.137348150834441E-5,-3.6428160667419434,17.538616180419922,-12.808088302612305,-0.04319356009364128,0.20015330612659454,0.0511474609375,0.086459845,-0.146678,9.760911,0
9,989.9608154296875,7.513851160183549E-4,-5.4097865358926356E-5,0.0010239110561087728,-3.8675780296325684,17.27532386779785,-12.527093887329102,-0.04396028444170952,0.2180383950471878,0.06525802612304688,0.09232697,-0.1562379,9.768113,0
10,989.98095703125,-4.503232194110751E-4,-4.547014832496643E-4,-5.779950297437608E-4,-3.624690055847168,17.450374603271484,-13.03666877746582,-0.06250396370887756,0.21135470271110535,0.03685474395751953,0.09953472,-0.14908895,9.763383,0
10,989.96826171875,-1.8944393377751112E-4,7.881276542320848E-5,-1.808510278351605E-4,-3.3973193168640137,16.978557586669922,-13.198068618774414,-0.057357046753168106,0.22033190727233887,0.02265167236328125,0.09001315,-0.1538564,9.770488,0
10,989.9660034179688,3.428213531151414E-4,-0.0011195492697879672,-1.8100810120813549E-4,-3.692084789276123,17.439464569091797,-12.255800247192383,-0.05670500546693802,0.20009148120880127,0.055792808532714844,0.099610806,-0.1586239,9.761022,0
10,989.9610595703125,3.424547612667084E-4,-8.53173725772649E-4,-4.4748111395165324E-4,-3.1530470848083496,17.049163818359375,-13.085870742797852,-0.03714246302843094,0.19335511326789856,0.051062583923339844,0.08769941,-0.15385827,9.7681265,0
10,989.9560546875,-3.2370188273489475E-4,7.899139018263668E-5,4.844671639148146E-4,-3.3315844535827637,16.882076263427734,-13.202554702758789,-0.050888095051050186,0.21113115549087524,0.02265644073486328,0.09012729,-0.14909267,9.770497,0
10,989.950927734375,-5.903845885768533E-4,-9.862125152722E-4,7.506258552893996E-4,-3.45308256149292,17.34772491455078,-13.134092330932617,-0.04566699266433716,0.20605963468551636,0.041591644287109375,0.09972495,-0.14432707,9.772868,0
10,989.9662475585938,6.076704012230039E-4,-0.001785100670531392,2.1783701959066093E-4,-3.59506893157959,17.63629150390625,-13.28306770324707,-0.05466286092996597,0.19049188494682312,0.04632759094238281,0.099762976,-0.144328,9.753934,0
10,989.9611206054688,-3.2480177469551563E-4,-1.8714602629188448E-4,7.503117085434496E-4,-3.60341215133667,16.25873565673828,-13.047204971313477,-0.07356469333171844,0.1939966231584549,0.03685951232910156,0.109360665,-0.1514788,9.765774,0
10,989.9589233398438,-1.920107752084732E-4,2.1238740009721369E-4,3.506805223878473E-4,-3.4922404289245605,17.627174377441406,-13.221395492553711,-0.039880797266960144,0.21188659965991974,0.036861419677734375,0.0926694,-0.1490964,9.768144,0
10,989.963623046875,-1.9237759988754988E-4,7.92890350567177E-5,-4.895043093711138E-5,-3.68751859664917,17.443885803222656,-12.48771858215332,-0.03992009907960892,0.2246197760105133,0.06527137756347656,0.0950973,-0.16339698,9.763413,0
10,989.9412231445312,3.395210951566696E-4,3.4572399454191327E-4,-4.926469409838319E-5,-3.769857883453369,17.63007926940918,-12.33195686340332,-0.04460783302783966,0.18966247141361237,0.04160308837890625,0.09274548,-0.14909825,9.761049,0
10,989.9412231445312,3.395210951566696E-4,3.4572399454191327E-4,-4.926469409838319E-5,-3.769857883453369,17.63007926940918,-12.33195686340332,-0.025582678616046906,0.1939452439546585,0.05580711364746094,0.08083406,-0.1490992,9.751584,0
10,989.9412231445312,7.283804006874561E-5,0.0010115732438862324,8.37359984871E-5,-3.374764919281006,16.788818359375,-12.959489822387695,-0.04941508173942566,0.20664633810520172,0.03213787078857422,0.10477111,-0.15386671,9.772893,0
10,989.9490966796875,-1.942111412063241E-4,7.958667993079871E-5,-5.823678220622241E-4,-3.379438877105713,17.890745162963867,-13.100229263305664,-0.04859751835465431,0.21434232592582703,0.046339988708496094,0.09524953,-0.15386763,9.77053,0
10,989.9666748046875,-3.277355572208762E-4,-4.529855796135962E-4,-4.493671585805714E-4,-3.1415514945983887,17.323318481445312,-13.10368537902832,-0.04854902997612953,0.1989905834197998,0.046339988708496094,0.090507805,-0.15625188,9.758697,0
10,989.966552734375,-6.178684998303652E-5,-4.529259749688208E-4,6.157391471788287E-4,-3.6087660789489746,17.62303352355957,-12.587324142456055,-0.04336177185177803,0.19318975508213043,0.04633903503417969,0.09771556,-0.15386954,9.753966,0
10,989.9617919921875,4.7047832049429417E-4,7.976529013831168E-5,2.1610810654237866E-4,-3.800863742828369,17.54860496520996,-12.707330703735352,-0.033930424600839615,0.1827383041381836,0.03213691711425781,0.08819398,-0.14433727,9.780008,0
10,989.9617919921875,4.7047832049429417E-4,7.976529013831168E-5,2.1610810654237866E-4,-3.800863742828369,17.54860496520996,-12.707330703735352,-0.04332202300429344,0.18693555891513824,0.027402877807617188,0.083452225,-0.15387133,9.768175,0
10,989.9262084960938,8.692190749570727E-4,-4.527474520727992E-4,-5.0521979574114084E-5,-3.67838716506958,17.452722549438477,-12.95155143737793,-0.06627939641475677,0.19512054324150085,0.036865234375,0.10977918,-0.15148899,9.765813,0
10,989.9262084960938,8.692190749570727E-4,-4.527474520727992E-4,-5.0521979574114084E-5,-3.67838716506958,17.452722549438477,-12.95155143737793,-0.03755369409918785,0.18993285298347473,0.06053733825683594,0.09786773,-0.15625653,9.763448,0
10,989.9517822265625,3.362206043675542E-4,-0.001384793664328754,-5.0679052947089076E-5,-3.252969264984131,16.955307006835938,-12.603078842163086,-0.031916238367557526,0.20338314771652222,0.04632854461669922,0.08834618,-0.15864074,9.77292,0
10,989.9823608398438,2.0232901442795992E-4,-4.525688127614558E-4,6.147961830720305E-4,-3.5498228073120117,17.36273193359375,-13.504983901977539,-0.03154804930090904,0.19233746826648712,0.060530662536621094,0.0859943,-0.16102496,9.765822,0
10,989.9823608398438,2.0232901442795992E-4,-4.525688127614558E-4,6.147961830720305E-4,-3.8645339012145996,17.278270721435547,-12.681703567504883,-0.041112348437309265,0.18655210733413696,0.06526470184326172,0.10037178,-0.14910951,9.753989,0
10,989.9569091796875,4.682784201577306E-4,2.1328040747903287E-4,4.8148114001378417E-4,-3.6900200843811035,17.072649002075195,-12.234659194946289,-0.04495659098029137,0.18499106168746948,0.032184600830078125,0.095297396,-0.15148556,9.768167,0
11,989.9617919921875,-8.347578113898635E-4,3.4131068969145417E-4,-6.251992308534682E-4,-3.536400318145752,17.16415786743164,-12.802576065063477,-0.04000124707818031,0.19393986463546753,0.0274505615234375,0.092593074,-0.15147778,9.775239,0
11,989.95947265625,2.379142097197473E-4,-6.143766222521663E-5,4.203306161798537E-5,-3.152503490447998,16.680871963500977,-12.987421035766602,-0.025793105363845825,0.16483837366104126,0.06532669067382812,0.09021461,-0.13956168,9.756303,0
11,989.9446411132812,1.0464625665917993E-4,8.706857333891094E-4,3.0830176547169685E-4,-3.4039502143859863,17.34095573425293,-12.987298965454102,-0.030236709862947464,0.18709313869476318,0.05586051940917969,0.09739578,-0.15862823,9.770507,0
11,989.9496459960938,5.040100659243762E-4,7.175598875619471E-5,-4.906930844299495E-4,-3.670915126800537,17.354171752929688,-12.638994216918945,-0.025483548641204834,0.18653036653995514,0.027454376220703125,0.083067745,-0.15147862,9.770508,0
11,989.9293212890625,-4.282056470401585E-4,7.177382940426469E-5,-3.575822920538485E-4,-3.5860748291015625,17.53921127319336,-13.047822952270508,-0.05380166694521904,0.1800314486026764,0.05112934112548828,0.099808514,-0.15147898,9.753938,0
11,989.9749145507812,-5.614737165160477E-4,-1.9452418200671673E-4,-2.2447152878157794E-4,-3.4817233085632324,17.531570434570312,-13.063451766967773,-0.02520354837179184,0.16982397437095642,0.041660308837890625,0.092650205,-0.14909592,9.768144,0
11,989.96240234375,-2.952677314169705E-4,7.180962711572647E-5,-4.908345872536302E-4,-3.692383289337158,16.807329177856445,-12.680673599243164,-0.04404404014348984,0.19262704253196716,0.022724151611328125,0.10222122,-0.15624604,9.777613,0
11,989.9470825195312,1.04095961432904E-4,2.049854228971526E-4,3.080659662373364E-4,-3.629255771636963,17.44595718383789,-12.804754257202148,-0.048585500568151474,0.17282986640930176,0.03692626953125,0.09984273,-0.1538631,9.761043,0
11,989.9317626953125,6.366175948642194E-4,3.381612477824092E-4,-9.14550619199872E-5,-3.561455249786377,16.98265838623047,-12.788091659545898,-0.03389104828238487,0.19008858501911163,0.05586528778076172,0.095074356,-0.16339645,9.758677,0
11,989.9495239257812,-4.287558258511126E-4,-6.129476241767406E-5,4.1655730456113815E-5,-3.5914816856384277,17.270946502685547,-13.339227676391602,-0.04787804186344147,0.17505912482738495,0.05112934112548828,0.09747565,-0.14909706,9.7657795,0
11,989.9374389648438,5.032396293245256E-4,-0.0011265403591096401,-0.0010236549424007535,-3.6399102210998535,17.435646057128906,-12.263620376586914,-0.033611927181482315,0.16458693146705627,0.013256072998046875,0.08792746,-0.14909735,9.777617,0
11,989.9774169921875,-1.6266020247712731E-4,6.045306799933314E-4,4.156140494160354E-5,-3.3366928100585938,17.245946884155273,-13.069089889526367,-0.033763084560632706,0.16377271711826324,0.036930084228515625,0.09271872,-0.1467143,9.770516,0
11,989.9473266601562,1.0354578262194991E-4,0.0012703381944447756,7.073039887472987E-4,-3.421396255493164,17.16682243347168,-13.359342575073242,-0.038267817348241806,0.1725708544254303,0.046398162841796875,0.09034023,-0.1467146,9.763415,0
11,989.960205078125,-1.6288022743538022E-4,-3.2753910636529326E-4,-6.243226816877723E-4,-3.4767532348632812,17.061782836914062,-12.497842788696289,-0.028283294290304184,0.17094150185585022,0.06060028076171875,0.09513146,-0.14909819,9.758681,0
11,989.9501342773438,-2.9614841332659125E-4,-6.120535545051098E-5,-4.912118893116713E-4,-3.8439078330993652,17.561267852783203,-13.163347244262695,-0.009289618581533432,0.1753348708152771,0.046398162841796875,0.08797318,-0.14909843,9.76105,0
11,989.9374389648438,1.032155123539269E-4,-3.275033668614924E-4,-9.178521577268839E-5,-3.69401216506958,17.912200927734375,-12.976030349731445,-0.02768906205892563,0.19850364327430725,0.04639434814453125,0.08798456,-0.16101518,9.763419,0
11,989.9323120117188,7.688952027820051E-4,-7.269593188539147E-4,-9.183233487419784E-5,-3.654311180114746,17.26445770263672,-12.790277481079102,-0.03724704310297966,0.163831427693367,0.05112934112548828,0.09516567,-0.15863213,9.758685,0
11,989.9551391601562,3.6920123966410756E-4,7.378137088380754E-4,-9.192674770019948E-5,-3.401885986328125,16.974138259887695,-12.966154098510742,-0.0323907732963562,0.16734284162521362,0.05586433410644531,0.095177114,-0.14909926,9.768155,0
11,989.9551391601562,3.6920123966410756E-4,7.378137088380754E-4,-9.192674770019948E-5,-3.401885986328125,16.974138259887695,-12.966154098510742,-0.051567744463682175,0.14798106253147125,0.046395301818847656,0.10474813,-0.14671633,9.765788,0
11,989.9348754882812,2.3593317018821836E-4,7.204190478660166E-5,-9.19738959055394E-5,-3.6036572456359863,17.25916290283203,-12.720785140991211,-0.03222225606441498,0.1802646666765213,0.06533050537109375,0.092810035,-0.15863296,9.751588,0
11,989.9703369140625,-1.636507804505527E-4,-3.2741407630965114E-4,1.7429483705200255E-4,-3.3707427978515625,17.161529541015625,-13.289857864379883,-0.022532135248184204,0.16015224158763885,0.0558624267578125,0.09282148,-0.15148342,9.770526,0
11,989.9703369140625,-2.9691861709579825E-4,3.3839346724562347E-4,-4.915421013720334E-4,-3.2609848976135254,17.422149658203125,-13.014078140258789,-0.041810933500528336,0.17341268062591553,0.032192230224609375,0.09283286,-0.14671716,9.768159,0
11,989.9679565429688,1.0244495933875442E-4,0.001137358951382339,-7.57905188947916E-4,-3.390390396118164,17.248294830322266,-12.983964920043945,-0.037256307899951935,0.15353704988956451,0.036927223205566406,0.095234185,-0.1467174,9.768161,0
11,989.9500732421875,2.354928874410689E-4,0.0012705348199233413,1.74153276020661E-4,-3.505258083343506,17.351547241210938,-13.126276016235352,-0.0466155931353569,0.16218584775924683,0.032192230224609375,0.100025415,-0.14910099,9.775263,0
11,989.947998046875,-2.9724888736382127E-4,-6.102668703533709E-5,-6.24841486569494E-4,-3.7145018577575684,17.735122680664062,-13.193460464477539,-0.031983714550733566,0.14678233861923218,0.06064605712890625,0.097136825,-0.14193884,9.763381,0
12,989.942626953125,-4.287005285732448E-4,7.376439170911908E-4,5.743111250922084E-4,-3.594663619995117,17.16208267211914,-12.485536575317383,-0.03188468888401985,0.1651865839958191,0.055912017822265625,0.094738066,-0.1514718,9.758646,0
12,989.9329223632812,5.064565339125693E-4,3.3767474815249443E-4,1.7614514217711985E-4,-3.5197949409484863,17.074440002441406,-12.953851699829102,-0.04609891399741173,0.16912218928337097,0.04170989990234375,0.09233928,-0.1538549,9.758645,0
12,989.9429321289062,2.4022621801123023E-4,7.37134600058198E-4,4.302395973354578E-5,-3.332127571105957,17.2503662109375,-13.301004409790039,-0.032099559903144836,0.15388059616088867,0.03697967529296875,0.092330396,-0.14908811,9.763379,0
12,989.9329223632812,2.4031201610341668E-4,0.0010034367442131042,-7.558871293440461E-4,-3.568086624145508,17.34505844116211,-12.577325820922852,-0.02704915776848793,0.15805234014987946,0.04644775390625,0.09471142,-0.14908788,9.763377,0
12,989.9735107421875,1.0732508962973952E-4,2.0446120470296592E-4,1.7629191279411316E-4,-3.5193610191345215,17.8124942779541,-13.228059768676758,-0.0409061498939991,0.1474638730287552,0.027509689331054688,0.092312634,-0.14193779,9.768111,0
12,989.9735107421875,1.0732508962973952E-4,2.0446120470296592E-4,1.7629191279411316E-4,-3.5193610191345215,17.8124942779541,-13.228059768676758,-0.007726520299911499,0.16127152740955353,0.04644966125488281,0.077964306,-0.15147069,9.775212,0
12,989.932861328125,-1.588195445947349E-4,0.0020686443895101547,-8.995065581984818E-5,-3.598548412322998,16.895292282104492,-12.854249954223633,-0.03691747039556503,0.1507605016231537,0.04171943664550781,0.099464566,-0.15147051,9.76811,0
12,989.9356079101562,0.0010396873112767935,-4.6137021854519844E-4,-7.557036587968469E-4,-3.7314038276672363,17.192699432373047,-13.46705436706543,-0.02209293097257614,0.14518499374389648,0.05592155456542969,0.09228599,-0.14432046,9.768109,0
12,989.9356079101562,0.0010396873112767935,-4.6137021854519844E-4,-7.557036587968469E-4,-3.6371636390686035,16.806453704833984,-12.843103408813477,-0.04097168147563934,0.15424613654613495,0.03224945068359375,0.1066165,-0.15385339,9.777576,0
12,989.95068359375,-1.586484140716493E-4,-3.282261313870549E-4,-8.98772559594363E-5,-3.6587390899658203,17.365955352783203,-13.257440567016602,-0.02647067978978157,0.158205047249794,0.04645252227783203,0.097048044,-0.15385315,9.768107,0
12,989.932861328125,3.740689135156572E-4,-6.192416185513139E-5,4.3317326344549656E-5,-3.350253105163574,17.338607788085938,-13.072420120239258,-0.03108937293291092,0.14257243275642395,0.06065559387207031,0.0898695,-0.13955322,9.751536,0
12,989.9683837890625,-5.579512217082083E-4,-1.9509595585986972E-4,-8.980394341051579E-5,-3.1295132637023926,17.22918701171875,-13.023050308227539,-0.04522866755723953,0.16088134050369263,0.051184654235839844,0.094640374,-0.14908609,9.758637,0
12,989.93603515625,-4.247075994499028E-4,6.038377759978175E-4,-3.5608309553936124E-4,-3.260984420776367,17.422149658203125,-13.014078140258789,-0.04972481355071068,0.1455969363451004,0.03224754333496094,0.09941131,-0.14431933,9.770472,0
12,989.9456787109375,-4.5365048572421074E-4,9.305522689828649E-5,-3.1759735429659486E-4,-3.2535128593444824,17.32360076904297,-12.70152473449707,-0.03527703136205673,0.14946375787258148,0.027513504028320312,0.10418224,-0.14431918,9.777574,0
12,989.966064453125,-5.4091098718345165E-5,-4.0116596210282296E-5,-8.501926786266267E-4,-3.289625644683838,17.605995178222656,-12.943437576293945,-0.044230613857507706,0.15334616601467133,0.03697776794433594,0.09461373,-0.15385208,9.76337,0
12,989.930908203125,4.7862634528428316E-4,-1.7328845569863915E-4,3.482656611595303E-4,-3.6322999000549316,17.443008422851562,-12.650144577026367,-0.04395456984639168,0.1383253037929535,0.03224468231201172,0.09460485,-0.1443187,9.765735,0
12,989.9537963867188,-1.8707779236137867E-4,-7.059341878630221E-4,-5.117148975841701E-5,-3.514251708984375,17.448623657226562,-13.361520767211914,-0.04397488012909889,0.15674611926078796,0.051181793212890625,0.099375784,-0.165768,9.753899,0
12,989.9462280273438,3.45639418810606E-4,4.924734821543097E-4,6.146548548713326E-4,-3.6226248741149902,17.08355712890625,-13.015523910522461,-0.03890612721443176,0.14656277000904083,0.04644775390625,0.0898073,-0.15861791,9.760999,0
12,989.9386596679688,7.451989222317934E-4,-3.064880729652941E-4,8.205979247577488E-5,-3.461533546447754,17.07651138305664,-13.270891189575195,-0.03378799557685852,0.1504729688167572,0.04170989990234375,0.09935799,-0.15146783,9.765733,0
12,989.9385375976562,-1.8682109657675028E-4,-3.0650192638859153E-4,-5.1061419071629643E-5,-3.0888333320617676,16.951210021972656,-13.01304817199707,-0.024273686110973358,0.14925187826156616,0.05591297149658203,0.08500975,-0.15146771,9.760998,0
12,989.9462280273438,-9.85683174803853E-4,6.255898042581975E-4,-3.173407167196274E-4,-3.493218421936035,17.25741195678711,-13.045637130737305,-0.014259319752454758,0.13900715112686157,0.05117607116699219,0.082610965,-0.14670092,9.763364,0
12,989.938720703125,2.1282373927533627E-4,-8.391615119762719E-4,4.816436266992241E-4,-3.6648268699645996,17.360061645507812,-12.948213577270508,-0.01845404878258705,0.14342118799686432,0.04644012451171875,0.08499196,-0.15146723,9.758629,0
12,989.94873046875,0.0014113311190158129,-9.72333422396332E-4,7.479962659999728E-4,-3.2709579467773438,17.14946746826172,-13.073572158813477,-0.02788097783923149,0.1379881203174591,0.04170417785644531,0.08498311,-0.14431718,9.760995,0
12,989.928466796875,4.7939654905349016E-4,-1.7341348575428128E-4,7.480695494450629E-4,-3.3671560287475586,16.796184539794922,-13.346014022827148,-0.03802481293678284,0.1274319589138031,0.0416412353515625,0.09248972,-0.14194211,9.763393,0
12,989.928466796875,-3.2450235448777676E-4,8.926538866944611E-4,-3.19315935485065E-4,-3.233184337615967,16.97446060180664,-13.608041763305664,-0.05214814841747284,0.15040861070156097,0.022698402404785156,0.10957682,-0.15625057,9.772895,0
13,989.928466796875,-3.2450235448777676E-4,8.926538866944611E-4,-3.19315935485065E-4,-3.233184337615967,16.97446060180664,-13.608041763305664,-0.03277627006173134,0.14054164290428162,0.06057167053222656,0.09286654,-0.15625104,9.763428,0
13,989.966552734375,-1.9317306578159332E-4,-7.049447158351541E-4,-3.200996434316039E-4,-3.506779193878174,17.350072860717773,-13.048971176147461,-0.03292208909988403,0.14909274876117706,0.04163169860839844,0.09766543,-0.15386826,9.756329,0
13,989.94873046875,-6.038218270987272E-5,2.2722053108736873E-4,4.7869066474959254E-4,-3.199814796447754,17.321250915527344,-12.786649703979492,-0.03735581785440445,0.1286415457725525,0.06056404113769531,0.10485411,-0.13956901,9.763431,0
13,989.94873046875,-6.038218270987272E-5,2.2722053108736873E-4,4.7869066474959254E-4,-3.199814796447754,17.321250915527344,-12.786649703979492,-0.046888403594493866,0.12353470176458359,0.05582714080810547,0.112042844,-0.14910263,9.756331,0
13,989.9566040039062,-4.600393585860729E-4,2.2725036251358688E-4,7.449280237779021E-4,-3.4962635040283203,17.254467010498047,-12.891031265258789,-0.022830955684185028,0.15611514449119568,0.07002544403076172,0.09055275,-0.1634028,9.768168,0
13,989.9209594726562,4.7169963363558054E-4,-7.047957624308765E-4,2.1213910076767206E-4,-3.9472784996032715,17.93867301940918,-13.32347297668457,-0.022613339126110077,0.14082172513008118,0.055816650390625,0.085792005,-0.15387014,9.763436,0
13,989.9209594726562,4.7169963363558054E-4,-7.047957624308765E-4,2.1213910076767206E-4,-3.9472784996032715,17.93867301940918,-13.32347297668457,-0.041455887258052826,0.14032921195030212,0.03687477111816406,0.100150436,-0.15387061,9.765806,0
13,989.93115234375,-6.111571565270424E-5,3.604975645430386E-4,-5.4255506256595254E-5,-3.5172953605651855,17.445676803588867,-13.206914901733398,-0.0415133535861969,0.12557846307754517,0.02740478515625,0.09777957,-0.14195469,9.770542,0
13,989.9190063476562,6.044905167073011E-4,4.936853074468672E-4,7.882382487878203E-5,-3.7802367210388184,17.831600189208984,-13.18897819519043,-0.02680928260087967,0.12019047886133194,0.046337127685546875,0.09301877,-0.14433846,9.770543,0
13,989.94189453125,3.3799116499722004E-4,-7.047063554637134E-4,-5.4412666941061616E-5,-3.811678409576416,17.012073516845703,-13.29014778137207,-0.02172047644853592,0.12472447007894516,0.04159832000732422,0.09542769,-0.14910549,9.768178,0
13,989.9290161132812,8.704395731911063E-4,-4.383607301861048E-4,2.1182469208724797E-4,-3.8905692100524902,16.727008819580078,-12.491464614868164,-0.031129315495491028,0.12378928065299988,0.0605316162109375,0.09783661,-0.14433941,9.761078,0
13,989.9620971679688,7.369146915152669E-4,3.6064645973965526E-4,7.85094453021884E-5,-3.9136672019958496,17.285037994384766,-12.828496932983398,-0.01184166967868805,0.13740062713623047,0.05579090118408203,0.08590618,-0.1657894,9.76108,0
13,989.9620971679688,7.369146915152669E-4,3.6064645973965526E-4,7.85094453021884E-5,-3.9136672019958496,17.285037994384766,-12.828496932983398,-0.03066255897283554,0.13205912709236145,0.01791095733642578,0.08831507,-0.15387341,9.777652,0
13,989.9244384765625,3.3725739922374487E-4,-5.714292638003826E-4,4.779046284966171E-4,-4.133128643035889,18.39635467529297,-12.628755569458008,-0.025711223483085632,0.1267279088497162,0.05104827880859375,0.09311393,-0.14910725,9.768186,0
13,989.95947265625,2.0391622092574835E-4,-5.713995196856558E-4,-5.480574327521026E-5,-3.922360897064209,18.014253616333008,-12.638872146606445,-0.015492133796215057,0.1355791985988617,0.055774688720703125,0.08357334,-0.15149102,9.770555,0
13,989.9749755859375,7.057504262775183E-5,-0.0013703175354748964,7.827373337931931E-5,-3.1079392433166504,16.66968536376953,-12.608713150024414,-0.015234269201755524,0.11109701544046402,0.055769920349121094,0.08837217,-0.14195839,9.753985,0
13,989.9546508789062,2.0354962907731533E-4,9.444962051929906E-5,3.44511034199968E-4,-3.71311616897583,17.63067626953125,-12.571687698364258,-0.024609453976154327,0.1338745504617691,0.046296119689941406,0.10273063,-0.14910868,9.775291,0
13,989.9218139648438,2.0336604211479425E-4,-3.867851773975417E-5,-5.504151340574026E-5,-3.6163763999938965,17.61566925048828,-12.200796127319336,-0.03417898714542389,0.11470641940832138,0.03209209442138672,0.093190014,-0.14195931,9.772925,0
13,989.9443969726562,4.6949845273047686E-4,3.6082512815482914E-4,2.1119575831107795E-4,-3.211852550506592,17.41538429260254,-12.867288589477539,-0.01501569151878357,0.11405238509178162,0.051025390625,0.08842924,-0.13719323,9.765826,0
13,989.9471435546875,6.984127685427666E-5,-3.861900040647015E-5,3.442751185502857E-4,-3.7568411827087402,17.90570831298828,-12.42707633972168,-0.029560118913650513,0.12763658165931702,0.041553497314453125,0.09800786,-0.14434355,9.775297,0
13,989.9572143554688,-6.349990144371986E-5,8.93516291398555E-4,7.436703890562057E-4,-3.6226248741149902,17.08355712890625,-13.015527725219727,-0.03446470946073532,0.13600654900074005,0.05101966857910156,0.093247116,-0.14196077,9.761096,0
13,989.9599609375,-9.957888396456838E-4,7.603881531395018E-4,3.441180451773107E-4,-3.395392894744873,16.50582504272461,-12.477846145629883,-0.020272783935070038,0.11624439805746078,0.046280860900878906,0.09565604,-0.14196122,9.770566,0
13,989.9349975585938,6.019229767844081E-4,8.935758960433304E-4,0.0011429870501160622,-3.8383936882019043,16.723186492919922,-12.499284744262695,-0.03419160842895508,0.11038202792406082,0.060477256774902344,0.102844775,-0.1395784,9.765833,0
13,989.9244384765625,-5.966820754110813E-4,-1.7165782628580928E-4,-5.551314097829163E-5,-3.604499340057373,16.995319366455078,-13.244112014770508,-0.03327111154794693,0.12447921186685562,0.060540199279785156,0.099746555,-0.15862727,9.768136,0
14,989.9395751953125,-1.9652408082038164E-4,-7.044006488285959E-4,2.110959612764418E-4,-3.6397719383239746,17.541561126708984,-12.96269416809082,-0.033302463591098785,0.12317072600126266,0.041599273681640625,0.09495655,-0.14432737,9.770502,0
14,989.9248046875,-1.9047630485147238E-4,9.356524242321029E-5,-1.8578587332740426E-4,-3.698035717010498,17.53948974609375,-12.645662307739258,-0.019293449819087982,0.10836679488420486,0.05580425262451172,0.09016666,-0.15147695,9.756298,0
14,989.9374389648438,-5.675582797266543E-4,0.0012042511953040957,5.270904512144625E-5,-3.462756633758545,17.707176208496094,-12.768712997436523,-0.0334852859377861,0.11745212972164154,0.05106925964355469,0.09971607,-0.14194354,9.7705,0
14,989.942626953125,8.972770883701742E-4,8.047614246606827E-4,1.8590898253023624E-4,-3.3609070777893066,17.328296661376953,-12.531286239624023,-0.033491432666778564,0.12175746262073517,0.02739715576171875,0.09492618,-0.15624294,9.768132,0
14,989.9273071289062,9.842700092121959E-5,4.052717122249305E-4,-2.135229588020593E-4,-3.6352057456970215,17.54598045349121,-13.194612503051758,-0.018966183066368103,0.1209174394607544,0.03686237335205078,0.08774629,-0.14909282,9.775232,0
14,989.924560546875,-7.004226208664477E-4,-3.936918219551444E-4,-4.7979693044908345E-4,-3.4364781379699707,17.258010864257812,-13.285371780395508,-0.037789419293403625,0.11026892066001892,0.022655487060546875,0.09490585,-0.14670935,9.775231,0
14,989.9548950195312,-1.6769318608567119E-4,-3.937077126465738E-4,-4.7975496272556484E-4,-3.507077693939209,16.717933654785156,-13.473840713500977,-0.02814459055662155,0.1240994781255722,0.04632568359375,0.09489566,-0.14670911,9.75866,0
14,989.9548950195312,-3.443734021857381E-5,2.720661286730319E-4,4.5239253086037934E-4,-3.4205546379089355,17.430667877197266,-12.836023330688477,-0.023154638707637787,0.10441984236240387,0.04632282257080078,0.08532596,-0.14670888,9.763394,0
14,989.9554443359375,2.3197621339932084E-4,-5.268973764032125E-4,-3.465132031124085E-4,-3.6581969261169434,16.997663497924805,-13.158987045288086,-0.022935591638088226,0.11357960104942322,0.027382850646972656,0.082925916,-0.1490919,9.772862,0
14,989.9579467773438,3.6523217568174005E-4,2.7203437639400363E-4,1.8616046872921288E-4,-3.446451187133789,16.98532485961914,-13.344865798950195,-0.013092085719108582,0.12235728651285172,0.051052093505859375,0.08530569,-0.16339135,9.7681265,0
14,989.9423217773438,-5.666778306476772E-4,-9.264187538065016E-4,-8.007159340195358E-5,-3.5671067237854004,17.71481704711914,-12.753080368041992,-0.03164783865213394,0.12129157036542892,0.04631233215332031,0.087685406,-0.15862456,9.753922,0
14,989.9605102539062,6.318413070403039E-4,-5.269608809612691E-4,-6.126613589003682E-4,-3.8835015296936035,17.102664947509766,-12.976442337036133,-0.026134371757507324,0.0922011286020279,0.03683757781982422,0.10201466,-0.14670792,9.7610235,0
14,989.9349975585938,-3.385049058124423E-5,-3.938188892789185E-4,-2.1314568584784865E-4,-3.4847683906555176,17.52862548828125,-12.908845901489258,-0.02115538716316223,0.11526870727539062,0.04630279541015625,0.10200453,-0.14909098,9.777593,0
14,989.9349975585938,-3.385049058124423E-5,-3.938188892789185E-4,-2.1314568584784865E-4,-3.4847683906555176,17.52862548828125,-12.908845901489258,-0.021090947091579437,0.10547986626625061,0.0226287841796875,0.090044856,-0.15147385,9.770491,0
14,989.9376831054688,3.6572100361809134E-4,-3.9383472176268697E-4,-6.125775398686528E-4,-3.6443376541137695,17.53714370727539,-12.730783462524414,-0.016563259065151215,0.10011224448680878,0.046301841735839844,0.09003472,-0.1419405,9.775224,0
14,989.9325561523438,-1.668128534220159E-4,9.377288515679538E-4,-7.45693570934236E-4,-3.6980347633361816,17.539491653442383,-12.645662307739258,-0.002081476151943207,0.1230536550283432,0.05103302001953125,0.08046496,-0.15862325,9.753918,0
14,989.9605102539062,4.99172427225858E-4,1.3874938304070383E-4,1.8649583216756582E-4,-3.9151883125305176,17.283565521240234,-12.751192092895508,-0.016583338379859924,0.10821210592985153,0.04629993438720703,0.082844734,-0.14432332,9.761018,0
14,989.9605102539062,4.99172427225858E-4,1.3874938304070383E-4,1.8649583216756582E-4,-3.9151883125305176,17.283565521240234,-12.751192092895508,-0.03575464338064194,0.08867354691028595,0.03209495544433594,0.0995639,-0.13240668,9.770486,0
14,989.9174194335938,3.6611227551475167E-4,8.045232389122248E-4,-2.1293613826856017E-4,-3.614173412322998,17.354766845703125,-12.878725051879883,-0.035515785217285156,0.08812569826841354,0.051029205322265625,0.10194364,-0.13717303,9.761016,0
14,989.9630126953125,-4.3273746268823743E-4,5.559690180234611E-6,-7.973622996360064E-5,-3.7271132469177246,16.98528289794922,-12.300813674926758,-0.0069843679666519165,0.13028022646903992,0.03209209442138672,0.085204184,-0.16577214,9.782321,0
14,989.9481811523438,-1.6622600378468633E-4,5.527967005036771E-6,9.856111137196422E-4,-3.4802021980285645,17.533042907714844,-13.140756607055664,-0.02606596052646637,0.11037254333496094,0.05576038360595703,0.09714353,-0.15147221,9.744445,0
14,989.9481811523438,-1.6622600378468633E-4,5.527967005036771E-6,9.856111137196422E-4,-3.4802021980285645,17.533042907714844,-13.140756607055664,-0.02111458033323288,0.11945001780986786,0.05102348327636719,0.09235358,-0.151472,9.75628,0
14,989.9506225585938,6.328194285742939E-4,5.381438531912863E-4,3.1986332032829523E-4,-3.8320069313049316,17.36121368408203,-12.383634567260742,-0.035427749156951904,0.09958592057228088,0.027349472045898438,0.09473336,-0.14908847,9.772849,0
14,989.9453735351562,-5.655042477883399E-4,2.718120813369751E-4,-4.7904232633300126E-4,-3.6026782989501953,17.628925323486328,-12.896539688110352,-0.01149120181798935,0.08460035175085068,0.04628467559814453,0.082773685,-0.13955498,9.763379,0
14,989.9454345703125,-4.322485183365643E-4,4.0495413122698665E-4,-3.4584259265102446E-4,-3.3384599685668945,18.24489974975586,-12.665361404418945,-0.018462195992469788,0.10309171676635742,0.060317039489746094,0.089438945,-0.15390098,9.758817,0
15,989.9531860351562,-3.0350947054103017E-4,8.020990062505007E-4,-8.601250010542572E-5,-3.654853343963623,17.632747650146484,-12.88871955871582,-0.02333233505487442,0.11659938097000122,0.050838470458984375,0.08950359,-0.16105244,9.773026,0
15,989.9506225585938,-1.7977187235374004E-4,4.041545034851879E-4,-2.232078113593161E-4,-3.8415446281433105,17.826587677001953,-12.717329025268555,-0.023329637944698334,0.11105956882238388,0.04609394073486328,0.091958195,-0.15390411,9.751727,0
15,989.9656982421875,-4.7237568651326E-5,1.3793985999654979E-4,-7.561068050563335E-4,-3.351775646209717,17.337135314941406,-12.995111465454102,-0.03798013925552368,0.10091684758663177,0.041352272033691406,0.09919259,-0.14913914,9.761203,0
15,989.9329223632812,-4.786132194567472E-5,9.369887411594391E-4,-8.895319188013673E-4,-3.242316722869873,16.965621948242188,-13.14421272277832,-0.013562582433223724,0.11467470228672028,0.0366058349609375,0.09208757,-0.15629062,9.765943,0
15,989.9357299804688,-4.848495882470161E-5,-0.0011934371432289481,-2.2400944726541638E-4,-3.279409408569336,16.87825584411621,-13.210367202758789,-0.02302582561969757,0.11392545700073242,0.0650014877319336,0.10171187,-0.15390894,9.765948,0
15,989.9357299804688,-1.8226630345452577E-4,5.085472366772592E-6,-8.900662651285529E-4,-2.989591598510742,17.307435989379883,-12.895219802856445,-0.022740386426448822,0.08914870023727417,0.05078125,0.08743715,-0.14914396,9.758853,0
15,989.9431762695312,-1.82889707502909E-4,-3.94287082599476E-4,-2.245439391117543E-4,-3.1778035163879395,17.499799728393555,-12.646520614624023,-0.017987482249736786,0.1031310111284256,0.0413055419921875,0.09467155,-0.14676222,9.761226,0
15,989.9406127929688,-5.035540380049497E-5,1.384459901601076E-4,-6.242850213311613E-4,-3.2459025382995605,17.330965042114258,-13.088052749633789,-0.013394489884376526,0.10719775408506393,0.0507659912109375,0.09473628,-0.14914712,9.7707,0
15,989.9786987304688,8.217924914788455E-5,6.711789174005389E-4,1.7439547809772193E-4,-3.292969226837158,16.97091293334961,-13.213701248168945,-0.027798689901828766,0.11163945496082306,0.01761627197265625,0.0971908,-0.1491487,9.773074,0
15,989.941162109375,7.473455625586212E-4,5.381222581490874E-4,-2.2534557501785457E-4,-3.4977850914001465,17.252994537353516,-12.813722610473633,-0.02293206751346588,0.11622262001037598,0.05075263977050781,0.10203534,-0.1563001,9.765979,0
15,989.9633178710938,3.4724822035059333E-4,-5.270401015877724E-4,-4.919286584481597E-4,-3.350253105163574,17.338607788085938,-13.072420120239258,-0.0181451216340065,0.0775756984949112,0.03180503845214844,0.08537072,-0.14200208,9.763616,0
15,989.9383544921875,4.7978240763768554E-4,8.046404691413045E-4,-6.253537721931934E-4,-3.601593494415283,16.89234733581543,-12.699640274047852,-0.0324234813451767,0.11050863564014435,0.055469512939453125,0.09499502,-0.15868658,9.747052,0
15,989.9383544921875,-5.347300611902028E-5,-1.27363862702623E-4,-2.261472400277853E-4,-3.843906879425049,17.561264038085938,-13.163347244262695,-0.0325002521276474,0.10512076318264008,0.03178882598876953,0.10222942,-0.15153834,9.77073,0
15,989.9359741210938,7.906118116807193E-5,8.048429153859615E-4,-0.0011585199972614646,-3.748687267303467,17.544784545898438,-12.715150833129883,-0.027494944632053375,0.09951493889093399,0.036510467529296875,0.09512439,-0.14677337,9.773103,0
15,989.9432983398438,-9.868257911875844E-4,-7.929510902613401E-4,-2.266816736664623E-4,-3.131035804748535,17.22771453857422,-12.945741653442383,-0.013068482279777527,0.0798492431640625,0.050704002380371094,0.09279919,-0.14200833,9.768374,0
15,989.9359741210938,-1.530436857137829E-4,-3.8730225060135126E-4,4.338935250416398E-4,-3.1003289222717285,16.677051544189453,-12.995237350463867,-0.02169021964073181,0.09772955626249313,0.04594612121582031,0.09286386,-0.15392634,9.763646,0
15,989.941162109375,-5.531407659873366E-4,-0.001585622550919652,-9.900546865537763E-5,-3.191662311553955,16.960325241088867,-13.074724197387695,-0.040488116443157196,0.0973929911851883,0.055408477783203125,0.097708344,-0.15392795,9.744715,0
15,989.9461669921875,5.108758341521025E-4,-3.869985812343657E-4,0.0010988814756274223,-3.395934581756592,16.87411117553711,-12.576295852661133,-0.016430377960205078,0.10630139708518982,0.05539417266845703,0.08821347,-0.1563128,9.763658,0
15,989.9461669921875,5.108758341521025E-4,-3.869985812343657E-4,0.0010988814756274223,-3.395934581756592,16.87411117553711,-12.576295852661133,-0.021210916340351105,0.10609838366508484,0.041187286376953125,0.100227654,-0.15393117,9.770766,0
15,989.9409790039062,6.434100214391947E-4,-2.5373935932293534E-4,3.3350748708471656E-5,-3.4637351036071777,17.337413787841797,-12.592954635620117,-0.0211169570684433,0.0865669921040535,0.050644874572753906,0.09551251,-0.14916614,9.775507,0
15,989.9336547851562,-9.55732655711472E-4,-1.2037902342854068E-4,-1.0034156730398536E-4,-3.419032573699951,17.432140350341797,-12.913324356079102,-0.01636461168527603,0.07114384323358536,0.06009864807128906,0.09557724,-0.14440116,9.749473,0
15,989.9541625976562,-1.5740844537504017E-4,6.786698359064758E-4,4.3202293454669416E-4,-3.6818671226501465,16.71172332763672,-12.522733688354492,-0.016233056783676147,0.08477432280778885,0.05061817169189453,0.08847222,-0.14440277,9.761314,0
15,989.953857421875,-2.4873908841982484E-5,-9.191242861561477E-4,1.6543985111638904E-4,-3.3573198318481445,16.96295166015625,-12.587446212768555,-0.020709693431854248,0.11266680806875229,0.041136741638183594,0.10048646,-0.1610873,9.775524,0
15,989.953857421875,-2.4873908841982484E-5,-9.191242861561477E-4,1.6543985111638904E-4,-3.3573198318481445,16.96295166015625,-12.587446212768555,-0.035061806440353394,0.10780069231987,0.03166484832763672,0.10662776,-0.15391225,9.773063,0
16,989.9537353515625,3.7397639243863523E-4,5.45714283362031E-4,-5.006170249544084E-4,-3.5990920066833496,17.263582229614258,-12.952699661254883,-0.01851535588502884,0.07862838357686996,0.06026458740234375,0.09119439,-0.14911887,9.7516575,0
16,989.9189453125,5.278540775179863E-4,9.71896770352032E-6,4.089457797817886E-5,-3.280388355255127,16.50849151611328,-13.034612655639648,7.514208555221558E-4,0.08764949440956116,0.06499862670898438,0.07922202,-0.15150157,9.751656,0
16,989.9189453125,5.278540775179863E-4,9.71896770352032E-6,4.089457797817886E-5,-3.280388355255127,16.50849151611328,-13.034612655639648,-0.02304317057132721,0.07799839973449707,0.050795555114746094,0.091148674,-0.13958457,9.756388,0
16,989.9365844726562,3.949163656216115E-4,2.75999162113294E-4,-4.916428006254137E-4,-3.533356189727783,17.167098999023438,-12.957185745239258,-0.017782151699066162,0.09153005480766296,0.036586761474609375,0.09829557,-0.14911714,9.763488,0
16,989.94677734375,-4.0381113649345934E-4,-0.0010556160705164075,1.7424116958864033E-4,-3.817765712738037,17.006181716918945,-12.980928421020508,-0.01761975884437561,0.08647536486387253,0.04131889343261719,0.09588283,-0.1514999,9.780057,0
16,989.9518432617188,3.953564155381173E-4,2.7592768310569227E-4,4.1177525417879224E-5,-3.323568820953369,16.415233612060547,-12.791547775268555,-0.007726609706878662,0.09535346925258636,0.06025409698486328,0.08869028,-0.14911604,9.772952,0
16,989.93408203125,-4.0337108657695353E-4,-9.225295507349074E-4,-2.2504391381517053E-4,-3.3873467445373535,17.25124168395996,-13.138574600219727,-0.026104450225830078,0.0850784182548523,0.03657341003417969,0.09344724,-0.14434895,9.761113,0
16,989.9417114257812,2.6285878266207874E-4,9.416100801900029E-4,-3.580132615752518E-4,-3.8870882987976074,17.468008041381836,-12.920282363891602,-0.007262431085109711,0.07977655529975891,0.05077838897705078,0.08386481,-0.14196506,9.761111,0
16,989.9417114257812,2.6285878266207874E-4,9.416100801900029E-4,-3.580132615752518E-4,-3.8870882987976074,17.468008041381836,-12.920282363891602,-0.021398216485977173,0.08419360220432281,0.03657245635986328,0.09101167,-0.1491144,9.772946,0
16,989.94677734375,-3.2369571272283792E-6,-1.2368911120574921E-4,8.405025582760572E-4,-3.5914816856384277,17.270946502685547,-13.339227676391602,-0.0025368481874465942,0.0837479755282402,0.04604339599609375,0.09337878,-0.14673051,9.7658415,0
16,989.9592895507812,-1.361748727504164E-4,8.083807770162821E-4,4.4112297473475337E-4,-3.483246326446533,17.530094146728516,-12.986146926879883,-0.021418534219264984,0.07861775159835815,0.06971263885498047,0.093355894,-0.14434668,9.7516365,0
16,989.9241333007812,-2.7969072107225657E-6,-6.563922506757081E-4,1.7490138998255134E-4,-3.17573881149292,17.132984161376953,-12.625375747680664,-0.016886703670024872,0.08244483917951584,0.050774574279785156,0.0861634,-0.14911273,9.761104,0
16,989.9515991210938,-6.68366439640522E-4,8.083092980086803E-4,-4.907939000986516E-4,-3.2604422569274902,17.053861618041992,-12.915628433227539,-0.007260717451572418,0.09104004502296448,0.06970691680908203,0.09092036,-0.1634118,9.751633,0
16,989.947021484375,-4.018304462078959E-4,6.751157925464213E-4,-7.570154848508537E-4,-3.0601916313171387,16.767364501953125,-13.083688735961914,-0.021660372614860535,0.10519618541002274,0.041301727294921875,0.1004571,-0.15864465,9.765834,0
16,989.9494018554688,5.30495191924274E-4,6.750799366272986E-4,-2.2428930969908834E-4,-3.2432947158813477,16.595855712890625,-12.968454360961914,-0.026566192507743835,0.08993285894393921,0.04129981994628906,0.09087467,-0.14672771,9.763465,0
16,989.947021484375,-8.008640725165606E-4,6.750441971234977E-4,-9.10371309146285E-5,-3.2184834480285645,17.77777862548828,-12.656518936157227,-0.030954085290431976,0.08037848025560379,0.07917308807373047,0.09563166,-0.14434388,9.742158,0
16,989.9520263671875,1.3146150740794837E-4,-6.565709481947124E-4,1.7537304665893316E-4,-3.3519129753112793,17.231216430664062,-12.296037673950195,-0.0022653788328170776,0.08463142812252045,0.03656196594238281,0.08365929,-0.15625972,9.763461,0
16,989.9495849609375,-1.4762917999178171E-6,-2.571328077465296E-4,-4.903223016299307E-4,-3.6944479942321777,17.174148559570312,-12.701822280883789,-0.040320463478565216,0.07007153332233429,0.022357940673828125,0.102755696,-0.14434278,9.772927,0
16,989.9443969726562,5.313755245879292E-4,4.0862109744921327E-4,1.7556166858412325E-4,-3.6537680625915527,16.89616584777832,-12.691823959350586,-0.016783438622951508,0.07438050955533981,0.0507659912109375,0.08839345,-0.14195895,9.758723,0
16,989.9592895507812,2.652797556947917E-4,0.0010743750026449561,4.24980535171926E-5,-3.251310348510742,17.062698364257812,-13.379457473754883,-0.026325561106204987,0.0830087661743164,0.03656005859375,0.09793019,-0.1514915,9.765821,0
16,989.9647216796875,-4.002898058388382E-4,-1.2408204202074558E-4,-2.237233566120267E-4,-3.259760856628418,16.791486740112305,-13.516260147094727,-0.007254183292388916,0.07807036489248276,0.05076313018798828,0.09551746,-0.1514909,9.758718,0
16,989.9774780273438,-1.3375389971770346E-4,8.079877588897943E-4,-2.2362923482432961E-4,-3.571972370147705,17.078262329101562,-12.946035385131836,-0.02617698162794113,0.1015685424208641,0.03655815124511719,0.088324904,-0.16102347,9.770552,0
16,989.96728515625,6.654139142483473E-4,-1.24153564684093E-4,9.748867014423013E-4,-3.757138729095459,17.27357292175293,-12.851945877075195,-0.03565993905067444,0.09644712507724762,0.03182411193847656,0.10264152,-0.16340622,9.772916,0
16,989.9443969726562,3.993180289398879E-4,4.0844251634553075E-4,-9.028258500620723E-5,-3.5906405448913574,17.534793853759766,-12.81590461730957,-0.021177679300308228,0.08645619451999664,0.02708721160888672,0.09305906,-0.15387252,9.775281,0
16,989.9774780273438,-2.6625164900906384E-4,-1.242249709321186E-4,-9.01882303878665E-5,-3.1289706230163574,16.860897064208984,-12.924600601196289,-0.00776132196187973,0.06650310009717941,0.050644874572753906,0.084656,-0.14198452,9.75645,0
17,989.9422607421875,-1.3707266771234572E-4,-5.230528768151999E-4,4.407381929922849E-4,-3.3346290588378906,16.879131317138672,-13.047945022583008,-0.003011159598827362,0.07116963714361191,0.06011199951171875,0.08468014,-0.14436838,9.765921,0
17,989.95751953125,-2.750338171608746E-4,4.0777865797281265E-4,-9.810627670958638E-5,-3.6221890449523926,17.821611404418945,-13.289731979370117,-0.012401960790157318,0.084583580493927,0.055367469787597656,0.08231428,-0.15390208,9.756454,0
17,989.9549560546875,-0.0010742137674242258,-2.5797332637012005E-4,-7.639953983016312E-4,-3.7881455421447754,17.19209861755371,-13.227327346801758,-0.02192123979330063,0.08411632478237152,0.04115772247314453,0.09906775,-0.14675286,9.768292,0
17,989.9120483398438,0.005982924718409777,-0.003853200003504753,1.6801056335680187E-4,-3.548438549041748,17.258289337158203,-12.883211135864258,-0.03342407941818237,0.06491216272115707,0.01749420166015625,0.10626152,-0.14675346,9.780131,0
17,990.0795288085938,0.006176645867526531,-0.00249565695412457,-3.3752486342564225E-4,-3.609745502471924,17.253271102905273,-12.411565780639648,-0.002790801227092743,0.07418739050626755,0.06955718994140625,0.08716643,-0.146754,9.763562,0
17,990.1763916015625,-0.010867802426218987,0.006425962783396244,0.001127112889662385,-3.4532198905944824,17.241806030273438,-12.435014724731445,-0.01710759848356247,0.08270716667175293,0.060077667236328125,0.08958042,-0.14913785,9.75883,0
17,989.7520141601562,-0.0014138213591650128,3.441967783146538E-5,1.9490765407681465E-4,-3.523085117340088,18.07192039489746,-12.472822189331055,-6.121397018432617E-5,0.08562865108251572,0.06954479217529297,0.080044925,-0.1562883,9.77777,0
17,989.8358764648438,0.0056433179415762424,-0.004226596560329199,1.9480797345750034E-4,-3.6601004600524902,17.890703201293945,-12.056184768676758,-0.02963375300168991,0.074386365711689,0.02219390869140625,0.10157812,-0.15152231,9.768304,0
17,990.0997924804688,-0.001680601853877306,0.0012329166056588292,-3.3792329486459494E-4,-3.6544485092163086,17.158538818359375,-12.09119987487793,-0.011784538626670837,0.07199688255786896,0.05058860778808594,0.08726281,-0.1539062,9.765939,0
17,990.0137939453125,-0.0035450453869998455,0.0029640074353665113,7.272406946867704E-4,-3.430528163909912,17.15798568725586,-12.895509719848633,-0.0068274736404418945,0.06681308895349503,0.041113853454589844,0.08489704,-0.1419904,9.768308,0
17,989.8179931640625,3.1630267039872706E-4,-0.0012970088282600045,-7.180648390203714E-5,-3.258078098297119,17.31917953491211,-12.469614028930664,-0.002151869237422943,0.0757438912987709,0.045841217041015625,0.09448072,-0.14675754,9.765943,0
17,989.8790893554688,-0.0010155090130865574,4.3408197234384716E-4,1.9440989126451313E-4,-3.50028657913208,16.881759643554688,-12.560663223266602,-0.011402986943721771,0.07482701539993286,0.036360740661621094,0.08733517,-0.15867454,9.765945,0
17,989.9298706054688,-0.001015741378068924,-2.3166995379142463E-4,4.6062612091191113E-4,-3.2921276092529297,17.234760284423828,-12.690378189086914,-0.02598767727613449,0.06503129005432129,0.05529594421386719,0.09452894,-0.14675874,9.756478,0
17,989.9320678710938,7.150796009227633E-4,9.667892009019852E-4,-4.7157902736216784E-4,-3.101987838745117,16.569660186767578,-12.218854904174805,-0.011566832661628723,0.07885674387216568,0.022147178649902344,0.10172275,-0.15629244,9.775418,0
17,989.9197998046875,-2.172582026105374E-4,-9.843657608143985E-5,3.272690228186548E-4,-2.8024964332580566,16.639392852783203,-12.269083023071289,-0.002608455717563629,0.06907829642295837,0.07422733306884766,0.08740741,-0.14914319,9.761217,0
17,989.96044921875,1.8198313773609698E-4,0.0020321281626820564,-6.049360381439328E-4,-3.4193081855773926,17.22031021118164,-11.515172958374023,0.002243533730506897,0.08305293321609497,0.06001853942871094,0.08504164,-0.15391034,9.76122,0
17,989.9501953125,-8.479724056087434E-5,3.011502849403769E-4,-7.250334601849318E-5,-3.3112330436706543,16.953237533569336,-12.286043167114258,-0.00705382227897644,0.06355839967727661,0.04580497741699219,0.08745563,-0.14199454,9.758855,1
17,989.9501953125,-8.479724056087434E-5,3.011502849403769E-4,-7.250334601849318E-5,-3.3112330436706543,16.953237533569336,-12.286043167114258,-0.02143104374408722,0.06803280860185623,0.02213001251220703,0.08747971,-0.15867808,9.765959,1
17,989.9599609375,4.476022731978446E-4,-9.828576003201306E-5,3.2687088241800666E-4,-2.973125457763672,17.11180877685547,-12.347421646118164,-0.021410293877124786,0.06731652468442917,0.026856422424316406,0.092283666,-0.14437899,9.777797,1
17,989.9599609375,4.476022731978446E-4,-9.828576003201306E-5,3.2687088241800666E-4,-2.973125457763672,17.11180877685547,-12.347421646118164,-0.007201924920082092,0.07188494503498077,0.0457916259765625,0.08513802,-0.15391272,9.773065,1
17,989.9578857421875,-6.181260105222464E-4,-9.821036655921489E-5,5.929875187575817E-4,-3.3810973167419434,17.783353805541992,-12.323846817016602,-0.0021537765860557556,0.07132044434547424,0.045783042907714844,0.082772255,-0.15391329,9.7730665,1
17,989.9351806640625,4.743147292174399E-5,-6.308043957687914E-4,1.9341419101692736E-4,-3.2752251625061035,17.777183532714844,-12.416788101196289,-0.00696900486946106,0.07077537477016449,0.055243492126464844,0.08757615,-0.15153062,9.768334,1
17,989.9578857421875,8.461467223241925E-4,-2.312928845640272E-4,3.264726256020367E-4,-3.140305995941162,17.112960815429688,-11.782838821411133,-0.016340181231498718,0.06529171019792557,0.03156089782714844,0.09715986,-0.14438137,9.780173,1
17,989.9530029296875,-0.0010182966943830252,4.3453447869978845E-4,4.595310310833156E-4,-3.3524556159973145,17.599506378173828,-12.394487380981445,-0.025562331080436707,0.07412735372781754,0.031594276428222656,0.09218413,-0.15867624,9.773053,1
17,989.9273681640625,-8.853712351992726E-4,3.509843736537732E-5,5.995761603116989E-5,-3.584285259246826,16.96056365966797,-11.628519058227539,-0.020603373646736145,0.07381477952003479,0.045792579650878906,0.091974884,-0.15867117,9.765933,1
18,989.9580688476562,-3.4976654569618404E-4,-9.85421211225912E-5,-8.708740351721644E-4,-3.2378878593444824,16.864124298095703,-12.67704963684082,-0.0013566166162490845,0.06389360874891281,0.06946086883544922,0.089591324,-0.1443716,9.751729,1
18,989.9578857421875,-3.4878062433563173E-4,1.676137326285243E-4,8.606017800047994E-4,-3.1016902923583984,17.201797485351562,-11.793985366821289,-0.03476838767528534,0.058648817241191864,0.02684497833251953,0.08959773,-0.13960513,9.770668,1
18,989.98095703125,5.0631846534088254E-5,1.676236861385405E-4,1.9478588365018368E-4,-3.3815340995788574,17.045299530029297,-12.049638748168945,-0.015858352184295654,0.06795858591794968,0.01264190673828125,0.09199396,-0.15867159,9.780137,1
18,989.9781494140625,5.057049565948546E-5,5.671075196005404E-4,6.160151679068804E-5,-3.7132554054260254,17.524757385253906,-11.872613906860352,-0.015908576548099518,0.07177349925041199,0.041039466857910156,0.08722049,-0.14913863,9.758833,1
18,989.96044921875,-3.489645605441183E-4,4.3395956163294613E-4,1.9473335123620927E-4,-3.765132427215576,18.16071891784668,-11.439920425415039,-0.0254107266664505,0.06669259071350098,0.031566619873046875,0.089616716,-0.16105518,9.768302,1
18,989.9934692382812,-2.1586762159131467E-4,-3.649782738648355E-4,-7.160881068557501E-5,-3.569608688354492,17.343582153320312,-12.500017166137695,-0.005956195294857025,0.0669650286436081,0.05997180938720703,0.08245337,-0.15152222,9.761201,1
18,989.9708251953125,-8.277079905383289E-5,1.6766342741902918E-4,4.6099687460809946E-4,-3.2395472526550293,16.756732940673828,-11.900667190551758,0.010435439646244049,0.08329340070486069,0.05050373077392578,0.0776799,-0.16820535,9.770671,1
18,989.97314453125,0.003911906853318214,-0.002628643298521638,-2.0481907995417714E-4,-3.543168544769287,17.420635223388672,-11.892724990844727,-0.022358737885951996,0.06484609842300415,0.036299705505371094,0.08963573,-0.15390578,9.751735,1
18,989.960693359375,0.005776056554168463,-0.003960213158279657,6.147066596895456E-5,-3.632437229156494,17.33708953857422,-11.951066970825195,0.0037433281540870667,0.047603607177734375,0.04102897644042969,0.07769257,-0.14675611,9.777774,1
18,989.9378051757812,-0.007273483090102673,0.006159800570458174,-4.71187406219542E-4,-3.3524556159973145,17.599506378173828,-12.394487380981445,0.3296557366847992,0.34274402260780334,0.04096794128417969,-0.28078637,-0.44228277,9.784875,1
18,989.8895874023438,-0.03443776071071625,0.009621917270123959,-0.14840969443321228,-3.667029857635498,17.62096405029297,-12.270284652709961,-0.451907217502594,-0.7240417003631592,0.0026292800903320312,0.22348931,0.23933467,9.855893,1
18,989.8717041015625,-0.11007159948348999,0.010554041713476181,-0.14108605682849884,-3.618739604949951,17.35034942626953,-12.646814346313477,0.3863438069820404,0.21556724607944489,-0.02712535858154297,-0.31901214,-0.38270113,9.851158,1
18,989.8717041015625,-0.11007159948348999,0.010554041713476181,-0.14108605682849884,-3.618739604949951,17.35034942626953,-12.646814346313477,-0.277383029460907,-0.3811826705932617,0.07611942291259766,0.6871429,-0.25162104,9.7328,1
18,989.9072875976562,-0.2034153789281845,-0.0011638459982350469,-0.04041867330670357,-3.9198927879333496,17.173227310180664,-11.820199966430664,-0.21256417036056519,-0.011180460453033447,-0.4671039581298828,0.06577477,-0.10624117,10.118653,1
18,989.93505859375,-0.31486862897872925,-0.017009632661938667,0.04826448857784271,-3.763908863067627,17.53005599975586,-11.942098617553711,0.3017956614494324,-0.38330182433128357,-0.17533016204833984,0.13030845,-0.6400957,9.810918,1
18,989.9476928710938,-0.5839808583259583,-0.19504177570343018,0.03774498403072357,-4.509552478790283,18.781084060668945,-12.131349563598633,-0.4965032935142517,0.8629193305969238,0.15818309783935547,0.5796164,-1.3050306,9.673621,1
18,989.968017578125,-0.6664057374000549,-0.20036809146404266,0.004056002013385296,-4.882091045379639,19.432605743408203,-11.26524543762207,-0.0312899649143219,-0.12417292594909668,-0.06780624389648438,0.37409115,-0.5685977,9.931645,1
18,989.9755859375,-0.6606799960136414,-0.1272643655538559,0.2509308159351349,-4.614965915679932,19.945613861083984,-10.489595413208008,0.13269227743148804,-0.3462752103805542,0.0037336349487304688,0.35497832,-2.20591,9.31144,1
18,989.973388671875,-0.8170074820518494,-0.030724862590432167,0.1145770326256752,-4.815460681915283,21.23253631591797,-9.995111465454102,-0.23058559000492096,-0.38107240200042725,0.11722469329833984,0.345425,-0.928473,9.7706785,1
18,989.96044921875,-0.6103464365005493,0.419748455286026,0.3233686685562134,-3.9533438682556152,22.724552154541016,-10.061296463012695,0.03204621747136116,0.34817278385162354,-0.21084213256835938,0.3287021,-2.7445314,8.634421,1
18,990.0166015625,-0.3477590084075928,0.27846789360046387,0.023496951907873154,-3.680428981781006,22.611312866210938,-10.019739151000977,-0.09187719970941544,1.0200164318084717,0.28609180450439453,-0.29983574,-2.3751233,9.872469,1
18,989.9584350585938,-0.24589323997497559,-0.2756022810935974,0.2952722907066345,-3.632521152496338,23.235210418701172,-9.37077522277832,1.079854130744934,-0.9340472221374512,-0.2632875442504883,-0.3954255,-1.5219098,9.929282,1
18,989.9378051757812,-0.15707695484161377,-0.03911376744508743,0.18568328022956848,-3.7138819694519043,23.791168212890625,-9.390768051147461,-0.06893285363912582,-0.03525424003601074,-0.4721956253051758,0.05627227,-2.2607265,9.713867,1
18,990.0086669921875,-0.8251304626464844,-6.311056204140186E-4,-0.0076621100306510925,-3.546243667602539,24.94837188720703,-8.406530380249023,-0.359499990940094,0.02018880844116211,-0.07663440704345703,0.35023654,-2.622985,9.462945,1
19,990.0086669921875,-0.8251304626464844,-6.311056204140186E-4,-0.0076621100306510925,-3.546243667602539,24.94837188720703,-8.406530380249023,-0.20241454243659973,0.17341113090515137,0.3825969696044922,0.046725363,-3.1687555,9.067622,1
19,990.0391235351562,-0.8456368446350098,-0.05895427614450455,0.22296741604804993,-3.348440170288086,25.923202514648438,-7.570241928100586,0.4071463644504547,-0.5151405334472656,-0.14186954498291016,-0.20420802,-2.8994453,9.233327,1
19,990.0034790039062,-0.6123442649841309,0.037318937480449677,-0.102204330265522,-3.8049778938293457,26.653526306152344,-5.77198600769043,0.04747672379016876,-0.036276817321777344,-0.13079166412353516,0.07780677,-3.4404497,9.124436,1
19,990.0034790039062,-0.6123442649841309,0.037318937480449677,-0.102204330265522,-3.6927199363708496,27.285385131835938,-5.749273300170898,0.04729814827442169,-0.06557488441467285,-0.2137928009033203,0.13995054,-3.6501784,9.060522,1
19,989.9781494140625,-0.6466991305351257,0.03731895983219147,-0.08795648068189621,-4.418990612030029,28.237815856933594,-4.846260070800781,-0.2482275366783142,0.12323355674743652,0.346771240234375,0.20926404,-3.9909878,8.7267475,1
19,989.9781494140625,-0.6466991305351257,0.03731895983219147,-0.08795648068189621,-4.166809558868408,28.947925567626953,-4.695716857910156,0.06631138920783997,-0.004544734954833984,0.06863880157470703,0.041977227,-4.045803,9.103133,1
19,989.9854125976562,-0.4528212547302246,-0.0034273630008101463,0.011645635589957237,-3.902592182159424,29.56390380859375,-4.46453857421875,-0.1577412188053131,0.05782604217529297,0.010067939758300781,0.23078579,-4.377079,8.480559,1
19,990.01123046875,-0.667871356010437,-0.0027615635190159082,0.006186133250594139,-3.772045612335205,30.633739471435547,-3.546459197998047,0.10286340862512589,0.12850713729858398,0.9622445106506348,0.020480782,-4.5844245,7.848517,1
19,989.9727783203125,-0.3484255075454712,-0.05509262531995773,0.12536245584487915,-3.79710054397583,30.452239990234375,-3.5319786071777344,-0.15467846393585205,-0.03222036361694336,0.2522249221801758,0.21167931,-4.0910854,8.755156,1
19,990.0975341796875,0.45318517088890076,-0.08292262256145477,0.1665082424879074,-3.502472400665283,29.885414123535156,-3.775165557861328,-0.3243703842163086,-0.91656494140625,-0.5276708602905273,0.5845103,-3.5167158,9.221496,1
19,990.1762084960938,0.6366767883300781,-0.5179495811462402,0.7701131105422974,-3.6066861152648926,29.998977661132812,-4.458608627319336,0.3185049891471863,-0.19841527938842773,-0.06723499298095703,0.26904964,-3.5095658,9.704406,1
19,990.143310546875,0.5228266716003418,-0.2230047732591629,-0.406470388174057,-4.333308696746826,28.68670654296875,-4.731760025024414,0.2290552258491516,-0.4903225898742676,-2.4813308715820312,0.33119345,-2.9828615,11.217048,1
19,990.2344360351562,1.0040594339370728,-0.8730818033218384,-0.3334999084472656,-6.2101521492004395,27.193180084228516,-5.278964996337891,-0.1237148642539978,-0.4697756767272949,-0.1308298110961914,1.4616233,-1.9509022,9.621554,1
19,990.2470703125,1.571045994758606,-0.7909233570098877,-0.3994131088256836,-7.878018856048584,25.896209716796875,-7.255594253540039,-0.19208788871765137,-1.3075575828552246,-3.8630189895629883,1.2752174,-1.6887418,13.295453,1
19,990.137451171875,0.9011282324790955,-0.9665586948394775,-0.30726784467697144,-9.271724700927734,24.275638580322266,-7.869813919067383,0.8572188019752502,-0.14004671573638916,-1.8071222305297852,0.4315883,-2.0224009,11.314105,1
19,990.173095703125,0.7958002090454102,0.22613702714443207,-0.4584020972251892,-9.610727310180664,22.220659255981445,-9.083047866821289,0.556059718132019,0.5611202716827393,-1.6490545272827148,0.96932256,-2.039084,10.646555,1
19,989.9722900390625,0.9966022968292236,-0.10582571476697922,-0.15786468982696533,-10.347620010375977,20.003564834594727,-9.840555191040039,0.0421980619430542,-0.4462941884994507,-0.17010021209716797,1.1987596,-1.3455503,10.308045,1
19,989.8555297851562,0.7581164240837097,-0.028460949659347534,0.1526595950126648,-10.782735824584961,20.44012451171875,-11.646677017211914,0.5226120948791504,0.6127001047134399,-1.904287338256836,0.39575887,-1.7054253,11.4301,1
19,989.82763671875,-0.034306563436985016,0.25303494930267334,0.19819959998130798,-9.945865631103516,20.01216697692871,-11.750593185424805,1.356825828552246,-0.08977818489074707,-1.1328716278076172,0.19740331,-1.5266795,11.164973,1
19,989.9141845703125,-0.0038134620990604162,0.3756733536720276,0.3784954249858856,-9.741592407226562,20.09838104248047,-12.249025344848633,-0.11417770385742188,-0.10693919658660889,-1.8022832870483398,0.90966237,-0.7544991,10.873815,1
19,989.9240112304688,1.0615830421447754,0.038650717586278915,0.35612478852272034,-9.914501190185547,18.778825759887695,-14.223745346069336,1.2596304416656494,0.11615687608718872,0.7199563980102539,0.018236756,-0.18251249,7.2614636,1
19,989.8759155273438,2.114064931869507,-0.05536096543073654,0.08900707215070724,-10.306413650512695,15.357479095458984,-15.579828262329102,2.151012897491455,0.20991775393486023,-3.6544723510742188,-0.07496166,-0.716367,12.708398,1
19,989.8580322265625,1.9373642206192017,-1.63914155960083,5.901631084270775E-4,-12.505195617675781,12.877620697021484,-15.942724227905273,0.6507558822631836,-0.13085171580314636,-0.14372920989990234,0.4412648,0.835147,10.76019,1
19,989.7613525390625,-0.03643617033958435,2.2776992321014404,0.5539945363998413,-9.282224655151367,12.84074592590332,-17.207056045532227,-1.1541707515716553,-0.5706852674484253,-2.51025390625,-0.2063908,0.24647704,10.951935,1
19,989.8045043945312,-0.19702473282814026,3.0761144161224365,0.47969236969947815,-4.120041370391846,13.145519256591797,-20.021955490112305,0.8067188262939453,0.36257559061050415,0.808894157409668,-1.5041,0.4299894,8.674687,1
20,989.9595947265625,0.9397445321083069,1.8173723220825195,0.2061859369277954,-1.3091206550598145,11.774917602539062,-21.68364143371582,0.7618763446807861,0.8971178531646729,0.6787433624267578,-1.8888663,0.29414225,8.833289,1
20,989.9186401367188,1.3277666568756104,-0.01314981933683157,0.16770325601100922,-0.5138258934020996,9.728527069091797,-23.072168350219727,0.05732232332229614,1.242353916168213,0.28758811950683594,-0.14423023,0.9423938,10.303323,1
20,989.9060668945312,1.4189798831939697,-1.2207591533660889,0.38222065567970276,-1.9551711082458496,6.903934478759766,-22.838754653930664,-0.48785439133644104,0.780349850654602,-3.054274559020996,0.020680755,0.9995923,11.93196,1
20,989.97412109375,1.1541284322738647,0.3198782205581665,0.026822056621313095,-4.08300256729126,2.857381820678711,-22.966943740844727,-0.15715491771697998,1.0100464820861816,-0.3926229476928711,-0.1800633,1.3880664,9.964815,1
20,989.97412109375,1.1541284322738647,0.3198782205581665,0.026822056621313095,-4.08300256729126,2.857381820678711,-22.966943740844727,0.32696637511253357,1.6840851306915283,-0.9917831420898438,-0.86356753,1.2951183,10.691547,1
20,989.9740600585938,1.3721078634262085,-0.025133974850177765,0.22948840260505676,-2.9457449913024902,0.02409219741821289,-22.976404190063477,-1.5268809795379639,0.5603458881378174,-2.407276153564453,0.60384,2.2841787,11.534271,1
20,989.9740600585938,1.3721078634262085,-0.025133974850177765,0.22948840260505676,-2.9457449913024902,0.02409219741821289,-22.976404190063477,0.7297106385231018,-0.13256263732910156,-0.8139629364013672,-0.97348756,3.6307306,9.453502,1
20,989.9893188476562,1.801409125328064,0.13958242535591125,0.01124248281121254,-2.376382350921631,-4.39383602142334,-23.96039390563965,-1.2436127662658691,1.7235660552978516,-2.0686569213867188,0.027889013,3.6092813,9.967185,1
20,989.9912109375,1.7305688858032227,-0.2606903612613678,0.12722299993038177,-3.33817720413208,-6.980130672454834,-23.73783302307129,2.038961887359619,1.8918836116790771,-1.741683006286621,-1.7716995,3.3042214,9.974288,1
20,989.8565063476562,1.0605181455612183,0.7893932461738586,0.24426881968975067,-2.6818017959594727,-8.314708709716797,-23.60692024230957,-0.7585233449935913,1.6543703079223633,-2.467449188232422,0.03985402,4.2003336,9.967187,1
20,989.8544921875,1.2824922800064087,0.5623589158058167,0.7168462872505188,-1.1273870468139648,-10.178140640258789,-23.352487564086914,-0.011990547180175781,1.8414344787597656,-1.4298896789550781,-0.5074258,4.369547,8.5563345,1
20,989.8770141601562,1.823646068572998,0.018009258434176445,0.48355358839035034,-1.5642242431640625,-12.273487091064453,-22.23875617980957,0.2606278657913208,1.6222572326660156,0.027370452880859375,-0.5671657,4.982049,7.06263,1
20,989.7222900390625,1.3830262422561646,-0.1380518227815628,0.46477821469306946,-2.3492255210876465,-17.644912719726562,-20.802690505981445,0.42843490839004517,1.6310224533081055,0.421292781829834,-0.4357133,5.2632756,6.366673,1
