Timestamp,P,Gx,Gy,Gz,Mx,My,Mz,LiAx,LiAy,LiAz,Ax,Ay,Az,earthAx,earthAy,earthAz,Value,Type
0,987.8026123046875,-9.987899102270603E-5,-0.0026900891680270433,-1.6711122589185834E-4,-0.8714809417724609,20.95939826965332,-37.61066436767578,-1.0421139001846313,0.10324795544147491,0.0041713714599609375,0.040429443,-0.1480368,9.764918,0.8959558,-0.51511997,9.7112875,0
0,987.800048828125,1.9729218911379576E-4,6.478624418377876E-4,-0.0010776679264381528,-5.296165466308594,20.556474685668945,-37.21319580078125,-1.0410029888153076,0.09820495545864105,-4.520416259765625E-4,0.047533214,-0.14326866,9.779116,0.9050807,-0.5130591,9.724788,0
0,987.676513671875,-4.6786200255155563E-4,7.80917180236429E-4,-2.784478128887713E-4,-5.46070671081543,21.03477668762207,-37.60074996948242,-1.0296670198440552,0.09794645011425018,-0.0192108154296875,0.045077324,-0.1480336,9.772008,0.89861614,-0.51555765,9.718166,0
0,987.6635131835938,-6.775232031941414E-5,-1.5129163512028754E-4,-4.1133316699415445E-4,-5.372416973114014,20.748559951782227,-37.36665344238281,-1.0421336889266968,0.11229224503040314,-0.014286994934082031,0.052181065,-0.14326538,9.78147,0.9124431,-0.5026071,9.7270355,0
0,987.6635131835938,-6.775232031941414E-5,-1.5129163512028754E-4,-4.1133316699415445E-4,-5.208962440490723,21.006837844848633,-37.176002502441406,-1.0307869911193848,0.1123446673154831,-0.009371757507324219,0.049725235,-0.1504137,9.786199,0.9036814,-0.512285,9.7322,0
0,987.7215576171875,3.32357594743371E-4,-2.8455283609218895E-4,2.5472897686995566E-4,-5.455299377441406,21.303041458129883,-37.30934143066406,-1.038783073425293,0.10771486908197403,-0.018683433532714844,0.049659252,-0.14564551,9.769623,0.9063919,-0.49989742,9.715852,0
0,987.6934814453125,8.656247518956661E-4,3.8113369373604655E-4,-4.107883432880044E-4,-5.092435836791992,21.01097297668457,-37.81007385253906,-1.0274369716644287,0.08370162546634674,0.005167961120605469,0.04959327,-0.13372745,9.767248,0.90524256,-0.49540222,9.713629,0
0,987.69091796875,0.001265734783373773,-1.5160128532443196E-4,-9.431475773453712E-4,-5.206897735595703,20.6400203704834,-37.15485382080078,-1.0301265716552734,0.10748971253633499,-0.013561248779296875,0.049527317,-0.1456423,9.76961,0.89709044,-0.50861716,9.7162485,0
0,987.6578369140625,-6.520887836813927E-5,6.472430541180074E-4,-9.428749326616526E-4,-5.326192378997803,20.84476661682129,-37.76432800292969,-1.0281733274459839,0.11229410767555237,-0.013364791870117188,0.049461365,-0.15279041,9.783807,0.8930808,-0.5160827,9.730608,0
0,987.6848754882812,4.680586280301213E-4,1.1450813326518983E-4,-5.431286990642548E-4,-5.531008720397949,21.126840591430664,-37.364349365234375,-1.0024216175079346,0.11701374500989914,0.010491371154785156,0.035055935,-0.14563896,9.769598,0.87639666,-0.50859165,9.718062,0
0,987.7001953125,6.018525455147028E-4,-5.513848154805601E-4,-4.096983466297388E-4,-5.588728427886963,20.75648307800293,-36.9488639831543,-1.0243180990219116,0.09772220253944397,0.001220703125,0.0493294,-0.1361043,9.757756,0.89387053,-0.49826878,9.705025,0
0,987.6798095703125,3.361721755936742E-4,-4.183300188742578E-4,-6.757416995242238E-4,-5.3634233474731445,20.6514835357666,-37.131404876708984,-1.0128939151763916,0.09755794703960419,-0.008063316345214844,0.04448366,-0.13848592,9.767219,0.89448196,-0.48587623,9.715119,0
0,987.71240234375,-7.284552557393909E-4,3.8051436422392726E-4,-6.75469171255827E-4,-5.1432271003723145,20.91035270690918,-37.180484771728516,-1.0108447074890137,0.11621338129043579,-0.01259613037109375,0.037247986,-0.14563413,9.781417,0.87958896,-0.49816597,9.730205,0
0,987.6695556640625,3.374438965693116E-4,-1.5222061483655125E-4,-9.407056495547295E-6,-5.393587112426758,20.8338565826416,-36.983463287353516,-1.0088379383087158,0.10663481801748276,-0.0029268264770507812,0.04196179,-0.14563258,9.764839,0.8845798,-0.49154896,9.713442,0
0,987.6895751953125,-6.139418110251427E-5,-2.854817430488765E-4,-2.754504093900323E-4,-5.189313888549805,20.92006492614746,-37.48188781738281,-1.001861333847046,0.1067887544631958,-0.012179374694824219,0.044285774,-0.14324762,9.771935,0.88179314,-0.4978668,9.720483,0
0,987.6865844726562,8.71982891112566E-4,-8.183199097402394E-4,-4.0806340985000134E-4,-5.205375671386719,20.64149284362793,-37.23215866088867,-1.0332167148590088,0.09260035306215286,0.006966590881347656,0.053779423,-0.14324601,9.769562,0.89093614,-0.49620318,9.717394,0
0,987.6963500976562,6.063032196834683E-4,1.1368239938747138E-4,3.911566745955497E-4,-5.095479965209961,21.008031845092773,-37.65546417236328,-1.0263804197311401,0.10665857791900635,-0.011769294738769531,0.05610329,-0.15277751,9.762455,0.89162374,-0.49623442,9.710345,0
0,987.6639404296875,7.430696859955788E-5,7.793688564561307E-4,-1.4120264677330852E-4,-5.3376874923706055,20.57060432434082,-37.746517181396484,-1.00540030002594,0.12083710730075836,-0.016321182250976562,0.046477735,-0.14562602,9.76955,0.87591165,-0.50090927,9.718505,0
0,987.6940307617188,7.49428290873766E-5,7.792657124809921E-4,-6.735618226230145E-4,-5.414619445800781,21.02506446838379,-37.299346923828125,-1.0132744312286377,0.1015225350856781,-0.011422157287597656,0.06314111,-0.14324115,9.776646,0.8948334,-0.49854416,9.724096,0
0,987.660888671875,-5.7579134590923786E-5,9.123203926719725E-4,-2.7381558902561665E-4,-5.426115036010742,20.75090980529785,-37.281532287597656,-1.0065021514892578,0.10600262880325317,-0.011228561401367188,0.051125616,-0.15277265,9.781374,0.8763573,-0.5060319,9.73022,0
0,987.6937866210938,-5.694362334907055E-5,-4.193622153252363E-4,3.922465839423239E-4,-5.411032676696777,20.65972328186035,-37.35550308227539,-1.0039774179458618,0.11066596955060959,0.0032215118408203125,0.05344954,-0.15515424,9.764797,0.87332404,-0.5083139,9.713758,0
0,987.6836547851562,4.763242322951555E-4,3.7948222598060966E-4,-5.395864136517048E-4,-5.397610187530518,20.461145401000977,-36.65309143066406,-1.0020570755004883,0.10084810853004456,-0.010794639587402344,0.05338359,-0.14323635,9.771893,0.8771749,-0.49655432,9.72097,0
0,987.6885375976562,-5.567190237343311E-5,-2.8641073731705546E-4,-1.398402382619679E-4,-5.1141791343688965,20.25229835510254,-36.45359802246094,-0.9995859861373901,0.10059183090925217,0.013115882873535156,0.05095935,-0.14800198,9.752953,0.87375927,-0.49011952,9.702624,0
0,987.6912841796875,-1.8834543880075216E-4,1.129844895331189E-4,-6.722643738612533E-4,-5.7161760330200195,21.322153091430664,-37.270259857177734,-1.002202033996582,0.10539645701646805,0.013327598571777344,0.05570671,-0.14800127,9.767152,0.8732136,-0.49905002,9.716517,0
1,987.6680908203125,6.079844897612929E-4,9.183967486023903E-4,-4.008063115179539E-6,-5.580140113830566,21.133607864379883,-37.51114273071289,-1.0001609325408936,0.09075044095516205,-0.010149955749511719,0.05564329,-0.13608326,9.778982,0.8780451,-0.486167,9.728452,0
1,987.6701049804688,-5.898259114474058E-4,-0.0010790715459734201,-1.3690406922250986E-4,-5.282170295715332,21.201868057250977,-37.48406982421875,-0.9928463697433472,0.0855635330080986,0.013767242431640625,0.050800055,-0.138465,9.752937,0.8747235,-0.4723376,9.703263,0
1,987.683349609375,2.097326796501875E-4,9.181983768939972E-4,-8.024318376556039E-4,-5.266544818878174,20.74239158630371,-37.459590911865234,-1.0002148151397705,0.09045015275478363,-0.0049591064453125,0.05551642,-0.1336969,9.764769,0.8767175,-0.47550306,9.714778,0
1,987.6734008789062,6.098182639107108E-4,-5.466383299790323E-4,2.630938251968473E-4,-5.605195045471191,20.952112197875977,-37.49666213989258,-1.0069692134857178,0.09966406226158142,-0.014158248901367188,0.05784285,-0.14799501,9.774231,0.86687213,-0.496971,9.724321,0
1,987.6881713867188,7.7798031270504E-5,-8.130533969961107E-4,-9.3506567645818E-4,-5.715633392333984,20.9538631439209,-37.17180633544922,-0.9952341318130493,0.10445617139339447,2.5272369384765625E-4,0.050609767,-0.1384603,9.764755,0.8599985,-0.48659053,9.715752,0
1,987.6802978515625,3.447253257036209E-4,6.51584705337882E-4,-0.0010679616825655103,-5.604652404785156,20.583826065063477,-37.39820861816406,-0.992882490158081,0.08991994708776474,0.014679908752441406,0.06010592,-0.13130893,9.757648,0.8675809,-0.48492202,9.707972,0
1,987.6777954101562,6.116521544754505E-4,-5.469360621646047E-4,-6.682255771011114E-4,-5.302659034729004,21.024789810180664,-37.701507568359375,-0.995051920413971,0.09474184364080429,0.019664764404296875,0.06004256,-0.13845722,9.769478,0.87260914,-0.4741297,9.720041,0
1,987.64501953125,0.0010117372730746865,-5.470352480188012E-4,-5.348059348762035E-4,-5.454076290130615,20.672380447387695,-37.81151580810547,-0.9732270240783691,0.09951229393482208,-0.017952919006347656,0.04802963,-0.14798875,9.764738,0.8490675,-0.48757997,9.716772,0
1,987.64990234375,4.797170404344797E-4,-4.1397655149921775E-4,2.6440381770953536E-4,-5.795472145080566,21.511293411254883,-37.26911163330078,-0.9894968867301941,0.1043040007352829,-0.008213996887207031,0.055135876,-0.14083742,9.764732,0.85761124,-0.4796945,9.71634,0
1,987.6773681640625,-1.8546089995652437E-4,-5.47233794350177E-4,1.3150798622518778E-4,-5.850010871887207,21.24979591369629,-37.707305908203125,-0.9818614721298218,0.09912987798452377,-0.007946014404296875,0.05268255,-0.14798565,9.767095,0.85071427,-0.48321897,9.719238,0
1,987.664794921875,8.146604523062706E-5,-9.468068019486964E-4,-1.345460768789053E-4,-5.412554740905762,20.65825080871582,-37.2781982421875,-0.9842869639396667,0.09442941844463348,0.006480216979980469,0.05261913,-0.14321758,9.771824,0.85225046,-0.47563785,9.724159,0
1,987.6724853515625,0.001546814339235425,-2.8111637220717967E-4,-5.337578477337956E-4,-5.448668479919434,20.940645217895508,-37.520111083984375,-0.9814451932907104,0.08976301550865173,0.01621723175048828,0.050165772,-0.13368289,9.764715,0.8454482,-0.4739423,9.717543,0
1,987.699951171875,6.153204012662172E-4,-1.4805766113568097E-4,3.986098163295537E-4,-5.6107401847839355,20.577932357788086,-37.088993072509766,-0.9693080186843872,0.08982180804014206,-0.0024776458740234375,0.050102353,-0.14559765,9.759975,0.8416974,-0.476929,9.713132,0
1,987.699951171875,6.153204012662172E-4,-1.4805766113568097E-4,3.986098163295537E-4,-5.488668441772461,20.95625114440918,-38.1307373046875,-0.9669113159179688,0.10398980975151062,-0.0022535324096679688,0.057208657,-0.14559616,9.769438,0.8506423,-0.47240496,9.72212,0
1,987.66455078125,3.496158169582486E-4,7.839486934244633E-4,-4.000759217888117E-4,-5.269451141357422,20.845361709594727,-38.004058837890625,-0.9599080085754395,0.09911320358514786,-0.016249656677246094,0.049975514,-0.14082803,9.778902,0.84072053,-0.47185236,9.73241,0
1,987.6597290039062,8.39116983115673E-5,-1.4825617836322635E-4,1.3281789142638445E-4,-5.4601640701293945,20.66649055480957,-37.502296447753906,-0.9814905524253845,0.1131429374217987,-0.0018320083618164062,0.06664139,-0.15035959,9.776528,0.8390606,-0.50460464,9.728767,0
1,987.675048828125,1.5920691657811403E-4,0.0010282685980200768,4.5018462697044015E-4,-5.950368881225586,20.41788673400879,-36.95030975341797,-0.9593116044998169,0.09817724674940109,0.012653350830078125,0.049848676,-0.1360584,9.7504835,0.8413513,-0.45307982,9.704627,0
1,987.692626953125,2.665992360562086E-5,-4.3656793422997E-4,5.0972739700227976E-5,-5.374482154846191,21.115373611450195,-37.38779830932617,-0.9472341537475586,0.10253341495990753,0.0034160614013671875,0.042615503,-0.14320664,9.769415,0.8226416,-0.471931,9.724419,0
1,987.6795654296875,-6.385179003700614E-4,-3.035092377103865E-4,1.8439273117110133E-4,-5.594135284423828,20.48821449279785,-37.240264892578125,-0.9588168859481812,0.10262914001941681,-0.015265464782714844,0.061671287,-0.14082183,9.774143,0.8430541,-0.46916044,9.727623,0
1,987.6871337890625,2.7883215807378292E-5,3.6218122113496065E-4,3.178127226419747E-4,-5.392906188964844,20.571481704711914,-37.58408737182617,-0.9611520767211914,0.11681528389453888,0.01809978485107422,0.05682808,-0.1575032,9.769403,0.8256377,-0.4878947,9.723661,0
1,987.6822509765625,5.611263914033771E-4,-1.7054979980457574E-4,4.512325976975262E-4,-5.450489521026611,20.307039260864258,-37.86767578125,-0.9580775499343872,0.11166977882385254,0.0089111328125,0.066324234,-0.15035184,9.762297,0.83750373,-0.4772612,9.715979,0
1,987.6693725585938,-1.0405236389487982E-4,-3.0380699899978936E-4,5.846526473760605E-4,-5.606716632843018,20.95063591003418,-37.41935729980469,-0.941379189491272,0.08260810375213623,0.018593788146972656,0.054311275,-0.13605057,9.752821,0.82956386,-0.45761752,9.707802,0
1,987.6616821289062,-1.0344095062464476E-4,4.950414295308292E-4,3.1859875889495015E-4,-5.61114501953125,21.052133560180664,-37.88652038574219,-0.9482463598251343,0.101289764046669,0.004635810852050781,0.06141758,-0.14796545,9.764652,0.83337504,-0.46449974,9.71925,0
1,987.652099609375,-1.0282942093908787E-4,2.2862624609842896E-4,-6.132448907010257E-4,-5.471085071563721,21.236299514770508,-38.45777130126953,-0.9370748996734619,0.10120665282011032,0.004780769348144531,0.05571276,-0.1432348,9.764786,0.8270632,-0.4569664,9.720176,0
1,987.6842041015625,-3.685335395857692E-4,-4.372627008706331E-4,3.191227442584932E-4,-5.683511734008789,21.511014938354492,-37.6712646484375,-0.9437599182128906,0.1006089448928833,0.00977325439453125,0.060489953,-0.14800133,9.762418,0.821574,-0.47103134,9.717691,0
2,987.6739501953125,-3.83486389182508E-4,-5.645848577842116E-4,-4.798168665729463E-4,-5.60465145111084,20.583818435668945,-37.39820861816406,-0.9362568855285645,0.09049244225025177,-0.01838970184326172,0.053317726,-0.15276779,9.778989,0.81799906,-0.46142054,9.73513,0
2,987.6817626953125,-2.5386130437254906E-4,-1.6453747230116278E-4,8.502484997734427E-4,-5.690280437469482,21.76749610900879,-36.76142120361328,-0.9237769842147827,0.09026862680912018,0.005545616149902344,0.050925314,-0.14800115,9.774254,0.8182029,-0.44824237,9.7308855,0
2,987.6639404296875,-2.5383662432432175E-4,-3.1383518944494426E-5,-8.184666512534022E-5,-5.781368732452393,21.050344467163086,-37.16732406616211,-0.9450156092643738,0.0753905400633812,-0.0036878585815429688,0.058092475,-0.12655161,9.762417,0.8224187,-0.44324577,9.718608,0
2,987.6616821289062,-6.532863480970263E-4,-8.303350768983364E-4,8.502693963237107E-4,-5.2660017013549805,20.374101638793945,-37.36113739013672,-0.9228956699371338,0.10871657729148865,-0.017621994018554688,0.055700034,-0.14800103,9.774254,0.81400824,-0.4538937,9.731003,0
2,987.6815185546875,8.114756783470511E-4,1.0176649084314704E-4,-3.481414751149714E-4,-5.370352745056152,20.381742477416992,-37.34550476074219,-0.9295624494552612,0.09916550666093826,0.00630950927734375,0.05808741,-0.14561774,9.771885,0.81261104,-0.45442826,9.728694,0
2,987.641357421875,1.2552482075989246E-5,-1.6455334844067693E-4,7.171324687078595E-4,-5.775280952453613,21.056230545043945,-37.47654724121094,-0.9221549034118652,0.09396179765462875,0.011274337768554688,0.058084846,-0.13846783,9.762417,0.810299,-0.44995964,9.7194805,0
2,987.67138671875,-2.537391846999526E-4,5.012324545532465E-4,5.13531849719584E-5,-5.335079193115234,19.83549690246582,-37.62691879272461,-0.9199824333190918,0.09344613552093506,0.0067310333251953125,0.06047225,-0.14085098,9.769518,0.80843467,-0.45538807,9.726564,0
2,987.6865844726562,1.4575931709259748E-4,6.343863205984235E-4,5.1363720558583736E-5,-5.22390604019165,21.203935623168945,-37.801109313964844,-0.9168899059295654,0.07889527082443237,-0.007199287414550781,0.05807978,-0.13370116,9.771885,0.81904095,-0.42325762,9.729389,0
2,987.6738891601562,-5.200059385970235E-4,-6.971970433369279E-4,5.137413972988725E-5,-5.6754961013793945,21.04417610168457,-37.26026153564453,-0.9139511585235596,0.10244305431842804,0.0025262832641601562,0.05329746,-0.15276723,9.767151,0.79618216,-0.45251802,9.72547,0
2,987.70166015625,1.2650154531002045E-5,6.343784043565392E-4,1.845426158979535E-4,-5.606716632843018,20.950639724731445,-37.41935729980469,-0.9112778902053833,0.09767414629459381,0.0027618408203125,0.053294927,-0.14800073,9.769518,0.7962482,-0.44637072,9.72805,0
2,987.6688842773438,4.1214865632355213E-4,7.675323868170381E-4,-2.1492078667506576E-4,-5.223799228668213,20.097593307495117,-37.42844772338867,-0.9135225415229797,0.10222922265529633,0.017185211181640625,0.060462058,-0.15038384,9.774252,0.8005261,-0.44944587,9.732391,0
2,987.6937866210938,8.116466924548149E-4,3.680545778479427E-4,-2.1491030929610133E-4,-5.525356292724609,20.394678115844727,-37.39936065673828,-0.91080242395401,0.0970996841788292,-0.0015153884887695312,0.05567977,-0.14561732,9.774252,0.7926551,-0.44716924,9.733038,0
2,987.6715087890625,-6.530660903081298E-4,6.343665299937129E-4,1.845741062425077E-4,-5.352769374847412,20.661794662475586,-37.672542572021484,-0.8984369039535522,0.09181863814592361,-0.0012750625610351562,0.043727696,-0.14085065,9.760048,0.7849829,-0.42722255,9.720164,0
2,987.6985473632812,-3.867257619276643E-4,-4.309009818825871E-4,0.0012498480500653386,-5.215890884399414,20.737092971801758,-37.390098571777344,-0.9009424448013306,0.08167757093906403,0.008389472961425781,0.05806458,-0.14085065,9.767149,0.80044794,-0.42487732,9.726211,0
2,987.6787109375,-0.001185649074614048,0.0011669904924929142,5.840688245370984E-4,-5.551933288574219,20.21170997619629,-37.30757522583008,-0.8978254795074463,0.09543690085411072,0.008655548095703125,0.050892323,-0.15753348,9.776619,0.7755858,-0.45378196,9.736644,0
2,987.6608276367188,-5.198346916586161E-4,-4.3090892722830176E-4,8.503951830789447E-4,-5.3011369705200195,21.02625846862793,-37.77880859375,-0.8939871788024902,0.08069723844528198,-4.8542022705078125E-4,0.05088976,-0.14085053,9.774251,0.78984916,-0.41877717,9.734432,0
2,987.696533203125,2.791372826322913E-4,0.0013001402840018272,4.5093183871358633E-4,-5.509838581085205,21.04154396057129,-37.74754333496094,-0.897433340549469,0.08522935211658478,0.032769203186035156,0.053277135,-0.13846712,9.755313,0.78589666,-0.42177087,9.715588,0
2,987.668701171875,1.2845848686993122E-5,1.0171483154408634E-4,7.172581972554326E-4,-5.254506587982178,20.648256301879883,-37.37895202636719,-0.8849650025367737,0.09943780303001404,-0.009591102600097656,0.05566454,-0.15276669,9.769516,0.7834897,-0.43073925,9.7298765,0
2,987.6763916015625,1.2870412319898605E-5,-6.972367409616709E-4,-3.479949082247913E-4,-5.653890132904053,21.696928024291992,-37.91766357421875,-0.8866901993751526,0.08928468823432922,1.3446807861328125E-4,0.060441792,-0.14323358,9.767149,0.78423417,-0.43029416,9.727343,0
2,987.6738891601562,-0.0011855268385261297,0.00116697046905756,5.1489449106156826E-5,-5.588590621948242,20.862398147583008,-37.64794158935547,-0.8889706134796143,0.0936506986618042,3.4618377685546875E-4,0.05804938,-0.1432335,9.776617,0.78674895,-0.41701275,9.737208,0
2,987.6962890625,4.1239301208406687E-4,3.6801872192882E-4,3.17815865855664E-4,-4.9809112548828125,20.272645950317383,-37.938026428222656,-0.8762465715408325,0.08374026417732239,6.122589111328125E-4,0.050877094,-0.15038325,9.762413,0.7674048,-0.4301147,9.723991,0
2,987.68896484375,-1.2021418660879135E-4,-1.6461686755064875E-4,-8.164759492501616E-5,-5.340188026428223,20.199365615844727,-37.49345397949219,-0.8731866478919983,0.09780396521091461,8.687973022460938E-4,0.05087456,-0.14799993,9.767148,0.76335675,-0.4313627,9.728972,0
2,987.6865844726562,4.1244179010391235E-4,-2.977788099087775E-4,1.8467888003215194E-4,-5.650739669799805,20.593538284301758,-37.69961929321289,-0.8943468332290649,0.08807797729969025,-0.0036344528198242188,0.06742868,-0.1479956,9.774233,0.7834445,-0.42451727,9.734889,0
2,987.6865844726562,4.1244179010391235E-4,-2.977788099087775E-4,1.8467888003215194E-4,-5.138958930969238,20.282636642456055,-37.83727264404297,-0.872146487236023,0.10220521688461304,0.0060939788818359375,0.0457339,-0.15275766,9.774216,0.75135773,-0.43336013,9.736959,0
3,987.6787109375,2.797225024551153E-4,6.342555861920118E-4,5.170877557247877E-5,-5.530763626098633,20.126413345336914,-37.690773010253906,-0.8649263978004456,0.07791796326637268,0.0015611648559570312,0.048107296,-0.14084084,9.769481,0.7615957,-0.4114424,9.732193,0
3,987.6864013671875,-3.8490386214107275E-4,7.685843156650662E-4,5.476671503856778E-5,-5.6143269538879395,20.94327735900879,-37.032833099365234,-0.8673892021179199,0.09670232236385345,0.02542591094970703,0.0528706,-0.14322372,9.757643,0.760933,-0.41618675,9.72022,0
3,987.6835327148438,1.4728866517543793E-5,0.0022332959342747927,-3.4463912015780807E-4,-5.81001091003418,21.23418617248535,-37.09668731689453,-0.8595864772796631,0.05351869761943817,0.016206741333007812,0.050464213,-0.121773794,9.760009,0.7696097,-0.38426384,9.722921,0
3,987.65869140625,4.1436171159148216E-4,3.690588637255132E-4,-2.1141296019777656E-4,-5.265022277832031,20.743864059448242,-37.536895751953125,-0.8807156682014465,0.09135992079973221,0.002231597900390625,0.06717706,-0.13845636,9.767109,0.7706543,-0.41660878,9.728957,0
3,987.6537475585938,1.1697824811562896E-4,3.0175692518241704E-4,-4.012598656117916E-4,-5.5373945236206055,20.48881721496582,-37.480003356933594,-0.8585180044174194,0.08636285364627838,-0.0022497177124023438,0.057600975,-0.14560582,9.769474,0.7620151,-0.4080659,9.732416,0
3,987.68896484375,-4.1549449088051915E-4,4.348890215624124E-4,2.645979402586818E-4,-5.300731658935547,20.55205726623535,-36.98128128051758,-0.8605742454528809,0.09545910358428955,0.035846710205078125,0.057584405,-0.14560537,9.760004,0.76403075,-0.39672703,9.723224,0
3,987.6864013671875,-2.8217752696946263E-4,-3.640843788161874E-4,6.641399231739342E-4,-5.388723373413086,21.47041130065918,-36.790504455566406,-0.8617794513702393,0.09505686163902283,0.026668548583984375,0.06234777,-0.1503715,9.764736,0.7634678,-0.40221363,9.727894,0
3,987.7014770507812,1.1745531810447574E-4,5.679955938830972E-4,6.642080843448639E-4,-5.369074821472168,21.38364601135254,-37.09639358520508,-0.8537364602088928,0.10408782958984375,0.01746368408203125,0.05994135,-0.1599042,9.760001,0.7522284,-0.41267598,9.723716,0
3,987.653564453125,-2.818595967255533E-4,-0.0010299256537109613,5.311182467266917E-4,-5.359538555145264,20.918275833129883,-36.7626953125,-0.8508365154266357,0.08467772603034973,-0.0012407302856445312,0.057534993,-0.13845433,9.764734,0.7499905,-0.40172458,9.728754,0
3,987.6810913085938,-1.4854298206046224E-4,-2.3100385442376137E-4,1.317125279456377E-4,-5.70387077331543,20.647897720336914,-35.693016052246094,-0.8431134223937988,0.09393556416034698,0.022668838500976562,0.052738667,-0.15275358,9.752895,0.7425588,-0.4004593,9.717682,0
3,987.6917114257812,-1.5225901734083891E-5,8.342339424416423E-4,-2.676931908354163E-4,-5.2666826248168945,20.636476516723633,-36.76051330566406,-0.8449977040290833,0.07428143918514252,0.018163681030273438,0.052722216,-0.1360702,9.771833,0.74449766,-0.3901644,9.73671,0
3,987.7091064453125,-1.4907855074852705E-5,9.67340194620192E-4,-4.007148090749979E-4,-5.525356292724609,20.394678115844727,-37.39936065673828,-0.8180915713310242,0.08815710246562958,0.018404006958007812,0.038366318,-0.14560296,9.774199,0.72209364,-0.39779416,9.740531,0
3,987.668701171875,-2.810649457387626E-4,3.520885366015136E-5,3.983008791692555E-4,-5.128145217895508,20.81916618347168,-37.25445556640625,-0.8391043543815613,0.07348527014255524,-3.0422210693359375E-4,0.052689224,-0.14083602,9.767095,0.74372214,-0.3789463,9.732525,0
3,987.6937866210938,-6.803799769841135E-4,1.683409500401467E-4,2.652110415510833E-4,-5.181436538696289,20.347307205200195,-36.37180709838867,-0.8122938871383667,0.09204790741205215,0.004658699035644531,0.047892928,-0.14798541,9.771828,0.731945,-0.38735467,9.737917,0
3,987.6787109375,-5.470628966577351E-4,8.34104954265058E-4,3.9843711419962347E-4,-5.2106218338012695,20.899442672729492,-36.39961624145508,-0.8380302786827087,0.08691443502902985,0.004891395568847656,0.05743602,-0.15036832,9.764725,0.740029,-0.3853467,9.730348,0
3,987.6639404296875,2.520436537452042E-4,-3.643424133770168E-4,-9.685754776000977E-7,-5.060184001922607,20.882089614868164,-36.11384582519531,-0.8207343816757202,0.09148462116718292,0.02879619598388672,0.04547006,-0.14798458,9.759989,0.7295663,-0.3720024,9.726804,0
3,987.6942749023438,5.185186746530235E-4,7.008954416960478E-4,-9.004725143313408E-7,-5.228885173797607,20.88176918029785,-35.47195816040039,-0.8176859617233276,0.0816929042339325,0.03377056121826172,0.052623212,-0.13845111,9.755253,0.73491496,-0.36750144,9.721716,0
3,987.6666870117188,6.518352893181145E-4,-8.970258058980107E-4,-5.334641318768263E-4,-5.026294708251953,20.44028663635254,-37.01702880859375,-0.8191146850585938,0.08160258829593658,-0.008577346801757812,0.059776455,-0.14560054,9.774189,0.7360252,-0.3784719,9.740357,0
3,987.6812133789062,-2.801113878376782E-4,-3.644198295660317E-4,6.650254363194108E-4,-4.961102485656738,20.712099075317383,-37.119964599609375,-0.835142970085144,0.10014897584915161,-0.003604888916015625,0.0669297,-0.15274991,9.77182,0.74005073,-0.3806306,9.737748,0
3,987.6515502929688,-4.131103050895035E-4,9.671336738392711E-4,-1.33854104205966E-4,-5.317198276519775,20.7476863861084,-37.52907943725586,-0.8034855127334595,0.09023270756006241,0.01556396484375,0.05257377,-0.14559968,9.76235,0.72018623,-0.37832764,9.729628,0
3,987.661376953125,-4.1295128175988793E-4,3.0131821404211223E-4,7.983196410350502E-4,-5.351385116577148,20.55735206604004,-37.0507698059082,-0.8245162963867188,0.07565139979124069,0.025252342224121094,0.06689671,-0.15036584,9.759981,0.7279512,-0.38860282,9.726429,0
3,987.6864013671875,6.524712662212551E-4,3.0129242804832757E-4,-4.0003377944231033E-4,-5.194859504699707,20.54588508605957,-37.07421875,-0.8068469762802124,0.08498427271842957,0.030243873596191406,0.047761023,-0.14798222,9.759979,0.71074736,-0.37296042,9.728161,0
3,987.6815795898438,2.531561185605824E-4,-0.001030312734656036,6.652979063801467E-4,-5.161108016967773,19.998167037963867,-37.2783203125,-0.8032443523406982,0.07508504390716553,0.030519485473632812,0.05252433,-0.14798178,9.755243,0.7085801,-0.37872085,9.723371,0
3,987.6893310546875,3.864730824716389E-4,-6.308647571131587E-4,-1.3358157593756914E-4,-5.174232482910156,20.828882217407227,-37.55586242675781,-0.8002046346664429,0.0796208530664444,-0.0023908615112304688,0.045338094,-0.13606499,9.769445,0.7094574,-0.35469896,9.738249,0
3,987.6739501953125,-1.459996565245092E-4,-2.3141669225879014E-4,6.654341705143452E-4,-5.344456195831299,20.827089309692383,-36.836666107177734,-0.8065744042396545,0.07940777391195297,0.012054443359375,0.05010146,-0.14559771,9.7670765,0.70580846,-0.36695433,9.735846,0
4,987.6741333007812,-6.78472628351301E-4,-2.3144249280449003E-4,2.6602845173329115E-4,-5.302796363830566,20.91887092590332,-37.00242614746094,-0.7745456695556641,0.0695013776421547,0.031244277954101562,0.042915225,-0.13844742,9.764708,0.69978637,-0.35381034,9.734251,0
4,987.6820068359375,-1.252401852980256E-5,-0.0012967318762093782,-5.328510887920856E-4,-5.095074653625488,20.533823013305664,-36.85793685913086,-0.780604898929596,0.07391514629125595,0.031508445739746094,0.03811896,-0.14083035,9.759972,0.6922293,-0.350219,9.7301855,0
4,987.6738891601562,1.2079294538125396E-4,-9.833616786636412E-5,3.993225982412696E-4,-5.351385593414307,20.55735206604004,-37.0507698059082,-0.7776696085929871,0.06415343284606934,0.022258758544921875,0.04527217,-0.13129677,9.759971,0.6959909,-0.35010886,9.729816,0
4,987.6893310546875,2.541096764616668E-4,3.4795928513631225E-5,-2.663990017026663E-4,-4.844033241271973,20.34794807434082,-37.65558624267578,-0.7886968851089478,0.09225083142518997,0.01776885986328125,0.050035477,-0.15036263,9.752868,0.68602514,-0.375043,9.72277,0
4,987.6537475585938,-8.109947084449232E-4,-0.0012968091759830713,5.32616744749248E-4,-5.447583198547363,20.204065322875977,-37.323211669921875,-0.7755934000015259,0.0727420523762703,0.0038280487060546875,0.050018966,-0.13606258,9.769436,0.6981364,-0.34352764,9.73948,0
4,987.6845703125,-2.7820427203550935E-4,-3.6472943611443043E-4,6.658427882939577E-4,-5.042761325836182,20.63591957092285,-37.56482696533203,-0.776958703994751,0.07696167379617691,0.04195213317871094,0.050002515,-0.1479785,9.755232,0.68183506,-0.3679527,9.72567,0
4,987.6741333007812,-1.1729251127690077E-5,-4.979132208973169E-4,-1.330367522314191E-4,-5.384753227233887,20.210554122924805,-37.872161865234375,-0.7641165256500244,0.07676927745342255,0.027991294860839844,0.049986005,-0.15036143,9.759964,0.6819602,-0.3620711,9.730665,0
4,987.6769409179688,-1.1570460628718138E-5,-3.647810663096607E-4,-5.324423545971513E-4,-5.5113606452941895,21.040075302124023,-37.67023849487305,-0.7754976749420166,0.08123805373907089,0.009268760681152344,0.047579616,-0.15274425,9.764698,0.67807883,-0.3593158,9.735811,0
4,987.6689453125,2.549044438637793E-4,0.0012330884346738458,3.997312451247126E-4,-5.317197799682617,20.7476863861084,-37.52907943725586,-0.7583179473876953,0.07162930816411972,0.01894664764404297,0.038003534,-0.13606097,9.759962,0.6697496,-0.34424427,9.731894,0
4,987.6689453125,2.549044438637793E-4,0.0012330884346738458,3.997312451247126E-4,-5.371736526489258,20.48618507385254,-37.96727752685547,-0.7597836256027222,0.07109178602695465,0.03338813781738281,0.045156747,-0.14797689,9.757592,0.6665359,-0.36063206,9.729349,0
4,987.6719970703125,2.5506335077807307E-4,-6.311484612524509E-4,1.3348343782126904E-4,-5.513318061828613,20.300546646118164,-37.3187255859375,-0.7566074132919312,0.08501153439283371,0.009943008422851562,0.05230993,-0.14559321,9.776529,0.6708109,-0.36329925,9.747949,0
4,987.66162109375,-2.7740950463339686E-4,-7.643322460353374E-4,3.9986748015508056E-4,-5.844902038574219,20.88591957092285,-37.84077453613281,-0.7486876249313354,0.07977908849716187,0.0054340362548828125,0.04990357,-0.15274264,9.776527,0.6648164,-0.36434782,9.748415,0
4,987.66162109375,-1.4409265713766217E-4,3.0090546351857483E-4,-6.65327999740839E-4,-5.420324802398682,20.124666213989258,-38.015625,-0.7501599788665771,0.08428771048784256,0.005671501159667969,0.047497153,-0.15035893,9.764689,0.66336733,-0.35278088,9.737018,0
4,987.6689453125,1.2238224735483527E-4,-8.975417586043477E-4,4.0000368608161807E-4,-5.629271030426025,21.1403751373291,-37.657936096191406,-0.7565195560455322,0.09346427023410797,0.001163482666015625,0.06182006,-0.15512516,9.7646885,0.6733722,-0.35855126,9.736275,0
4,987.6795654296875,-1.061666989699006E-5,-2.317778707947582E-4,1.3375608250498772E-4,-5.5921783447265625,21.227739334106445,-37.59178161621094,-0.734519898891449,0.08371473103761673,0.020305633544921875,0.045074314,-0.14559163,9.767054,0.66023225,-0.33981112,9.739978,0
4,987.6666870117188,-5.430896417237818E-4,4.3398604611866176E-4,5.332978907972574E-4,-5.068657875061035,20.190576553344727,-38.07366943359375,-0.7453563213348389,0.05486997216939926,0.025285720825195312,0.04983759,-0.13367482,9.757585,0.66313255,-0.3328977,9.730377,0
4,987.6591796875,9.218066115863621E-4,-4.981454694643617E-4,4.0020811138674617E-4,-5.461685657501221,20.66501808166504,-37.424991607666016,-0.7374978065490723,0.0688209980726242,0.01129913330078125,0.03787163,-0.1455908,9.769419,0.6463672,-0.33716848,9.743341,0
4,987.6817626953125,-3.467649803496897E-4,-2.4835352087393403E-4,2.4037601542659104E-4,-5.401900291442871,20.66855812072754,-37.8193359375,-0.7299026250839233,0.06370402127504349,0.0020265579223632812,0.042634904,-0.13605727,9.771784,0.6589949,-0.31444877,9.74551,0
4,987.6689453125,3.191837458871305E-4,1.7936545191332698E-5,-4.2534543899819255E-4,-4.884575366973877,20.731843948364258,-38.364662170410156,-0.7219740152359009,0.07302548736333847,-0.0072231292724609375,0.037838638,-0.13605691,9.776518,0.64606714,-0.32366621,9.750799,0
4,987.679443359375,-3.464471665211022E-4,6.83700549416244E-4,-2.580357249826193E-5,-5.599649906158447,21.326295852661133,-37.904335021972656,-0.728901743888855,0.0774582102894783,0.011895179748535156,0.05029291,-0.1527522,9.764728,0.6434584,-0.35158008,9.738487,0
4,987.6717529296875,-8.106610039249063E-5,1.806241925805807E-5,-1.5936203999444842E-4,-5.55247688293457,20.579999923706055,-37.406028747558594,-0.7268680334091187,0.0674719363451004,0.03568267822265625,0.055594444,-0.14084865,9.767141,0.6525297,-0.33683467,9.740674,0
4,987.66162109375,-8.979853009805083E-5,5.521118291653693E-4,-1.6310467617586255E-4,-5.548996925354004,21.321001052856445,-37.83484649658203,-0.7190158367156982,0.08626062422990799,0.03589439392089844,0.04843086,-0.15038191,9.750572,0.6424035,-0.33393347,9.724938,0
4,987.6666870117188,-4.893310251645744E-4,-3.799842088483274E-4,1.031861174851656E-4,-5.717997074127197,20.68854331970215,-37.61782455444336,-0.7111989855766296,0.07612653821706772,0.0076923370361328125,0.03648749,-0.14561547,9.76951,0.6262777,-0.33417943,9.744844,0
4,987.661865234375,-8.991610957309604E-5,1.9499188056215644E-5,3.6947670741938055E-4,-5.6266632080078125,20.4052677154541,-37.5383415222168,-0.7223541140556335,0.04755876958370209,0.017377853393554688,0.0460532,-0.13131596,9.767143,0.6373012,-0.32347333,9.741954,0
4,987.6845703125,1.763409818522632E-4,-1.1364919191692024E-4,1.0313565144315362E-4,-5.305703163146973,21.0218448638916,-37.54689407348633,-0.7099405527114868,0.07575400918722153,0.01757049560546875,0.050839096,-0.14799906,9.774246,0.64146805,-0.3239699,9.749049,0
5,987.666748046875,-9.003380546346307E-5,1.5267624985426664E-4,1.03110505733639E-4,-5.324127674102783,20.477949142456055,-37.74317932128906,-0.7115541696548462,0.06599364429712296,0.022518157958984375,0.050845206,-0.1408494,9.774246,0.6380138,-0.3221944,9.749228,0
5,987.6641235351562,7.088551647029817E-4,-9.125777869485319E-4,5.025591817684472E-4,-5.786776542663574,20.782075881958008,-37.45873260498047,-0.7085070610046387,0.07992854714393616,0.022722244262695312,0.041291654,-0.15276586,9.764778,0.61712056,-0.33637178,9.740737,0
5,987.666748046875,-4.896253230981529E-4,2.858532825484872E-4,-4.295717808417976E-4,-5.720061302185059,21.055360794067383,-37.638973236083984,-0.705291211605072,0.0746714174747467,0.013463973999023438,0.048467487,-0.14323296,9.771881,0.6273844,-0.32412702,9.747506,0
5,987.6796264648438,-4.896841128356755E-4,-5.130848730914295E-4,3.693506005220115E-4,-5.488806247711182,20.8503360748291,-37.43165969848633,-0.6971752643585205,0.07417799532413483,0.008950233459472656,0.04369378,-0.14561643,9.778982,0.622003,-0.3184271,9.755169,0
5,987.6795654296875,-9.02690808288753E-5,-1.136014616349712E-4,-4.296223050914705E-4,-5.460707664489746,21.034780502319336,-37.600746154785156,-0.6991485357284546,0.06920723617076874,0.03754234313964844,0.0556494,-0.14085,9.752944,0.6319236,-0.3140547,9.7285595,0
5,987.6773681640625,-2.23485694732517E-4,1.956603955477476E-5,-8.291212725453079E-4,-5.19830846786499,21.01714515686035,-37.717132568359375,-0.6959351301193237,0.06892191618680954,0.02354907989501953,0.05326563,-0.14561667,9.767147,0.62944907,-0.30961746,9.743159,0
5,987.6671752929688,1.7592910444363952E-4,-1.1358235497027636E-4,-1.6335671534761786E-4,-5.320785045623779,21.1130313873291,-37.472923278808594,-0.7070972919464111,0.07321382313966751,0.028490066528320312,0.046101987,-0.14800014,9.755312,0.61759114,-0.30916333,9.732068,0
5,987.6998291015625,-2.2360350703820586E-4,-0.001045678392983973,-4.2969774222001433E-4,-5.50570821762085,20.307912826538086,-37.70525360107422,-0.6990057229995728,0.0680759996175766,0.005031585693359375,0.050887913,-0.13608392,9.769516,0.61769444,-0.31158945,9.746073,0
5,987.6773681640625,-2.2366229677572846E-4,2.8591055888682604E-4,-4.2972288792952895E-4,-5.335622787475586,20.20379066467285,-37.725364685058594,-0.6863952875137329,0.06766562908887863,0.028899192810058594,0.0437243,-0.14085059,9.762415,0.60802454,-0.308111,9.739706,0
5,987.66943359375,-6.231949082575738E-4,-5.130275385454297E-4,2.360414364375174E-4,-5.697369575500488,20.97153663635254,-38.09946823120117,-0.678695559501648,0.057716816663742065,0.029087066650390625,0.048510194,-0.13846745,9.769516,0.61024886,-0.30824524,9.74667,0
5,987.6571655273438,-3.569379332475364E-4,9.517193539068103E-4,-8.292473503388464E-4,-5.452417373657227,20.77977180480957,-38.58789825439453,-0.6804630160331726,0.0620412677526474,0.029277801513671875,0.046126395,-0.14323415,9.771885,0.6057209,-0.30657268,9.749434,0
5,987.665283203125,5.751089775003493E-4,-0.0011787981493398547,-1.6348273493349552E-4,-5.269451141357422,20.845361709594727,-38.004058837890625,-0.667568564414978,0.07152087241411209,0.020023345947265625,0.046132475,-0.14323433,9.762417,0.60538685,-0.29850048,9.740216,0
5,987.674560546875,7.082080119289458E-4,1.9632861949503422E-5,-8.292976417578757E-4,-5.577095985412598,21.13655662536621,-37.66575622558594,-0.6692508459091187,0.0760277807712555,0.020218849182128906,0.048528552,-0.15276752,9.757683,0.59906304,-0.31099787,9.73563,0
5,987.66943359375,-3.5711441887542605E-4,-0.001178779173642397,-9.62480844464153E-4,-5.670088768005371,21.312437057495117,-36.96885681152344,-0.6614415049552917,0.0805353969335556,0.020409584045410156,0.03897503,-0.14561789,9.776621,0.59155643,-0.29909867,9.755287,0
5,987.6845703125,1.7545855371281505E-4,4.191257175989449E-4,-6.96189992595464E-4,-5.218935966491699,20.734155654907227,-37.23548889160156,-0.6441441774368286,0.06564745306968689,0.006389617919921875,0.031811416,-0.14800127,9.783723,0.58280915,-0.29553324,9.76305,0
5,987.6697387695312,-2.2407405776903033E-4,-5.129702622070909E-4,-2.9674143297597766E-4,-5.626907825469971,21.40569496154785,-37.21192169189453,-0.6649328470230103,0.06540379673242569,0.034989356994628906,0.041377127,-0.15515132,9.764786,0.5851624,-0.30411917,9.743814,0
5,987.68212890625,-2.2413284750655293E-4,-2.466448349878192E-4,-3.045093035325408E-5,-5.532530307769775,21.125368118286133,-37.287044525146484,-0.6570146083831787,0.050788432359695435,0.020981788635253906,0.03660339,-0.13846852,9.769522,0.5866667,-0.28012598,9.7489195,0
5,987.6773681640625,4.212401108816266E-5,-3.797931713052094E-4,-2.967921318486333E-4,-5.070860385894775,20.451475143432617,-37.39573669433594,-0.663802981376648,0.09343796223402023,-0.0025196075439453125,0.050948918,-0.15991817,9.771889,0.59160316,-0.30159962,9.750746,0
5,987.6951904296875,7.078550406731665E-4,6.854798411950469E-4,-1.6365927876904607E-4,-5.388585090637207,21.576326370239258,-37.48957824707031,-0.6561173796653748,0.06950973719358444,0.045004844665527344,0.04856512,-0.14561863,9.752952,0.5857234,-0.29544887,9.732074,0
5,987.6951904296875,7.078550406731665E-4,6.854798411950469E-4,-1.6365927876904607E-4,-5.723649024963379,21.42070198059082,-37.58280944824219,-0.6479185819625854,0.07401725649833679,0.04048633575439453,0.050746262,-0.15276332,9.757666,0.58294874,-0.30093625,9.7369175,0
5,987.6622314453125,1.751644886098802E-4,1.9699684344232082E-5,1.0263145668432117E-4,-5.567963600158691,21.1453914642334,-38.129581451416016,-0.6356258988380432,0.06898055225610733,0.045386314392089844,0.043574035,-0.15276326,9.757667,0.57527906,-0.29433239,9.737542,0
5,987.665283203125,3.092964761890471E-4,-5.130902281962335E-4,-4.295827238820493E-4,-5.297550201416016,20.660917282104492,-37.83496856689453,-0.6612067818641663,0.05899113416671753,0.026635169982910156,0.05791092,-0.13608028,9.762402,0.59322065,-0.27988052,9.741464,0
5,987.6654663085938,-4.885899252258241E-4,-3.8010452408343554E-4,-2.959700650535524E-4,-5.362306594848633,21.127161026000977,-38.00624084472656,-0.6328113079071045,0.06336743384599686,0.022170066833496094,0.041179,-0.13369693,9.774237,0.57537556,-0.26935852,9.754571,0
5,987.6654663085938,-4.885899252258241E-4,-3.8010452408343554E-4,-2.959700650535524E-4,-5.362306594848633,21.127161026000977,-38.00624084472656,-0.636081337928772,0.0917852520942688,0.031729698181152344,0.04834622,-0.15991296,9.750565,0.5652186,-0.3050203,9.730823,0
6,987.6728515625,3.103821654804051E-4,-1.1379257193766534E-4,-1.6280164709314704E-4,-5.360677719116211,20.02229118347168,-37.71088790893555,-0.6379736661911011,0.06776518374681473,0.027169227600097656,0.043563843,-0.14561315,9.7624,0.56421155,-0.28854185,9.742995,0
6,987.6748046875,-2.2222503321245313E-4,1.9361323211342096E-5,2.3668268113397062E-4,-5.52978515625,20.496179580688477,-37.86652374267578,-0.6450873613357544,0.04837422072887421,0.05098438262939453,0.048341095,-0.13846333,9.752932,0.57223815,-0.2746821,9.733359,0
6,987.6881713867188,5.767468246631324E-4,8.183050667867064E-4,1.0353518882766366E-4,-5.472607612609863,21.234827041625977,-38.380462646484375,-0.6372398734092712,0.05271339416503906,0.04169654846191406,0.048338592,-0.1408465,9.7624,0.56808156,-0.27798986,9.743029,0
6,987.7085571289062,-8.879415108822286E-4,-2.469663741067052E-4,-2.9601796995848417E-5,-5.831884384155273,21.16155433654785,-37.935890197753906,-0.6277757287025452,0.06625348329544067,0.046703338623046875,0.050725937,-0.15276285,9.764767,0.5608338,-0.29397357,9.7455435,0
6,987.7085571289062,-8.879415108822286E-4,-2.469663741067052E-4,-2.9601796995848417E-5,-5.831884384155273,21.16155433654785,-37.935890197753906,-0.6213569641113281,0.06619033962488174,0.013658523559570312,0.045943618,-0.14322968,9.776602,0.5647017,-0.26734564,9.757777,0
6,987.6705322265625,-3.552854177542031E-4,-7.796021527610719E-4,-1.6274926019832492E-4,-5.12205696105957,20.82505989074707,-37.56367874145508,-0.6326535940170288,0.07560621947050095,0.042243003845214844,0.057890594,-0.15514602,9.7624,0.5635578,-0.2906462,9.743193,0
6,987.6805419921875,2.390443696640432E-4,2.4302827659994364E-4,-1.248187618330121E-4,-5.643810272216797,20.8632755279541,-37.485511779785156,-0.629647970199585,0.056061722338199615,0.023477554321289062,0.05788803,-0.14084627,9.771868,0.56538606,-0.27816302,9.752719,0
6,987.6552124023438,1.0591087630018592E-4,-1.5644951781723648E-4,1.4150753850117326E-4,-5.492936134338379,21.58397102355957,-37.47394943237305,-0.6078435182571411,0.05114369094371796,0.023632049560546875,0.038766325,-0.14084627,9.760031,0.5492021,-0.26027834,9.742185,0
6,987.682861328125,-2.9353826539590955E-4,7.756520644761622E-4,1.415180740877986E-4,-5.6132097244262695,21.4189510345459,-37.90766525268555,-0.6146911382675171,0.06497254222631454,0.03798866271972656,0.045933485,-0.15037926,9.760031,0.5480906,-0.27482802,9.742023,0
6,987.6807250976562,1.059596543200314E-4,3.761742846108973E-4,6.741601973772049E-4,-5.592720985412598,21.596033096313477,-37.69023132324219,-0.6120262145996094,0.07912002503871918,0.014470100402832031,0.03876123,-0.15514572,9.776602,0.53947467,-0.2735202,9.759185,0
6,987.6834106445312,-2.9348948737606406E-4,-1.5646139218006283E-4,-1.2477702694013715E-4,-5.6768798828125,21.14861488342285,-37.88203430175781,-0.6090869903564453,0.036093875765800476,0.043044090270996094,0.04592842,-0.13369618,9.755297,0.54693544,-0.26017922,9.737503,0
6,987.6731567382812,9.049564250744879E-4,-6.890972144901752E-4,8.073391509242356E-4,-5.40853214263916,21.030961990356445,-37.60856628417969,-0.6104104518890381,0.05961202085018158,0.04323863983154297,0.05070561,-0.14322923,9.764765,0.5483327,-0.26352298,9.74698,0
6,987.7183837890625,1.0603299597278237E-4,-0.0016212067566812038,-9.237037156708539E-4,-5.673974514007568,21.0456485748291,-37.33756637573242,-0.6025527119636536,0.06410085409879684,0.024473190307617188,0.045923322,-0.14084591,9.764765,0.5393083,-0.26366925,9.74742,0
6,987.68115234375,-1.6025820514187217E-4,7.756322738714516E-4,-2.57903418969363E-4,-5.095778465270996,20.37589454650879,-38.0803337097168,-0.5996034145355225,0.06842260807752609,0.02463531494140625,0.05787027,-0.15276219,9.762398,0.54708827,-0.27054414,9.744671,0
6,987.6580810546875,-9.591815178282559E-4,-0.0012217408511787653,4.0789670310914516E-4,-5.062272071838379,20.828603744506836,-37.9580192565918,-0.6013222932815552,0.05853240191936493,0.029539108276367188,0.048308134,-0.14561234,9.769499,0.54057795,-0.25426108,9.752424,0
6,987.6862182617188,-2.7051486540585756E-5,-2.3323387722484767E-5,5.410651792772114E-4,-5.715930938720703,20.321725845336914,-37.5966796875,-0.5796232223510742,0.07235079258680344,0.034412384033203125,0.033966184,-0.15037881,9.762397,0.5136278,-0.2708746,9.746331,0
6,987.6530151367188,-1.6018474707379937E-4,2.4298863718286157E-4,2.74759775493294E-4,-5.880610466003418,20.694116592407227,-37.28515625,-0.5816254019737244,0.05764278024435043,0.03929901123046875,0.043523252,-0.14084567,9.764764,0.5237869,-0.26390862,9.748249,0
6,987.6836547851562,-2.933184732683003E-4,3.7614244502037764E-4,-3.910194500349462E-4,-5.418505668640137,20.75827980041504,-37.668060302734375,-0.5885167121887207,0.062214866280555725,0.020505905151367188,0.045910627,-0.15514524,9.757662,0.5235391,-0.2663055,9.741312,0
6,987.6630249023438,0.0010382854379713535,-1.5649314445909113E-4,-6.573248538188636E-4,-5.546932220458984,20.954179763793945,-37.813697814941406,-0.5649186372756958,0.057365648448467255,0.04915809631347656,0.043518186,-0.15037863,9.760029,0.5195341,-0.26130152,9.743947,0
6,987.6736450195312,2.3936229990795255E-4,-4.2281305650249124E-4,6.7426502937451E-4,-5.787319183349609,21.15036964416504,-37.55718231201172,-0.5685150623321533,0.06689372658729553,0.0350189208984375,0.03395605,-0.14322866,9.760029,0.5092227,-0.25324857,9.744558,0
6,987.6963500976562,9.05176333617419E-4,0.0011750783305615187,1.4164374442771077E-4,-5.819303512573242,20.699132919311523,-37.756805419921875,-0.5795556306838989,0.07164676487445831,0.030488967895507812,0.052431047,-0.15989591,9.774173,0.5165011,-0.27907395,9.7579775,0
6,987.6862182617188,1.0988564463332295E-4,-2.1292464225552976E-5,-9.193572914227843E-4,-5.560629844665527,20.940927505493164,-37.117950439453125,-0.5814818143844604,0.06164824217557907,0.030640602111816406,0.052403092,-0.14797886,9.764702,0.522232,-0.25759405,9.748589,0
6,987.6940307617188,5.103787989355624E-4,-8.204056648537517E-4,1.3185199350118637E-5,-5.753567695617676,20.60264778137207,-37.761287689208984,-0.5688505172729492,0.056958504021167755,0.035541534423828125,0.042815566,-0.138445,9.75523,0.50948375,-0.25183123,9.73974,0
6,987.6889038085938,5.106480675749481E-4,-9.536072611808777E-4,1.330056693404913E-5,-5.566579818725586,21.04094886779785,-37.5078125,-0.5846730470657349,0.04750621318817139,0.030986785888671875,0.05712706,-0.1455941,9.76943,0.5224867,-0.253561,9.7534075,0
6,987.6633911132812,0.0010435490403324366,2.4477049009874463E-4,6.792055792175233E-4,-5.502366542816162,20.942995071411133,-37.43498992919922,-0.5581592321395874,0.06207529455423355,0.035861968994140625,0.03797993,-0.13606037,9.762327,0.5033572,-0.24059093,9.747396,0
7,987.6940307617188,3.7802866427227855E-4,-5.542208673432469E-4,8.124788873828948E-4,-5.652804374694824,20.960351943969727,-37.72076416015625,-0.5600876212120056,0.047346845269203186,0.03127765655517578,0.040341854,-0.14559282,9.769426,0.49622637,-0.25676137,9.754606,0
7,987.6710815429688,6.446136976592243E-4,-6.87422463670373E-4,2.7996243443340063E-4,-6.002949237823486,20.89591407775879,-37.740020751953125,-0.5527968406677246,0.0665038600564003,0.021942138671875,0.04031396,-0.1527419,9.767056,0.49277192,-0.25952652,9.752444,0
7,987.6768188476562,7.780410232953727E-4,0.0010435872245579958,1.4691997785121202E-4,-5.9211530685424805,21.0780086517334,-37.994232177734375,-0.5596017241477966,0.06129869818687439,0.026818275451660156,0.052235544,-0.14320813,9.764687,0.51035154,-0.24206316,9.749529,0
7,987.6817626953125,-5.532695795409381E-4,-1.548780855955556E-4,-2.5243847630918026E-4,-5.147953510284424,20.37971305847168,-38.07251739501953,-0.5519996881484985,0.0706183984875679,0.022230148315429688,0.045037925,-0.15035723,9.75995,0.50150216,-0.23878345,9.745395,0
7,987.6817626953125,-5.532695795409381E-4,-1.548780855955556E-4,-2.5243847630918026E-4,-5.087869644165039,21.015398025512695,-38.0419921875,-0.5538206100463867,0.03690321743488312,0.046054840087890625,0.04739982,-0.13605697,9.759947,0.49969298,-0.23780951,9.74531,0
7,987.6815185546875,-2.866845461539924E-4,-0.0013533432502299547,-5.186391063034534E-4,-5.790225028991699,21.25333595275879,-38.101646423339844,-0.5464218854904175,0.06503178179264069,0.036716461181640625,0.047371924,-0.15035595,9.778881,0.4927932,-0.25127846,9.764498,0
7,987.6490478515625,-2.864152775146067E-4,6.439821445383132E-4,5.467398441396654E-4,-5.661255836486816,20.68914222717285,-37.85755920410156,-0.5585222244262695,0.050275206565856934,0.022624969482421875,0.0569036,-0.15035523,9.774145,0.5021447,-0.24821317,9.759405,0
7,987.6668701171875,-1.5298795187845826E-4,0.001176570076495409,-0.0010510400170460343,-5.472064018249512,20.866540908813477,-38.282012939453125,-0.5461653470993042,0.04500911384820938,0.01803112030029297,0.044926196,-0.14082141,9.771774,0.49522942,-0.22594458,9.75772,0
7,987.652099609375,1.1386635014787316E-4,-6.877284031361341E-4,6.802439456805587E-4,-5.568399906158447,20.407339096069336,-37.855377197265625,-0.5373039245605469,0.049565769731998444,0.037174224853515625,0.04728818,-0.15273713,9.776506,0.48397076,-0.24879056,9.762659,0
7,987.652099609375,1.1386635014787316E-4,-6.877284031361341E-4,6.802439456805587E-4,-5.568399906158447,20.407339096069336,-37.855377197265625,-0.5405480861663818,0.054305627942085266,0.01831531524658203,0.0400905,-0.1432034,9.769403,0.48510006,-0.223517,9.755926,0
7,987.6903686523438,1.1413550237193704E-4,-1.5514028200414032E-4,1.4772743452340364E-4,-5.039717674255371,20.638864517211914,-37.71944046020508,-0.542127788066864,0.04018954932689667,0.037415504455566406,0.052012086,-0.14081936,9.764666,0.4880935,-0.23649928,9.750748,0
7,987.6674194335938,0.0010465099476277828,-9.541315957903862E-4,8.136325050145388E-4,-5.763105392456055,21.068017959594727,-38.09498596191406,-0.5487452745437622,0.04933220148086548,0.04702949523925781,0.061543763,-0.14320196,9.757562,0.49388,-0.2393253,9.743362,0
7,987.6878051757812,1.1467369040474296E-4,-9.541753679513931E-4,-2.5151565205305815E-4,-5.712589263916016,20.956811904907227,-37.326419830322266,-0.5219491124153137,0.06833885610103607,0.028237342834472656,0.042396665,-0.14796777,9.762293,0.46829364,-0.24321114,9.749236,0
7,987.6699829101562,5.144167807884514E-4,-5.547452019527555E-4,8.138632983900607E-4,-5.986345291137695,20.80620002746582,-37.89129638671875,-0.5293724536895752,0.06343941390514374,0.03780937194824219,0.044758618,-0.15511699,9.767025,0.4693339,-0.24407223,9.754025,0
7,987.6600341796875,3.815279924310744E-4,3.77316668163985E-4,-2.5128491688519716E-4,-5.661255359649658,20.68914222717285,-37.85755920410156,-0.5361030101776123,0.05824138969182968,0.04741477966308594,0.054290295,-0.14319994,9.755187,0.47900808,-0.23541567,9.741778,0
7,987.659912109375,3.8206641329452395E-4,-5.548762856051326E-4,1.52618158608675E-5,-5.426955699920654,20.487062454223633,-37.80485534667969,-0.5285459756851196,0.06282873451709747,0.061753273010253906,0.049482524,-0.14558248,9.75045,0.4731397,-0.23036858,9.737453,0
7,987.6676025390625,-1.713825622573495E-5,1.1086967424489558E-4,2.81692948192358E-4,-5.342115879058838,20.67210578918457,-38.21367645263672,-0.5168882608413696,0.03390691429376602,0.03818035125732422,0.04706472,-0.1312821,9.757549,0.47551888,-0.21229729,9.744642,0
7,987.6652221679688,-1.5002716099843383E-4,7.766156923025846E-4,4.149662854615599E-4,-5.742615699768066,21.24509620666504,-37.87754821777344,-0.5142683982849121,0.05759532004594803,0.028839111328125,0.05420655,-0.15034766,9.759913,0.4719348,-0.23509128,9.746971,0
7,987.662841796875,-4.886521492153406E-5,-6.968436355236918E-5,-4.901026259176433E-4,-5.28635311126709,20.302934646606445,-38.27764892578125,-0.5210198163986206,0.04268662631511688,0.02423572540283203,0.051788688,-0.12651427,9.771748,0.4769142,-0.20823134,9.758839,0
7,987.6728515625,-9.807015303522348E-4,-6.972806295379996E-5,-4.899872583337128E-4,-5.580981254577637,20.869760513305664,-38.034461975097656,-0.5090929269790649,0.061293020844459534,0.04801750183105469,0.037927657,-0.14320888,9.767056,0.45532915,-0.21945968,9.755094,0
7,987.6428833007812,-5.0748465582728386E-5,4.632531199604273E-4,7.07511673681438E-4,-5.495299339294434,21.318647384643555,-37.91996765136719,-0.5076510310173035,0.05178675055503845,0.03383827209472656,0.057555765,-0.15513779,9.767103,0.47004542,-0.23129432,9.754448,0
7,987.6807250976562,2.0832661539316177E-4,7.307444466277957E-4,-6.271708407439291E-4,-5.363828659057617,21.125688552856445,-37.928932189941406,-0.5244651436805725,0.06570560485124588,0.029209136962890625,0.052788615,-0.1503715,9.762369,0.46552595,-0.2226358,9.750025,0
7,987.6756591796875,7.40836258046329E-4,0.0012633961159735918,1.7172435764223337E-4,-5.595520496368408,20.592660903930664,-37.86204147338867,-0.49845391511917114,0.04188157618045807,0.0340423583984375,0.0408518,-0.13607217,9.760004,0.4530969,-0.21258977,9.748199,0
7,987.6738891601562,2.0808225963264704E-4,-6.007952033542097E-4,0.0011037775548174977,-5.489349365234375,21.218626022338867,-37.53010559082031,-0.5181190967559814,0.0604155957698822,0.029500961303710938,0.055203915,-0.15275542,9.769473,0.46215877,-0.22494899,9.757296,0
8,987.6864624023438,-4.5782967936247587E-4,-3.3445953158661723E-4,-2.2785417968407273E-4,-5.627205848693848,20.773557662963867,-37.63679504394531,-0.49778932332992554,0.03169683367013931,0.03428840637207031,0.036097348,-0.13130625,9.769475,0.4463928,-0.20281641,9.758114,0
8,987.6686401367188,-3.247938584536314E-4,5.976659012958407E-4,-4.942223313264549E-4,-5.441059112548828,20.94801139831543,-37.906639099121094,-0.4904298782348633,0.059730298817157745,0.04860496520996094,0.043279767,-0.14322294,9.755273,0.44844356,-0.21024142,9.743841,0
8,987.6561889648438,7.45577272027731E-5,-6.007358315400779E-4,1.715148682706058E-4,-5.32649040222168,20.21262550354004,-38.18919372558594,-0.5025941133499146,0.059669189155101776,0.02976703643798828,0.050462127,-0.14798982,9.762375,0.45050246,-0.21936136,9.750762,0
8,987.6738891601562,-1.918802736327052E-4,9.971793042495847E-4,5.709363031201065E-4,-5.255347728729248,20.384408950805664,-37.90227508544922,-0.5002150535583496,0.04960087686777115,0.04880714416503906,0.062424302,-0.14322354,9.750541,0.462233,-0.2143369,9.738473,0
8,987.686767578125,-9.90950153209269E-4,3.3140950836241245E-4,5.708839744329453E-4,-5.3533124923706055,21.03008460998535,-37.770992279052734,-0.5023909211158752,0.049217455089092255,0.039452552795410156,0.05048749,-0.1408406,9.764746,0.45135397,-0.20423687,9.753319,0
8,987.65869140625,-5.8966921642422676E-5,4.6458729775622487E-4,-6.275898194871843E-4,-5.379345893859863,20.478818893432617,-37.58075714111328,-0.4862005114555359,0.03479405492544174,0.039534568786621094,0.048110247,-0.1289245,9.755278,0.44910946,-0.19537888,9.743948,0
8,987.6259155273438,7.406878285109997E-5,3.3144920598715544E-4,3.0446331948041916E-4,-5.232357501983643,20.93272590637207,-37.937904357910156,-0.4978429973125458,0.039243876934051514,0.053856849670410156,0.060072422,-0.15037431,9.757645,0.45374194,-0.21252505,9.746118,0
8,987.6641845703125,-5.921127740293741E-5,-6.006365874782205E-4,3.044109616894275E-4,-5.735548973083496,21.620752334594727,-38.362525939941406,-0.49989932775497437,0.06745896488428116,0.05397319793701172,0.060085118,-0.15275796,9.748178,0.44754985,-0.21881896,9.736824,0
8,987.674560546875,3.401403082534671E-4,5.978047265671194E-4,3.804272273555398E-5,-5.812374114990234,20.9688663482666,-37.542701721191406,-0.47865572571754456,0.0338025763630867,0.049330711364746094,0.04336846,-0.14322512,9.7481785,0.4307476,-0.20811811,9.737583,0
8,987.6820678710938,-7.252454524859786E-4,3.315086360089481E-4,1.711483928374946E-4,-5.695985794067383,20.867097854614258,-37.477699279785156,-0.4907724857330322,0.062104903161525726,0.030488967895507812,0.06011048,-0.14799197,9.757648,0.45104635,-0.2007168,9.746461,0
8,987.7177124023438,-5.957786925137043E-5,0.0013967921258881688,-3.615357563830912E-4,-4.820499897003174,20.52797508239746,-37.59276580810547,-0.48877549171447754,0.061659619212150574,0.04477500915527344,0.050563544,-0.15037556,9.760017,0.4337513,-0.2114372,9.749372,0
8,987.6723022460938,-1.9285804592072964E-4,3.31548391841352E-4,9.69991204328835E-4,-5.417961597442627,20.389986038208008,-37.56960678100586,-0.48646217584609985,0.04698064178228378,0.04487133026123047,0.052966118,-0.14084275,9.764753,0.43860066,-0.19939655,9.754022,0
8,987.6571044921875,-3.26138106174767E-4,0.0011305157095193863,-2.2848270600661635E-4,-5.336165428161621,20.57207679748535,-37.82381820678711,-0.47476959228515625,0.02776186913251877,0.04022693634033203,0.048198998,-0.1336933,9.767122,0.4328022,-0.19424516,9.75663,0
8,987.641845703125,7.390031823888421E-4,1.9843010522890836E-4,-9.537703590467572E-5,-5.444401264190674,20.312929153442383,-38.17689514160156,-0.4867357909679413,0.051313914358615875,0.016655921936035156,0.055381358,-0.13846011,9.774223,0.4410114,-0.18912567,9.763576,0
8,987.6876831054688,-7.258564000949264E-4,5.979237030260265E-4,-4.949031281284988E-4,-4.960422039031982,20.449724197387695,-37.72058868408203,-0.47520527243614197,0.051171980798244476,0.03567695617675781,0.050614238,-0.14561029,9.755287,0.42805132,-0.20131299,9.745031,0
8,987.6876831054688,-7.258564000949264E-4,5.979237030260265E-4,-4.949031281284988E-4,-5.284968376159668,20.1984920501709,-37.65587615966797,-0.4681588411331177,0.03673987835645676,0.026302337646484375,0.048236996,-0.13846077,9.769492,0.42691922,-0.19245158,9.759364,0
8,987.652099609375,-6.0188816860318184E-5,8.642594330012798E-4,-9.548180969431996E-5,-5.4751081466674805,20.86359214782715,-38.127403259277344,-0.4799899160861969,0.050649650394916534,0.05007743835449219,0.06975874,-0.15514402,9.75529,0.43739745,-0.21707956,9.744545,0
8,987.6702880859375,2.060049446299672E-4,-2.0098422828596085E-4,-2.286920789629221E-4,-5.618074417114258,20.78239631652832,-38.100624084472656,-0.5012050867080688,0.059676870703697205,0.04545116424560547,0.06738156,-0.13607807,9.764761,0.43935883,-0.19748348,9.754054,0
8,987.6674194335938,-4.599065287038684E-4,-7.335962145589292E-4,1.7072964692488313E-4,-5.77071475982666,21.06065559387207,-37.708457946777344,-0.42259159684181213,0.011973150074481964,0.036072731018066406,0.01959616,-0.12654527,9.760027,0.3971519,-0.1675517,9.751345,0
8,987.6778564453125,-1.93712767213583E-4,0.0012637926265597343,3.038351715076715E-4,-5.314995765686035,20.486787796020508,-38.20701217651367,-0.4776129424571991,0.07824575901031494,0.021963119506835938,0.07457662,-0.17659439,9.771863,0.42726105,-0.23890963,9.761476,0
8,987.6954956054688,-6.067706272006035E-5,-6.776688678655773E-5,3.746693255379796E-5,-5.916724681854248,20.976511001586914,-37.527069091796875,-0.46618252992630005,0.030243463814258575,0.050406455993652344,0.044252545,-0.12894715,9.762463,0.41545066,-0.17528623,9.752996,0
8,987.6705932617188,-4.602730041369796E-4,-3.340629336889833E-4,-2.28901335503906E-4,-5.490190505981445,20.954782485961914,-38.053428649902344,-0.43509969115257263,0.04426674544811249,0.04576683044433594,0.046684325,-0.15039767,9.769568,0.4109638,-0.19089212,9.7603245,0
8,987.6756591796875,3.3762253588065505E-4,-7.194095815066248E-5,2.994513197336346E-4,-5.404508590698242,21.40366554260254,-37.93893051147461,-0.4564592242240906,0.048629142343997955,0.012723922729492188,0.049116135,-0.12894918,9.774307,0.41673318,-0.17297028,9.764862,0
8,987.6783447265625,-3.3115054247900844E-4,-8.704042411409318E-4,1.6501476056873798E-4,-5.457663059234619,21.037721633911133,-37.7553596496582,-0.43946704268455505,0.03910950571298599,0.02230072021484375,0.061107486,-0.14801647,9.767208,0.41809878,-0.19618185,9.757597,0
8,987.6582641601562,-1.9839633023366332E-4,-0.0010034966981038451,8.306315867230296E-4,-5.447988510131836,20.678274154663086,-38.1207389831543,-0.4557947516441345,0.07676183432340622,0.046077728271484375,0.053979665,-0.1551673,9.762478,0.40308267,-0.20571722,9.753366,0
9,987.6660766601562,-6.564200157299638E-5,-0.0014029049780219793,4.30984771810472E-4,-5.886560440063477,20.794137954711914,-37.675018310546875,-0.42507728934288025,0.01944659650325775,0.050891876220703125,0.034902334,-0.13133554,9.762482,0.3933862,-0.17148006,9.753992,0
9,987.660888671875,-1.9960716599598527E-4,8.609110373072326E-4,3.1164963729679585E-5,-5.434566020965576,20.479700088500977,-37.41832733154297,-0.46126171946525574,0.0479850172996521,0.05097198486328125,0.07318261,-0.14801957,9.757751,0.42274714,-0.19715875,9.747994,0
9,987.6967163085938,8.6525286315009E-4,9.94134577922523E-4,-0.0013005872024223208,-5.567558765411377,20.671186447143555,-37.332054138183594,-0.44497090578079224,0.03348144143819809,0.04157543182373047,0.05410528,-0.13610418,9.760123,0.40646055,-0.17984273,9.751099,0
9,987.6812744140625,-3.3357221400365233E-4,3.2841030042618513E-4,3.0818977393209934E-5,-5.4676361083984375,20.765039443969727,-37.814849853515625,-0.42805051803588867,0.03812360763549805,0.03220558166503906,0.04936737,-0.13848849,9.764862,0.39992696,-0.17745312,9.756163,0
9,987.7119140625,3.318138769827783E-4,-0.0012694194447249174,-1.025118981488049E-4,-5.011075019836426,20.455018997192383,-37.79008483886719,-0.42883265018463135,0.042669132351875305,0.03709220886230469,0.04940924,-0.14087282,9.755396,0.39793915,-0.17165536,9.746909,0
9,987.7249145507812,6.50945003144443E-5,-0.001136195962317288,1.636309316381812E-4,-5.350704193115234,20.29497718811035,-37.651397705078125,-0.44212716817855835,0.0329512283205986,0.03713035583496094,0.05184096,-0.13849054,9.760135,0.39723855,-0.17652144,9.751571,0
9,987.6898803710938,6.469088839367032E-5,0.0012607125099748373,-7.686474127694964E-4,-5.4490742683410645,21.414854049682617,-38.31764221191406,-0.44493430852890015,0.06126333773136139,0.05613994598388672,0.059052587,-0.15517451,9.76724,0.3992956,-0.18924396,9.758653,0
9,987.6973266601562,1.4343549264594913E-4,-8.585932664573193E-5,9.415162494406104E-4,-5.607558250427246,20.686792373657227,-37.94267654418945,-0.4236292243003845,0.03748267889022827,0.03728485107421875,0.04714495,-0.1480257,9.755407,0.38464734,-0.18443032,9.747314,0
9,987.67431640625,1.4303199714049697E-4,-4.8526760656386614E-4,-1.2392026837915182E-4,-5.663755893707275,20.317903518676758,-37.60449981689453,-0.4311550259590149,0.06575498729944229,0.03735828399658203,0.066305995,-0.16232638,9.769615,0.3952574,-0.20617133,9.761014,0
9,987.6566162109375,1.4262838521972299E-4,0.0012458511628210545,-1.2409326154738665E-4,-5.538235664367676,20.22496223449707,-38.003318786621094,-0.41951876878738403,0.07509393244981766,0.023230552673339844,0.05200848,-0.15994413,9.774353,0.3816048,-0.19682378,9.766365,0
9,987.6672973632812,9.06671630218625E-6,4.749518120661378E-5,-6.568979006260633E-4,-5.557883262634277,20.311731338500977,-37.69743728637695,-0.4220574200153351,0.041715703904628754,0.05645465850830078,0.056830168,-0.14564557,9.755419,0.38828164,-0.18355502,9.747215,0
9,987.65966796875,9.407688048668206E-4,1.807186345104128E-4,1.4187669148668647E-4,-5.955883026123047,21.25596809387207,-37.61437225341797,-0.43432939052581787,0.06995996832847595,0.03285503387451172,0.06643164,-0.15756293,9.769626,0.391617,-0.19791761,9.761265,0
9,987.6497192382812,-1.2489809887483716E-4,3.139420587103814E-4,2.748616097960621E-4,-5.688375949859619,20.874460220336914,-37.86422348022461,-0.412821501493454,0.04126230627298355,0.028206825256347656,0.04974419,-0.14803083,9.76963,0.37785855,-0.18031347,9.761903,0
9,987.6900634765625,6.736456998623908E-4,-0.0011507297167554498,1.4153070515021682E-4,-5.346138000488281,20.299394607543945,-37.88330841064453,-0.4390796422958374,0.04582122713327408,0.037761688232421875,0.0617356,-0.1480319,9.757797,0.38770673,-0.18059179,9.749739,0
9,987.6777954101562,-5.251791444607079E-4,1.809152017813176E-4,-1.2495811097323895E-4,-5.1330084800720215,20.1826114654541,-37.44741439819336,-0.4122580885887146,0.03108774870634079,0.033127784729003906,0.04026833,-0.13373323,9.757801,0.3718922,-0.15586926,9.750467,0
9,987.6932373046875,-1.2610905105248094E-4,3.141386841889471E-4,-0.0010572364553809166,-5.189069747924805,19.919641494750977,-37.808311462402344,-0.411360502243042,0.04059102386236191,0.04262733459472656,0.047479898,-0.15280046,9.767275,0.3698947,-0.17808273,9.759957,0
9,987.6806640625,-1.2651266297325492E-4,7.136780768632889E-4,-3.916197456419468E-4,-5.756474494934082,20.70562171936035,-38.305755615234375,-0.4001559615135193,0.030657954514026642,0.06161975860595703,0.0379622,-0.14088516,9.750708,0.36029077,-0.16783793,9.743695,0
9,987.6831665039062,-2.600739826448262E-4,0.0012463753810152411,-2.586347982287407E-4,-5.485625267028809,20.959199905395508,-38.28534698486328,-0.3887961506843567,0.04444994777441025,0.02853679656982422,0.035614133,-0.14565273,9.7672825,0.35824266,-0.16479968,9.760471,0
9,987.6581420898438,-2.60477710980922E-4,5.806511035189033E-4,-1.256499090231955E-4,-5.189069747924805,19.919641494750977,-37.80830764770508,-0.40102651715278625,0.05398993194103241,0.03334522247314453,0.049995422,-0.14088716,9.767286,0.37205914,-0.16255856,9.759989,0
9,987.69091796875,8.043822017498314E-4,-6.177049363031983E-4,-6.584546063095331E-4,-5.469701290130615,21.131860733032227,-37.83599853515625,-0.3889852464199066,0.04897694289684296,0.04763317108154297,0.050037295,-0.14565478,9.762556,0.36425546,-0.17438456,9.755417,0
9,987.6608276367188,-5.2760069957003E-4,-8.500751573592424E-5,-6.586275994777679E-4,-5.878951072692871,20.8015079498291,-38.06153869628906,-0.40640485286712646,0.03924253582954407,0.061893463134765625,0.050079167,-0.14327247,9.743622,0.36432546,-0.16812149,9.73654,0
9,987.6934814453125,2.709433319978416E-4,1.813738199416548E-4,2.733049332164228E-4,-5.8484883308410645,21.25126838684082,-37.78461456298828,-0.3853808045387268,0.04395062476396561,0.05722618103027344,0.040561438,-0.15042336,9.757828,0.35796323,-0.15763487,9.75123,0
9,987.6709594726562,1.373817794956267E-4,-6.175083690322936E-4,-1.263418816961348E-4,-4.962892055511475,21.290746688842773,-38.539268493652344,-0.40662887692451477,0.01490737497806549,0.024171829223632812,0.05255282,-0.13612469,9.769669,0.3694872,-0.15145108,9.762593,0
9,987.7142944335938,-3.9565347833558917E-4,-7.50600709579885E-4,-3.9283058140426874E-4,-5.35081148147583,21.401315689086914,-38.024051666259766,-0.3852929472923279,0.06253783404827118,0.043183326721191406,0.04303509,-0.16234173,9.772039,0.34937608,-0.17492124,9.765669,0
9,987.7142944335938,-3.9565347833558917E-4,-7.50600709579885E-4,-3.9283058140426874E-4,-5.513425827026367,21.406892776489258,-37.691383361816406,-0.39246153831481934,0.043104156851768494,0.02905750274658203,0.035253406,-0.1456439,9.764882,0.3423034,-0.16072759,9.758708,0
10,987.6668701171875,2.6973249623551965E-4,-3.510614042170346E-4,-2.598455175757408E-4,-5.778186798095703,21.159204483032227,-38.02101135253906,-0.37452229857444763,0.03821250796318054,0.057662010192871094,0.044168055,-0.14801125,9.757721,0.34879392,-0.16238675,9.751357,0
10,987.669189453125,2.7246022364124656E-4,-0.0011504518333822489,-5.249925889074802E-4,-5.447988510131836,20.678274154663086,-38.1207389831543,-0.3959629237651825,0.02853097766637802,0.043541908264160156,0.05611545,-0.14086144,9.762456,0.36059496,-0.15776609,9.755696,0
10,987.6741943359375,-1.1522241402417421E-4,-7.555622141808271E-4,2.7672358555719256E-4,-5.6608195304870605,21.427194595336914,-38.13176345825195,-0.3743443191051483,0.042610786855220795,0.05309486389160156,0.04894364,-0.14801122,9.757721,0.3483535,-0.1628713,9.751387,0
10,987.6814575195312,5.505876615643501E-4,-0.0010218813549727201,1.0416435543447733E-5,-5.489785671234131,20.48057746887207,-37.255897521972656,-0.38650912046432495,0.04717975854873657,0.034229278564453125,0.056111217,-0.15277766,9.762455,0.35283324,-0.16664347,9.756011,0
10,987.6995239257812,-3.8149754982441664E-4,-0.0010218846146017313,-3.8904871325939894E-4,-5.587611675262451,21.23215675354004,-37.823699951171875,-0.379210501909256,0.04724294692277908,0.04378318786621094,0.051329315,-0.14086123,9.767189,0.34975457,-0.15320027,9.760874,0
10,987.692138671875,5.506284069269896E-4,-8.887300500646234E-4,-5.22197806276381E-4,-5.575573921203613,21.138025283813477,-37.74306106567383,-0.386620432138443,0.042196691036224365,0.05332183837890625,0.056106985,-0.15277757,9.750619,0.345365,-0.17057733,9.744366,0
10,987.7074584960938,1.511749578639865E-4,1.7653009854257107E-4,-3.8903113454580307E-4,-5.922675132751465,21.076536178588867,-37.91692352294922,-0.3796604573726654,0.0418393537402153,0.03918743133544922,0.051325083,-0.15039428,9.762455,0.34326154,-0.15910752,9.756415,0
10,987.669677734375,1.5119556337594986E-4,-6.224208627827466E-4,-1.227065222337842E-4,-5.436493396759033,20.95243263244629,-38.1385498046875,-0.37734365463256836,0.03198745846748352,0.04399585723876953,0.053712845,-0.13847779,9.757719,0.34526414,-0.15145448,9.751562,0
10,987.6644897460938,-3.8141594268381596E-4,-8.979240374173969E-5,-2.558557316660881E-4,-5.686853885650635,20.875932693481445,-37.9415283203125,-0.37534114718437195,0.036458879709243774,0.04879283905029297,0.060880423,-0.14086108,9.757719,0.34579545,-0.16317461,9.751432,0
10,987.6646728515625,-3.813954535871744E-4,-7.555854390375316E-4,-5.221628816798329E-4,-6.187574863433838,20.722936630249023,-37.54747772216797,-0.36414825916290283,0.036383770406246185,0.04884529113769531,0.053708673,-0.1384777,9.760086,0.34064662,-0.15308255,9.75407,0
10,987.6956176757812,-6.476705893874168E-4,3.0967150814831257E-4,-3.8898747880011797E-4,-5.393884658813477,20.20171546936035,-37.40833282470703,-0.39060941338539124,0.03585023432970047,0.04417705535888672,0.06326613,-0.15039407,9.762454,0.3461977,-0.16144215,9.756341,0
10,987.7083129882812,-2.481765113770962E-4,-3.561215125955641E-4,6.762847770005465E-4,-5.630249977111816,20.770612716674805,-37.482181549072266,-0.36464589834213257,0.030501291155815125,0.03950309753417969,0.051314473,-0.14562742,9.762454,0.3343304,-0.15255766,9.756757,0
10,987.6777954101562,-3.8131384644657373E-4,4.334899131208658E-5,-3.889699000865221E-4,-5.50527286529541,21.04596519470215,-37.979454040527344,-0.35316118597984314,0.04931478202342987,0.020626068115234375,0.032193124,-0.15516047,9.779023,0.31339124,-0.15183175,9.774105,0
10,987.6981811523438,-3.8129359018057585E-4,4.334570257924497E-5,1.436705351807177E-4,-5.518151760101318,20.876253128051758,-38.58341979980469,-0.360751748085022,0.020599529147148132,0.03489112854003906,0.058479965,-0.13609429,9.757718,0.3412152,-0.14238177,9.751837,0
10,987.6834106445312,1.513586612418294E-4,-6.224473472684622E-4,-5.22110378369689E-4,-5.4594831466674805,20.404115676879883,-38.10292434692383,-0.3397645354270935,0.03924955427646637,0.05388164520263672,0.025019199,-0.15516038,9.76482,0.3015983,-0.15002483,9.760274,0
10,987.7091064453125,-3.812528448179364E-4,9.754446800798178E-4,-5.22101647220552E-4,-5.510136604309082,20.40941047668457,-38.17241668701172,-0.36658233404159546,0.029385998845100403,0.049202919006347656,0.06564546,-0.14801057,9.767187,0.3404931,-0.15588014,9.761349,0
10,987.6835327148438,-2.4807441513985395E-4,-3.56138072675094E-4,2.768546692095697E-4,-5.513180732727051,20.406465530395508,-38.01780319213867,-0.3788398504257202,0.05289826542139053,0.035060882568359375,0.05608368,-0.14801042,9.76482,0.32955563,-0.1517429,9.75936,0
10,987.6912841796875,1.8261722289025784E-5,-3.561413614079356E-4,4.100213700439781E-4,-5.322467803955078,20.585336685180664,-38.51956558227539,-0.37566351890563965,0.03804073482751846,0.0540924072265625,0.0584715,-0.13847734,9.764819,0.3346339,-0.13890487,9.7592535,0
10,987.6762084960938,-9.138232562690973E-4,-4.893026780337095E-4,-2.5575957261025906E-4,-5.502228736877441,21.04891014099121,-38.134063720703125,-0.34129223227500916,0.057089462876319885,0.020978927612304688,0.046519876,-0.15277691,9.783756,0.31748003,-0.14808318,9.778788,0
10,987.6943969726562,1.514606410637498E-4,3.096417058259249E-4,2.768809499684721E-4,-5.031266212463379,20.91007423400879,-37.5826416015625,-0.3491629958152771,0.047311536967754364,0.03996562957763672,0.05607736,-0.15516011,9.764819,0.32668546,-0.14604904,9.759655,0
10,987.6990966796875,3.2058078795671463E-4,6.0338134062476456E-5,-3.5750865936279297E-4,-5.13950252532959,20.65092658996582,-37.93572235107422,-0.3472664952278137,0.023422613739967346,0.058960914611816406,0.04890555,-0.13609387,9.757717,0.32221648,-0.12792738,9.752629,0
10,987.7246704101562,5.4285512305796146E-5,5.929665639996529E-4,-4.906578687950969E-4,-5.433587074279785,20.849458694458008,-37.594085693359375,-0.3364088237285614,0.01362321525812149,0.04005908966064453,0.046513528,-0.13371052,9.757717,0.31828022,-0.12736957,9.752722,0
10,987.7196044921875,1.8746359273791313E-4,-2.0598454284481704E-4,-4.906491376459599E-4,-4.950043201446533,20.248201370239258,-36.86357116699219,-0.3531726598739624,0.009029746055603027,0.049602508544921875,0.04651141,-0.13609378,9.752982,0.31699955,-0.12439448,9.748096,0
10,987.6767578125,5.4326257668435574E-5,-4.7230362542904913E-4,3.083072369918227E-4,-5.2500786781311035,20.546762466430664,-36.91179275512695,-0.3700505793094635,0.03283167630434036,0.030731201171875,0.070408285,-0.14801006,9.767185,0.33338085,-0.14512095,9.761791,0
11,987.7073364257812,4.5382045209407806E-4,-4.723069432657212E-4,1.7515802755951881E-4,-5.639244079589844,20.86768913269043,-37.71742630004883,-0.3450586497783661,0.027790307998657227,0.03539276123046875,0.050534695,-0.13851713,9.753132,0.31333512,-0.13356349,9.748299,0
11,987.7219848632812,5.0059868954122066E-5,3.205451066605747E-4,3.437133273109794E-5,-5.321626663208008,20.849184036254883,-37.996238708496094,-0.3250207304954529,0.02785269170999527,0.04488563537597656,0.050598145,-0.14566846,9.762608,0.31163698,-0.13556491,9.757909,0
11,987.7277221679688,3.099936293438077E-4,5.5265292758122087E-5,-1.0152184404432774E-4,-5.522312164306641,20.397626876831055,-37.55397415161133,-0.3330695927143097,0.04626641422510147,0.04965400695800781,0.05305147,-0.15281992,9.750776,0.3080429,-0.14658244,9.74615,0
11,987.6793212890625,-0.0011553546646609902,1.8852241919375956E-4,-6.34415599051863E-4,-5.668865203857422,20.681772232055664,-37.471031188964844,-0.3265485167503357,0.050808750092983246,0.030760765075683594,0.045945197,-0.14805491,9.764986,0.30134538,-0.13959777,9.760568,0
11,987.7133178710938,-9.070290252566338E-5,1.886217505671084E-4,2.974279341287911E-4,-5.240808486938477,20.661516189575195,-38.07469940185547,-0.3343220353126526,0.03620439022779465,0.049742698669433594,0.060348034,-0.1504397,9.746054,0.31461537,-0.13985862,9.741321,0
11,987.6923828125,-4.907879047095776E-4,-3.439108550082892E-4,-1.0230776388198137E-4,-5.951615333557129,20.628244400024414,-38.271156311035156,-0.3424510359764099,0.045305974781513214,0.04504108428955078,0.06280136,-0.1552078,9.7626295,0.31280288,-0.14843169,9.757923,0
11,987.6878051757812,7.070217980071902E-4,0.0015203995862975717,3.058812581002712E-5,-5.8400373458862305,21.52248191833496,-37.64781951904297,-0.3169369697570801,0.026327379047870636,0.05928802490234375,0.03896576,-0.14090975,9.7579,0.29273796,-0.127274,9.753774,0
11,987.7362060546875,7.064108503982425E-4,4.552353057079017E-4,-5.023056291975081E-4,-5.545003890991211,20.481447219848633,-37.093475341796875,-0.3248816430568695,0.01705525815486908,0.02619171142578125,0.046198905,-0.13614474,9.765009,0.3017379,-0.119569644,9.7606735,0
11,987.6929931640625,8.389578433707356E-4,5.884924903512001E-4,8.290117839351296E-4,-5.199425220489502,20.54146385192871,-36.84230422973633,-0.3472541868686676,0.03622404485940933,0.059372901916503906,0.06299165,-0.14567943,9.750811,0.31130636,-0.13715827,9.746168,0
11,987.6831665039062,3.0571443494409323E-4,-3.435138496570289E-4,5.624338518828154E-4,-5.614189147949219,21.0491886138916,-37.731910705566406,-0.3312470018863678,0.022214829921722412,0.03574657440185547,0.046325743,-0.1385311,9.76502,0.29905632,-0.11834611,9.760817,0
11,987.6831665039062,3.0571443494409323E-4,-3.435138496570289E-4,5.624338518828154E-4,-5.078875541687012,20.91831398010254,-37.80674362182617,-0.3249281048774719,0.03634871542453766,0.04525279998779297,0.055948794,-0.14806576,9.760292,0.3020818,-0.13384809,9.755983,0
11,987.7465209960938,3.0510313808918E-4,7.21848919056356E-4,1.626981538720429E-4,-5.385977745056152,20.841218948364258,-37.3699836730957,-0.34255164861679077,0.04128236323595047,0.06422901153564453,0.06079203,-0.15521719,9.750829,0.30223733,-0.14290768,9.746522,0
11,987.718505859375,9.702810784801841E-4,0.0012545798672363162,2.927816240116954E-5,-5.503888130187988,20.9415225982666,-37.35768127441406,-0.3075120449066162,0.036247655749320984,0.04532909393310547,0.041736186,-0.15521874,9.7626705,0.28239763,-0.13751172,9.75894,0
11,987.7286987304688,8.365121902897954E-4,-2.1005819144193083E-4,-6.367733585648239E-4,-5.414917945861816,20.39293098449707,-37.72421646118164,-0.32957738637924194,0.05034126341342926,0.040637969970703125,0.060918868,-0.152837,9.757942,0.30001688,-0.13927916,9.753723,0
11,987.716552734375,3.0326948035508394E-4,-7.68010359024629E-5,1.6191211761906743E-4,-5.19667911529541,19.912275314331055,-37.421783447265625,-0.3278713822364807,0.016753315925598145,0.031209945678710938,0.051422685,-0.1409222,9.767417,0.29221374,-0.12672529,9.763375,0
11,987.69873046875,-2.2997392807155848E-4,-7.670177728869021E-5,5.611238884739578E-4,-5.695985794067383,20.867097854614258,-37.477699279785156,-0.31129005551338196,0.030605673789978027,0.04546356201171875,0.04670632,-0.14330705,9.767423,0.28652087,-0.12277411,9.76361,0
11,987.6964721679688,-0.0010295328684151173,-6.092343246564269E-4,2.8230249881744385E-5,-5.538342475891113,21.331308364868164,-38.375980377197266,-0.28600722551345825,0.016140379011631012,0.05023002624511719,0.051549554,-0.14807512,9.74849,0.2877269,-0.12848021,9.744658,0
11,987.691162109375,-9.803904686123133E-5,-7.422929629683495E-4,1.6112608136609197E-4,-5.429020881652832,20.853879928588867,-37.82600021362305,-0.3364443778991699,0.039887309074401855,0.05028247833251953,0.07073215,-0.15760975,9.755598,0.30020466,-0.14484805,9.751432,0
11,987.7168579101562,4.339817678555846E-4,-0.0010085096582770348,1.6086414689198136E-4,-5.188526630401611,19.551355361938477,-37.709861755371094,-0.3013027310371399,0.006434276700019836,0.05032157897949219,0.037336946,-0.129012,9.757971,0.2768469,-0.10371056,9.754416,0
11,987.72705078125,-9.926094207912683E-5,3.2316899159923196E-4,5.600759759545326E-4,-5.191134452819824,20.28645896911621,-37.8294563293457,-0.3141234219074249,0.03503519296646118,0.021951675415039062,0.058909506,-0.14807983,9.765078,0.2900524,-0.12876417,9.761222,0
11,987.6737060546875,3.3285352401435375E-5,5.6952383602038026E-5,-1.0597571963444352E-4,-5.412417411804199,20.7641658782959,-37.97727584838867,-0.312691867351532,0.025289103388786316,0.05985736846923828,0.05419314,-0.13616498,9.755615,0.28699282,-0.11665376,9.751796,0
11,987.712158203125,-6.33727409876883E-4,7.22940603736788E-4,-5.059735267423093E-4,-5.4555983543396,20.670907974243164,-37.734214782714844,-0.29201552271842957,0.0440266951918602,0.031482696533203125,0.05186665,-0.15284945,9.769825,0.27892864,-0.13040556,9.766305,0
11,987.7098999023438,3.1451345421373844E-5,5.898818490095437E-4,-9.057092829607427E-4,-5.420569896697998,21.125089645385742,-37.68920135498047,-0.3050992488861084,0.024545148015022278,0.04570960998535156,0.049540162,-0.13855134,9.746159,0.2801841,-0.11307718,9.742584,0
11,987.7150268554688,-1.0231754276901484E-4,4.568231524899602E-4,0.0010913978330790997,-5.785658836364746,21.25775718688965,-38.33356475830078,-0.28939294815063477,0.010430924594402313,0.0315399169921875,0.044823825,-0.1314031,9.7769375,0.27567062,-0.10857016,9.773433,0
11,987.7051391601562,3.0228751711547375E-5,5.744856025557965E-5,-1.0728574125096202E-4,-5.464592933654785,20.767988204956055,-37.969459533691406,-0.30210283398628235,0.04852563887834549,0.03631114959716797,0.04927647,-0.1647609,9.77454,0.26904765,-0.13897443,9.771362,0
12,987.718017578125,4.2909139301627874E-4,4.570215824060142E-4,-7.733373786322773E-4,-5.108358860015869,20.838315963745117,-38.259422302246094,-0.2954118847846985,0.02922292798757553,0.0553436279296875,0.051315546,-0.14330284,9.757938,0.27789998,-0.11398476,9.754501,0
12,987.7205200195312,4.389517125673592E-4,0.0013840621104463935,4.2635566205717623E-4,-5.697071075439453,21.603673934936523,-37.674598693847656,-0.29403334856033325,0.02416311204433441,0.050640106201171875,0.044177532,-0.14330359,9.765042,0.26834127,-0.11517228,9.7618265,0
12,987.6952514648438,-9.39861056394875E-5,-8.062559936661273E-5,2.675072755664587E-5,-5.324808120727539,20.740320205688477,-37.142555236816406,-0.3113453984260559,0.028877802193164825,0.05068206787109375,0.060938597,-0.15045424,9.750841,0.28076047,-0.12491872,9.747349,0
12,987.6978759765625,-2.274495200254023E-4,-6.13207696005702E-4,-2.3969600442796946E-4,-5.5530195236206055,20.94828987121582,-37.504478454589844,-0.2858317494392395,0.014535211026668549,0.041251182556152344,0.041851074,-0.12185563,9.757946,0.26889288,-0.09342916,9.7546425,0
12,987.7608032226562,3.856088733300567E-5,4.521053924690932E-4,-6.393010262399912E-4,-5.303339958190918,21.28716468811035,-37.10087585449219,-0.29390203952789307,0.033463217318058014,0.041283607482910156,0.053832293,-0.13853939,9.765051,0.2758786,-0.107831195,9.761689,0
12,987.7310791015625,3.825541352853179E-5,-8.047670416999608E-5,2.6357825845479965E-5,-4.840147972106934,20.6147403717041,-37.28687286376953,-0.287403404712677,0.023939572274684906,0.046057701110839844,0.051474154,-0.1361569,9.767422,0.2739302,-0.10107973,9.764141,0
12,987.7310791015625,8.368970011360943E-4,-4.79900831123814E-4,-3.7324719596654177E-4,-5.3845930099487305,20.736772537231445,-36.74821472167969,-0.30015456676483154,0.033288173377513885,0.060296058654785156,0.07062504,-0.15284063,9.7484865,0.28299764,-0.12813115,9.744989,0
12,987.7009887695312,3.764353459700942E-5,-2.1353541524149477E-4,-2.4022022262215614E-4,-5.341954708099365,21.19832420349121,-37.08972930908203,-0.29829543828964233,0.023686759173870087,0.0366668701171875,0.046757758,-0.13854171,9.760325,0.26381886,-0.104625985,9.757295,0
12,987.6881713867188,3.0365382554009557E-4,-3.4664373379200697E-4,-5.066669546067715E-4,-5.703596115112305,20.85972785949707,-37.09117126464844,-0.29188108444213867,0.02383602410554886,0.055642127990722656,0.06590867,-0.13854249,9.753227,0.27803904,-0.11552538,9.749785,0
12,987.72607421875,4.218918620608747E-4,-4.6051183016970754E-4,3.3550255466252565E-4,-5.193474769592285,20.441442489624023,-36.45244598388672,-0.30924707651138306,0.028781265020370483,0.032011985778808594,0.06833029,-0.14330985,9.765066,0.27958927,-0.11532034,9.761673,0
12,987.6707763671875,2.884284476749599E-4,-4.6046223724260926E-4,-6.41021179035306E-5,-4.970937728881836,20.54532814025879,-37.87853240966797,-0.27401959896087646,0.023720450699329376,0.060455322265625,0.0325135,-0.14092733,9.7556,0.24515498,-0.09941778,9.753086,0
12,987.734130859375,2.88122973870486E-4,7.221920532174408E-5,6.015565013512969E-4,-5.341274261474609,20.93595314025879,-37.69035339355469,-0.30143871903419495,0.04259622097015381,0.05101203918457031,0.06839374,-0.15999432,9.743767,0.2713387,-0.13029408,9.740671,0
12,987.7369384765625,-1.1165632167831063E-4,6.049006478860974E-4,-1.9752210937440395E-4,-5.508997440338135,21.305395126342773,-37.224220275878906,-0.29032230377197266,-0.005179129540920258,0.027373313903808594,0.046916336,-0.12901245,9.772176,0.2589033,-0.09413438,9.769257,0
12,987.6889038085938,1.543538528494537E-4,-3.271554014645517E-4,-6.449519423767924E-5,-5.309725761413574,20.649133682250977,-37.21652603149414,-0.2694810628890991,0.03272359073162079,0.013205528259277344,0.044558167,-0.16237919,9.77928,0.24406418,-0.1273363,9.776854,0
12,987.7267456054688,-6.448999629355967E-4,7.236812962219119E-5,4.6800548443570733E-4,-5.564515113830566,20.674135208129883,-37.486663818359375,-0.2968602180480957,0.04187747836112976,0.04636859893798828,0.05414948,-0.14569701,9.757978,0.25640795,-0.11401939,9.75518,0
12,987.74169921875,2.0584266167134047E-5,0.0011376813054084778,2.015586942434311E-4,-5.633294582366943,20.767671585083008,-37.327571868896484,-0.26222044229507446,0.027504093945026398,0.0558624267578125,0.056571126,-0.15046431,9.75798,0.2578371,-0.11512587,9.755219,0
12,987.67138671875,-3.7919572787359357E-4,7.24673445802182E-5,-7.306780898943543E-4,-5.3383684158325195,20.832979202270508,-37.14588928222656,-0.2753998041152954,0.04606270790100098,0.07955265045166016,0.06138265,-0.15046509,9.739046,0.2598956,-0.11818672,9.736217,0
12,987.6968994140625,6.857620901428163E-4,7.383067277260125E-4,2.0129658514633775E-4,-5.337144374847412,20.20231819152832,-37.64806365966797,-0.2599096894264221,0.02232511341571808,0.06064033508300781,0.03990525,-0.13854949,9.748518,0.24319892,-0.097292766,9.746066,0
12,987.7171020507812,-1.1349102715030313E-4,-4.600651445798576E-4,3.3432350028306246E-4,-5.3699164390563965,21.11979866027832,-37.619712829589844,-0.2769584655761719,0.026802517473697662,0.04647636413574219,0.056666285,-0.15284999,9.769827,0.25474867,-0.11257394,9.767218,0
12,987.7171020507812,-1.1349102715030313E-4,-4.600651445798576E-4,3.3432350028306246E-4,-5.247982501983643,21.392202377319336,-37.962379455566406,-0.2755989134311676,0.03627248853445053,0.05597400665283203,0.0495283,-0.15046741,9.760361,0.24726933,-0.10731058,9.757925,0
12,987.7119140625,-2.4695444153621793E-4,-5.931734922342002E-4,-3.315972862765193E-4,-4.989064693450928,20.633569717407227,-37.64994812011719,-0.28874263167381287,0.026371173560619354,0.060729026794433594,0.05911964,-0.14808495,9.755629,0.25387958,-0.11185029,9.752988,0
12,987.7023315429688,-5.135757965035737E-4,0.0011379295028746128,4.6721944818273187E-4,-5.394428730010986,20.570009231567383,-37.50678253173828,-0.26359838247299194,0.02614492177963257,0.03234386444091797,0.047201812,-0.15285231,9.776937,0.24170253,-0.10949731,9.774646,0
12,987.6998291015625,1.8749560695141554E-5,7.385053322650492E-4,-4.650173941627145E-4,-5.127601146697998,20.450876235961914,-37.156005859375,-0.2765055298805237,0.025953002274036407,0.037105560302734375,0.056793183,-0.14570327,9.762736,0.25097972,-0.10547404,9.760194,0
12,987.7051391601562,6.842337897978723E-4,-5.930245970375836E-4,-1.988323638215661E-4,-5.2741546630859375,20.73502540588379,-37.07306671142578,-0.27527883648872375,0.021050117909908295,0.04659843444824219,0.0687744,-0.14808728,9.755637,0.25940487,-0.11313887,9.752896,0
13,987.7054443359375,-0.0010471255518496037,0.0010049203410744667,-6.580550689250231E-5,-5.571146011352539,21.036531448364258,-37.27589416503906,-0.2686407268047333,0.02552899718284607,0.032428741455078125,0.056824923,-0.13855417,9.765106,0.24936634,-0.09953849,9.762564,0
13,987.7001342773438,1.7832207959145308E-5,-3.266094718128443E-4,-1.9909453112632036E-4,-5.563535690307617,21.043893814086914,-37.66242218017578,-0.24268439412117004,0.035031192004680634,0.07035064697265625,0.042483687,-0.15523703,9.75327,0.22827315,-0.111209586,9.751291,0
13,987.6956176757812,1.7753394786268473E-5,-8.592283702455461E-4,2.003455301746726E-4,-5.522993087768555,20.659997940063477,-36.953346252441406,-0.2651212215423584,0.02996353805065155,0.05617237091064453,0.05924222,-0.14570467,9.753273,0.24683976,-0.10389798,9.750865,0
13,987.6849975585938,6.898758583702147E-4,-8.669479284435511E-4,-6.015886319801211E-4,-5.324808120727539,20.740320205688477,-37.142555236816406,-0.2587711215019226,0.015713609755039215,0.03253173828125,0.056881487,-0.13617225,9.762745,0.24415392,-0.09838073,9.760312,0
13,987.6849975585938,2.901206607930362E-4,-6.795459194108844E-5,-7.348671788349748E-4,-5.709002494812012,20.591463088989258,-37.38257598876953,-0.2619795799255371,0.03484851121902466,0.05623626708984375,0.056910694,-0.15047263,9.753279,0.23922628,-0.10904108,9.751063,0
13,987.7077026367188,-2.4279247736558318E-4,-0.001000014366582036,8.629075018689036E-4,-5.5258989334106445,20.762968063354492,-37.4978141784668,-0.25571033358573914,0.02511003613471985,0.042059898376464844,0.049770176,-0.14332353,9.765117,0.2349841,-0.09564419,9.763,0
13,987.6808471679688,-5.096709937788546E-4,-3.341333940625191E-4,-7.35228881239891E-4,-5.504430770874023,21.3098087310791,-37.45613479614258,-0.28312093019485474,0.03421739488840103,0.05154705047607422,0.07369834,-0.15285732,9.767487,0.2533987,-0.11254868,9.765024,0
13,987.6981811523438,-2.4363648844882846E-4,8.643337059766054E-4,5.962299183011055E-4,-5.500300884246826,20.576173782348633,-37.413841247558594,-0.2529994249343872,0.024427197873592377,0.03263378143310547,0.052218437,-0.1409417,9.762754,0.2339185,-0.0965443,9.760632,0
13,987.6883544921875,-7.76549510192126E-4,4.649056354537606E-4,5.961093120276928E-4,-5.8983001708984375,21.520410537719727,-37.330780029296875,-0.25652629137039185,0.033448852598667145,0.037384986877441406,0.052247643,-0.14094235,9.760391,0.23241925,-0.0966825,9.758305,0
13,987.6834716796875,-5.105151212774217E-4,-6.003122543916106E-4,1.965148840099573E-4,-5.392363548278809,20.20319175720215,-37.485633850097656,-0.24528443813323975,0.004974968731403351,0.06109142303466797,0.049886912,-0.12426014,9.750924,0.23365508,-0.07872578,9.748727,0
13,987.69091796875,2.1835381630808115E-5,-9.997403249144554E-4,1.9639433594420552E-4,-5.564078330993652,21.412187576293945,-37.76087188720703,-0.2530238628387451,0.03326037526130676,0.056387901306152344,0.05947572,-0.15047689,9.760395,0.23450458,-0.10361706,9.7583685,0
13,987.7012939453125,4.210278275422752E-4,-2.0074706117156893E-4,-3.3635785803198814E-4,-5.729598522186279,21.520727157592773,-37.97267150878906,-0.2520314157009125,0.028337694704532623,0.037467002868652344,0.052335203,-0.1433279,9.7675,0.22841327,-0.095556565,9.765553,0
13,987.6679077148438,4.207464517094195E-4,0.0016635097563266754,-2.0332075655460358E-4,-5.451713562011719,20.93770408630371,-37.365501403808594,-0.2509291172027588,0.014220662415027618,0.05169105529785156,0.057144225,-0.13379551,9.758034,0.23492634,-0.08653082,9.755906,0
13,987.6689453125,4.204651922918856E-4,-2.0065570424776524E-4,7.28664337657392E-4,-5.336165428161621,20.57207679748535,-37.823822021484375,-0.24498634040355682,0.038339100778102875,0.037512779235839844,0.05956331,-0.15047915,9.765139,0.23135391,-0.103094086,9.763194,0
13,987.6994018554688,5.53341640625149E-4,1.9886373775079846E-4,5.953857908025384E-4,-5.364126682281494,20.493547439575195,-38.35380554199219,-0.25794291496276855,0.023859433829784393,0.04700279235839844,0.06676221,-0.14809658,9.765141,0.23736362,-0.10295598,9.763064,0
13,987.6790161132812,-2.4588737869635224E-4,-3.3372233156114817E-4,-4.699982237070799E-4,-5.684490203857422,21.141252517700195,-37.49551010131836,-0.25646108388900757,0.023652806878089905,0.03282356262207031,0.0620116,-0.13618092,9.776979,0.23479486,-0.090473816,9.774887,0
13,987.6691284179688,-1.1301081394776702E-4,3.3211306435987353E-4,6.251293234527111E-5,-6.0185747146606445,21.355390548706055,-37.764495849609375,-0.2508285939693451,0.004605785012245178,0.056511878967285156,0.05726099,-0.12903179,9.758044,0.23013039,-0.08482242,9.755983,0
13,987.6663208007812,1.5302392421290278E-4,8.647905196994543E-4,-2.0392355509102345E-4,-5.26945161819458,20.845361709594727,-38.004058837890625,-0.24003846943378448,0.01385505497455597,0.02338886260986328,0.057290137,-0.14333214,9.760414,0.22719045,-0.09186638,9.758558,0
13,987.6716918945312,1.5274243196472526E-4,1.9904645159840584E-4,6.22717197984457E-5,-5.264043807983398,21.11362648010254,-37.71265411376953,-0.24816001951694489,0.02349824458360672,0.032883644104003906,0.057319343,-0.13618307,9.760417,0.22816807,-0.083725095,9.758509,0
13,987.6764526367188,1.9302999135106802E-5,4.6540796756744385E-4,-2.0416476763784885E-4,-5.085644721984863,21.1747989654541,-36.89689254760742,-0.25205209851264954,0.037564896047115326,0.042365074157714844,0.059738457,-0.15048341,9.76042,0.22664183,-0.09545889,9.758665,0
13,987.6791381835938,-6.467680796049535E-4,0.0013975591864436865,6.203062366694212E-5,-5.713568210601807,20.587045669555664,-37.150665283203125,-0.2366606593132019,0.03238651901483536,0.051845550537109375,0.050208032,-0.14810087,9.755688,0.2136801,-0.09774588,9.75411,0
13,987.6766357421875,-1.144175766967237E-4,-6.713240873068571E-5,5.945417215116322E-4,-5.5217695236206055,20.02933692932129,-37.45552062988281,-0.24981804192066193,0.0038218051195144653,0.07080459594726562,0.05979687,-0.124268785,9.750956,0.22882815,-0.077517964,9.748938,0
13,987.6795654296875,1.5161704504862428E-4,1.992291654460132E-4,-3.3768441062420607E-4,-5.836587905883789,21.051218032836914,-37.00489807128906,-0.2245556265115738,0.01326325535774231,0.03295135498046875,0.052656293,-0.145719,9.765162,0.2146466,-0.09496227,9.76357,0
13,987.6923828125,5.553585942834616E-4,-6.921601016074419E-4,1.8489843932911754E-4,-5.743732452392578,20.76942253112793,-37.00271987915039,-0.2329089343547821,0.041854895651340485,0.061377525329589844,0.0526855,-0.15048628,9.755695,0.2119019,-0.09911583,9.754193,0
13,987.6801147460938,2.2445456124842167E-5,9.057808201760054E-4,-6.141696940176189E-4,-5.750226020812988,21.237733840942383,-37.49102783203125,-0.2364494800567627,0.027590587735176086,0.042461395263671875,0.05749452,-0.14333715,9.758065,0.21802917,-0.09209366,9.756417,0
14,987.704833984375,-3.773096250370145E-4,-5.589108332060277E-4,-4.811324761249125E-4,-5.367851257324219,20.75297737121582,-37.59857177734375,-0.2533206343650818,0.017782017588615417,0.07096099853515625,0.061503828,-0.14570151,9.743792,0.22026864,-0.09320938,9.74214,0
14,987.68701171875,4.2709417175501585E-4,1.0599309462122619E-4,-7.932021981105208E-5,-5.5174479484558105,21.034181594848633,-37.36101531982422,-0.2330145537853241,0.022506311535835266,0.042575836181640625,0.06389123,-0.13616835,9.769832,0.22389968,-0.08639606,9.76804,0
14,987.699951171875,4.2899290565401316E-4,-2.7473055524751544E-5,-7.850647671148181E-5,-5.802400588989258,21.24155616760254,-37.48320770263672,-0.2223435491323471,0.022270619869232178,0.04259300231933594,0.047159374,-0.14331813,9.757994,0.20433429,-0.08831837,9.756621,0
14,987.6716918945312,-3.6993029061704874E-4,9.046286577358842E-4,5.466182483360171E-5,-5.837972640991211,21.155664443969727,-37.626670837402344,-0.23052048683166504,0.022103644907474518,0.033145904541015625,0.054326534,-0.13616823,9.767464,0.21296594,-0.081165865,9.765903,0
14,987.6923828125,2.9567861929535866E-5,-4.269547644071281E-4,-7.848558016121387E-5,-5.5380754470825195,20.751184463500977,-36.879371643066406,-0.22452177107334137,0.02202647179365158,0.04263591766357422,0.061493695,-0.13616817,9.755627,0.21758203,-0.08514138,9.753973,0
14,987.6923828125,2.9567861929535866E-5,-4.269547644071281E-4,-7.848558016121387E-5,-5.709002494812012,20.59147071838379,-37.3825798034668,-0.22792038321495056,0.03151480853557587,0.037924766540527344,0.056711346,-0.15285103,9.769831,0.20964533,-0.09330139,9.7684965,0
14,987.6876831054688,-3.6988139618188143E-4,-2.7484988095238805E-5,1.878407201729715E-4,-5.273038387298584,21.21070671081543,-37.947898864746094,-0.22674229741096497,0.02194681018590927,0.04741477966308594,0.063878566,-0.14808442,9.765095,0.21736287,-0.088604055,9.763606,0
14,987.7101440429688,2.9593263752758503E-4,6.383007857948542E-4,4.541671369224787E-4,-5.0463480949401855,21.00126075744629,-37.508670806884766,-0.2299814522266388,0.007760375738143921,0.03797340393066406,0.051926494,-0.14093454,9.760361,0.2038889,-0.08399042,9.759026,0
14,987.6923828125,5.622729659080505E-4,-5.601246957667172E-4,4.5417764340527356E-4,-5.537257194519043,20.594736099243164,-38.1790771484375,-0.21894092857837677,0.04114135354757309,0.04273414611816406,0.056703746,-0.16238396,9.760361,0.20150861,-0.103992395,9.759243,0
14,987.6775512695312,6.95455470122397E-4,-4.2697065509855747E-4,5.4714211728423834E-5,-5.494756698608398,20.950361251831055,-37.82151412963867,-0.2178867906332016,0.036159805953502655,0.02854633331298828,0.051921427,-0.15523405,9.776932,0.19961067,-0.092512466,9.775826,0
14,987.6773071289062,1.6284803859889507E-4,-6.932906107977033E-4,-8.773808949626982E-4,-5.391629219055176,21.573381423950195,-37.33496856689453,-0.21671485900878906,0.040473684668540955,0.03802967071533203,0.051918864,-0.15761729,9.772196,0.19669716,-0.096502095,9.771149,0
14,987.675048828125,-5.029171006754041E-4,3.719689848367125E-4,4.5420907554216683E-4,-5.5067949295043945,21.044496536254883,-37.90215301513672,-0.2153351902961731,0.016465336084365845,0.05225372314453125,0.049526453,-0.14808406,9.762728,0.19464788,-0.0885042,9.761636,0
14,987.6652221679688,2.9739225283265114E-5,1.0564920376054943E-4,-7.84122385084629E-5,-5.763243198394775,20.96210289001465,-37.395904541015625,-0.21937613189220428,0.03534296154975891,0.033326148986816406,0.054303706,-0.15285064,9.762728,0.19638622,-0.09565618,9.761631,0
14,987.6851806640625,-2.3655244149267673E-4,9.045928018167615E-4,4.542300303000957E-4,-5.888083457946777,20.79266929626465,-37.59770965576172,-0.22302334010601044,0.02060246467590332,0.03333854675292969,0.051911235,-0.14570071,9.767462,0.19797312,-0.08142939,9.766341,0
14,987.66748046875,-2.3652787785977125E-4,-2.75167403742671E-5,1.879245974123478E-4,-5.211325645446777,20.741518020629883,-37.62201690673828,-0.20269733667373657,0.01123850792646408,0.03809547424316406,0.049518824,-0.1361676,9.765095,0.19578661,-0.0748866,9.763921,0
14,987.685302734375,-6.359772523865104E-4,6.382690044119954E-4,-4.778545699082315E-4,-5.636200904846191,20.870637893676758,-37.872039794921875,-0.23503395915031433,0.02527014911174774,0.04757976531982422,0.06385571,-0.1433173,9.772196,0.20596525,-0.08668263,9.770902,0
14,987.68017578125,-6.359282415360212E-4,2.3878723732195795E-4,5.479808896780014E-5,-5.6348161697387695,20.76619529724121,-37.25026321411133,-0.20999537408351898,0.024953998625278473,0.04286003112792969,0.054293543,-0.1433173,9.765093,0.19624028,-0.08199777,9.763979,0
14,987.6854858398438,8.288334356620908E-4,-5.601643351837993E-4,5.480862455442548E-5,-5.530466079711914,20.758554458618164,-37.265899658203125,-0.2085837721824646,0.005676731467247009,0.03814506530761719,0.04473144,-0.13616733,9.779297,0.18853347,-0.070730515,9.778275,0
14,987.6851806640625,-6.358794635161757E-4,-2.753661829046905E-5,5.48191019333899E-5,-5.319699287414551,20.37645149230957,-37.27602005004883,-0.19791339337825775,0.015228480100631714,0.019225120544433594,0.04950869,-0.13855062,9.779297,0.19169198,-0.07321383,9.778253,0
14,987.6954956054688,1.6309286002069712E-4,-1.606984733371064E-4,5.87461341638118E-4,-5.74221134185791,20.770891189575195,-37.08002471923828,-0.2251429706811905,0.02978469431400299,0.05712890625,0.05667585,-0.1552334,9.755624,0.19068374,-0.093810074,9.754708,0
14,987.6932373046875,1.6311707440763712E-4,-1.6070253332145512E-4,5.484005669131875E-5,-5.78633975982666,21.52012825012207,-37.732940673828125,-0.1955103874206543,0.024912133812904358,0.05714225769042969,0.05428344,-0.14331706,9.762726,0.191833,-0.07979136,9.761719,0
14,987.6731567382812,9.620891651138663E-4,3.719253290910274E-4,-7.830740651115775E-5,-5.479674339294434,20.859174728393555,-37.895484924316406,-0.1993156224489212,0.03415593504905701,0.05241870880126953,0.042331368,-0.15523328,9.757992,0.17642884,-0.08636201,9.757341,0
14,987.7006225585938,-5.026236176490784E-4,1.0560548980720341E-4,1.880188938230276E-4,-5.5725297927856445,21.14097023010254,-37.897666931152344,-0.19365732371807098,0.010005742311477661,0.03822517395019531,0.04710865,-0.13616706,9.772194,0.18594371,-0.06884228,9.771246,0
14,987.6728515625,-1.0312546510249376E-4,0.0010377072030678391,-4.777602734975517E-4,-5.298092842102051,21.029207229614258,-37.93341827392578,-0.20704419910907745,0.029327988624572754,0.02877521514892578,0.05427581,-0.14331682,9.767458,0.19054383,-0.075668916,9.766509,0
14,987.6681518554688,6.958467420190573E-4,-1.6071836580522358E-4,4.5435575884766877E-4,-5.6598711013793945,20.58469581604004,-37.23578643798828,-0.19635629653930664,0.00572812557220459,0.04773235321044922,0.047576457,-0.14094509,9.760401,0.18190643,-0.075445846,9.759548,0
15,987.6909790039062,1.609775936231017E-4,-9.593027643859386E-4,1.8708111019805074E-4,-5.2043962478637695,21.011255264282227,-37.40791320800781,-0.19106367230415344,0.038663990795612335,0.03345775604248047,0.043295562,-0.15525697,9.767548,0.17468116,-0.082350805,9.766969,0
15,987.6753540039062,-6.404971936717629E-4,-3.2031763112172484E-5,-8.401001105085015E-5,-5.533210754394531,21.38774299621582,-36.68641662597656,-0.19918538630008698,0.03337794542312622,0.052407264709472656,0.055280566,-0.15525784,9.758082,0.184003,-0.086442806,9.757357,0
15,987.696044921875,1.5810795594006777E-4,-0.0010972399031743407,9.811068885028362E-4,-5.367989540100098,20.647066116333008,-36.89949035644531,-0.2026890069246292,-5.9798359870910645E-5,0.03822040557861328,0.052926183,-0.13380922,9.762819,0.18643272,-0.06513709,9.761883,0
15,987.690673828125,-6.411820650100708E-4,-4.3139452463947237E-4,1.820124452933669E-4,-5.5840253829956055,20.8668155670166,-37.879852294921875,-0.2016584873199463,0.018856525421142578,0.01929187774658203,0.057741523,-0.14572652,9.769925,0.18626791,-0.07882189,9.769091,0
15,987.6633911132812,-1.0889256373047829E-4,5.007666768506169E-4,4.481815849430859E-4,-5.564515113830566,20.674135208129883,-37.486663818359375,-0.19583605229854584,-2.1819770336151123E-4,0.04771232604980469,0.05538714,-0.13619427,9.767561,0.18561064,-0.068944745,9.766662,0
15,987.6810913085938,-1.092349411919713E-4,-6.9759925827384E-4,-6.172286812216043E-4,-5.639244079589844,20.867692947387695,-37.717430114746094,-0.18474018573760986,0.023118510842323303,0.057193756103515625,0.048253,-0.15287803,9.758095,0.17237778,-0.08211074,9.757543,0
15,987.6961669921875,-0.001041682786308229,-4.312277596909553E-4,5.81046100705862E-4,-5.302659034729004,21.024789810180664,-37.70150375366211,-0.1978999376296997,0.02281692624092102,0.03826713562011719,0.048288465,-0.15049566,9.7652,0.17350972,-0.076133974,9.76464,0
15,987.7088012695312,4.227121826261282E-4,-1.648563047638163E-4,0.0011135311797261238,-4.992406368255615,19.99848747253418,-37.92021179199219,-0.19681602716445923,0.01787729561328888,0.05248069763183594,0.06266338,-0.15049653,9.753366,0.18617775,-0.079531655,9.752628,0
15,987.6759643554688,-7.760515436530113E-4,-6.974325515329838E-4,-6.176687311381102E-4,-5.582641124725342,20.76237678527832,-37.258079528808594,-0.1906745731830597,0.022439390420913696,0.047760009765625,0.05074942,-0.13858105,9.765206,0.17512754,-0.06879697,9.764506,0
15,987.6759643554688,-7.763940375298262E-4,-2.9790314147248864E-4,4.474479937925935E-4,-5.879769802093506,20.95796012878418,-36.761837005615234,-0.1992296278476715,0.02232365310192108,0.047768592834472656,0.06751421,-0.14811505,9.769944,0.18718807,-0.08295163,9.769155,0
15,987.6861572265625,1.553691690787673E-4,1.0162629769183695E-4,4.782743053510785E-5,-5.615603446960449,19.941373825073242,-37.281944274902344,-0.1886054277420044,-0.0017126202583312988,0.03357505798339844,0.055600226,-0.12666638,9.777049,0.18341404,-0.051689334,9.776171,0
15,987.706298828125,3.6692945286631584E-5,1.8471982912160456E-4,2.46193609200418E-4,-5.165781021118164,21.1000919342041,-37.41905975341797,-0.18764062225818634,0.007588014006614685,0.06199073791503906,0.058025688,-0.13858368,9.751013,0.18053952,-0.06556329,9.750279,0
15,987.656005859375,-9.680737275630236E-5,-2.1469840430654585E-4,-8.192164823412895E-4,-5.4144816398620605,21.130983352661133,-37.99842071533203,-0.2103961855173111,0.016930416226387024,0.05253124237060547,0.07001069,-0.13620128,9.753384,0.19234467,-0.0640999,9.75248,0
15,987.6861572265625,-4.966234555467963E-4,-3.478007856756449E-4,3.790582122746855E-4,-5.2450761795043945,21.28923225402832,-37.41791534423828,-0.18987531960010529,0.016886219382286072,0.03360939025878906,0.0557068,-0.14096864,9.76759,0.17513137,-0.06707277,9.766966,0
15,987.6861572265625,-4.966234555467963E-4,-3.478007856756449E-4,3.790582122746855E-4,-5.496278762817383,20.948888778686523,-37.74421310424805,-0.19359126687049866,0.021408990025520325,0.0667581558227539,0.06291202,-0.14811938,9.743921,0.17936161,-0.07394871,9.743317,0
15,987.7090454101562,-2.306500682607293E-4,-4.8090313794091344E-4,-4.200362600386143E-4,-5.18268346786499,20.557668685913086,-37.692657470703125,-0.18768954277038574,0.016546770930290222,0.05730152130126953,0.058167756,-0.15050353,9.758127,0.17260168,-0.07601968,9.757638,0
15,987.671142578125,-9.783438872545958E-5,-4.808475496247411E-4,3.7876481655985117E-4,-5.281924247741699,20.201440811157227,-37.81049346923828,-0.18706069886684418,0.011511698365211487,0.052567481994628906,0.051033556,-0.13858797,9.755764,0.16803412,-0.063437775,9.755229,0
15,987.6814575195312,3.4981174394488335E-5,8.507873862981796E-4,1.1230213567614555E-4,-5.543482780456543,20.48292350769043,-37.170780181884766,-0.19574619829654694,0.02555987238883972,0.03363513946533203,0.058238775,-0.15050526,9.765236,0.17162739,-0.07458326,9.764777,0
15,987.68896484375,-2.3167708422988653E-4,7.17685092240572E-4,1.1215545237064362E-4,-5.451712608337402,20.937700271606445,-37.365501403808594,-0.18543291091918945,0.03510180115699768,0.043112754821777344,0.063054085,-0.1552727,9.760504,0.17416672,-0.08016645,9.760059,0
15,987.7015991210938,-9.886152110993862E-5,-2.1436490351334214E-4,-6.869389908388257E-4,-5.453097343444824,21.042142868041992,-37.987274169921875,-0.17504960298538208,0.02555812895298004,0.03365039825439453,0.05114013,-0.1481237,9.779446,0.16344172,-0.07132154,9.779077,0
15,987.706787109375,1.6711221542209387E-4,0.0011172699742019176,6.444937316700816E-4,-5.732100486755371,21.149492263793945,-37.719608306884766,-0.17844578623771667,0.01567620038986206,0.04786396026611328,0.05595541,-0.14335804,9.767612,0.16896972,-0.06499899,9.767147,0
15,987.6890258789062,-4.990198649466038E-4,-8.109585905913264E-5,-5.540744168683887E-4,-5.34431791305542,20.933000564575195,-37.535743713378906,-0.18728283047676086,0.005933284759521484,0.05733680725097656,0.055990934,-0.1433589,9.746311,0.16785009,-0.06518135,9.745864,0
15,987.6790161132812,3.326928708702326E-5,-6.136720185168087E-4,-9.536950383335352E-4,-5.402581214904785,20.930932998657227,-37.21870803833008,-0.1764746457338333,0.024548515677452087,0.0384063720703125,0.048856795,-0.14812629,9.762884,0.1581314,-0.06850509,9.7626095,0
15,987.6845092773438,-3.665467957034707E-4,5.217318539507687E-5,-2.1736021153628826E-5,-5.591772556304932,20.7535343170166,-36.79425048828125,-0.17074154317378998,0.005376726388931274,0.028944969177246094,0.04889232,-0.14097737,9.781826,0.1596255,-0.06103055,9.781472,0
16,987.6688842773438,-5.000471137464046E-4,-7.467188406735659E-4,-0.0010871464619413018,-5.575031280517578,20.769739151000977,-37.64460754394531,-0.17389383912086487,4.4342875480651855E-4,0.03374671936035156,0.057821274,-0.13381211,9.762831,0.16972399,-0.054292694,9.762293,0
16,987.6767578125,-3.60164325684309E-4,-8.600560249760747E-5,-4.2130245128646493E-4,-5.079013824462891,20.812402725219727,-37.107666015625,-0.16840916872024536,0.014416411519050598,0.052687644958496094,0.05066043,-0.14334534,9.769934,0.16040899,-0.05916369,9.769622,0
16,987.6940307617188,3.078875597566366E-4,0.0013783645117655396,-8.198069990612566E-4,-5.102408409118652,20.738290786743164,-37.869564056396484,-0.1631343811750412,0.004896685481071472,0.047959327697753906,0.048279405,-0.12904592,9.760465,0.16112529,-0.045109905,9.760002,0
16,987.6691284179688,-2.2483000066131353E-4,0.001378378365188837,-2.089590998366475E-5,-5.620276927947998,21.043298721313477,-37.422691345214844,-0.17683029174804688,-0.004811406135559082,0.04323005676269531,0.060237765,-0.13142942,9.762833,0.17048842,-0.05348374,9.762267,0
16,987.67138671875,-9.175739251077175E-5,-7.521347142755985E-4,-2.093246439471841E-5,-5.2565717697143555,21.015077590942383,-37.40010070800781,-0.170823335647583,0.023868873715400696,0.05271339416503906,0.053076953,-0.14572932,9.760466,0.15936351,-0.062337138,9.760199,0
16,987.6768188476562,3.0763098038733006E-4,5.794585449621081E-4,2.4534662952646613E-4,-5.581118583679199,20.763845443725586,-37.33538818359375,-0.17446687817573547,0.02387075126171112,0.03852272033691406,0.053085864,-0.15526266,9.769937,0.15492538,-0.07400207,9.769806,0
16,987.6845092773438,3.075451822951436E-4,1.7999860574491322E-4,-1.541637466289103E-4,-5.791342258453369,20.777658462524414,-37.22681427001953,-0.16911771893501282,0.014304324984550476,0.05273246765136719,0.053094685,-0.14334653,9.762835,0.15675491,-0.06376592,9.762567,0
16,987.694580078125,-9.201397188007832E-5,3.1317039974965155E-4,-2.1042476873844862E-5,-5.615168571472168,20.67943000793457,-37.55615234375,-0.1731187105178833,0.01893717050552368,0.05274009704589844,0.055493474,-0.14572991,9.758101,0.15799573,-0.06540641,9.757849,0
16,987.6963500976562,-2.2525747772306204E-4,-2.1944742184132338E-4,2.452366170473397E-4,-5.591634750366211,20.859453201293945,-37.49333190917969,-0.1674191653728485,0.023345381021499634,0.03854084014892578,0.053112447,-0.1504967,9.765204,0.15392137,-0.06804744,9.7650585,0
16,987.6741943359375,-8.911328623071313E-4,3.131982230115682E-4,-2.111581852659583E-5,-6.113930702209473,21.265954971313477,-37.51361846923828,-0.1715909242630005,0.0276784747838974,0.03854084014892578,0.055511206,-0.1528802,9.767572,0.15384845,-0.07312683,9.767442,0
16,987.6719970703125,-3.5858643241226673E-4,5.79527928493917E-4,3.7832133239135146E-4,-5.700008392333984,20.494386672973633,-37.14733123779297,-0.18030227720737457,0.02745416760444641,0.048015594482421875,0.0674696,-0.15526374,9.767572,0.16442545,-0.07718531,9.767349,0
16,987.6847534179688,-9.23562329262495E-5,4.4638392864726484E-4,-1.5434721717610955E-4,-5.522014141082764,21.02976417541504,-37.12910461425781,-0.17433446645736694,0.01787090301513672,0.04329395294189453,0.05313909,-0.14811416,9.767574,0.1526956,-0.063393146,9.767444,0
16,987.66943359375,-9.244191460311413E-5,-0.0010183396516367793,-5.53857593331486E-4,-5.445625305175781,20.94359016418457,-37.674720764160156,-0.16829612851142883,0.007798910140991211,0.057503700256347656,0.05553785,-0.136198,9.751004,0.15711989,-0.051572524,9.7507105,0
16,987.714599609375,-8.914750069379807E-4,-0.001151483622379601,-5.538942641578615E-4,-5.305703163146973,21.0218448638916,-37.54689407348633,-0.16707083582878113,-0.0017265081405639648,0.03857994079589844,0.062716454,-0.13858147,9.769941,0.16286954,-0.054088674,9.769619,0
16,987.6867065429688,5.731768906116486E-4,-8.620614244136959E-5,-1.5445711323991418E-4,-5.274697303771973,21.103315353393555,-37.17151641845703,-0.1613083779811859,0.031669750809669495,0.04332447052001953,0.05555561,-0.1600311,9.762842,0.14935657,-0.072232686,9.762901,0
16,987.6972045898438,-4.921721993014216E-4,4.6965578803792596E-5,-8.202834869734943E-4,-5.646991729736328,20.754411697387695,-36.6318244934082,-0.15093180537223816,0.021956205368041992,0.048064231872558594,0.04839477,-0.1457317,9.767577,0.14437643,-0.05913005,9.767538,0
16,987.6942138671875,0.0011056374059990048,4.697954864241183E-5,7.775751873850822E-4,-5.429563522338867,21.222169876098633,-37.92445373535156,-0.164330393075943,0.022045060992240906,0.04807567596435547,0.05079359,-0.16241486,9.76521,0.14207311,-0.07348686,9.765384,0
16,987.6968383789062,-3.591852728277445E-4,-6.187963299453259E-4,-2.8772506630048156E-4,-5.469158172607422,20.76357078552246,-37.737548828125,-0.14891159534454346,0.017181023955345154,0.048084259033203125,0.053192317,-0.14811547,9.765211,0.14679773,-0.061075874,9.765185,0
16,987.7069702148438,4.020286723971367E-5,1.8016519607044756E-4,1.1171208461746573E-4,-5.562013626098633,21.045366287231445,-37.73973083496094,-0.16705715656280518,0.03621383011341095,0.057562828063964844,0.067540586,-0.15288223,9.755743,0.1581647,-0.06949254,9.755644,0
16,987.6691284179688,3.064331831410527E-4,1.8017910770140588E-4,-2.877984079532325E-4,-5.326192378997803,20.844762802124023,-37.76432800292969,-0.15652571618556976,0.022104576230049133,0.04337120056152344,0.05321008,-0.15049912,9.772314,0.1448214,-0.061762683,9.772349,0
16,987.704833984375,5.726637318730354E-4,-6.187546532601118E-4,-2.878349623642862E-4,-4.879604339599609,20.262056350708008,-37.799049377441406,-0.1509597897529602,0.02686646580696106,0.05758190155029297,0.048439145,-0.14334948,9.758112,0.14102247,-0.054004796,9.758118,0
16,987.674560546875,3.994617145508528E-5,3.1336487154476345E-4,2.447600127197802E-4,-5.357335090637207,20.657373428344727,-37.44062805175781,-0.14076276123523712,0.007479175925254822,0.02917766571044922,0.041278303,-0.14096646,9.774683,0.13485882,-0.04806564,9.774739,0
16,987.68212890625,-6.259289802983403E-4,4.465366655495018E-4,1.1156551772728562E-4,-5.316219329833984,21.117448806762695,-37.704833984375,-0.15438838303089142,0.021166935563087463,0.029176712036132812,0.05801654,-0.14811651,9.774684,0.1478118,-0.060479745,9.7746725,0
16,987.6644287109375,-3.596984315663576E-4,3.1339263659901917E-4,-5.542608560062945E-4,-5.543887615203857,20.957124710083008,-37.96830749511719,-0.15335530042648315,0.0020709633827209473,0.038654327392578125,0.050855666,-0.13381709,9.772318,0.1440766,-0.043883473,9.772206,0
16,987.6644287109375,-3.596984315663576E-4,3.1339263659901917E-4,-5.542608560062945E-4,-5.327171325683594,20.475004196166992,-37.58856964111328,-0.16188782453536987,0.006878018379211426,0.04813385009765625,0.055456877,-0.14096256,9.760466,0.14578223,-0.05073365,9.76042,0
17,987.68212890625,-3.5978422965854406E-4,-4.855411243624985E-4,-5.5429752683267E-4,-5.316356658935547,21.011533737182617,-37.005760192871094,-0.1560317873954773,-0.002565234899520874,0.0434417724609375,0.057656765,-0.13380803,9.769917,0.14972527,-0.04256566,9.769763,0
17,987.6720581054688,5.958194378763437E-5,-2.6982190320268273E-4,-2.5930319679901004E-4,-4.91585636138916,20.438535690307617,-37.341880798339844,-0.15493211150169373,0.01165059208869934,0.04345226287841797,0.057650447,-0.15049078,9.7628145,0.14349295,-0.060398616,9.762904,0
17,987.669189453125,1.963324612006545E-4,3.953846462536603E-4,-3.9092154474928975E-4,-5.324670791625977,20.84623908996582,-37.841636657714844,-0.15389089286327362,0.006864801049232483,0.04819774627685547,0.048084497,-0.15287395,9.762814,0.13194552,-0.06135907,9.763044,0
17,987.674560546875,6.32355222478509E-5,-9.362046839669347E-4,2.7489446802064776E-4,-5.596200942993164,20.855031967163086,-37.26141357421875,-0.14825166761875153,0.006662458181381226,0.03873443603515625,0.050468057,-0.13619085,9.7533455,0.13928853,-0.04172165,9.753343,0
17,987.6818237304688,1.9645458087325096E-4,-4.109024303033948E-6,1.4176260447129607E-4,-4.983656883239746,20.90183448791504,-37.358543395996094,-0.1424434781074524,0.025672227144241333,0.02454090118408203,0.05046171,-0.15287365,9.774649,0.13365589,-0.05893085,9.774883,0
17,987.679443359375,-2.0295812282711267E-4,-2.70434858975932E-4,-2.5768502382561564E-4,-5.331301689147949,21.208635330200195,-37.630863189697266,-0.15544073283672333,-0.003102347254753113,0.06716060638427734,0.057625055,-0.13619052,9.753344,0.1419087,-0.049228445,9.753309,0
17,987.68701171875,-6.973918061703444E-5,-9.362344862893224E-4,4.0813087252900004E-4,-6.021075248718262,20.984155654907227,-37.511436462402344,-0.13577979803085327,0.02546529471874237,0.0529632568359375,0.050449044,-0.15049006,9.769914,0.13178483,-0.057586193,9.770145,0
17,987.6770629882812,1.9663793500512838E-4,-6.699285004287958E-4,5.41315006557852E-4,-5.48590087890625,20.74736976623535,-36.88719177246094,-0.14423459768295288,-0.0031868964433670044,0.04350566864013672,0.048052788,-0.1457233,9.765178,0.12947091,-0.05261805,9.765383,0
17,987.6923828125,-2.0277488511055708E-4,1.2900916044600308E-4,-7.902382058091462E-4,-5.479269027709961,20.384965896606445,-37.09796142578125,-0.15307767689228058,0.020841404795646667,0.02457714080810547,0.05760601,-0.14810641,9.77228,0.13761286,-0.056814075,9.772437,0
17,987.7099609375,5.962339928373694E-4,2.621572057250887E-4,1.4189357170835137E-4,-5.368830680847168,20.38321876525879,-37.422813415527344,-0.16160324215888977,0.006458863615989685,0.03405475616455078,0.067159295,-0.14333977,9.77228,0.14683972,-0.05534008,9.772302,0
17,987.6796264648438,-3.358101239427924E-4,-4.1686289478093386E-6,-5.238697049207985E-4,-5.439972877502441,20.211427688598633,-37.70973587036133,-0.15551899373531342,0.01106397807598114,0.04826831817626953,0.0623731,-0.1504894,9.765177,0.13895553,-0.0603934,9.765362,0
17,987.6720581054688,4.632597556337714E-4,-4.0366232860833406E-4,-5.238173180259764E-4,-5.345296859741211,20.563241958618164,-37.35999298095703,-0.14518019556999207,0.020436525344848633,0.034069061279296875,0.052807182,-0.15525575,9.765177,0.1283291,-0.060675256,9.765522,0
17,987.7073974609375,3.3016293309628963E-4,1.289595675189048E-4,8.07788223028183E-4,-5.040397644042969,20.9012393951416,-37.118812561035156,-0.1252625435590744,0.0016879439353942871,0.038817405700683594,0.038461447,-0.14333929,9.772278,0.11783545,-0.04313565,9.772598,0
17,987.6669311523438,1.9706611055880785E-4,-6.699980003759265E-4,1.4202477177605033E-4,-5.409648418426514,20.555280685424805,-36.733734130859375,-0.12449661642313004,0.015802353620529175,0.019883155822753906,0.03606519,-0.1481057,9.779379,0.112699986,-0.04906343,9.779794,0
17,987.7025756835938,6.396917160600424E-5,-1.3737617700826377E-4,-1.242650323547423E-4,-5.117629051208496,20.723562240600586,-37.09651184082031,-0.13809773325920105,0.00628170371055603,0.03882884979248047,0.05278814,-0.13857238,9.779378,0.13136464,-0.04227037,9.779529,0
17,987.7099609375,3.3034628722816706E-4,1.289297651965171E-4,-2.573966630734503E-4,-5.160266876220703,20.26201820373535,-36.755001068115234,-0.13725534081459045,0.011126786470413208,0.038837432861328125,0.048002064,-0.14333881,9.765174,0.12416603,-0.046574034,9.765444,0
17,987.6948852539062,7.298811106011271E-4,-4.238070687279105E-6,-2.573705860413611E-4,-5.470818519592285,20.656179428100586,-36.961158752441406,-0.1364467442035675,0.016208842396736145,0.04831695556640625,0.047995687,-0.15048845,9.765174,0.12089882,-0.054667532,9.765549,0
17,987.699951171875,4.6362634748220444E-4,3.952258557546884E-4,8.971546776592731E-6,-5.591198921203613,21.597505569458008,-37.767539978027344,-0.14040866494178772,0.011320814490318298,0.03412055969238281,0.04798937,-0.14572175,9.755704,0.12166245,-0.049084328,9.756027,0
17,987.6898193359375,6.42136437818408E-5,-8.032055338844657E-4,2.7531356317922473E-4,-5.490871429443359,21.2171573638916,-37.45280456542969,-0.12499381601810455,-0.007906302809715271,0.06253528594970703,0.052762806,-0.13142194,9.750969,0.12908368,-0.03620609,9.751076,0
17,987.699951171875,-3.3519917633384466E-4,-4.267843905836344E-6,-1.24134065117687E-4,-5.502366065979004,20.942995071411133,-37.43498992919922,-0.13433511555194855,0.006323099136352539,0.043598175048828125,0.043196857,-0.13618834,9.765171,0.11841745,-0.038406238,9.765423,0
17,987.6923828125,-6.014538230374455E-4,0.0014604596653953195,-5.235816934145987E-4,-5.459728240966797,21.404542922973633,-37.77650451660156,-0.13377828896045685,0.0013038665056228638,0.06727218627929688,0.05275017,-0.14095478,9.75807,0.12610193,-0.044330537,9.758314,0
17,987.6998291015625,-6.876105908304453E-5,1.2887027696706355E-4,5.417080246843398E-4,-5.467637062072754,20.765043258666992,-37.814849853515625,-0.1332293152809143,0.0156460702419281,0.03413581848144531,0.04557407,-0.15763755,9.772272,0.11388394,-0.059196547,9.772808,0
17,987.6568603515625,9.96563583612442E-4,1.2886038166470826E-4,-5.235293065197766E-4,-5.1840667724609375,20.662111282348633,-38.314430236816406,-0.12779083847999573,0.020487546920776367,0.024675369262695312,0.04795766,-0.1481043,9.765169,0.118640795,-0.049286783,9.765564,0
17,987.684814453125,4.6399293933063745E-4,-4.307483322918415E-6,1.422865898348391E-4,-5.5894317626953125,20.59855079650879,-38.171260833740234,-0.11260852217674255,0.011075764894485474,0.03415203094482422,0.040781617,-0.13618775,9.762802,0.113281704,-0.03801269,9.763105,0
18,987.68701171875,-3.348937025293708E-4,-8.032651385292411E-4,4.08628664445132E-4,-5.734601020812988,20.778257369995117,-37.466548919677734,-0.12097623944282532,0.00616145133972168,0.04362964630126953,0.04560268,-0.13857202,9.762806,0.11599556,-0.04160434,9.763118,0
18,987.6795654296875,-3.351734485477209E-4,-9.363775607198477E-4,-5.235968274064362E-4,-5.192082405090332,21.12895393371582,-38.725433349609375,-0.12026020139455795,0.020408213138580322,0.06256580352783203,0.045646906,-0.15287273,9.755708,0.112652674,-0.05192323,9.756224,0
18,987.6649780273438,1.9692606292665005E-4,-2.7050147764384747E-4,-5.23825001437217E-4,-5.696390628814697,21.3413028717041,-38.27522659301758,-0.12397612631320953,0.024837568402290344,0.053099632263183594,0.04803425,-0.14572285,9.760442,0.11537886,-0.04744249,9.760851,0
