Timestamp,P,Gx,Gy,Gz,Mx,My,Mz,LiAx,LiAy,LiAz,Ax,Ay,Az,Value,Type
0,990.7745971679688,2.0384459639899433E-4,0.004155003000050783,9.455837425775826E-5,2.0712006092071533,19.14944839477539,-14.39872932434082,-0.9853872060775757,0.6495457887649536,0.006901741027832031,0.07270932,-0.15122452,9.755357,0
0,990.7745971679688,0.003845468396320939,8.268868550658226E-4,5.664911586791277E-4,2.155902862548828,19.228574752807617,-14.10847282409668,-0.9915218353271484,0.6478180885314941,-0.021099090576171875,0.091772676,-0.15122315,9.774289,0
0,990.6078491210938,0.0014491637703031301,-5.047799786552787E-4,6.998798344284296E-4,1.768664836883545,19.07677459716797,-14.193887710571289,-0.9532793760299683,0.6637935638427734,0.007906913757324219,0.058258176,-0.15837163,9.748244,0
0,990.6078491210938,-1.5035111573524773E-5,0.0012261858209967613,-0.0010309426579624414,2.0541601181030273,18.501110076904297,-13.973241806030273,-0.9753298759460449,0.6625089049339294,-0.015529632568359375,0.07296574,-0.16314718,9.771951,0
0,990.6310424804688,1.1866090062540025E-4,-6.381127750501037E-4,-3.649223654065281E-4,2.250281572341919,18.948246002197266,-14.183599472045898,-0.968116044998169,0.660427451133728,-0.010466575622558594,0.078139365,-0.1607736,9.771987,0
0,990.627685546875,3.7785840686410666E-4,-5.03211806062609E-4,-2.322586951777339E-4,2.2970492839813232,18.67616081237793,-14.482820510864258,-0.9626255631446838,0.6481029391288757,-0.01929187774658203,0.07094818,-0.16077307,9.762515,0
0,990.6585693359375,0.0010418279562145472,-3.6975834518671036E-4,1.6643514391034842E-4,1.9138031005859375,17.68480682373047,-13.826868057250977,-0.9513009786605835,0.6470818519592285,-0.0048770904541015625,0.07570636,-0.16077259,9.762513,0
0,990.665771484375,0.001441509579308331,-0.0011687397491186857,-0.0010318973800167441,2.0165247917175293,18.78203582763672,-14.137849807739258,-0.9476779103279114,0.6402528882026672,-0.01864910125732422,0.063735336,-0.1488556,9.757777,0
0,990.668701171875,-5.9402686019893736E-5,-2.254220307804644E-4,-6.431575166061521E-4,1.4967293739318848,19.559772491455078,-14.411195755004883,-0.9584643840789795,0.6333938837051392,-0.00402069091796875,0.068493605,-0.15838823,9.767243,0
0,990.6329956054688,2.0712088735308498E-4,-7.58087495341897E-4,-2.4359486997127533E-4,1.6036877632141113,18.81702423095703,-14.307233810424805,-0.9503348469734192,0.6312885880470276,-0.0036144256591796875,0.07325187,-0.15362108,9.7743435,0
0,990.656005859375,-1.9214524945709854E-4,1.7398434283677489E-4,1.559679803904146E-4,1.8139102458953857,18.803213119506836,-14.415803909301758,-0.9423945546150208,0.638390302658081,-0.007946968078613281,0.07084042,-0.15600389,9.771974,0
0,990.6580200195312,-3.2488806755281985E-4,4.075907054357231E-5,0.001221409416757524,1.8118460178375244,19.170028686523438,-14.436952590942383,-0.9374069571495056,0.6442304849624634,0.011616706848144531,0.06364918,-0.1655364,9.745933,0
0,990.6580200195312,-3.2488806755281985E-4,4.075907054357231E-5,0.001221409416757524,1.8118460178375244,19.170028686523438,-14.436952590942383,-0.9407194256782532,0.6382966041564941,-0.00713348388671875,0.068407476,-0.16076937,9.764869,0
0,990.6356201171875,-5.815680924570188E-5,9.727972792461514E-4,5.557977710850537E-4,2.1754140853881836,19.035888671875,-13.715280532836914,-0.9314392805099487,0.6346114277839661,0.007647514343261719,0.07555556,-0.15361899,9.753032,0
0,990.6356201171875,-5.815680924570188E-5,9.727972792461514E-4,5.557977710850537E-4,2.1754140853881836,19.035888671875,-13.715280532836914,-0.9394595623016357,0.633813738822937,0.007821083068847656,0.07792398,-0.16315159,9.767232,0
0,990.6431884765625,2.08366647711955E-4,5.73289580643177E-4,8.222026517614722E-4,2.236583709716797,18.93498992919922,-13.487855911254883,-0.9173156023025513,0.636093258857727,-0.010730743408203125,0.06117308,-0.1583845,9.762496,0
0,990.6404418945312,-5.903732962906361E-4,0.0012390456395223737,-2.4297204799950123E-4,2.3665318489074707,18.740554809570312,-13.419519424438477,-0.9049646258354187,0.6286289691925049,-8.859634399414062E-4,0.06593138,-0.15123412,9.760126,0
0,990.62255859375,-5.901657277718186E-4,4.4006435200572014E-4,1.565908605698496E-4,1.7334990501403809,18.516674041748047,-13.539819717407227,-0.944240391254425,0.593093752861023,-0.00992584228515625,0.08263916,-0.13931724,9.769593,0
0,990.6279907226562,-3.2364207436330616E-4,-3.5891711013391614E-4,4.229957703500986E-4,1.6892318725585938,19.159996032714844,-13.493661880493164,-0.9218316674232483,0.628944993019104,-6.103515625E-5,0.06349838,-0.16553274,9.767224,0
0,990.6630859375,2.0919715461786836E-4,7.063128286972642E-4,6.894005928188562E-4,1.929619312286377,18.963809967041016,-13.750177383422852,-0.9139037132263184,0.6125760078430176,3.08990478515625E-4,0.070646554,-0.15599915,9.764854,0
0,990.6251220703125,-5.691093247151002E-5,4.04893362428993E-5,9.558054734952748E-4,1.8674707412719727,18.6949462890625,-13.801851272583008,-0.9153962135314941,0.6242835521697998,-0.008755683898925781,0.0777947,-0.16553167,9.771955,0
0,990.6251220703125,-5.691093247151002E-5,4.04893362428993E-5,9.558054734952748E-4,1.5001788139343262,19.088512420654297,-13.768281936645508,-0.9072044491767883,0.6123316287994385,0.024791717529296875,0.075383246,-0.15361479,9.7435465,0
0,990.6499633789062,-4.561773093882948E-4,5.730874254368246E-4,1.5694680041633546E-4,2.054596424102783,19.23916244506836,-14.24744987487793,-0.898768424987793,0.620163083076477,-0.0032215118408203125,0.0658021,-0.1512309,9.755381,0
0,990.6275634765625,3.429781354498118E-4,4.042197542730719E-5,2.9019376961514354E-4,1.8292911052703857,19.34416389465332,-14.064905166625977,-0.9047732353210449,0.6132698655128479,-0.0028209686279296875,0.070560396,-0.16314685,9.764847,0
1,990.6653442382812,-5.608042556559667E-5,-4.922772059217095E-4,1.57213828060776E-4,1.76920747756958,18.708480834960938,-14.095438003540039,-0.886955976486206,0.6057493686676025,0.0023374557495117188,0.06814891,-0.15361318,9.774314,0
1,990.6448974609375,-5.885044811293483E-4,-3.591530257835984E-4,2.414488699287176E-5,2.127368450164795,18.306079864501953,-13.665178298950195,-0.8883365392684937,0.6081970930099487,-0.0020046234130859375,0.06812739,-0.15599594,9.764844,0
1,990.6499633789062,2.1065071632619947E-4,3.066029166802764E-4,1.5739179798401892E-4,1.875218391418457,18.8082275390625,-14.887453079223633,-0.8977237939834595,0.5953279733657837,0.008031845092773438,0.070495695,-0.1559954,9.750639,0
1,990.6474609375,2.1085840126033872E-4,5.728850956074893E-4,1.574807392898947E-4,1.9001357555389404,18.88381004333496,-14.202859878540039,-0.8962140083312988,0.599062442779541,0.0034704208374023438,0.07047421,-0.15361157,9.760105,0
1,990.6522827148438,2.1106596977915615E-4,3.0653554131276906E-4,2.907276793848723E-4,2.050711154937744,18.972370147705078,-14.61616325378418,-0.888746440410614,0.5730348825454712,0.00379180908203125,0.06369203,-0.14647129,9.774344,0
1,990.6370849609375,-1.891784049803391E-4,9.724503615871072E-4,2.9039743822067976E-4,1.941359043121338,18.23754119873047,-14.09440803527832,-0.8808667659759521,0.6089128255844116,0.013620376586914062,0.07324657,-0.15838751,9.76014,0
1,990.6576538085938,-6.705450505251065E-5,9.783459827303886E-4,2.94240890070796E-4,1.8508663177490234,18.784664154052734,-13.650571823120117,-0.8679164052009583,0.5920870304107666,-1.8978118896484375E-4,0.06607178,-0.15600413,9.7696085,0
1,990.6447143554688,1.9931039423681796E-4,-7.527152192778885E-4,-3.7152785807847977E-4,1.9193477630615234,18.058988571166992,-14.234537124633789,-0.8688822388648987,0.5898059010505676,-0.009241104125976562,0.07084653,-0.14647087,9.762506,0
1,990.6348266601562,-2.0011430024169385E-4,-4.8640719614923E-4,2.942827995866537E-4,1.9863598346710205,18.96440887451172,-13.989908218383789,-0.884556770324707,0.6017341613769531,0.01955127716064453,0.068451524,-0.17030358,9.7601385,0
1,990.6320190429688,-2.0006552222184837E-4,1.7937450320459902E-4,5.606196355074644E-4,1.532545566558838,18.645238876342773,-14.594156265258789,-0.8665261268615723,0.58038330078125,0.005751609802246094,0.07322627,-0.15362051,9.76724,0
1,990.629638671875,-3.331746847834438E-4,-3.5326514625921845E-4,5.606405902653933E-4,1.6167054176330566,19.092653274536133,-14.402353286743164,-0.8706842660903931,0.5954837799072266,0.011096000671386719,0.075611085,-0.16077021,9.753036,0
1,990.6195068359375,-8.657574653625488E-4,-6.195890600793064E-4,2.8029840905219316E-5,1.8244271278381348,18.70760726928711,-14.257867813110352,-0.8451701402664185,0.5751157999038696,0.020753860473632812,0.06604642,-0.14170387,9.753036,0
1,990.6195068359375,-5.993925733491778E-4,-6.195969181135297E-4,-2.382652019150555E-4,1.8842122554779053,18.711151123046875,-14.652200698852539,-0.8495355844497681,0.5670166015625,0.026048660278320312,0.058871627,-0.15362012,9.745934,0
1,990.6625366210938,1.9960399367846549E-4,1.7934276547748595E-4,8.270193939097226E-4,1.8865759372711182,18.97646713256836,-14.20619010925293,-0.8666632175445557,0.5802116394042969,0.0025844573974609375,0.08276552,-0.15362,9.767238,0
1,990.647216796875,3.328108286950737E-4,-4.8645492643117905E-4,2.944085863418877E-4,1.911874771118164,18.15753936767578,-14.547086715698242,-0.8426652550697327,0.5814610719680786,0.012592315673828125,0.07320088,-0.16076967,9.764871,0
1,990.6572875976562,6.65439511067234E-5,3.124848008155823E-4,6.939034210518003E-4,1.5062661170959473,19.094406127929688,-14.07750129699707,-0.8316926956176758,0.5660881996154785,0.008017539978027344,0.063636184,-0.16076955,9.764869,0
1,990.6423950195312,-1.9972302834503353E-4,0.0011114245280623436,-2.381812664680183E-4,1.599557638168335,19.5506591796875,-14.349527359008789,-0.8504712581634521,0.5675001740455627,-9.069442749023438E-4,0.0755806,-0.15361962,9.757768,0
1,990.6494140625,3.3295751200057566E-4,4.615301440935582E-5,-5.044761346653104E-4,2.011117458343506,18.513769149780273,-14.429258346557617,-0.8373593688011169,0.5650577545166016,0.008945465087890625,0.070795745,-0.1512362,9.769603,0
1,990.6369018554688,-3.327341692056507E-4,-8.702080231159925E-5,-1.0496040340512991E-4,1.950490951538086,18.246379852294922,-14.558237075805664,-0.8196479082107544,0.5721363425254822,0.009311676025390625,0.063620925,-0.15838593,9.769603,0
1,990.6369018554688,-3.327341692056507E-4,-8.702080231159925E-5,-1.0496040340512991E-4,1.950490951538086,18.246379852294922,-14.558237075805664,-0.8463852405548096,0.5759415626525879,0.0142364501953125,0.07317549,-0.16315237,9.760133,0
1,990.6267700195312,3.3310442813672125E-4,-6.196604808792472E-4,1.6137646161951125E-4,2.019270181655884,18.152843475341797,-14.71733283996582,-0.8282921314239502,0.559522271156311,0.009882926940917969,0.07317042,-0.14885256,9.774337,0
1,990.6441650390625,5.9946917463094E-4,-6.196683971211314E-4,-2.3807637626305223E-4,1.5886056423187256,18.90821075439453,-14.23326301574707,-0.8201451301574707,0.5619390606880188,0.019708633422851562,0.06838554,-0.15838555,9.753031,0
1,990.6239013671875,2.6735159917734563E-4,2.4438853142783046E-4,-1.6843629418872297E-4,1.7606499195098877,19.54361343383789,-14.604890823364258,-0.81202232837677,0.5548465847969055,0.015325546264648438,0.06599057,-0.15838543,9.757766,0
1,990.6514282226562,1.0844887583516538E-6,-2.1935251425020397E-5,-4.3473122059367597E-4,1.8984766006469727,18.776418685913086,-13.426473617553711,-0.827483594417572,0.5717744827270508,0.010960578918457031,0.07076526,-0.16791844,9.764865,0
1,990.6565551757812,8.000811212696135E-4,-4.21417091274634E-4,9.792149649001658E-5,2.403625249862671,18.82792091369629,-13.353357315063477,-0.8147457838058472,0.5506874918937683,0.01128387451171875,0.06837028,-0.15123531,9.769599,0
2,990.6363525390625,1.2314048944972456E-6,5.106725730001926E-4,-4.346683563198894E-4,2.0975022315979004,19.120586395263672,-13.09235954284668,-0.8191293478012085,0.5377733707427979,0.016546249389648438,0.07314503,-0.14646864,9.757764,0
2,990.6363525390625,1.2314048944972456E-6,5.106725730001926E-4,-4.346683563198894E-4,2.0975022315979004,19.120586395263672,-13.09235954284668,-0.7935042381286621,0.5555797815322876,0.007258415222167969,0.05880055,-0.16076818,9.762498,0
2,990.6641845703125,1.3443813077174127E-4,-9.540725732222199E-4,-5.67805371247232E-4,1.9582610130310059,18.779966354370117,-13.820817947387695,-0.8048722743988037,0.5438481569290161,0.01703929901123047,0.06118536,-0.15838477,9.753028,0
2,990.6387329101562,1.344871416222304E-4,0.0015759202651679516,9.800540283322334E-5,2.5616726875305176,18.817928314208984,-13.454111099243164,-0.8016027212142944,0.541644811630249,0.017370223999023438,0.06596011,-0.16076794,9.757763,0
2,990.6487426757812,6.672167801298201E-4,-5.546226166188717E-4,-3.511065733619034E-5,1.9645092487335205,19.312074661254883,-13.006082534790039,-0.7964226007461548,0.5386864542961121,0.027342796325683594,0.07790452,-0.14170161,9.753027,0
2,990.6487426757812,6.672167801298201E-4,-5.546226166188717E-4,-3.511065733619034E-5,1.9645092487335205,19.312074661254883,-13.006082534790039,-0.7945569753646851,0.5471360087394714,0.018053054809570312,0.07550955,-0.163151,9.760129,0
2,990.6287231445312,4.0094993892125785E-4,-6.877885898575187E-4,6.307000294327736E-4,1.7866535186767578,18.882614135742188,-13.723390579223633,-0.7814335823059082,0.5351919531822205,0.018410682678222656,0.06833476,-0.15361777,9.760127,0
2,990.6287231445312,4.0094993892125785E-4,-6.877885898575187E-4,6.307000294327736E-4,2.0523948669433594,19.50006103515625,-13.569520950317383,-0.7826046943664551,0.5469608306884766,0.00457000732421875,0.063549876,-0.1703006,9.760127,0
2,990.615966796875,-6.642647203989327E-4,1.111511664930731E-4,-3.013845707755536E-4,1.9550793170928955,18.671100616455078,-12.967126846313477,-0.7885602712631226,0.5399178266525269,0.009656906127929688,0.07071453,-0.16791722,9.755392,0
2,990.635986328125,1.6226767911575735E-6,-6.878123385831714E-4,3.6444704164750874E-4,1.7238245010375977,18.87612533569336,-13.174440383911133,-0.7788928747177124,0.5175143480300903,6.704330444335938E-4,0.07548928,-0.1464675,9.764861,0
2,990.661376953125,1.3482963549904525E-4,3.774432116188109E-4,3.644680546130985E-4,2.129869222640991,18.67731475830078,-13.918237686157227,-0.7724912166595459,0.5308295488357544,0.019762039184570312,0.07309428,-0.15361723,9.762493,0
2,990.6537475585938,1.7208149074576795E-6,6.437511183321476E-4,-7.007744861766696E-4,2.1749775409698486,18.297836303710938,-13.441076278686523,-0.7694681882858276,0.5286033153533936,0.024799346923828125,0.06352958,-0.1560004,9.755391,0
2,990.6181640625,9.338752715848386E-4,6.437432020902634E-4,9.819414117373526E-5,2.041985273361206,18.48932647705078,-13.354806900024414,-0.7646061182022095,0.5253244638442993,0.020536422729492188,0.063524485,-0.16791669,9.755391,0
2,990.6407470703125,2.6813437580130994E-4,5.105773452669382E-4,9.821506682783365E-5,1.813230037689209,19.06558609008789,-13.815179824829102,-0.7663849592208862,0.5325367450714111,0.03503894805908203,0.07307905,-0.15838343,9.753023,0
2,990.6456909179688,-2.644483756739646E-4,3.7741143023595214E-4,-0.0012333435006439686,2.3390064239501953,19.400081634521484,-14.223711013793945,-0.7727435231208801,0.5156729221343994,0.006955146789550781,0.08024365,-0.16076657,9.767225,0
2,990.6152954101562,-7.970312726683915E-4,0.0011763512156903744,-4.343747568782419E-4,1.792060375213623,19.150880813598633,-13.431985855102539,-0.761505126953125,0.5099018812179565,0.011845588684082031,0.07067898,-0.15361664,9.769593,0
2,990.6381225585938,6.67754968162626E-4,-5.547100445255637E-4,-3.011958033312112E-4,1.8759222030639648,18.966157913208008,-13.665056228637695,-0.748753547668457,0.5172176361083984,0.016887664794921875,0.068284035,-0.15599981,9.762489,0
2,990.6327514648438,5.346460384316742E-4,3.7738762330263853E-4,3.646148834377527E-4,1.942636489868164,19.23944091796875,-13.845293045043945,-0.740328848361969,0.5249680280685425,0.0030040740966796875,0.058719277,-0.1655328,9.764857,0
2,990.6151123046875,0.001200484810397029,-6.878839340060949E-4,-5.674697458744049E-4,2.0399200916290283,18.856142044067383,-13.375947952270508,-0.7592976689338684,0.5026442408561707,0.012933731079101562,0.087393075,-0.14169988,9.774325,0
2,990.6430053710938,2.1122032194398344E-6,5.10529731400311E-4,9.834091179072857E-5,2.2691104412078857,19.01793670654297,-13.189779281616211,-0.7563077807426453,0.5098881721496582,0.008487701416015625,0.07543847,-0.15838268,9.767223,0
2,990.6251220703125,-2.641547762323171E-4,3.7736378726549447E-4,-8.337437175214291E-4,2.098076343536377,19.964557647705078,-14.065645217895508,-0.7359054088592529,0.5133757591247559,0.01809215545654297,0.0658738,-0.15123269,9.769589,0
2,990.6451416015625,2.2099920897744596E-6,0.0013094614259898663,2.3154079099185765E-4,2.0664968490600586,19.03911590576172,-13.467737197875977,-0.7515023946762085,0.48699480295181274,0.004221916198730469,0.082203895,-0.14883962,9.764819,0
2,990.6576538085938,-7.966887787915766E-4,-2.2125925170257688E-5,9.840380516834557E-5,1.885894536972046,19.23884391784668,-13.605562210083008,-0.7266314625740051,0.4931439161300659,0.01895427703857422,0.07462108,-0.16074589,9.764781,0
2,990.6373291015625,-1.316753914579749E-4,-2.8503616340458393E-4,-1.6364399925805628E-4,1.8198614120483398,18.703187942504883,-14.025949478149414,-0.748569130897522,0.5014029741287231,-0.028211593627929688,0.067427754,-0.15597874,9.783717,0
3,990.6498413085938,-3.9681943599134684E-4,-6.847000913694501E-4,-2.9629984055645764E-4,2.008913993835449,18.774669647216797,-13.751321792602539,-0.7210157513618469,0.4800580143928528,0.028928756713867188,0.07218391,-0.1440618,9.764776,0
3,990.6426391601562,-6.629076087847352E-4,-9.510532254353166E-4,7.690613274462521E-4,2.0951390266418457,18.855266571044922,-13.53837776184082,-0.7131697535514832,0.48712727427482605,0.019753456115722656,0.06499064,-0.15597764,9.757672,0
3,990.6521606445312,-5.295219598338008E-4,6.468052743002772E-4,-1.6294672968797386E-4,1.9823369979858398,18.59170150756836,-13.659540176391602,-0.7293167114257812,0.5038065910339355,0.015298843383789062,0.09364581,-0.16074356,9.76714,0
3,990.6521606445312,3.337396265123971E-6,0.0017120318952947855,-1.6284905723296106E-4,2.258594512939453,19.113540649414062,-13.347723007202148,-0.7263654470443726,0.5109612345695496,0.02978038787841797,0.0649434,-0.16550955,9.7600355,0
3,990.6572875976562,1.3672304339706898E-4,3.804154694080353E-4,-2.959094999823719E-4,2.2115278244018555,18.753490447998047,-13.473371505737305,-0.7086718082427979,0.4800894558429718,0.00640869140625,0.07447934,-0.15120932,9.774238,0
3,990.656982421875,-7.95154832303524E-4,1.1406267003621906E-4,-4.289699427317828E-4,1.8648629188537598,19.4300537109375,-13.921442031860352,-0.752976655960083,0.5064327716827393,0.03512287139892578,0.100744665,-0.170275,9.762399,0
3,990.6239624023438,4.020521373604424E-6,-1.5229012933559716E-4,2.3691740352660418E-4,1.9963326454162598,19.237092971801758,-13.930414199829102,-0.7067227363586426,0.4709694981575012,0.03540611267089844,0.05770281,-0.14882487,9.750561,0
3,990.6515502929688,4.475705281947739E-6,-1.9206112483516335E-5,5.034284549765289E-4,1.8554327487945557,18.789077758789062,-13.882486343383789,-0.7069594860076904,0.4914025664329529,0.012144088745117188,0.060069084,-0.16550723,9.769496,0
3,990.6643676757812,2.7101929299533367E-4,-2.8555895551107824E-4,3.7036807043477893E-4,1.7139883041381836,18.70935821533203,-13.933008193969727,-0.7081911563873291,0.470228910446167,0.036116600036621094,0.08155459,-0.15835688,9.764759,0
3,990.6643676757812,2.7101929299533367E-4,-2.8555895551107824E-4,3.7036807043477893E-4,1.7139883041381836,18.70935821533203,-13.933008193969727,-0.6923867464065552,0.4645161032676697,0.026772499084472656,0.062411726,-0.15120643,9.767125,0
3,990.6236572265625,4.044050583615899E-4,3.801937564276159E-4,-5.616398993879557E-4,2.1479949951171875,18.589073181152344,-14.146821975708008,-0.6987351179122925,0.4908064305782318,0.027054786682128906,0.081507355,-0.1655055,9.76949,0
3,990.6184692382812,-5.829440196976066E-4,1.0942430526483804E-4,3.436330007389188E-4,1.5589847564697266,18.722293853759766,-13.98686408996582,-0.6952956914901733,0.4789597690105438,0.032085418701171875,0.076703906,-0.16312167,9.762385,0
3,990.6465454101562,3.4961686469614506E-4,6.419821293093264E-4,6.101439939811826E-4,1.4882779121398926,19.288562774658203,-14.547994613647461,-0.6719416975975037,0.4616214334964752,0.04665565490722656,0.062340915,-0.1512047,9.743446,0
3,990.6465454101562,3.4961686469614506E-4,6.419821293093264E-4,6.101439939811826E-4,1.4882779121398926,19.288562774658203,-14.547994613647461,-0.6796045899391174,0.4654262661933899,0.008932113647460938,0.06470716,-0.15358737,9.767117,0
3,990.6738891601562,3.498444566503167E-4,3.756292862817645E-4,-5.554809467867017E-5,1.7315716743469238,18.98940658569336,-14.260046005249023,-0.6953517198562622,0.4585886001586914,0.032883644104003906,0.076633066,-0.15835336,9.767114,0
3,990.6432495117188,-1.8233201990369707E-4,6.418713019229472E-4,3.44120868248865E-4,1.9082884788513184,18.522884368896484,-14.490930557250977,-0.676558256149292,0.46015816926956177,0.009592056274414062,0.06465995,-0.15358621,9.762378,0
3,990.6432495117188,-1.8233201990369707E-4,6.418713019229472E-4,3.44120868248865E-4,1.9082884788513184,18.522884368896484,-14.490930557250977,-0.6749296188354492,0.4734092056751251,0.033397674560546875,0.07897574,-0.16311875,9.745805,0
3,990.6432495117188,-1.8233201990369707E-4,6.418713019229472E-4,3.44120868248865E-4,1.476346731185913,18.276351928710938,-14.255975723266602,-0.6859592199325562,0.44278523325920105,0.014729499816894531,0.067002594,-0.13928542,9.767107,0
3,990.64306640625,2.173695102101192E-4,1.0920260683633387E-4,4.77376306662336E-4,1.7985305786132812,18.26226234436035,-14.766702651977539,-0.6778856515884399,0.42673367261886597,0.01972198486328125,0.06697899,-0.14881793,9.767106,0
3,990.6381225585938,6.172987632453442E-4,-5.566610489040613E-4,-3.2137619564309716E-4,1.4345805644989014,19.290910720825195,-14.46287727355957,-0.6841683387756348,0.4532497227191925,0.029456138610839844,0.07651496,-0.15596718,9.767103,0
3,990.6581420898438,-4.826336225960404E-5,-4.235400992911309E-4,6.108270608820021E-4,1.4391465187072754,19.295330047607422,-14.694787979125977,-0.6692690253257751,0.44997045397758484,0.015680313110351562,0.076491326,-0.16311643,9.7671,0
3,990.6607666015625,-4.803565389011055E-5,-2.4103141186060384E-5,0.001010398380458355,1.764481544494629,18.177841186523438,-14.98747444152832,-0.6468563675880432,0.452493280172348,0.03961944580078125,0.059738398,-0.15119949,9.752895,0
3,990.6427001953125,-3.141239285469055E-4,-6.899298168718815E-4,2.1154835121706128E-4,1.6734459400177002,19.093252182006836,-14.642084121704102,-0.6924246549606323,0.4551030993461609,0.03032207489013672,0.089268744,-0.16313675,9.760076,0
3,990.6425170898438,-1.8386974988970906E-4,-2.899846585933119E-4,-1.8917006673291326E-4,1.7366809844970703,18.625534057617188,-14.39350700378418,-0.6765011548995972,0.4490600526332855,0.030455589294433594,0.06777105,-0.15598723,9.7506075,0
3,990.6527099609375,-5.934087312198244E-5,2.441711549181491E-4,-5.686894292011857E-5,1.9799742698669434,18.326377868652344,-14.105558395385742,-0.6542115211486816,0.4375497102737427,0.021233558654785156,0.08212188,-0.15360418,9.767179,0
4,990.649658203125,-3.2576677040196955E-4,-1.5528482617810369E-4,-1.9007391529157758E-4,1.6611096858978271,18.555248260498047,-15.147592544555664,-0.6497329473495483,0.4394756555557251,0.03578662872314453,0.08691311,-0.16552088,9.748242,0
4,990.637451171875,8.725448278710246E-4,3.773648350033909E-4,3.4251061151735485E-4,1.8386683464050293,18.35257339477539,-14.855157852172852,-0.6244134902954102,0.42412126064300537,0.031165122985839844,0.06541538,-0.14645493,9.760079,0
4,990.642333984375,2.0664496696554124E-4,3.773826756514609E-4,7.614758214913309E-5,1.9392938613891602,18.604358673095703,-14.115556716918945,-0.6535643339157104,0.43528419733047485,0.031508445739746094,0.0749864,-0.16075483,9.757713,0
4,990.6725463867188,7.337701390497386E-5,6.437164265662432E-4,-4.5653124107047915E-4,1.5545563697814941,18.82379150390625,-14.45402717590332,-0.6410520672798157,0.43294182419776917,0.04594993591308594,0.07499784,-0.15598857,9.750613,0
4,990.664794921875,-4.593647608999163E-4,9.100502356886864E-4,-3.2342056510969996E-4,1.63773775100708,18.901443481445312,-14.086469650268555,-0.6631659269332886,0.422240287065506,0.03661823272705078,0.086958766,-0.15360561,9.755347,0
4,990.6445922851562,-8.589485660195351E-4,-4.2151130037382245E-4,-1.9030983094125986E-4,1.8757615089416504,18.439937591552734,-14.789003372192383,-0.6401685476303101,0.4286424517631531,0.013257980346679688,0.07263076,-0.15122256,9.774287,0
4,990.6643676757812,-1.9326902111060917E-4,0.001442717737518251,-5.898307426832616E-4,1.8826904296875,18.709678649902344,-14.574899673461914,-0.6242374181747437,0.44172540307044983,0.03232097625732422,0.0702523,-0.16075602,9.75535,0
4,990.6416625976562,2.0609490456990898E-4,2.443140256218612E-4,2.09069752600044E-4,1.601186752319336,18.445789337158203,-14.054174423217773,-0.6310259103775024,0.4396074712276459,0.023069381713867188,0.06548393,-0.16075626,9.76482,0
4,990.6514282226562,-3.266468702349812E-4,6.438057171180844E-4,2.0902263349853456E-4,1.5264573097229004,18.63935089111328,-14.284936904907227,-0.623175323009491,0.4184678792953491,0.028036117553710938,0.06788522,-0.15598994,9.762454,0
4,990.6641845703125,7.385065546259284E-4,1.1119180999230593E-4,-1.9049836555495858E-4,1.9128546714782715,18.527305603027344,-14.722841262817383,-0.6345967054367065,0.4168742895126343,0.03297901153564453,0.07028651,-0.14884046,9.764822,0
4,990.6463623046875,7.260681013576686E-5,2.4436760577373207E-4,-5.7387573178857565E-5,1.8286945819854736,18.07988929748535,-14.914651870727539,-0.6171565651893616,0.41470879316329956,0.03794670104980469,0.06790805,-0.15599054,9.752987,0
4,990.6514282226562,-1.9381896709091961E-4,-1.550883607706055E-4,-3.237506025470793E-4,1.3488988876342773,18.842025756835938,-14.577371597290039,-0.6184860467910767,0.42663511633872986,0.042937278747558594,0.09181845,-0.16314068,9.752988,0
4,990.6610107421875,7.22767726983875E-5,-2.1894697056268342E-5,-3.2384495716542006E-4,1.4502055644989014,18.831432342529297,-14.438394546508789,-0.5853515267372131,0.4139294922351837,0.03853607177734375,0.07510054,-0.16075769,9.760091,0
4,990.6610107421875,7.22767726983875E-5,-2.1894697056268342E-5,-3.2384495716542006E-4,1.4502055644989014,18.831432342529297,-14.438394546508789,-0.5601106882095337,0.39854714274406433,0.019701004028320312,0.03687352,-0.14407495,9.767194,0
4,990.6533813476562,-4.605750145856291E-4,-0.0013534384779632092,3.4185050753876567E-4,1.754944086074829,18.643211364746094,-15.321168899536133,-0.6553674936294556,0.41913363337516785,0.024801254272460938,0.113361835,-0.15837494,9.764827,0
4,990.66845703125,3.3826261642389E-4,3.7763273576274514E-4,-1.9082840299233794E-4,1.818476915359497,18.807632446289062,-14.647722244262695,-0.5856927037239075,0.41252419352531433,0.020264625549316406,0.06796509,-0.15837523,9.752993,0
4,990.66845703125,3.3826261642389E-4,3.7763273576274514E-4,-1.9082840299233794E-4,1.818476915359497,18.807632446289062,-14.647722244262695,-0.550956666469574,0.4064466655254364,0.029836654663085938,0.044077456,-0.15122566,9.752994,0
4,990.6404418945312,-4.607949231285602E-4,-2.182324715249706E-5,2.0859827054664493E-4,1.5530338287353516,18.82232093811035,-14.37672233581543,-0.6335128545761108,0.41850635409355164,0.02534770965576172,0.10144657,-0.16314241,9.769565,0
4,990.6806640625,7.374065462499857E-4,-2.178752220061142E-5,4.748198844026774E-4,1.9845399856567383,18.330799102783203,-14.337472915649414,-0.5715484619140625,0.4158165752887726,0.03513145446777344,0.06321955,-0.16075936,9.767199,0
4,990.6806640625,7.374065462499857E-4,-2.178752220061142E-5,4.748198844026774E-4,1.9845399856567383,18.330799102783203,-14.337472915649414,-0.5750888586044312,0.3910805583000183,0.021017074584960938,0.06562084,-0.15360975,9.769567,0
4,990.6679077148438,-5.943928845226765E-4,-0.0016196470241993666,7.410413818433881E-4,1.611595630645752,19.456525802612305,-14.268884658813477,-0.6035788059234619,0.4113956689834595,0.011899948120117188,0.087141365,-0.17029306,9.7672,0
4,990.6679077148438,-5.943928845226765E-4,-0.0016196470241993666,7.410413818433881E-4,1.611595630645752,19.456525802612305,-14.268884658813477,-0.5778986215591431,0.40098392963409424,0.03095245361328125,0.06281653,-0.15121633,9.76006,0
4,990.6525268554688,2.0444460096769035E-4,-6.875236867927015E-4,-1.911112922243774E-4,2.0075297355651855,18.87911605834961,-14.37309455871582,-0.5882363319396973,0.4035162329673767,0.04072093963623047,0.07192361,-0.17027149,9.752917,0
4,990.6729125976562,-2.9343342248466797E-5,1.2407837493810803E-4,-1.2771564070135355E-4,1.9309802055358887,18.43906593322754,-14.951425552368164,-0.5790048837661743,0.37172824144363403,0.01735973358154297,0.07667935,-0.1559712,9.77422,0
4,990.6729125976562,-2.9343342248466797E-5,1.2407837493810803E-4,-1.2771564070135355E-4,1.9309802055358887,18.43906593322754,-14.951425552368164,-0.5730184316635132,0.38043200969696045,0.04111480712890625,0.07187539,-0.14167091,9.767116,0
5,990.6572875976562,-5.617429851554334E-4,2.5719861150719225E-4,-2.6077410439029336E-4,1.7982864379882812,19.26268768310547,-14.440282821655273,-0.5683244466781616,0.3873504102230072,0.041420936584472656,0.06229171,-0.16073659,9.75291,0
5,990.6572875976562,-5.617429851554334E-4,2.5719861150719225E-4,-2.6077410439029336E-4,1.7982864379882812,19.26268768310547,-14.440282821655273,-0.5714733004570007,0.39072924852371216,0.027334213256835938,0.069437325,-0.15596941,9.757643,0
5,990.6144409179688,6.369110778905451E-4,-8.081026608124375E-4,1.3879936886951327E-4,1.611297607421875,18.824390411376953,-14.693758010864258,-0.5780196189880371,0.38418078422546387,0.032265663146972656,0.07419303,-0.15358558,9.764741,0
5,990.63427734375,3.7105969386175275E-4,2.57085426710546E-4,1.3899858458898962E-4,1.5576000213623047,18.826736450195312,-14.608636856079102,-0.5564132928848267,0.3732334077358246,0.018222808837890625,0.0669992,-0.1488184,9.778943,0
5,990.6624755859375,0.0010370818199589849,5.233635893091559E-4,6.717299111187458E-4,1.5696377754211426,18.73260498046875,-14.52800178527832,-0.5801552534103394,0.37028321623802185,0.028008460998535156,0.08370441,-0.15358439,9.762371,0
5,990.652099609375,-5.605812766589224E-4,-9.414113592356443E-4,1.3919765478931367E-4,1.9795684814453125,18.800588607788086,-14.903085708618164,-0.5678540468215942,0.3636164963245392,0.0187225341796875,0.069340885,-0.1512005,9.767102,0
5,990.654052734375,-2.7717136617866345E-5,-5.419754306785762E-4,-3.9333460154011846E-4,1.5599637031555176,19.092056274414062,-14.162622451782227,-0.5615586042404175,0.37202441692352295,0.04723072052001953,0.07409662,-0.14881662,9.748162,0
5,990.6590576171875,-2.938007819466293E-4,1.237766700796783E-4,4.057126643601805E-4,1.4185199737548828,19.01233673095703,-14.213144302368164,-0.5670630931854248,0.359560489654541,0.04749774932861328,0.08841187,-0.1535826,9.767098,0
5,990.6593627929688,-2.935683005489409E-4,0.001189002301543951,-7.926091202534735E-4,1.9062237739562988,18.88970184326172,-14.512079238891602,-0.5512871742248535,0.3682861328125,0.028650283813476562,0.069268584,-0.15119871,9.769464,0
5,990.6466674804688,2.3929560848046094E-4,-4.0893047116696835E-4,6.438029231503606E-6,1.8003511428833008,18.895870208740234,-14.419137954711914,-0.5518056154251099,0.37041231989860535,0.024183273315429688,0.07402432,-0.16311452,9.764727,0
5,990.649169921875,3.726858994923532E-4,-4.0896827704273164E-4,-5.260942270979285E-4,2.014704704284668,18.148422241210938,-14.485418319702148,-0.5504202842712402,0.3647385537624359,0.038474082946777344,0.07161027,-0.15119752,9.762358,0
5,990.608154296875,6.392341456376016E-4,-1.4269007078837603E-4,1.397950400132686E-4,1.9945135116577148,18.60348129272461,-14.277978897094727,-0.5414830446243286,0.35715311765670776,0.0434722900390625,0.069196284,-0.14166382,9.757621,0
5,990.6565551757812,-6.921128951944411E-4,5.230618990026414E-4,1.3989457511343062E-4,1.323300838470459,19.02881622314453,-14.661340713500977,-0.5305347442626953,0.3704182207584381,0.019890785217285156,0.06439236,-0.1583462,9.769454,0
5,990.63818359375,-1.5924886974971741E-4,1.235503877978772E-4,-5.257955635897815E-4,1.735701322555542,18.25577163696289,-14.217752456665039,-0.5361088514328003,0.36749544739723206,0.053284645080566406,0.07392788,-0.16072893,9.757617,0
5,990.6260375976562,-1.5901662118267268E-4,-9.64533774094889E-6,-3.9253797149285674E-4,1.9990787506103516,18.607900619506836,-14.509893417358398,-0.5301436185836792,0.36214855313301086,0.05335521697998047,0.06912398,-0.16072837,9.764716,0
5,990.6514282226562,6.40163489151746E-4,7.892646826803684E-4,1.4019335503689945E-4,1.677170753479004,18.833824157714844,-15.397321701049805,-0.5496929883956909,0.3637217879295349,0.029956817626953125,0.08582914,-0.16311103,9.771815,0
5,990.6560668945312,-8.243417250923812E-4,-9.720760317577515E-6,-6.586547824554145E-4,1.8018732070922852,18.8973445892334,-14.496442794799805,-0.5100037455558777,0.3533537685871124,0.04424571990966797,0.04995656,-0.16072717,9.750508,0
5,990.6611328125,1.0799647134263068E-4,-9.418639820069075E-4,4.067082772962749E-4,1.7622790336608887,18.438743591308594,-14.309537887573242,-0.5403722524642944,0.36591896414756775,0.016021728515625,0.08578098,-0.16549313,9.7647085,0
5,990.6558837890625,2.4138654407579452E-4,-9.419017587788403E-4,6.731237517669797E-4,1.679938793182373,18.62493896484375,-14.153772354125977,-0.5120035409927368,0.34865063428878784,0.021025657653808594,0.07141745,-0.1559594,9.769441,0
5,990.6407470703125,-1.578549126861617E-4,-6.756235379725695E-4,-7.915138849057257E-4,1.4140911102294922,19.11383056640625,-14.680307388305664,-0.5104916095733643,0.34323692321777344,0.025841712951660156,0.06900343,-0.15357554,9.76944,0
5,990.645751953125,5.081670242361724E-4,-6.756613147445023E-4,-1.2562464689835906E-4,1.3700690269470215,18.756729125976562,-14.960565567016602,-0.534988284111023,0.3597416877746582,0.030821800231933594,0.078538954,-0.16549134,9.76707,0
5,990.6354370117188,2.4208352260757238E-4,-1.4306722732726485E-4,7.632828783243895E-6,1.7322521209716797,18.727033615112305,-14.86067008972168,-0.5143969058990479,0.35878702998161316,0.026172637939453125,0.070853055,-0.1607121,9.759921,0
5,990.645751953125,2.4348376609850675E-4,1.23021294712089E-4,-2.58082989603281E-4,1.8938875198364258,18.351696014404297,-15.017587661743164,-0.5203584432601929,0.33801406621932983,0.045355796813964844,0.070307374,-0.15116557,9.7433,0
5,990.6480102539062,5.024074926041067E-4,-1.407942472724244E-4,1.4899930101819336E-4,1.6540420055389404,18.179595947265625,-14.662614822387695,-0.5225204229354858,0.3412138521671295,0.03130340576171875,0.07980353,-0.16069713,9.759865,0
6,990.65576171875,1.0354484402341768E-4,3.9173822733573616E-4,5.487351445481181E-4,1.6248576641082764,18.731731414794922,-14.690427780151367,-0.5339696407318115,0.3491176962852478,0.055138587951660156,0.08451992,-0.16307887,9.755125,0
6,990.6607666015625,9.03715321328491E-4,-5.405658157542348E-4,-3.828463377431035E-4,1.895707130432129,18.985309600830078,-14.670019149780273,-0.48670804500579834,0.3421769142150879,0.04590415954589844,0.046218097,-0.14877766,9.755119,0
6,990.6607666015625,9.03715321328491E-4,-5.405658157542348E-4,-3.828463377431035E-4,1.895707130432129,18.985309600830078,-14.670019149780273,-0.51368248462677,0.34579208493232727,0.027065277099609375,0.08917287,-0.15830919,9.769317,0
6,990.6301879882812,-2.7778854928328656E-5,-0.001339612645097077,-1.1626852210611105E-4,1.7632575035095215,18.808507919311523,-14.485292434692383,-0.506001353263855,0.33924680948257446,0.02722930908203125,0.0652104,-0.15354106,9.759841,0
6,990.6124877929688,-6.923461914993823E-4,2.580840664450079E-4,-1.1574453674256802E-4,1.595235824584961,18.545814514160156,-14.444032669067383,-0.5020511150360107,0.34578096866607666,0.032196044921875,0.08187628,-0.1559228,9.759836,0
6,990.642333984375,2.4037103867158294E-4,3.911427629645914E-4,-5.149563075974584E-4,1.7231202125549316,18.718196868896484,-14.39683723449707,-0.4899156391620636,0.3299092948436737,0.03233909606933594,0.06986338,-0.16068783,9.7669325,0
6,990.6525268554688,-8.242809562943876E-4,-0.0012068517971783876,5.505692679435015E-4,1.590808391571045,18.64731216430664,-14.911195755004883,-0.49192672967910767,0.3278791904449463,0.04670143127441406,0.06741002,-0.16068628,9.75509,0
6,990.6525268554688,-8.242809562943876E-4,-0.0012068517971783876,5.505692679435015E-4,1.590808391571045,18.64731216430664,-14.911195755004883,-0.48105719685554504,0.3363889455795288,0.046776771545410156,0.06973648,-0.15591815,9.757451,0
6,990.6454467773438,-2.4721788577153347E-5,-4.080033686477691E-4,-7.807482033967972E-4,1.393059492111206,19.30504608154297,-14.996194839477539,-0.4777185618877411,0.33010345697402954,0.032745361328125,0.06250337,-0.16068316,9.764547,0
6,990.6631469726562,2.4220504565164447E-4,-0.0013402082258835435,-3.8101221434772015E-4,2.0286998748779297,18.793819427490234,-14.756296157836914,-0.5134188532829285,0.3421744406223297,0.03763103485107422,0.09589857,-0.16544816,9.750338,0
6,990.6473999023438,-0.0010887628886848688,2.5758781703189015E-4,-6.470660446211696E-4,1.7382023334503174,18.62700653076172,-14.47081184387207,-0.4763193428516388,0.32513129711151123,0.04256916046142578,0.0623765,-0.1487636,9.7527,0
6,990.6678466796875,-1.5604571672156453E-4,5.238045123405755E-4,-3.804882289841771E-4,1.8512492179870605,17.890151977539062,-14.676069259643555,-0.4833906590938568,0.3139228820800781,0.06164264678955078,0.0766525,-0.1416122,9.745592,0
6,990.6678466796875,-1.5604571672156453E-4,5.238045123405755E-4,-3.804882289841771E-4,1.8512492179870605,17.890151977539062,-14.676069259643555,-0.4914804995059967,0.33219313621520996,0.03331279754638672,0.06702945,-0.16306022,9.759789,0
6,990.6578369140625,0.0011869046138599515,-9.784620488062501E-5,-2.909646136686206E-4,1.6987459659576416,18.274324417114258,-14.982988357543945,-0.4638134837150574,0.31997373700141907,0.052455902099609375,0.057406396,-0.15352556,9.75505,0
6,990.6600952148438,-5.435373750515282E-4,-9.794541983865201E-5,-6.901763845235109E-4,1.611840009689331,18.456100463867188,-14.595308303833008,-0.49915552139282227,0.3278866112232208,0.04313468933105469,0.093191504,-0.17259026,9.757411,0
6,990.6245727539062,-5.429258453659713E-4,-6.306763971224427E-4,-6.899143336340785E-4,1.3681116104125977,18.017200469970703,-14.60905647277832,-0.46943095326423645,0.33645203709602356,0.05739879608154297,0.07400888,-0.1654388,9.743201,0
6,990.6776733398438,-1.4284014469012618E-4,4.344878252595663E-4,-2.386269625276327E-5,2.198350429534912,17.951641082763672,-14.502202987670898,-0.4673382043838501,0.3154415190219879,0.04331493377685547,0.06916565,-0.15352085,9.755032,0
6,990.6600952148438,-1.4222919708117843E-4,0.0012333362828940153,-4.230744671076536E-4,1.6162691116333008,18.354598999023438,-14.128149032592773,-0.4692520797252655,0.3185390830039978,0.043460845947265625,0.06910217,-0.17020229,9.759761,0
6,990.6448974609375,1.2469786452129483E-4,-0.0011636059498414397,-2.896545920521021E-4,1.7049942016601562,18.80643653869629,-14.16826057434082,-0.47955456376075745,0.33506208658218384,0.06733894348144531,0.085768074,-0.17020068,9.745551,0
6,990.6547241210938,2.584674512036145E-4,-3.64757637726143E-4,-2.8939254116266966E-4,1.943018913269043,18.344928741455078,-14.870790481567383,-0.47339513897895813,0.3339914381504059,0.0674123764038086,0.08331472,-0.17258242,9.740811,0
6,990.6197509765625,-0.0010725002503022552,-4.9801473505795E-4,-2.2814609110355377E-5,1.9348654747009277,18.705856323242188,-14.58271598815918,-0.44724348187446594,0.317796915769577,0.06279850006103516,0.06891188,-0.16066447,9.745541,0
6,990.6525268554688,-4.0609942516312003E-4,8.334653684869409E-4,2.43763264734298E-4,1.2545218467712402,19.12234878540039,-14.502248764038086,-0.4533863961696625,0.3107859194278717,0.05350494384765625,0.07123837,-0.16066292,9.752635,0
6,990.6470947265625,2.6030122535303235E-4,7.002082420513034E-4,-4.217644454911351E-4,1.721735954284668,18.82263946533203,-15.018617630004883,-0.4682122468948364,0.32440313696861267,0.043918609619140625,0.0828743,-0.17024699,9.745725,0
6,990.6395874023438,9.123004856519401E-4,-8.941625710576773E-4,-0.0010904143564403057,1.6951589584350586,18.639667510986328,-14.926828384399414,-0.46109381318092346,0.29893064498901367,0.039298057556152344,0.07811606,-0.15833107,9.759929,0
6,990.6392822265625,2.363235253142193E-4,4.390705726109445E-4,1.0364115587435663E-4,2.041717052459717,19.069448471069336,-14.851411819458008,-0.44442325830459595,0.3213353157043457,0.03467369079589844,0.07096797,-0.16786477,9.7694,0
7,990.6369018554688,1.0295778338331729E-4,-3.5984331043437123E-4,3.698679793160409E-4,1.7874712944030762,18.726158142089844,-15.023096084594727,-0.45040956139564514,0.28549736738204956,0.039580345153808594,0.06859958,-0.148799,9.7575655,0
7,990.6470947265625,-5.630398518405855E-4,-2.2665165306534618E-4,-6.954845739528537E-4,1.9689147472381592,18.79027557373047,-14.361948013305664,-0.4431639313697815,0.31720489263534546,0.06336688995361328,0.07101104,-0.16786584,9.745732,0
7,990.64697265625,2.3570012126583606E-4,-9.346001024823636E-5,5.02847833558917E-4,1.975545883178711,18.427875518798828,-14.572717666625977,-0.437295138835907,0.292245090007782,0.030282020568847656,0.06625283,-0.15594992,9.755203,0
7,990.65478515625,-9.629291598685086E-4,-9.342624980490655E-5,1.0328495409339666E-4,2.001579761505127,18.979137420654297,-14.762956619262695,-0.42046353220939636,0.29060959815979004,0.0446014404296875,0.05910468,-0.15118396,9.75994,0
7,990.6519775390625,1.0212646157015115E-4,-2.2655051725450903E-4,2.3635377874597907E-4,1.9936718940734863,18.339637756347656,-14.801301956176758,-0.432500958442688,0.2888891100883484,0.03997611999511719,0.06868589,-0.1535677,9.759942,0
7,990.6593627929688,-4.307132330723107E-4,-3.59674624633044E-4,-3.0051101930439472E-5,1.989243745803833,18.441133499145508,-15.268465042114258,-0.4111729860305786,0.2873431444168091,0.040078163146972656,0.061537713,-0.14880168,9.762311,0
7,990.6572265625,-5.642868927679956E-4,3.986664523836225E-5,3.6924448795616627E-4,1.4788475036621094,18.647586822509766,-14.509035110473633,-0.4171561896800995,0.2754151225090027,0.04971027374267578,0.066339076,-0.14641893,9.752843,0
7,990.6572265625,-5.642868927679956E-4,3.986664523836225E-5,3.6924448795616627E-4,1.4788475036621094,18.647586822509766,-14.509035110473633,-0.41119375824928284,0.27459532022476196,0.026091575622558594,0.05919093,-0.1583359,9.767049,0
7,990.6624145507812,3.6761100636795163E-4,3.9900391129776835E-5,-3.0318391509354115E-5,2.022068977355957,19.15621566772461,-14.545522689819336,-0.433064728975296,0.30161744356155396,0.040389060974121094,0.07833171,-0.16786954,9.769418,0
7,990.6470947265625,-3.207072222721763E-5,5.725658847950399E-4,1.0275043314322829E-4,1.7180118560791016,19.08206558227539,-14.263376235961914,-0.4072825014591217,0.29060620069503784,0.054678916931152344,0.054454267,-0.15118709,9.752849,0
7,990.6369018554688,1.0087942064274102E-4,8.389154681935906E-4,-1.6365444753319025E-4,1.521348476409912,19.003219604492188,-14.15147590637207,-0.40531277656555176,0.28903675079345703,0.059502601623535156,0.06642532,-0.16310403,9.745749,0
7,990.652099609375,4.999376251362264E-4,5.726670497097075E-4,2.356412005610764E-4,1.7163288593292236,18.55437469482422,-15.310018539428711,-0.39763450622558594,0.28704172372817993,0.050162315368652344,0.059277177,-0.16072121,9.759954,0
7,990.652099609375,4.999376251362264E-4,5.726670497097075E-4,2.356412005610764E-4,1.7163288593292236,18.55437469482422,-15.310018539428711,-0.41587334871292114,0.28623849153518677,0.035999298095703125,0.06646845,-0.17025492,9.759957,0
7,990.6649780273438,4.997297073714435E-4,7.058586925268173E-4,-1.6392167890444398E-4,1.6544785499572754,18.917646408081055,-14.936822891235352,-0.408991277217865,0.2800508141517639,0.04082489013671875,0.066490024,-0.14880589,9.771794,0
7,990.606689453125,2.3320615582633764E-4,3.064186603296548E-4,3.6862099659629166E-4,1.941932201385498,19.081512451171875,-15.067697525024414,-0.40201112627983093,0.2785845100879669,0.04565238952636719,0.054562032,-0.14880648,9.757594,0
7,990.6220092773438,-1.6647546726744622E-4,-2.2617941431235522E-4,3.6853193887509406E-4,2.082397937774658,18.79146957397461,-14.841413497924805,-0.39981934428215027,0.28187650442123413,0.06468391418457031,0.071312904,-0.15357351,9.743392,0
7,990.6701049804688,9.942469478119165E-5,-9.295398194808513E-5,2.35195824643597E-4,1.7138280868530273,18.183135986328125,-15.056962966918945,-0.41079214215278625,0.2892354130744934,0.060090065002441406,0.0689446,-0.17264035,9.759965,0
7,990.6701049804688,9.942469478119165E-5,-9.295398194808513E-5,2.35195824643597E-4,1.7138280868530273,18.183135986328125,-15.056962966918945,-0.40976348519325256,0.27416563034057617,0.03646278381347656,0.064186335,-0.16310772,9.755233,0
7,990.6346435546875,-3.0046486062929034E-4,4.397453449200839E-4,5.013336194679141E-4,1.6544787883758545,18.917648315429688,-14.936822891235352,-0.39238521456718445,0.2767062783241272,0.027123451232910156,0.06659782,-0.15595838,9.762336,0
7,990.6346435546875,-3.0046486062929034E-4,4.397453449200839E-4,5.013336194679141E-4,1.2726480960845947,19.034109115600586,-14.730829238891602,-0.40458372235298157,0.2752023935317993,0.027213096618652344,0.06422949,-0.1607255,9.774174,0
7,990.6346435546875,-3.0046486062929034E-4,4.397453449200839E-4,5.013336194679141E-4,1.2726480960845947,19.034109115600586,-14.730829238891602,-0.40807175636291504,0.28388434648513794,0.03673362731933594,0.08337024,-0.1654926,9.757606,0
7,990.6571044921875,-1.6772250819485635E-4,-7.586086867377162E-4,1.0168165317736566E-4,1.8530693054199219,18.523761749267578,-14.32850456237793,-0.3609994649887085,0.2578122615814209,0.05587196350097656,0.04479128,-0.15356782,9.755206,0
7,990.6571044921875,-1.6772250819485635E-4,-7.586086867377162E-4,1.0168165317736566E-4,1.8530693054199219,18.523761749267578,-14.32850456237793,-0.3789425790309906,0.2809614837169647,0.02277851104736328,0.065937996,-0.16785863,9.774112,0
7,990.6549682617188,-3.477248901617713E-5,-3.591010463424027E-4,-2.9788119718432426E-4,1.482870101928711,19.02029800415039,-14.83940315246582,-0.4099577069282532,0.25102850794792175,0.04181194305419922,0.07548994,-0.14879218,9.764642,0
8,990.6369018554688,2.3750502441544086E-4,-6.263847462832928E-4,2.3730541579425335E-4,1.5499897003173828,18.819374084472656,-14.222116470336914,-0.39834943413734436,0.25449031591415405,0.04662895202636719,0.06353283,-0.15832514,9.771743,0
8,990.6321411132812,-1.415433653164655E-4,5.994343664497137E-4,3.988833341281861E-4,1.6294236183166504,18.736148834228516,-14.922346115112305,-0.3872445523738861,0.2766648828983307,0.04669761657714844,0.068305016,-0.16309151,9.750438,0
8,990.63720703125,-5.40943699888885E-4,9.988963138312101E-4,1.3259894330985844E-4,1.408684492111206,18.845565795898438,-14.971715927124023,-0.379184752702713,0.2555201053619385,0.056296348571777344,0.06351763,-0.14164177,9.748069,0
8,990.612060546875,-1.4139668201096356E-4,-3.326950827613473E-4,-1.336855930276215E-4,1.494365930557251,19.294456481933594,-14.857217788696289,-0.39707985520362854,0.2690122425556183,0.037405967712402344,0.07545951,-0.16785774,9.767007,0
8,990.6547241210938,1.249926572199911E-4,-9.984966600313783E-4,-1.336540444754064E-4,1.5606446266174316,18.829683303833008,-14.763250350952148,-0.38422638177871704,0.2619084417819977,0.03280162811279297,0.073062,-0.1654742,9.764638,0
8,990.6572265625,-8.09193716122536E-6,-4.6587683027610183E-4,-2.6678055291995406E-4,1.5678186416625977,18.098995208740234,-14.875566482543945,-0.3593125343322754,0.2800220251083374,0.061249732971191406,0.051545262,-0.15832421,9.757537,0
8,990.6525268554688,-9.401240386068821E-4,4.662168794311583E-4,-0.0010656968224793673,1.2437069416046143,18.585819244384766,-15.085062026977539,-0.37162649631500244,0.2643113136291504,0.05185985565185547,0.070656836,-0.158324,9.759903,0
8,990.6347045898438,2.583705063443631E-4,-5.990586359985173E-4,9.317037183791399E-4,1.896388292312622,18.72293472290039,-15.270647048950195,-0.3684503436088562,0.2624679207801819,0.051978111267089844,0.06347954,-0.16070712,9.762269,0
8,990.6346435546875,3.9160202140919864E-4,8.656669524498284E-4,-1.3352831592783332E-4,1.4230852127075195,19.016754150390625,-14.445058822631836,-0.37710267305374146,0.252380907535553,0.033074378967285156,0.06825173,-0.15832368,9.757535,0
8,990.6575317382812,2.585174224805087E-4,-3.327664453536272E-4,1.328189973719418E-4,1.87880539894104,18.44288444519043,-14.943613052368164,-0.36525988578796387,0.24158844351768494,0.04736137390136719,0.04673502,-0.15594015,9.767002,0
8,990.6276245117188,3.917487047147006E-4,-6.646261317655444E-5,-5.329392733983696E-4,1.975545883178711,18.427875518798828,-14.572721481323242,-0.3399295210838318,0.2355780303478241,0.04741859436035156,0.061066806,-0.15355673,9.764634,0
8,990.6499633789062,1.2550628161989152E-4,-1.9963242812082171E-4,1.328818907495588E-4,1.9023382663726807,18.62291145324707,-14.88078498840332,-0.4285639822483063,0.2814459204673767,0.061705589294433594,0.13753605,-0.18453911,9.743329,0
8,990.629638671875,-6.733679911121726E-4,0.0011319350451231003,-6.660342332907021E-4,1.6674957275390625,19.19327735900879,-15.031946182250977,-0.292999804019928,0.2367079257965088,0.028635025024414062,0.029982805,-0.15355632,9.766999,0
8,990.6224975585938,3.919688460882753E-4,0.002729818457737565,-2.1309824660420418E-7,1.3458549976348877,18.839080810546875,-14.422761917114258,-0.30158731341362,0.22659018635749817,0.05707550048828125,0.032365143,-0.14402303,9.757531,0
8,990.6448974609375,-7.431513040501159E-6,-8.654578123241663E-4,0.0010650819167494774,1.1983237266540527,18.753463745117188,-14.164072036743164,-0.40427500009536743,0.24919730424880981,0.038224220275878906,0.10644448,-0.14640608,9.769366,0
8,990.6474609375,3.921156458090991E-4,-4.6599586494266987E-4,1.3300770660862327E-4,1.5580363273620605,19.564790725708008,-14.882844924926758,-0.34980157017707825,0.23390664160251617,0.05249309539794922,0.051469147,-0.16070563,9.76463,0
8,990.6658325195312,3.9218898746185005E-4,8.655715500935912E-4,-0.0010653822682797909,1.7593722343444824,18.54171371459961,-14.854005813598633,-0.35765278339385986,0.2797728180885315,0.06676387786865234,0.07297063,-0.1821549,9.740958,0
8,990.6575317382812,-2.734539157245308E-4,0.0016644953284412622,1.33102061226964E-4,1.8046183586120605,18.26815414428711,-15.075925827026367,-0.35059893131256104,0.23469138145446777,0.06211566925048828,0.077742845,-0.15355542,9.757528,0
8,990.6575317382812,-2.734539157245308E-4,0.0016644953284412622,1.33102061226964E-4,1.8046183586120605,18.26815414428711,-15.075925827026367,-0.32115980982780457,0.22425276041030884,0.03373908996582031,0.05144632,-0.14878863,9.764629,0
8,990.6702880859375,-0.001072328188456595,5.992199294269085E-4,5.3260731510818E-4,1.8046190738677979,18.26815414428711,-15.075925827026367,-0.33846256136894226,0.2514573335647583,0.04327392578125,0.068167984,-0.1654714,9.769362,0
8,990.640380859375,-2.733072324190289E-4,1.9973421876784414E-4,-1.331509556621313E-4,1.2716686725616455,18.664348602294922,-14.555078506469727,-0.35080966353416443,0.2498997449874878,0.057547569274902344,0.07294017,-0.1607047,9.755158,0
8,990.6678466796875,-1.4007583376951516E-4,-5.992253427393734E-4,1.3319641584530473E-4,1.6800765991210938,18.73085594177246,-14.852853775024414,-0.3397859036922455,0.25295931100845337,0.04813385009765625,0.068152726,-0.17262086,9.757525,0
8,990.635498046875,7.905886741355062E-4,8.65745940245688E-4,6.652105366811156E-4,1.7867913246154785,18.988529205322266,-14.42247200012207,-0.34261009097099304,0.2417454719543457,0.038707733154296875,0.0638091,-0.15356538,9.769401,0
8,990.635498046875,7.905886741355062E-4,8.65745940245688E-4,6.652105366811156E-4,1.7867913246154785,18.988529205322266,-14.42247200012207,-0.33687418699264526,0.22690272331237793,0.034003257751464844,0.06381923,-0.1464158,9.7623005,0
8,990.6423950195312,1.2409404735080898E-4,-2.001237153308466E-4,3.9705849485471845E-4,1.3768606185913086,18.920551300048828,-14.047388076782227,-0.3489244282245636,0.23065391182899475,0.07195091247558594,0.070999086,-0.16309899,9.738629,0
9,990.6430053710938,6.566278170794249E-4,-9.990553371608257E-4,2.6385861565358937E-4,1.843233346939087,18.35699462890625,-15.087072372436523,-0.33282437920570374,0.2339978665113449,0.03886890411376953,0.06622946,-0.16071594,9.767036,0
9,990.6354370117188,-5.418914370238781E-4,3.325398138258606E-4,-1.3565714471042156E-4,1.7152431011199951,19.29095458984375,-15.506921768188477,-0.3168664872646332,0.23740911483764648,0.053127288818359375,0.04951027,-0.1607162,9.752834,0
9,990.630615234375,3.901163290720433E-4,-2.0007604325655848E-4,-2.688569948077202E-4,1.6338515281677246,18.634653091430664,-14.455179214477539,-0.32945141196250916,0.24108634889125824,0.04844856262207031,0.059080064,-0.16071644,9.755202,0
9,990.6278076171875,3.9001842378638685E-4,5.988875054754317E-4,-9.346887236461043E-4,1.7762746810913086,19.084138870239258,-14.580415725708008,-0.35163018107414246,0.2258656769990921,0.04376697540283203,0.07581952,-0.15833339,9.752837,0
9,990.6604614257812,7.893943693488836E-4,5.989033961668611E-4,-4.0209887083619833E-4,1.9143762588500977,18.528778076171875,-14.800149917602539,-0.3262676000595093,0.2342246174812317,0.058017730712890625,0.06865996,-0.15833363,9.752837,0
9,990.6480102539062,-1.4280914911068976E-4,5.989192286506295E-4,-1.3582489918917418E-4,1.7156481742858887,18.81674575805664,-14.709390640258789,-0.3293420970439911,0.23286430537700653,0.05807304382324219,0.066280216,-0.17025027,9.75994,0
9,990.6480102539062,-1.4280914911068976E-4,5.989192286506295E-4,-1.3582489918917418E-4,1.6036880016326904,18.81702423095703,-14.307233810424805,-0.33699241280555725,0.22199970483779907,0.04866504669189453,0.07823986,-0.14880103,9.750472,0
9,990.6328735351562,-9.748991942615248E-6,4.6577712055295706E-4,-5.353406304493546E-4,1.401073932647705,18.83820343017578,-14.58519172668457,-0.3397650718688965,0.22599884867668152,0.039254188537597656,0.0639106,-0.16071773,9.759941,0
9,990.6838989257812,1.2331115431152284E-4,-6.683862011414021E-5,3.967230150010437E-4,1.4095253944396973,19.109413146972656,-14.448389053344727,-0.3286455571651459,0.22486071288585663,0.039302825927734375,0.07109046,-0.16071796,9.764676,0
9,990.6459350585938,7.890029810369015E-4,-3.3313868334516883E-4,6.629968993365765E-4,1.6075730323791504,19.083816528320312,-13.93852424621582,-0.3319542706012726,0.22868990898132324,0.058284759521484375,0.07588047,-0.16548476,9.755208,0
9,990.6336669921875,3.8933343603275716E-4,5.989986821077764E-4,-2.8766808100044727E-6,1.881711483001709,18.339914321899414,-14.399145126342773,-0.3112489879131317,0.22278819978237152,0.07253646850585938,0.05438143,-0.15833518,9.738639,0
9,990.6387939453125,2.560777065809816E-4,4.6585663221776485E-4,3.9655526052229106E-4,1.6990442276000977,18.90645980834961,-14.558115005493164,-0.30025890469551086,0.23096996545791626,0.048908233642578125,0.05917144,-0.16786852,9.759946,0
9,990.6738891601562,1.228217442985624E-4,7.321883458644152E-4,1.301974116358906E-4,1.704833984375,18.280216217041016,-15.292207717895508,-0.32153576612472534,0.2241048514842987,0.04425334930419922,0.0687412,-0.16548547,9.77415,0
9,990.641357421875,-2.7674963348545134E-4,4.658883553929627E-4,1.301555021200329E-4,1.5566215515136719,18.45697784423828,-14.432886123657227,-0.33010953664779663,0.19488398730754852,0.04901695251464844,0.07114124,-0.1440362,9.762315,0
9,990.6334838867188,-8.254663553088903E-4,-2.1129836386535317E-4,1.3119366485625505E-5,1.4456393718719482,18.827016830444336,-14.206480026245117,-0.304272323846817,0.22222758829593658,0.039605140686035156,0.059201837,-0.16310266,9.764682,0
9,990.6514282226562,-6.92406203597784E-4,-0.001143388100899756,1.4623536844737828E-4,1.466672658920288,18.63580322265625,-13.890596389770508,-0.3120352029800415,0.21102561056613922,0.058597564697265625,0.075941324,-0.16071963,9.759949,0
9,990.6514282226562,-5.593460518866777E-4,-7.810865645296872E-5,-2.5328033370897174E-4,1.3412890434265137,18.834659576416016,-14.190847396850586,-0.3092529773712158,0.20490147173404694,0.030266761779785156,0.0711717,-0.1607199,9.776521,0
9,990.6287841796875,9.05293389223516E-4,-7.809273665770888E-5,2.7930940268561244E-4,1.862743854522705,18.164306640625,-14.693883895874023,-0.2977341413497925,0.22281841933727264,0.03979015350341797,0.049672693,-0.16310349,9.767053,0
9,990.6415405273438,5.057216621935368E-4,-7.438665488734841E-4,2.7926749316975474E-4,1.572819709777832,18.841466903686523,-15.381689071655273,-0.3398302495479584,0.2126128077507019,0.044551849365234375,0.09987083,-0.16310373,9.755217,0
9,990.6488647460938,-5.596396513283253E-4,-3.44376836437732E-4,-1.2024829629808664E-4,1.457815170288086,18.838802337646484,-14.824922561645508,-0.28938400745391846,0.2012682408094406,0.03988933563232422,0.05686274,-0.15118757,9.759953,0
9,990.6363525390625,-1.6026372031774372E-4,5.511285780812614E-5,1.460256753489375E-4,1.7107839584350586,18.180192947387695,-14.902349472045898,-0.28860196471214294,0.21953889727592468,0.0635833740234375,0.06165266,-0.15833765,9.752852,0
9,990.64404296875,-8.261512266471982E-4,-4.7750305384397507E-4,6.786154699511826E-4,1.9458181858062744,19.348302841186523,-14.698980331420898,-0.3227570056915283,0.2127753645181656,0.07325363159179688,0.08726445,-0.15355447,9.745688,0
9,990.6463623046875,-5.599332507699728E-4,5.514461008715443E-5,1.278385752812028E-5,2.25636887550354,18.954139709472656,-14.492818832397461,-0.30147892236709595,0.22124329209327698,0.05911064147949219,0.07459599,-0.17260304,9.755092,0
9,990.63134765625,7.72959494497627E-4,-4.780291928909719E-4,2.8647284489125013E-4,1.7953801155090332,19.365659713745117,-14.984750747680664,-0.3055076599121094,0.20639297366142273,0.059131622314453125,0.07216048,-0.1583023,9.759822,0
9,990.6514282226562,-1.554190821480006E-4,-4.786342615261674E-4,4.212280036881566E-4,1.883669376373291,19.079439163208008,-14.75065803527832,-0.3180471956729889,0.20531100034713745,0.040244102478027344,0.084064305,-0.1606844,9.764552,0
10,990.64404296875,2.444944402668625E-4,-3.455476544331759E-4,-2.443731646053493E-4,1.6378755569458008,19.00735855102539,-14.785547256469727,-0.2829708456993103,0.208709716796875,0.040291786193847656,0.06250954,-0.16544989,9.764548,0
10,990.6290893554688,-1.5409939805977046E-4,-2.125325845554471E-4,-0.0010429436806589365,1.3693885803222656,19.019100189208984,-14.35993766784668,-0.30435240268707275,0.21160678565502167,0.05456733703613281,0.06963357,-0.16306543,9.7550745,0
10,990.6466064453125,5.12130034621805E-4,-3.4576188772916794E-4,5.551400827243924E-4,1.477464199066162,18.752033233642578,-15.130807876586914,-0.288415789604187,0.19614112377166748,0.05934619903564453,0.06719807,-0.1582978,9.762172,0
10,990.6466064453125,5.12130034621805E-4,-3.4576188772916794E-4,5.551400827243924E-4,1.477464199066162,18.752033233642578,-15.130807876586914,-0.29692643880844116,0.18120954930782318,0.05463981628417969,0.06954235,-0.14638028,9.757433,0
10,990.64208984375,-4.190955951344222E-4,-6.122206104919314E-4,2.2885389626026154E-5,1.5747475624084473,18.368736267089844,-14.661466598510742,-0.30361050367355347,0.1934904158115387,0.04524993896484375,0.076666415,-0.15591225,9.759797,0
10,990.64208984375,-4.190955951344222E-4,-6.122206104919314E-4,2.2885389626026154E-5,1.5747475624084473,18.368736267089844,-14.661466598510742,-0.29349058866500854,0.2169538289308548,0.04526519775390625,0.067061126,-0.16544425,9.757424,0
10,990.6825561523438,7.797655998729169E-4,-7.966025441419333E-5,-3.7640001391991973E-4,1.5655083656311035,19.46623992919922,-14.570291519165039,-0.28710436820983887,0.18281415104866028,0.05004119873046875,0.07418519,-0.15114346,9.7597885,0
10,990.6446533203125,-1.5145991346798837E-4,4.528286517597735E-4,5.560828140005469E-4,1.9089694023132324,18.26051139831543,-15.091554641723633,-0.27984553575515747,0.2049213945865631,0.05957794189453125,0.08130926,-0.16305879,9.75505,0
10,990.6446533203125,-1.5145991346798837E-4,4.528286517597735E-4,5.560828140005469E-4,1.9089694023132324,18.26051139831543,-15.091554641723633,-0.2743450999259949,0.19951583445072174,0.05486297607421875,0.06214443,-0.15352449,9.752678,0
10,990.6622314453125,-6.836519460193813E-4,3.1959929037839174E-4,1.5679746866226196E-4,1.5883078575134277,18.276073455810547,-14.658132553100586,-0.2914735972881317,0.20321667194366455,0.0596466064453125,0.07404828,-0.1678231,9.755042,0
10,990.6446533203125,2.488937752787024E-4,-0.0011452094186097383,-9.082775213755667E-4,1.9292140007019043,19.438018798828125,-14.547700881958008,-0.2656475007534027,0.20177173614501953,0.06443119049072266,0.06444305,-0.16305533,9.752669,0
10,990.6369018554688,-8.159299031831324E-4,-0.0011452807812020183,-3.754571662284434E-4,1.6824405193328857,18.996173858642578,-14.406839370727539,-0.28755196928977966,0.1864655613899231,0.04554462432861328,0.076346904,-0.15828773,9.7526655,0
10,990.6448974609375,-5.487341550178826E-4,5.299778422340751E-5,6.901833694428205E-4,1.9434547424316406,19.082983016967773,-15.144998550415039,-0.2612959146499634,0.19885151088237762,0.05980873107910156,0.06435174,-0.15590331,9.752662,0
10,990.6448974609375,-5.487341550178826E-4,5.299778422340751E-5,6.901833694428205E-4,1.9434547424316406,19.082983016967773,-15.144998550415039,-0.28428590297698975,0.17957478761672974,0.04089164733886719,0.07864547,-0.15590218,9.759759,0
10,990.6575317382812,1.1749533587135375E-4,-4.79705398902297E-4,2.908980823121965E-4,1.6222493648529053,19.466838836669922,-14.810022354125977,-0.2870696783065796,0.1782776266336441,0.07881546020507812,0.08576959,-0.14398465,9.752653,0
10,990.6575317382812,1.1749533587135375E-4,-4.79705398902297E-4,2.908980823121965E-4,1.1147370338439941,19.150020599365234,-15.329156875610352,-0.2617012858390808,0.17732307314872742,0.0315093994140625,0.0666047,-0.15113336,9.766852,0
10,990.6525268554688,-5.478544044308364E-4,-3.466188791207969E-4,-3.747030859813094E-4,1.4586565494537354,19.102645874023438,-14.301599502563477,-0.25959140062332153,0.19524049758911133,0.03629302978515625,0.06177929,-0.16066542,9.771583,0
10,990.63232421875,1.1881501995958388E-4,-0.0012788672465831041,5.577795673161745E-4,1.6831209659576416,18.733800888061523,-15.007463455200195,-0.271869957447052,0.17957985401153564,0.055281639099121094,0.07607305,-0.15351442,9.766844,0
10,990.6354370117188,6.518866284750402E-4,5.852725589647889E-4,-5.072954227216542E-4,1.3233006000518799,19.02881622314453,-14.661340713500977,-0.2655051350593567,0.1878805309534073,0.05058479309082031,0.07124761,-0.1582799,9.755004,0
10,990.6903686523438,-5.460945540107787E-4,-2.1374656353145838E-4,-2.407909487374127E-4,1.602846622467041,18.553180694580078,-14.830556869506836,-0.25906825065612793,0.18212977051734924,0.060092926025390625,0.056862533,-0.16304532,9.740796,0
10,990.6703491210938,-5.456548533402383E-4,-8.796077454462647E-4,4.251872596796602E-4,1.8276090621948242,18.816471099853516,-15.111551284790039,-0.2764069736003876,0.17159633338451385,0.04119682312011719,0.07115632,-0.15827763,9.766831,0
10,990.6347045898438,-1.2583301213453524E-5,5.242650513537228E-5,4.2537576518952847E-4,1.4668092727661133,18.741722106933594,-14.589670181274414,-0.2660403847694397,0.18529462814331055,0.050683021545410156,0.07166585,-0.16305664,9.762144,0
10,990.6679077148438,-1.466187823098153E-4,-3.469049115665257E-4,6.913154502399266E-4,1.8526639938354492,18.997966766357422,-15.126031875610352,-0.2597731053829193,0.174098402261734,0.060108184814453125,0.07459852,-0.1511536,9.759826,0
10,990.6170043945312,-4.219590628053993E-4,-6.117558223195374E-4,5.542900180444121E-4,1.8813061714172363,18.81412124633789,-15.196672439575195,-0.2638273239135742,0.17849567532539368,0.04118537902832031,0.06264776,-0.16545328,9.762193,0
11,990.6753540039062,-1.556308416184038E-4,-7.912598084658384E-5,0.001353242783807218,2.3579206466674805,17.94312286376953,-14.680261611938477,-0.26584550738334656,0.1723330169916153,0.06017875671386719,0.07459599,-0.1511536,9.740888,0
11,990.65576171875,2.4385485448874533E-4,-8.780756033957005E-4,-2.446472062729299E-4,2.3096303939819336,18.21373748779297,-14.303735733032227,-0.2639678120613098,0.16639365255832672,0.06021690368652344,0.06981492,-0.16545317,9.750358,0
11,990.6430053710938,-2.244868483103346E-5,-0.001677025225944817,4.2114773532375693E-4,2.0573418140411377,18.609973907470703,-14.826932907104492,-0.2583687901496887,0.17489099502563477,0.05549907684326172,0.07220358,-0.15115348,9.750358,0
11,990.6533203125,1.3476616004481912E-4,0.0014361965004354715,-2.417699433863163E-4,2.0731282234191895,18.676715850830078,-13.678506851196289,-0.24264675378799438,0.1694469004869461,0.06972885131835938,0.06981236,-0.15353677,9.755092,0
11,990.6635131835938,2.679360914044082E-4,1.0461507190484554E-4,-6.412385264411569E-4,2.17291259765625,18.664653778076172,-13.462224960327148,-0.2659825086593628,0.16912850737571716,0.05080413818359375,0.08415055,-0.15591997,9.759825,0
11,990.635498046875,1.6323174349963665E-6,7.704028394073248E-4,-6.412334041669965E-4,2.1645991802215576,18.499359130859375,-14.298097610473633,-0.25449052453041077,0.153535857796669,0.04610729217529297,0.067419946,-0.15353665,9.757458,0
11,990.6407470703125,2.679607714526355E-4,6.372429197654128E-4,-3.749122261069715E-4,1.4510469436645508,19.09528350830078,-13.915071487426758,-0.23489443957805634,0.1531066596508026,0.05558490753173828,0.06263888,-0.14638677,9.747989,0
11,990.6660766601562,9.337624651379883E-4,-2.8548820409923792E-5,4.240406851749867E-4,1.2137036323547363,19.294414520263672,-13.813165664672852,-0.2623307704925537,0.17599095404148102,0.06034374237060547,0.07458711,-0.1702196,9.752723,0
11,990.6455688476562,-1.3148883590474725E-4,6.372389034368098E-4,-2.4174374993890524E-4,1.1983237266540527,18.753463745117188,-14.164064407348633,-0.24138902127742767,0.17502832412719727,0.0035657882690429688,0.07219595,-0.1630697,9.774028,0
11,990.6583862304688,5.343133234418929E-4,5.040789837948978E-4,-6.412123329937458E-4,0.8581509590148926,18.96170997619629,-14.123834609985352,-0.2549821734428406,0.16529782116413116,0.055657386779785156,0.06741488,-0.15353653,9.750356,0
11,990.6586303710938,0.0010669573675841093,3.709190059453249E-4,5.572143709287047E-4,0.7302675247192383,18.789329528808594,-14.171022415161133,-0.2391965389251709,0.16428391635417938,0.050950050354003906,0.069803536,-0.14876994,9.757458,0
11,990.65869140625,-3.9775558980181813E-4,-4.2803259566426277E-4,-7.743545575067401E-4,1.0251929759979248,18.854639053344727,-13.989339828491211,-0.24655447900295258,0.16299720108509064,0.050991058349609375,0.07458204,-0.15591979,9.750356,0
11,990.65869140625,-3.9775558980181813E-4,-4.2803259566426277E-4,-7.743545575067401E-4,1.0251929759979248,18.854639053344727,-13.989339828491211,-0.2603977620601654,0.15768253803253174,0.036797523498535156,0.07458076,-0.15591976,9.757457,0
11,990.643310546875,4.0120427729561925E-4,9.035448892973363E-4,4.240721755195409E-4,1.1868281364440918,18.479305267333984,-14.14625358581543,-0.25905221700668335,0.16189438104629517,0.051024436950683594,0.076969415,-0.15830296,9.752723,0
11,990.6539306640625,6.675320328213274E-4,3.7091117701493204E-4,-2.4171225959435105E-4,0.9935076236724854,19.035539627075195,-13.76408576965332,-0.24785049259662628,0.1609218418598175,0.04158496856689453,0.07935804,-0.15591967,9.764558,0
11,990.643798828125,1.3492506695911288E-4,3.709071024786681E-4,1.5777198132127523E-4,1.8893213272094727,18.347280502319336,-14.785669326782227,-0.2460373193025589,0.1452871710062027,0.051085472106933594,0.06740731,-0.14400327,9.743254,0
11,990.6591796875,1.3493694132193923E-4,6.372210336849093E-4,-3.7485454231500626E-4,1.5239567756652832,18.268112182617188,-14.031877517700195,-0.240122452378273,0.15413518249988556,0.07004261016845703,0.06979591,-0.15591958,9.745622,0
11,990.6591796875,1.3493694132193923E-4,6.372210336849093E-4,-3.7485454231500626E-4,1.5239567756652832,18.268112182617188,-14.031877517700195,-0.2488456517457962,0.14889754354953766,0.04165077209472656,0.069794625,-0.15353629,9.762191,0
11,990.6643676757812,-9.30301786866039E-4,-2.9488850850611925E-4,-6.411599460989237E-4,1.5921926498413086,18.54286766052246,-14.289422988891602,-0.24697032570838928,0.16635988652706146,0.055886268615722656,0.07696307,-0.1630694,9.747989,0
11,990.6441040039062,-5.308159743435681E-4,-2.857466461136937E-5,-7.743126479908824E-4,1.688253402709961,18.790231704711914,-13.317903518676758,-0.24101080000400543,0.15581189095973969,0.04643821716308594,0.072182,-0.1606861,9.752723,0
11,990.6441040039062,-5.308159743435681E-4,-2.857466461136937E-5,-7.743126479908824E-4,1.688253402709961,18.790231704711914,-13.317903518676758,-0.21636620163917542,0.15526731312274933,0.04645061492919922,0.06023124,-0.15591943,9.76219,0
11,990.6569213867188,-1.3132992899045348E-4,-4.280504072085023E-4,-3.748335875570774E-4,1.6085522174835205,19.453580856323242,-14.114278793334961,-0.2341179996728897,0.17378246784210205,0.04173851013183594,0.074569374,-0.16783586,9.757456,0
11,990.6318359375,0.0010671040508896112,-2.857850631698966E-5,2.4645443772897124E-5,1.5274357795715332,19.009109497070312,-14.460691452026367,-0.24344123899936676,0.1491578370332718,0.0700674057006836,0.07087457,-0.15594605,9.748087,0
11,990.6515502929688,1.7776037566363811E-6,-1.6463981592096388E-4,2.127513289451599E-5,1.5093104839324951,19.09735107421875,-14.232110977172852,-0.24207159876823425,0.1433829516172409,0.04641437530517578,0.08525592,-0.1535638,9.755193,0
11,990.6517944335938,-6.694819894619286E-4,6.351958145387471E-4,2.8524670051410794E-4,1.7727947235107422,18.343135833740234,-14.15159797668457,-0.23178330063819885,0.17544570565223694,0.05115699768066406,0.070958376,-0.16786453,9.767032,0
12,990.6371459960938,-8.030436583794653E-4,7.684192387387156E-4,9.508634102530777E-4,1.5403156280517578,19.17882537841797,-13.856729507446289,-0.22068104147911072,0.1602681428194046,0.051178932189941406,0.063830554,-0.16071573,9.759934,0
12,990.6371459960938,-8.030436583794653E-4,7.684192387387156E-4,9.508634102530777E-4,1.4009366035461426,18.73228645324707,-13.886110305786133,-0.2291153371334076,0.1543225795030594,0.046459197998046875,0.07343206,-0.15833345,9.752837,0
12,990.6321411132812,-4.039735649712384E-4,-6.96252565830946E-4,-2.477311063557863E-4,1.6908915042877197,19.26738739013672,-14.270044326782227,-0.23278847336769104,0.1392093151807785,0.04647254943847656,0.06391436,-0.15118465,9.755207,0
12,990.6194458007812,2.610085648484528E-4,6.354579236358404E-4,1.5139661263674498E-4,1.3313159942626953,18.561973571777344,-14.250337600708008,-0.2212710976600647,0.166675865650177,0.032294273376464844,0.07829565,-0.16310206,9.774149,0
12,990.6194458007812,2.610085648484528E-4,6.354579236358404E-4,1.5139661263674498E-4,1.3313159942626953,18.561973571777344,-14.250337600708008,-0.2300129532814026,0.157015860080719,0.07017993927001953,0.07833752,-0.16071978,9.75048,0
12,990.6145629882812,1.270432840101421E-4,-3.0200666515156627E-5,-6.478969589807093E-4,1.9838593006134033,18.593170166015625,-13.736845016479492,-0.22836647927761078,0.14640887081623077,0.05126190185546875,0.06881982,-0.15357104,9.7528515,0
12,990.6400756835938,7.924292585812509E-4,-1.6329309437423944E-4,4.1719357250258327E-4,1.8750805854797363,18.702312469482422,-14.188379287719727,-0.22782079875469208,0.1506444215774536,0.04179954528808594,0.07603139,-0.15595531,9.762324,0
12,990.63232421875,-1.4008005382493138E-4,5.025622085668147E-4,1.754669938236475E-5,1.9226899147033691,18.694072723388672,-13.964273452758789,-0.21694865822792053,0.15456898510456085,0.056018829345703125,0.06651366,-0.16548946,9.755227,0
12,990.6423950195312,-7.3258415795862675E-6,-5.626358324661851E-4,-0.0013142058160156012,1.4531116485595703,18.728466033935547,-13.893926620483398,-0.21962322294712067,0.1583961695432663,0.056044578552246094,0.0785051,-0.16549054,9.752863,0
12,990.6074829101562,6.580602494068444E-4,-6.957282312214375E-4,1.7200596630573273E-5,2.1372036933898926,18.47284698486328,-12.906606674194336,-0.22392034530639648,0.1581597626209259,0.0702524185180664,0.08332679,-0.16549152,9.745767,0
12,990.6170043945312,2.581826993264258E-4,6.359167164191604E-4,-2.492882777005434E-4,1.9481501579284668,18.401365280151367,-13.181230545043945,-0.20879250764846802,0.1477852165699005,0.04185295104980469,0.064249426,-0.15119287,9.764707,0
12,990.622802734375,7.904106169007719E-4,0.0011686140205711126,-5.15777210239321E-4,1.844235897064209,19.14706039428711,-13.439802169799805,-0.21289418637752533,0.14732182025909424,0.05606269836425781,0.059511513,-0.16549361,9.738672,0
12,990.63232421875,6.568489479832351E-4,0.0010355216218158603,5.493132048286498E-4,1.9085867404937744,19.15502166748047,-14.066057205200195,-0.2023044228553772,0.16109177470207214,0.04660606384277344,0.05238372,-0.16787788,9.75998,0
12,990.6353759765625,6.564452196471393E-4,-2.9599221306852996E-4,-1.166494912467897E-4,2.1313915252685547,18.678787231445312,-13.995538711547852,-0.2111436426639557,0.14622992277145386,0.03714275360107422,0.071544826,-0.1535792,9.774187,0
12,990.6554565429688,3.897257265634835E-4,0.0010356527054682374,1.4949351316317916E-4,1.9679360389709473,18.42051124572754,-14.186197280883789,-0.20448440313339233,0.14507457613945007,0.06083488464355469,0.05724725,-0.16787997,9.748152,0
12,990.6354370117188,3.8932199822738767E-4,-1.627031888347119E-4,-5.164691829122603E-4,2.240605592727661,19.307697296142578,-13.818216323852539,-0.19888073205947876,0.14943228662014008,0.04664134979248047,0.066848814,-0.1607311,9.759992,0
12,990.6278076171875,7.066594844218343E-5,-0.0010296269319951534,-6.243918905965984E-4,2.0209529399871826,18.680538177490234,-13.670686721801758,-0.20224326848983765,0.1435280442237854,0.0371856689453125,0.06450075,-0.1559656,9.7623625,0
12,990.635498046875,7.026222010608763E-5,8.34649836178869E-4,3.0754058388993144E-4,1.763120412826538,18.702590942382812,-13.786218643188477,-0.20099282264709473,0.1380862146615982,0.05140209197998047,0.06693256,-0.15120009,9.764733,0
12,990.6254272460938,2.0301654876675457E-4,-6.300219683907926E-4,-4.915800527669489E-4,1.4067790508270264,19.738605499267578,-13.868913650512695,-0.18564726412296295,0.13704216480255127,0.051410675048828125,0.062194616,-0.1512011,9.760003,0
12,990.6254272460938,-4.631768970284611E-4,4.3530709808692336E-4,-3.5859516356140375E-4,1.8825526237487793,18.603763580322266,-13.875818252563477,-0.19926756620407104,0.14163412153720856,0.0372161865234375,0.076575935,-0.15835193,9.769475,0
12,990.6483154296875,-4.6398447011597455E-4,5.685961223207414E-4,1.736904087010771E-4,1.7807035446166992,18.98263931274414,-14.113252639770508,-0.20279870927333832,0.14993368089199066,0.06563186645507812,0.06227839,-0.16788611,9.745808,0
12,990.6483154296875,-4.6398447011597455E-4,5.685961223207414E-4,1.736904087010771E-4,1.7807035446166992,18.98263931274414,-14.113252639770508,-0.19243285059928894,0.14941968023777008,0.06564044952392578,0.05708331,-0.1726425,9.743403,0
12,990.6357421875,3.4820145810954273E-4,-2.331804425921291E-4,-8.910000324249268E-4,1.7456750869750977,18.528457641601562,-14.158258438110352,-0.18012875318527222,0.12934651970863342,0.06101036071777344,0.06620002,-0.15356538,9.752831,0
12,990.6234130859375,-5.828624125570059E-4,-7.65981269069016E-4,-9.160599438473582E-5,1.701951026916504,18.803489685058594,-14.013650894165039,-0.1929967701435089,0.1379588395357132,0.05155658721923828,0.06859499,-0.1535655,9.7575655,0
13,990.6234130859375,-5.828624125570059E-4,-7.65981269069016E-4,-9.160599438473582E-5,1.701951026916504,18.803489685058594,-14.013650894165039,-0.18782943487167358,0.13758763670921326,0.06103038787841797,0.06621015,-0.16071546,9.759933,0
13,990.62841796875,-5.0279802962904796E-5,2.992901427205652E-4,1.7468893202021718E-4,1.5700440406799316,18.258398056030273,-13.730470657348633,-0.17250637710094452,0.14170169830322266,0.05157279968261719,0.056655645,-0.16309887,9.752832,0
13,990.6309814453125,8.282935596071184E-5,-1.0017571912612766E-4,-2.2480590268969536E-4,2.0627498626708984,18.878238677978516,-14.535524368286133,-0.1952672153711319,0.13619397580623627,0.03738117218017578,0.07100013,-0.16786554,9.7670355,0
13,990.6334838867188,6.154122529551387E-4,2.993060043081641E-4,-9.166891686618328E-5,2.027721643447876,18.424055099487305,-14.580533981323242,-0.19862405955791473,0.11656560003757477,0.04686737060546875,0.06861529,-0.14879942,9.759934,0
13,990.6386108398438,3.4899855381809175E-4,-0.0010322575690224767,5.740789347328246E-4,1.4947712421417236,18.820249557495117,-14.059686660766602,-0.196519136428833,0.1298532336950302,0.051624298095703125,0.07101029,-0.15833268,9.7552,0
13,990.641357421875,-5.0524042308097705E-5,-6.327757146209478E-4,0.0011066896840929985,1.6672205924987793,18.981441497802734,-13.633787155151367,-0.1906011402606964,0.13397397100925446,0.06110572814941406,0.063845634,-0.1559495,9.745732,0
13,990.641357421875,-5.0524042308097705E-5,-6.327757146209478E-4,0.0011066896840929985,1.6672205924987793,18.981441497802734,-13.633787155151367,-0.17135319113731384,0.1335086077451706,0.051636695861816406,0.061460793,-0.15594962,9.759936,0
13,990.6362915039062,2.156939299311489E-4,2.9934573103673756E-4,1.7454224871471524E-4,1.6889333724975586,18.52785873413086,-13.918527603149414,-0.16983109712600708,0.1325090080499649,0.051651954650878906,0.051906258,-0.1607163,9.762303,0
13,990.6337890625,8.248709491454065E-5,1.6619570669718087E-4,-9.179452899843454E-5,1.5523533821105957,19.084693908691406,-13.776094436645508,-0.1783069372177124,0.14594657719135284,0.06113243103027344,0.06625074,-0.15833321,9.752835,0
13,990.6337890625,8.248709491454065E-5,1.6619570669718087E-4,-9.179452899843454E-5,1.5523533821105957,19.084693908691406,-13.776094436645508,-0.19701147079467773,0.1364150047302246,0.051667213439941406,0.07820532,-0.16786644,9.764672,0
13,990.6414794921875,6.150699919089675E-4,-3.664281393866986E-4,1.7450033919885755E-4,1.6211328506469727,18.99115753173828,-13.935190200805664,-0.1952345222234726,0.12105057388544083,0.046950340270996094,0.07104069,-0.15595016,9.741,0
13,990.6134033203125,2.1554724662564695E-4,-2.3326228256337345E-4,4.1321502067148685E-5,2.077693462371826,18.681135177612305,-13.910421371459961,-0.19400978088378906,0.14426155388355255,0.037494659423828125,0.0758256,-0.17501652,9.764672,0
13,990.6416625976562,2.1549835219047964E-4,-1.000963820843026E-4,8.402480743825436E-4,1.8076856136322021,18.691404342651367,-13.407510757446289,-0.1879587471485138,0.12411230802536011,0.04697418212890625,0.07583067,-0.16310024,9.774142,0
13,990.6312255859375,-5.0866303354268894E-5,-2.3324639187194407E-4,3.0759547371417284E-4,1.6355342864990234,19.162343978881836,-13.408536911010742,-0.1775704324245453,0.12801040709018707,0.05644989013671875,0.07344583,-0.15356722,9.762306,0
13,990.626708984375,-8.498628158122301E-4,4.325512272771448E-4,4.125863779336214E-5,1.5884678363800049,18.802295684814453,-13.534185409545898,-0.18176600337028503,0.1278240978717804,0.06592369079589844,0.06867108,-0.16786703,9.752839,0
13,990.6267700195312,6.148255197331309E-4,-4.995462950319052E-4,1.7439559451304376E-4,1.5950989723205566,18.439895629882812,-13.744951248168945,-0.19029593467712402,0.12228894233703613,0.04226207733154297,0.07345599,-0.15356746,9.767041,0
13,990.6366577148438,3.484607150312513E-4,8.320410270243883E-4,-2.2509926930069923E-4,1.9147820472717285,18.054567337036133,-14.002622604370117,-0.17554910480976105,0.12671233713626862,0.05173206329345703,0.06629133,-0.16071743,9.752839,0
13,990.6445922851562,6.147277308627963E-4,4.3257506331428885E-4,7.069854764267802E-4,1.8544535636901855,18.41931915283203,-13.706727981567383,-0.1789085566997528,0.12095826864242554,0.0659475326538086,0.056736827,-0.16310084,9.741004,0
13,990.6366577148438,-7.169005693867803E-4,-4.995225463062525E-4,3.074906417168677E-4,1.7365424633026123,18.51961898803711,-13.694429397583008,-0.18725448846817017,0.11091755330562592,0.047020912170410156,0.0758611,-0.15118459,9.757575,0
13,990.6470947265625,-4.506336117628962E-4,-4.995146300643682E-4,-2.2516201715916395E-4,1.573087215423584,18.26134490966797,-13.885080337524414,-0.1909966766834259,0.14282271265983582,0.047027587890625,0.07825604,-0.16786769,9.762309,0
13,990.6293334960938,-5.120856440044008E-5,6.989148096181452E-4,4.4060670188628137E-4,1.706080436706543,18.069854736328125,-13.971353530883789,-0.1766708791255951,0.11402146518230438,0.05175971984863281,0.07348132,-0.15356812,9.76231,0
13,990.6522216796875,-5.838893121108413E-4,0.001497870427556336,-3.583618672564626E-4,1.3913993835449219,19.197654724121094,-14.219812393188477,-0.18064486980438232,0.1130790114402771,0.03756237030029297,0.0782662,-0.15356824,9.764678,0
13,990.5990600585938,8.185158367268741E-5,8.320885244756937E-4,4.4056482147425413E-4,1.6348307132720947,19.00441551208496,-14.630937576293945,-0.1699591875076294,0.12646813690662384,0.056456565856933594,0.07412499,-0.17026687,9.757634,0
13,990.6141967773438,7.953561726026237E-5,-6.322728004306555E-4,1.7325644148513675E-4,1.3607993125915527,18.64197540283203,-13.797658920288086,-0.17381133139133453,0.11612178385257721,0.04699134826660156,0.06698573,-0.16073444,9.77184,0
13,990.62939453125,-5.071398481959477E-5,-2.3402116494253278E-4,-3.637567278929055E-4,1.839371681213379,18.5105037689209,-13.632761001586914,-0.17754881083965302,0.11040502786636353,0.05173015594482422,0.078965664,-0.14881888,9.752906,0
14,990.6447143554688,-8.499551331624389E-4,2.986581821460277E-4,9.676970075815916E-4,1.6853463649749756,18.893203735351562,-13.862367630004883,-0.1577654778957367,0.1338195502758026,0.08014106750488281,0.06704658,-0.160736,9.738706,0
14,990.6371459960938,-4.5077476534061134E-4,-0.0010328736389055848,1.686236064415425E-4,1.4803695678710938,18.649059295654297,-14.586339950561523,-0.18068233132362366,0.11864960938692093,0.06120777130126953,0.06946695,-0.16073671,9.752912,0
14,990.6041870117188,-3.179098421242088E-4,4.319113795645535E-4,-2.3097597295418382E-4,1.9150798320770264,18.68670654296875,-13.577753067016602,-0.17488780617713928,0.10860947519540787,0.03754138946533203,0.062327683,-0.1559709,9.7623825,0
14,990.6447143554688,3.475862613413483E-4,-1.0067276161862537E-4,3.521429607644677E-5,1.831899642944336,18.609054565429688,-13.945306777954102,-0.17867082357406616,0.11734533309936523,0.05648326873779297,0.0671379,-0.15835497,9.750549,0
14,990.6200561523438,-8.511285996064544E-4,-5.000989185646176E-4,-2.3122743004933E-4,1.614203929901123,18.721420288085938,-14.149293899536133,-0.17779582738876343,0.10711915791034698,0.06595420837402344,0.07672799,-0.1535891,9.755286,0
14,990.6245727539062,0.003022681223228574,-0.0018992549739778042,-4.43690805695951E-5,1.8339643478393555,18.242237091064453,-13.924165725708008,-0.16702622175216675,0.11651352047920227,0.04702568054199219,0.06958872,-0.1583564,9.755289,0
14,990.688720703125,-0.0021707722917199135,0.001562899211421609,-5.771265714429319E-4,1.6373322010040283,19.375648498535156,-14.883996963500977,-0.18553461134433746,0.12493407726287842,0.051758766174316406,0.07917869,-0.16074052,9.75766,0
14,990.5870971679688,9.261965897167102E-5,-3.494857810437679E-5,4.8801119555719197E-4,1.585860252380371,19.537403106689453,-13.653779983520508,-0.15543311834335327,0.09585370868444443,0.05176830291748047,0.048140436,-0.15835795,9.738725,0
14,990.6448974609375,0.0046194023452699184,-0.0030974862165749073,-5.775037570856512E-4,1.553194522857666,19.348541259765625,-13.252775192260742,-0.1677333116531372,0.12420850992202759,0.03757953643798828,0.07445979,-0.16312519,9.767134,0
14,990.6448974609375,0.0046194023452699184,-0.0030974862165749073,-5.775037570856512E-4,1.553194522857666,19.348541259765625,-13.252775192260742,-0.1679566502571106,0.1132582575082779,0.056507110595703125,0.0768801,-0.1607427,9.748199,0
14,990.7576293945312,-0.00576720992103219,0.0030278267804533243,6.20792037807405E-4,2.1578307151794434,18.755840301513672,-13.388254165649414,-0.14805172383785248,0.11222827434539795,0.0517730712890625,0.06257117,-0.16074347,9.760037,0
14,990.5487670898438,-1.7486957949586213E-4,2.3155777307692915E-4,-4.5123451855033636E-5,1.9766845703125,19.323862075805664,-13.624528884887695,-0.15174612402915955,0.11162738502025604,0.04704475402832031,0.06738138,-0.15359434,9.764774,0
14,990.6075439453125,-1.7516329535283148E-4,-7.005001534707844E-4,-4.5249180402606726E-5,1.7427911758422852,19.051733016967773,-12.879701614379883,-0.15536898374557495,0.10611030459403992,0.042313575744628906,0.072191626,-0.15597838,9.755309,0
14,990.6201782226562,9.085969213629141E-5,-7.004524231888354E-4,7.535727927461267E-4,1.7775216102600098,18.873775482177734,-13.259561538696289,-0.1639990210533142,0.10591360181570053,0.06599044799804688,0.07222211,-0.16074571,9.745843,0
14,990.6430053710938,4.900400526821613E-4,2.3170068743638694E-4,8.765736129134893E-5,2.0609517097473145,18.664932250976562,-13.060064315795898,-0.15886390209197998,0.11450816690921783,0.07072067260742188,0.07464239,-0.17266282,9.75058,0
14,990.6301879882812,-4.423590435180813E-4,6.312220939435065E-4,-4.5626366045325994E-5,2.0724477767944336,18.9390869140625,-13.077878952026367,-0.16261714696884155,0.11380196362733841,0.061255455017089844,0.079452634,-0.16074714,9.75295,0
14,990.635498046875,-3.094941203016788E-4,-3.4519965993240476E-5,-4.575197817757726E-5,1.8342628479003906,18.874374389648438,-13.499292373657227,-0.15724027156829834,0.11781617999076843,0.03284740447998047,0.0723134,-0.16789779,9.762422,0
14,990.6331176757812,3.560018667485565E-4,4.981594393029809E-4,3.535960568115115E-4,1.7319772243499756,18.515201568603516,-13.462518692016602,-0.16090846061706543,0.0933755487203598,0.056522369384765625,0.06995392,-0.1559821,9.755322,0
14,990.6431884765625,-7.098481291905046E-4,-1.6753500676713884E-4,7.528184214606881E-4,1.6737136840820312,18.51313018798828,-13.145479202270508,-0.1641569286584854,0.09702223539352417,0.04232311248779297,0.07715404,-0.148833,9.774263,1
14,990.6635131835938,3.551218833308667E-4,-1.6748739290051162E-4,-5.788866546936333E-4,1.545722484588623,19.44709014892578,-13.565324783325195,-0.15826863050460815,0.1111750453710556,0.03759574890136719,0.0676249,-0.16075018,9.764797,1
14,990.6635131835938,3.551218833308667E-4,-1.6748739290051162E-4,-5.788866546936333E-4,1.545722484588623,19.44709014892578,-13.565324783325195,-0.1485072821378708,0.12043365836143494,0.06599998474121094,0.07243508,-0.17266735,9.752964,1
14,990.6558837890625,7.543026003986597E-4,3.6519201239570975E-4,-3.1269650207832456E-4,2.156309127807617,18.754369735717773,-13.310945510864258,-0.1420002281665802,0.10550927370786667,0.08028697967529297,0.060063303,-0.1678904,9.738723,1
14,990.6558837890625,7.543026003986597E-4,3.6519201239570975E-4,-3.1269650207832456E-4,2.156309127807617,18.754369735717773,-13.310945510864258,-0.160811185836792,0.10982256382703781,0.047145843505859375,0.06917301,-0.16787937,9.769454,1
14,990.6737670898438,-3.419548011152074E-5,3.626026737038046E-4,-1.781843020580709E-4,1.7509443759918213,18.690805435180664,-13.16777229309082,-0.15019218623638153,0.11376911401748657,0.04241657257080078,0.06677675,-0.1654959,9.767087,1
14,990.6304931640625,-9.640745120123029E-4,-3.035484696738422E-4,8.908577729016542E-5,1.985243320465088,18.488727569580078,-13.115072250366211,-0.15380382537841797,0.09822231531143188,0.04241943359375,0.066770375,-0.16072923,9.759984,1
15,990.6535034179688,-5.645391065627337E-4,-1.7040052625816315E-4,7.549017900601029E-4,1.8402130603790283,18.774349212646484,-13.109437942504883,-0.1536760777235031,0.09791061282157898,0.05188751220703125,0.07154381,-0.1559625,9.759984,1
15,990.6256713867188,5.007855361327529E-4,4.95379266794771E-4,7.549280999228358E-4,2.1089978218078613,19.394744873046875,-13.110170364379883,-0.1428271383047104,0.12125933170318604,0.056629180908203125,0.059587955,-0.17026201,9.759984,1
15,990.6282348632812,5.00846654176712E-4,-3.726241993717849E-5,3.554804134182632E-4,1.8472795486450195,19.150005340576172,-13.594415664672852,-0.156602680683136,0.09711335599422455,0.04242992401123047,0.073921084,-0.16072875,9.776553,1
15,990.6282348632812,2.3459189105778933E-4,-1.704302994767204E-4,-7.097569177858531E-4,1.601485252380371,19.077926635742188,-13.629304885864258,-0.1652563512325287,0.10127590596675873,0.042433738708496094,0.085864216,-0.15119544,9.767084,1
15,990.6537475585938,-5.642947508022189E-4,-3.7282254197634757E-5,-4.394102143123746E-5,1.6250178813934326,19.257949829101562,-13.56648063659668,-0.14631220698356628,0.09002324938774109,0.03768730163574219,0.06195885,-0.15357855,9.767083,1
15,990.6483154296875,-0.003094234736636281,0.001693761209025979,6.218749331310391E-4,1.7899956703186035,19.517696380615234,-13.453134536743164,-0.11250869184732437,0.04505257308483124,0.051849365234375,0.054782808,-0.120212525,9.76945,1
15,990.6078491210938,-0.028793655335903168,-0.0015020393766462803,0.009942956268787384,2.0835065841674805,18.47519302368164,-12.821481704711914,-0.14945831894874573,0.31146493554115295,0.02799510955810547,-0.0025811791,-0.08446318,9.774184,1
15,990.5977172851562,-0.05422676354646683,-0.026402585208415985,0.024590352550148964,1.9906508922576904,18.756994247436523,-12.823663711547852,-0.22796808183193207,0.27671146392822266,-0.024187088012695312,0.1360268,-0.32517412,9.797855,1
15,990.5597534179688,-0.06061827763915062,-0.011755221523344517,-0.05423911660909653,1.6189310550689697,19.252056121826172,-13.257257461547852,-0.0968276858329773,0.11848045885562897,-0.09090900421142578,0.07866281,-0.35615662,10.0038,1
15,990.58251953125,-0.10922087728977203,-0.008293123915791512,-0.03506435081362724,1.5030851364135742,18.98554229736328,-13.223810195922852,-0.09357412159442902,0.19578412175178528,-0.6808404922485352,0.14318383,-0.41335508,10.323373,1
15,990.5601806640625,-0.4881882965564728,-0.19391530752182007,0.03417780622839928,1.4442787170410156,19.351760864257812,-13.005228042602539,-0.21337741613388062,-0.1708989441394806,0.0017309188842773438,0.32958984,-0.6492996,9.653455,1
15,990.6107788085938,-0.9650267958641052,-0.3687516748905182,0.01846519485116005,0.7650737762451172,20.664241790771484,-11.976564407348633,-0.05145446956157684,0.38566339015960693,0.37550926208496094,0.51360595,-1.6407433,9.348084,1
15,990.6106567382812,-0.8754115104675293,-0.2703479528427124,-0.04571690410375595,0.08793401718139648,21.609901428222656,-10.926759719848633,-0.6002629995346069,0.6250468492507935,0.20148754119873047,1.1015154,-1.640743,9.629781,1
15,990.6183471679688,-0.5947144627571106,-0.8029797673225403,-0.1443869173526764,-1.4028406143188477,22.531414031982422,-10.135080337524414,0.10332906246185303,-0.4137117862701416,-0.20353126525878906,0.20768577,-0.9233761,9.81679,1
15,990.6644287109375,-0.7397233843803406,-0.27727222442626953,-0.2742158770561218,-1.8382091522216797,23.17644500732422,-8.72001838684082,-0.6236175298690796,0.09864091873168945,0.03053569793701172,1.0106865,-1.7241576,9.700795,1
15,990.7099609375,-0.8783406615257263,1.0953198671340942,-0.09045787155628204,-1.0560688972473145,25.119979858398438,-8.184427261352539,-0.43673354387283325,0.3940925598144531,0.6578922271728516,0.7740799,-2.48204,8.997736,1
15,990.7099609375,-0.8783406615257263,1.0953198671340942,-0.09045787155628204,-1.0560688972473145,25.119979858398438,-8.184427261352539,-0.44810739159584045,0.5913801193237305,-0.007725715637207031,0.7214956,-2.980145,9.51852,1
15,990.6689453125,-0.5057647228240967,0.3160795569419861,0.1987612098455429,-0.2511286735534668,25.87334442138672,-7.736673355102539,-0.5686359405517578,0.18431496620178223,0.22530746459960938,0.7549479,-2.7537334,9.234454,1
15,990.6947631835938,-0.6304004788398743,-0.6469186544418335,0.3403080999851227,-0.9850096702575684,26.818408966064453,-6.447134017944336,0.037205398082733154,-0.05046534538269043,0.16408824920654297,0.31758958,-2.6941512,9.303103,1
15,990.6946411132812,-0.5272030830383301,-0.19151856005191803,0.49743446707725525,-0.7032084465026855,27.714431762695312,-6.542989730834961,-0.004470765590667725,0.1287839412689209,0.04709148406982422,0.4227389,-3.4162846,9.22025,1
15,990.6616821289062,-0.48046454787254333,0.36241844296455383,0.47666189074516296,-0.15542078018188477,28.227481842041016,-6.811389923095703,-0.0516015961766243,-0.10004305839538574,0.035717010498046875,-0.172353,-3.3424027,8.668693,1
15,990.6056518554688,-0.10602597147226334,0.13764812052249908,-0.018020519986748695,1.4475290775299072,29.4644775390625,-6.129983901977539,-0.18693828582763672,0.0848093032836914,-0.20686054229736328,-0.10233797,-3.6236467,9.217948,1
15,990.6056518554688,-0.10602597147226334,0.13764812052249908,-0.018020519986748695,1.4475290775299072,29.4644775390625,-6.129983901977539,-0.24506700038909912,0.06504583358764648,-0.015265464782714844,-0.09919742,-3.3138392,9.24879,1
15,990.6337280273438,-0.10842377692461014,0.10542178899049759,-0.27475735545158386,1.448913335800171,29.360031127929688,-5.508211135864258,0.35979005694389343,-0.4119105339050293,0.05269432067871094,-0.10153654,-3.020697,9.102029,1
16,990.6337280273438,-0.1772669106721878,0.09357082098722458,-0.2514549493789673,1.2287168502807617,29.10116195678711,-5.459131240844727,-0.436124324798584,-0.05527186393737793,-0.09031486511230469,0.29045808,-3.5021207,9.236964,1
16,990.6463623046875,-0.03225840628147125,0.06587404012680054,-0.17781879007816315,1.2378487586975098,29.110000610351562,-5.92296028137207,-0.29277822375297546,0.07608175277709961,0.018522262573242188,0.17340365,-3.6260524,8.9079275,1
16,990.7073974609375,-0.15609578788280487,0.008216737769544125,-0.0012515652924776077,1.2854580879211426,29.101757049560547,-5.698862075805664,0.05950025096535683,-0.7543737888336182,0.1921367645263672,0.092197716,-2.6298432,9.182528,1
16,990.8369750976562,0.16388225555419922,0.024195769801735878,0.06838982552289963,1.1885795593261719,29.010848999023438,-5.370676040649414,-0.708483874797821,0.471437931060791,-0.5511980056762695,0.31689924,-3.7237692,9.4381895,1
16,990.8446044921875,0.672145664691925,0.3537617623806,0.04229066148400307,1.252387523651123,29.387100219726562,-6.09538459777832,0.025929361581802368,0.10508084297180176,1.0165338516235352,-0.5075662,-3.2375817,9.251185,1
16,990.719970703125,0.589187741279602,0.30755603313446045,0.15201258659362793,1.8427293300628662,27.51687240600586,-6.384859085083008,-0.1747184693813324,0.7117660045623779,-1.705479621887207,-0.32588288,-3.1374853,10.302228,1
16,990.719970703125,0.589187741279602,0.30755603313446045,0.15201258659362793,2.4555482864379883,27.775508880615234,-7.880144119262695,-0.031025171279907227,-0.2553892135620117,0.786585807800293,-0.56004256,-3.2256677,8.583644,1
16,990.7481689453125,-0.04357927292585373,0.3907798230648041,0.06412813812494278,3.2260024547576904,27.706405639648438,-7.378948211669922,-0.45429158210754395,0.04952812194824219,0.6324024200439453,-0.012704253,-2.9539752,8.806165,1
16,990.6410522460938,-0.23532719910144806,0.5642846822738647,0.3165953755378723,3.667480945587158,27.487571716308594,-7.280206680297852,-1.1639561653137207,0.6949231624603271,-1.5137710571289062,0.6230604,-3.6022282,10.806457,1
16,990.5929565429688,0.529664158821106,-1.1248235702514648,0.25986969470977783,2.1841554641723633,27.890220642089844,-7.999002456665039,1.1805826425552368,-0.3749873638153076,-0.34603118896484375,-1.6449058,-2.1555796,9.989776,1
16,990.6791381835938,0.6052974462509155,0.0018257673364132643,-0.18234805762767792,2.0976319313049316,27.177490234375,-8.636823654174805,0.35124388337135315,-0.1676957607269287,-0.12903213500976562,-0.44990408,-2.389142,8.915071,1
16,990.6558837890625,0.6036989688873291,0.47027555108070374,0.12564605474472046,2.3573696613311768,26.26239776611328,-9.624101638793945,-0.04116740822792053,0.5081613063812256,1.0889196395874023,-0.34708756,-2.1984808,9.3979845,1
16,990.5949096679688,0.8827976584434509,-0.2703488767147064,-0.02921682968735695,1.8020567893981934,24.21533966064453,-10.41954231262207,0.4245593845844269,-0.5537464618682861,0.26128387451171875,-0.47131175,-1.6765442,9.01687,1
16,990.6409912109375,0.9220786690711975,-0.2411872297525406,0.019385606050491333,1.4441404342651367,23.617319107055664,-11.17622184753418,-1.0863666534423828,0.1827094554901123,0.3770465850830078,0.4894796,-1.5931308,8.976631,1
16,990.6051025390625,0.5235365033149719,-0.28512927889823914,-0.07369200885295868,0.5373520851135254,23.242828369140625,-11.861406326293945,0.19391971826553345,-0.03353893756866455,2.3257293701171875,-0.39234346,-2.0674043,8.718612,1
16,990.5897216796875,-0.38127222657203674,0.43498900532722473,-0.29433491826057434,0.9670901298522949,23.750261306762695,-11.418428421020508,-0.5873007774353027,1.267377257347107,-5.011137962341309,0.21235242,-2.2985835,13.057698,1
16,990.6585083007812,-0.34518688917160034,0.7037017941474915,0.08995869010686874,2.3070452213287354,23.740619659423828,-11.470376968383789,-0.6185590624809265,-0.34061574935913086,1.4689865112304688,-0.416141,-0.8757677,8.829879,1
16,990.729736328125,0.8423150777816772,0.6099587082862854,-0.1498589813709259,2.444007396697998,22.289276123046875,-12.638307571411133,-0.572198212146759,-0.48352861404418945,2.1512937545776367,-0.23923755,-0.7137059,7.982425,1
16,990.5896606445312,0.9649531245231628,-0.531071662902832,-0.41550928354263306,1.130033016204834,21.217613220214844,-13.527887344360352,0.4376508593559265,0.5780719518661499,-1.128056526184082,-0.60723174,-1.8290815,11.509561,1
16,990.5949096679688,0.3673397898674011,-1.0205602645874023,-0.2671715021133423,-0.9359469413757324,21.17926025390625,-12.899343490600586,-0.14885564148426056,1.1301701068878174,-1.1748809814453125,0.3965779,-1.5955215,10.825444,1
16,990.6429443359375,0.3713340163230896,-0.437860906124115,0.49555692076683044,-1.2357373237609863,20.477392196655273,-13.273984909057617,-0.5432469844818115,-0.047863543033599854,-1.6543550491333008,0.410968,-0.4801484,11.076373,1
16,990.5840454101562,0.45801934599876404,-0.1646207571029663,0.10939870029687881,-1.055732250213623,19.013389587402344,-13.985902786254883,-0.16191351413726807,-0.3740259110927582,0.08228111267089844,0.37039042,-0.15125722,9.6655245,1
16,990.5946655273438,0.527260959148407,0.06667465716600418,-0.07848736643791199,-1.5175929069519043,17.948802947998047,-13.929422378540039,-0.10012638568878174,0.08422258496284485,-0.13295936584472656,0.24377632,-0.38481978,9.992204,1
16,990.5642700195312,0.5192710161209106,-0.3148227632045746,-0.21044710278511047,-2.440985679626465,17.66402816772461,-14.463327407836914,-0.1940286010503769,0.21292933821678162,-0.24553775787353516,0.44218898,-0.34668848,10.48932,1
16,990.60693359375,0.2621425688266754,-0.15543262660503387,-0.20844992995262146,-2.946977138519287,17.348682403564453,-15.059762954711914,-0.20245078206062317,0.48737889528274536,-1.6318092346191406,0.34186387,-0.35622296,10.931992,1
17,990.60693359375,0.43524739146232605,0.08811333030462265,-0.1382759064435959,-2.7380309104919434,16.332969665527344,-15.417444229125977,0.048122838139534,0.30887895822525024,0.302764892578125,0.24392861,0.029866993,9.535346,1
17,990.6041870117188,0.538177490234375,-0.18113186955451965,-0.13534684479236603,-3.5360937118530273,14.216773986816406,-16.40239143371582,-0.4313625693321228,-0.1343822479248047,-0.7889509201049805,0.7004506,0.7210164,10.288122,1
17,990.6041870117188,0.538177490234375,-0.18113186955451965,-0.13534684479236603,-3.5360937118530273,14.216773986816406,-16.40239143371582,-0.13269606232643127,0.4594063460826874,-0.9904241561889648,0.40415347,0.22291003,10.612433,1
17,990.6527709960938,0.7183392643928528,-0.34158703684806824,-0.2646436393260956,-4.855069637298584,12.402645111083984,-16.78584861755371,-0.1668912172317505,0.08123183250427246,0.22397518157958984,0.6049561,0.82587814,9.826528,1
17,990.6527709960938,0.7183392643928528,-0.34158703684806824,-0.2646436393260956,-4.855069637298584,12.402645111083984,-16.78584861755371,-0.05461794137954712,0.24833524227142334,0.224365234375,0.65519476,0.7901279,9.978032,1
17,990.6629638671875,0.5913060307502747,-0.44957801699638367,-0.22642752528190613,-5.551528453826904,10.908000946044922,-17.206941604614258,-0.1845446228981018,0.39067018032073975,-0.41192054748535156,0.89423573,1.3454304,9.504598,1
17,990.6396484375,0.7152755260467529,-0.2675510346889496,-0.0790218934416771,-6.362992763519287,9.410686492919922,-17.071271896362305,-0.0359157919883728,-0.014477729797363281,1.001296043395996,0.91818535,1.7458199,8.82758,1
17,990.6396484375,0.27904921770095825,-0.5543731451034546,-0.13015495240688324,-7.955969333648682,8.446372985839844,-17.693185806274414,0.12915456295013428,0.23452985286712646,-0.26909446716308594,0.99471295,1.6886201,9.630068,1
17,990.6396484375,0.27904921770095825,-0.5543731451034546,-0.13015495240688324,-7.955969333648682,8.446372985839844,-17.693185806274414,0.09091818332672119,0.17344021797180176,-1.0050048828125,1.1142589,1.8602148,10.401781,1
17,990.6343994140625,0.5299183130264282,-0.5433209538459778,-0.12416306138038635,-8.695066452026367,6.490184783935547,-17.772768020629883,0.3365837335586548,0.13829970359802246,0.045879364013671875,1.0378326,2.2820537,9.059581,1
17,990.6395874023438,0.7039552330970764,-0.22334229946136475,-0.057051658630371094,-9.228857040405273,6.622528076171875,-17.775239944458008,0.3145188093185425,-0.10063624382019043,-0.1639728546142578,1.1095804,2.5203805,10.302367,1
17,990.618896484375,0.35947516560554504,-0.0739390105009079,-0.07436240464448929,-10.112144470214844,5.215807914733887,-17.32586097717285,0.5145937204360962,0.37853074073791504,-0.9755315780639648,0.77504504,2.460797,9.592212,1
17,990.6494140625,0.8075510859489441,0.003026358550414443,-0.06610682606697083,-9.797325134277344,4.1939239501953125,-17.776487350463867,0.5935888290405273,0.2263202667236328,0.4917421340942383,0.81572413,2.8921695,9.000415,1
17,990.601318359375,0.5372395515441895,0.29078081250190735,0.1382901966571808,-9.836971282958984,2.102755546569824,-18.34087562561035,0.4435713291168213,0.17381811141967773,0.07720661163330078,0.86691034,3.1758132,9.310391,1
17,990.601318359375,0.5372395515441895,0.29078081250190735,0.1382901966571808,-9.836971282958984,2.102755546569824,-18.34087562561035,0.4136028289794922,-0.05660676956176758,0.041296958923339844,0.8798059,3.5690901,9.319728,1
17,990.6292724609375,0.5665512084960938,0.2835889160633087,0.1951608657836914,-9.539300918579102,1.5388774871826172,-18.738672256469727,0.21540462970733643,0.008000373840332031,-0.3333320617675781,0.8606676,3.7287703,9.087741,1
17,990.6292724609375,0.5665512084960938,0.2835889160633087,0.1951608657836914,-9.18739128112793,0.6043643951416016,-19.123136520385742,0.12582826614379883,-0.38277220726013184,-0.29015350341796875,0.85586894,4.205426,9.6369295,1
17,990.572998046875,0.560562789440155,0.33232414722442627,0.14988872408866882,-8.166191101074219,-0.28275585174560547,-19.84446907043457,0.32660120725631714,0.010615110397338867,-1.2149343490600586,0.40415865,4.002848,9.902055,1
17,990.6134033203125,0.6451184153556824,0.3568251430988312,0.07199149578809738,-7.397313594818115,-1.985896110534668,-20.01725959777832,0.22673052549362183,-0.3560643196105957,-1.0409574508666992,0.5547036,4.5700684,10.100898,1
17,990.6011352539062,0.592787504196167,0.514350950717926,0.14522843062877655,-6.255948543548584,-1.6016521453857422,-20.677526473999023,0.022730767726898193,0.01703929901123047,-0.9521322250366211,0.26311666,4.431839,9.868909,1
17,990.6106567382812,0.4758751094341278,0.874143660068512,0.17665378749370575,-4.712456226348877,-2.895270824432373,-21.378572463989258,0.017008349299430847,-0.11562728881835938,-2.052896499633789,0.12687334,4.6010523,10.498584,1
17,990.6106567382812,0.6389937400817871,0.671610414981842,0.1999565064907074,-3.3189949989318848,-4.645745277404785,-21.567853927612305,0.34610387682914734,0.5062251091003418,-0.48503684997558594,-0.46345133,4.4461393,8.803666,1
17,990.5418701171875,0.7923918962478638,0.6754719614982605,0.18677394092082977,-2.7057714462280273,-4.8613128662109375,-22.26561164855957,-0.14992600679397583,-0.6056547164916992,-0.5052499771118164,-0.10498494,5.394685,9.217925,1
17,990.55712890625,0.40183982253074646,0.7017040252685547,0.2303166687488556,-1.7921061515808105,-5.849654197692871,-22.11762046813965,0.45418742299079895,0.994114875793457,-1.802825927734375,-0.94385946,4.1148653,10.53172,1
18,990.5521850585938,0.4519074261188507,0.5456429123878479,0.061472490429878235,-1.0168414115905762,-6.914763450622559,-22.174760818481445,0.6102906465530396,1.2113451957702637,-1.6455249786376953,-1.1995978,4.5081067,8.974099,1
18,990.5775756835938,1.0694941282272339,0.6140860915184021,0.269065797328949,0.34061145782470703,-9.489181518554688,-22.233301162719727,0.8494805693626404,0.846707820892334,0.32590293884277344,-1.338231,5.1658916,7.5679784,1
18,990.536865234375,1.1443290710449219,0.4423123300075531,0.4255264699459076,0.7997803688049316,-10.534313201904297,-22.088930130004883,0.4826458692550659,0.5018401145935059,0.17188453674316406,-1.3430297,5.5591335,7.461453,1
18,990.5313110351562,0.7915937900543213,0.5405828952789307,0.48917603492736816,1.3148488998413086,-11.842691421508789,-22.70762062072754,0.990572452545166,1.1196813583374023,0.16092157363891602,-1.770841,5.139676,7.096902,1
18,990.536865234375,0.3527054488658905,0.7301996350288391,0.5291234850883484,2.5230345726013184,-12.291508674621582,-23.17547035217285,1.2590901851654053,1.1001930236816406,1.0806093215942383,-1.8377773,5.628249,6.983274,1
18,990.5465087890625,0.04804025962948799,0.6379212737083435,0.7200720310211182,3.4154224395751953,-12.08820915222168,-23.01694679260254,0.22960036993026733,0.46072959899902344,-1.8970541954040527,-1.082587,5.5162354,8.910176,1
18,990.5949096679688,0.3483116328716278,0.29890111088752747,0.6444383859634399,3.2097647190093994,-12.069976806640625,-23.140291213989258,1.667098879814148,1.9929485321044922,-0.2292938232421875,-2.3181853,4.8370013,7.404633,1
18,990.5770874023438,0.8292782306671143,0.5686790943145752,0.5887784957885742,3.952364683151245,-13.32395076751709,-22.796422958374023,0.8319217562675476,1.0218510627746582,0.712132453918457,-1.5845042,5.702132,6.514563,1
18,990.5617065429688,0.6077035665512085,0.8307338356971741,0.9208744764328003,4.922227382659912,-13.943400382995605,-22.98661231994629,0.657497763633728,0.9558000564575195,0.6265711784362793,-1.2284278,5.9666767,6.481421,1
18,990.5540161132812,0.09930679202079773,0.8634907007217407,0.9136840105056763,6.103293418884277,-14.206900596618652,-23.461130142211914,0.31324541568756104,1.0320210456848145,-0.2701864242553711,-1.0348647,6.1096735,7.7289343,1
18,990.5361938476562,-0.14410574734210968,0.9676201343536377,0.8979714512825012,6.889808177947998,-13.99742603302002,-23.209665298461914,0.6084943413734436,0.9008679389953613,-1.5845928192138672,-1.2069565,5.9237785,7.754972,1
18,990.5816040039062,0.7584389448165894,0.8238095641136169,0.7625499367713928,7.622434616088867,-15.524087905883789,-22.925291061401367,0.4540557861328125,1.9407038688659668,0.34591102600097656,-1.1543976,5.6306357,5.61502,1
18,990.5081787109375,1.3291540145874023,0.7618910670280457,0.7002320289611816,8.964263916015625,-17.63903045654297,-23.008310317993164,0.10050493478775024,1.646939754486084,0.999567985534668,-0.56650054,6.2669716,5.274141,1
18,990.5382690429688,1.006645679473877,0.6979752779006958,0.8749352693557739,9.3636474609375,-18.68770408630371,-22.4695987701416,-0.33864426612854004,1.2933220863342285,-0.5158877372741699,-0.1004886,6.7174115,6.273098,1
18,990.5208129882812,0.49904781579971313,0.8883910179138184,0.857758104801178,9.716804504394531,-19.832578659057617,-21.53321647644043,-0.7514491677284241,1.2998533248901367,-0.4559502601623535,0.17470682,6.669737,5.970129,1
18,990.5559692382812,0.5371302962303162,1.139926552772522,0.7861188054084778,11.380572319030762,-20.961183547973633,-21.8005428314209,-0.6026278734207153,1.4580273628234863,-0.15498971939086914,0.069547385,6.8341837,5.364125,1
18,990.5360717773438,0.6509777307510376,1.2102344036102295,0.7383139729499817,12.38823127746582,-21.33533477783203,-20.702180862426758,-0.7117871642112732,1.4509248733520508,0.01931905746459961,0.1245113,7.022463,4.9096217,1
18,990.5562133789062,0.6646929979324341,1.14219069480896,0.7132803201675415,13.889928817749023,-22.826656341552734,-20.53838539123535,-0.7973513007164001,1.0021605491638184,0.24498987197875977,0.3682775,7.520568,4.760488,1
18,990.5460815429688,0.43179985880851746,1.183735966682434,0.7738671898841858,14.73674201965332,-24.194198608398438,-19.511075973510742,-1.0647461414337158,0.9102225303649902,0.03928184509277344,0.578585,7.730296,4.838605,1
18,990.5637817382812,0.22806821763515472,1.355908989906311,0.7854519486427307,16.376049041748047,-24.24002456665039,-18.9141788482666,-1.2286491394042969,0.36073875427246094,-0.18570375442504883,0.65505815,8.287984,4.691838,1
18,990.5913696289062,0.17547087371349335,1.3881332874298096,0.7447056174278259,17.69135284423828,-24.90536880493164,-18.154115676879883,-1.1015942096710205,0.4160623550415039,0.31487321853637695,0.6478846,8.261767,4.4030385,1
18,990.5684814453125,0.2810651659965515,1.158968448638916,0.6352498531341553,19.055927276611328,-25.47156524658203,-17.946340560913086,-1.1137961149215698,0.3670015335083008,-0.39576053619384766,0.5498948,8.333266,5.0705895,1
18,990.5657348632812,0.20702937245368958,1.0845332145690918,0.5789240598678589,19.184057235717773,-26.29961395263672,-18.22557258605957,-1.1543290615081787,0.3173637390136719,-0.8917689323425293,0.68372554,8.464347,5.191317,1
18,990.5760498046875,0.13086307048797607,1.2059733867645264,0.6047566533088684,20.47332763671875,-27.516220092773438,-17.275270462036133,-1.133723497390747,0.2560272216796875,-0.6346569061279297,0.6144146,8.528695,5.214988,1
18,990.5379638671875,0.021540440618991852,1.3375333547592163,0.5946366190910339,21.979236602783203,-26.896350860595703,-17.38962745666504,-1.0710642337799072,0.37122344970703125,-1.0616860389709473,0.43038833,8.342799,5.0587525,1
19,990.53759765625,0.14431209862232208,1.4303444623947144,0.6122135519981384,23.134971618652344,-27.553180694580078,-16.451509475708008,-1.0228220224380493,0.3787193298339844,-0.3561882972717285,0.7171728,8.635942,4.462217,1
19,990.53759765625,0.14431209862232208,1.4303444623947144,0.6122135519981384,24.652454376220703,-28.97775650024414,-15.139287948608398,-1.4491102695465088,0.09580230712890625,-0.3547091484069824,0.7458477,8.650243,4.308349,1
19,990.5507202148438,0.3499079942703247,1.269622802734375,0.6829203963279724,25.528236389160156,-28.68474578857422,-14.82948112487793,-0.9586101174354553,0.6019372940063477,0.22653436660766602,0.77213275,8.643093,3.6668365,1
19,990.5402221679688,0.22820167243480682,1.3492511510849,0.6211351752281189,26.391952514648438,-29.509859085083008,-13.528581619262695,-1.7583574056625366,-0.28792381286621094,0.053731441497802734,1.0732566,9.112599,4.0053463,1
19,990.5449829101562,0.010488517582416534,1.0271422863006592,0.5332509875297546,27.98141860961914,-30.498804092407227,-11.40611457824707,-0.9874812960624695,0.2581815719604492,-0.260347843170166,0.59049267,8.635943,4.265738,1
19,990.5732421875,0.030994875356554985,0.7592282891273499,0.3586809039115906,28.580509185791016,-31.465682983398438,-11.133920669555664,-1.0866535902023315,0.5025405883789062,-0.16346287727355957,0.67891526,8.542995,4.083463,1
19,990.572998046875,2.3542848066426814E-4,0.6943804025650024,0.3774561882019043,28.677249908447266,-31.48069190979004,-10.763025283813477,-1.1759974956512451,0.2805185317993164,-0.27815771102905273,0.8414248,8.755107,4.2325964,1
19,990.5929565429688,-0.08165667206048965,0.6392529606819153,0.42459410429000854,28.879180908203125,-31.239498138427734,-9.88444709777832,-1.1608660221099854,0.15516281127929688,-0.27983880043029785,0.7601644,8.807539,4.0361185,1
19,990.5525512695312,-0.042774513363838196,0.5380529761314392,0.3384409546852112,28.95361328125,-32.06519317626953,-10.078554153442383,-0.93709397315979,0.18376541137695312,-0.03767800331115723,0.846197,8.857589,4.3249164,1
19,990.5776977539062,-0.07672974467277527,0.4124850332736969,0.29250144958496094,29.0196475982666,-31.529537200927734,-9.658166885375977,-1.4388136863708496,0.10544586181640625,-0.8922655582427979,1.0875732,8.705059,4.6042466,1
19,990.544677734375,0.0019666270818561316,0.4305945038795471,0.22232723236083984,29.424171447753906,-31.729820251464844,-10.324655532836914,-1.1577273607254028,0.41287994384765625,-0.5823915004730225,1.0612805,8.750341,4.724973,1
19,990.5523071289062,0.03259299695491791,0.5749377012252808,0.20568251609802246,29.471508026123047,-31.949899673461914,-8.702402114868164,-1.797952651977539,-1.2040891647338867,1.715714454650879,1.1210243,9.55589,2.5897563,1
19,990.5525512695312,0.3653547167778015,0.28065866231918335,0.03803669288754463,29.706890106201172,-32.888553619384766,-8.452798843383789,-0.5913617610931396,0.6397619247436523,-0.08383345603942871,0.49486613,8.755109,4.0242805,1
19,990.7994384765625,0.18732257187366486,-0.4209505617618561,-0.17901074886322021,29.119701385498047,-32.12172317504883,-7.945276260375977,-0.7811517715454102,0.32297801971435547,-1.094789743423462,0.12920737,8.65501,4.7912536,1
19,990.6922607421875,-0.5895208120346069,0.18944545090198517,-0.028409088030457497,30.400005340576172,-32.02899169921875,-8.301965713500977,0.02128109335899353,-0.12678813934326172,0.2967047691345215,0.052470088,8.94101,4.379337,1
19,990.356201171875,-0.4462451934814453,0.17253553867340088,0.11060956120491028,30.191879272460938,-31.169734954833984,-9.243982315063477,-1.2428102493286133,-0.16103172302246094,-1.4062871932983398,0.8411237,9.088774,5.3688264,1
19,990.427490234375,-0.3807304799556732,0.0034248100128024817,0.11353947967290878,30.733280181884766,-31.294719696044922,-9.628034591674805,-0.35912731289863586,-0.03610038757324219,-0.3019137382507324,-0.03359428,8.681233,4.5308356,1
19,990.5267944335938,-0.2475723773241043,-0.06581734120845795,-0.04744841158390045,30.285308837890625,-30.607566833496094,-10.215082168579102,-0.14591693878173828,0.2038440704345703,-0.4701380729675293,-0.07423654,8.540621,4.6491942,1
19,990.5318603515625,-0.1415785402059555,-0.4197511672973633,0.008611136116087437,29.84353256225586,-31.020870208740234,-10.738698959350586,-0.13049639761447906,0.24242877960205078,-0.9525189399719238,0.05958399,8.488189,5.5155888,1
19,990.5394287109375,-0.1249336525797844,-0.3323996067047119,0.0714617371559143,28.955028533935547,-30.957374572753906,-10.528512954711914,-0.23925665020942688,0.050911903381347656,-0.17387962341308594,0.26032186,8.733666,4.4266744,1
19,990.56494140625,0.03512232378125191,-0.11828164011240005,0.1328476071357727,28.80459213256836,-30.94002342224121,-10.814287185668945,-0.20918622612953186,-0.1069326400756836,0.17763137817382812,0.26747763,8.9004965,4.2870083,1
19,990.5674438476562,0.022206135094165802,-0.3233449161052704,0.04736027121543884,28.811359405517578,-31.19649887084961,-11.72413444519043,-0.10571396350860596,0.18356704711914062,0.020717144012451172,0.088220954,8.416692,4.637353,1
19,990.518798828125,-0.11641114950180054,-0.39285337924957275,-0.08273497223854065,28.014625549316406,-30.678232192993164,-11.708669662475586,0.18199945986270905,0.5225667953491211,-0.5654339790344238,0.026069582,8.2164955,5.0942216,1
19,990.54150390625,-0.17193786799907684,-0.24558070302009583,-0.005103844217956066,27.31865692138672,-29.802261352539062,-11.652681350708008,-0.24153055250644684,0.16670799255371094,-0.7430667877197266,0.42755914,8.466742,5.3711834,1
19,990.5693359375,-0.10202981531620026,-0.1770043820142746,0.03444412350654602,27.72317886352539,-30.002544403076172,-12.319169998168945,0.13277895748615265,0.2734823226928711,-0.3068723678588867,0.04516089,8.438142,4.684693,1
20,990.5521850585938,0.12207513302564621,-0.2341291606426239,-0.02960478886961937,27.318359375,-30.43439483642578,-12.077550888061523,0.19393903017044067,0.07159423828125,0.06931734085083008,0.18376124,8.750352,4.5450273,1
20,990.5365600585938,0.07626892626285553,-0.32401078939437866,-0.013359463773667812,26.95769691467285,-30.403228759765625,-12.254755020141602,-0.15622633695602417,-0.025674819946289062,-0.4879307746887207,0.34148085,8.697919,5.068177,0
20,990.5770874023438,-0.03877926245331764,-0.1964455246925354,-0.14358781278133392,26.119741439819336,-29.238685607910156,-12.347734451293945,0.3741613030433655,0.27401256561279297,-0.14095497131347656,-0.04808712,8.445292,4.8290887,0
20,990.5770874023438,-0.03877926245331764,-0.1964455246925354,-0.14358781278133392,26.119741439819336,-29.238685607910156,-12.347734451293945,0.18305999040603638,0.11925792694091797,-0.3502950668334961,0.16699013,8.535858,4.9356117,0
20,990.5492553710938,0.02353879064321518,-0.29298505187034607,-0.08073721081018448,26.02422332763672,-29.85434341430664,-13.220804214477539,0.17511415481567383,0.12519359588623047,-0.14495515823364258,0.109618515,8.540626,4.6326084,0
20,990.5439453125,-0.0037584532983601093,-0.21588662266731262,-0.09178926050662994,26.179771423339844,-30.23557472229004,-13.068498611450195,0.2685142457485199,0.21036720275878906,-0.040810585021972656,0.0522469,8.473893,4.679951,0
20,990.5313720703125,-0.03664832562208176,-0.27567458152770996,-0.09125657379627228,25.92748260498047,-29.839336395263672,-13.591695785522461,0.24295863509178162,0.2002391815185547,-0.16986989974975586,0.13348967,8.564458,4.63734,0
20,990.5770874023438,-0.02679450809955597,-0.2932514250278473,-0.06968492269515991,25.13075065612793,-29.321063995361328,-13.576234817504883,0.18029022216796875,0.14049434661865234,0.04576253890991211,0.13347566,8.476277,4.639706,0
20,990.5187377929688,-0.06674174964427948,-0.26981568336486816,-0.08020435273647308,25.068601608276367,-29.589929580688477,-13.627908706665039,0.32472094893455505,0.22988033294677734,-0.3150334358215332,0.0569849,8.419078,4.866956,0
20,990.5590209960938,-0.10775426030158997,-0.18739090859889984,-0.05503743886947632,24.739925384521484,-29.107524871826172,-13.605485916137695,0.23638322949409485,0.2078542709350586,-0.2842402458190918,0.2290439,8.36903,4.9119315,0
20,990.5687255859375,-0.07446450740098953,-0.1475767195224762,-0.0264083631336689,24.122112274169922,-29.316673278808594,-14.498842239379883,-0.06803122162818909,0.37676239013671875,-0.29361963272094727,0.4393413,8.287999,4.8906255,0
20,990.5687255859375,-0.07446450740098953,-0.1475767195224762,-0.0264083631336689,24.122112274169922,-29.316673278808594,-14.498842239379883,-0.07334786653518677,0.4652700424194336,-0.3134613037109375,0.47039604,8.116404,4.807772,0
20,990.5687255859375,-0.07446450740098953,-0.1475767195224762,-0.0264083631336689,24.42258071899414,-28.877178192138672,-14.724828720092773,-0.04633122682571411,0.3124837875366211,0.42255496978759766,0.546859,8.421464,4.350901,0
20,990.5159912109375,-0.014942643232643604,-0.05543148145079613,-0.06422510743141174,24.20184326171875,-28.76776123046875,-14.774202346801758,-0.2555115222930908,-0.050223350524902344,-0.019979000091552734,0.52528834,8.638343,4.8219686,0
20,990.5940551757812,-0.22653047740459442,0.015941154211759567,-0.1052377000451088,24.442665100097656,-28.22589111328125,-15.304925918579102,0.1146748960018158,-0.04544258117675781,0.031774044036865234,0.16195875,8.6049795,4.871674,0
20,990.5814819335938,-0.2580917477607727,-0.002699704607948661,-0.172347754240036,24.89813995361328,-27.799335479736328,-15.477052688598633,0.2343420684337616,-0.01654815673828125,-0.3583030700683594,0.01854688,8.473899,5.543958,0
20,990.5735473632812,-0.2989710867404938,-0.04464448243379593,-0.16422505676746368,24.770694732666016,-27.233661651611328,-15.798456192016602,0.18925416469573975,-0.027321815490722656,-1.1043643951416016,-0.07228719,8.404784,5.7948794,0
20,990.5565185546875,-0.15369558334350586,0.08851342648267746,-0.12920443713665009,25.397777557373047,-26.90976333618164,-16.06800651550293,0.534252405166626,-0.04042625427246094,0.3557291030883789,-0.27066678,8.573997,4.5734015,0
