Timestamp,P,Gx,Gy,Gz,Mx,My,Mz,LiAx,LiAy,LiAz,Ax,Ay,Az,Value,Type
0,990.6300659179688,-6.593373254872859E-4,0.0017380244098603725,-2.77864484814927E-4,4.707545757293701,19.931419372558594,-13.234067916870117,-0.0058590322732925415,-0.0014889240264892578,0.06984615325927734,0.08751765,-0.15611982,9.7558365,0
0,990.5448608398438,0.0012178515316918492,0.001862838282249868,-2.6377616450190544E-5,1.3593535423278809,16.321895599365234,-12.275960922241211,-0.004757940769195557,-0.005766332149505615,0.06429290771484375,0.0779466,-0.16565272,9.746367,0
0,990.5525512695312,-1.1350764543749392E-4,-6.671983283013105E-4,-2.6283261831849813E-5,1.2118220329284668,16.236282348632812,-12.017263412475586,-0.00923602283000946,-0.010492265224456787,0.05008983612060547,0.082714975,-0.15373603,9.751101,0
0,990.5525512695312,-1.1350764543749392E-4,-6.671983283013105E-4,-2.6283261831849813E-5,1.2118220329284668,16.236282348632812,-12.017263412475586,3.568679094314575E-4,-0.010170981287956238,0.07850170135498047,0.07314399,-0.15373573,9.741631,0
0,990.56298828125,0.0013513397425413132,3.980473557021469E-4,-1.5939399600028992E-4,1.3830246925354004,16.607837677001953,-12.912210464477539,3.026202321052551E-4,-0.014744818210601807,0.05483531951904297,0.07074264,-0.15611875,9.751098,0
0,990.5400390625,4.193442582618445E-4,-5.340761272236705E-4,2.4012700305320323E-4,1.421501874923706,16.590763092041016,-12.224283218383789,-0.009406611323356628,-0.009669184684753418,0.04063987731933594,0.08268076,-0.16565159,9.767667,0
0,990.5830078125,-3.794933727476746E-4,3.980116453021765E-4,-1.592996995896101E-4,1.4598193168640137,16.047462463378906,-12.660303115844727,-0.009087786078453064,-5.291253328323364E-4,0.05483531951904297,0.08266935,-0.16803458,9.767667,0
0,990.568115234375,-7.788572693243623E-4,-5.341118667274714E-4,2.4022127036005259E-4,1.1376354694366455,16.061553955078125,-12.149576187133789,0.010081760585308075,-0.010093867778778076,0.04536724090576172,0.07787812,-0.15373465,9.753463,0
0,990.5604858398438,2.865164715331048E-4,-1.4979013940319419E-6,-2.60474334936589E-5,0.9254846572875977,16.548099517822266,-12.761224746704102,0.005392409861087799,-0.009968310594558716,0.05483818054199219,0.07786667,-0.15611756,9.748727,0
0,990.5529174804688,4.1978430817835033E-4,1.31642198539339E-4,3.734735364560038E-4,0.9593968391418457,16.52660369873047,-11.841386795043945,-0.00882403552532196,-4.56005334854126E-4,0.05483818054199219,0.0802452,-0.16326717,9.760562,0
0,990.5375366210938,2.4307533749379218E-5,-4.6086707152426243E-4,-1.1828294373117387E-4,1.1084504127502441,16.613689422607422,-12.177385330200195,-0.008920133113861084,-0.005132824182510376,0.026433944702148438,0.08740345,-0.16565022,9.755826,0
0,990.5479125976562,-2.4189821851905435E-4,6.043785833753645E-4,-7.84025527536869E-4,1.4061222076416016,16.049808502197266,-12.57518196105957,-0.01791873574256897,-0.024083182215690613,0.05010509490966797,0.09217185,-0.15135017,9.767661,0
0,990.5479125976562,-2.4189821851905435E-4,6.043785833753645E-4,-7.84025527536869E-4,1.5140595436096191,15.676822662353516,-12.646974563598633,-0.01312766969203949,-1.2226402759552002E-4,0.059576988220214844,0.09455034,-0.16088304,9.755824,0
0,990.5582275390625,2.452767512295395E-5,-0.0013930083950981498,-0.001050294260494411,1.1226911544799805,16.258655548095703,-12.774682998657227,0.0062342435121536255,0.004398539662361145,0.05483818054199219,0.08019948,-0.16088274,9.746354,0
0,990.5631103515625,-2.4167830997612327E-4,4.7118490329012275E-4,-6.507730577141047E-4,0.9535841941833496,16.7325439453125,-12.930318832397461,-0.0031334608793258667,-0.014579430222511292,0.04063606262207031,0.07779819,-0.15849918,9.762923,0
0,990.5302734375,4.2422162368893623E-4,-7.272543734870851E-4,4.1453749872744083E-4,1.1040220260620117,16.715187072753906,-12.644548416137695,-0.012567773461341858,-0.014795318245887756,0.04536724090576172,0.08017665,-0.1608822,9.767657,0
0,990.5579223632812,-1.0830022802110761E-4,-6.14825839875266E-5,-1.1804714449681342E-4,1.412071704864502,15.949787139892578,-12.185327529907227,0.0013624951243400574,-0.005199655890464783,0.040637969970703125,0.073456794,-0.15851,9.76533,0
0,990.5402221679688,-0.0014397695194929838,-3.278163494542241E-4,-5.174737889319658E-4,1.2460088729858398,16.426618576049805,-12.495576858520508,0.005259200930595398,-0.0049741268157958984,0.06422710418701172,0.0834938,-0.15852168,9.755906,0
0,990.5631103515625,1.5119166346266866E-4,2.0482271793298423E-4,1.4350266428664327E-4,1.6337904930114746,16.210128784179688,-12.311708450317383,0.010012388229370117,-0.01459309458732605,0.054755210876464844,0.078739345,-0.16090557,9.755908,0
0,990.5631103515625,1.5119166346266866E-4,2.0482271793298423E-4,1.4350266428664327E-4,1.6337904930114746,16.210128784179688,-12.311708450317383,-0.008834205567836761,0.00914815068244934,0.04054546356201172,0.07876477,-0.17520586,9.760645,0
0,990.5635375976562,2.8386065969243646E-4,-8.603614987805486E-4,8.090827614068985E-4,1.5209887027740479,15.946561813354492,-12.43287467956543,-0.027836374938488007,0.004398182034492493,0.03580760955810547,0.093129545,-0.1680567,9.763015,0
0,990.5811157226562,-3.8217409746721387E-4,7.178384839789942E-5,1.4318813919089735E-4,1.5460443496704102,16.12805938720703,-12.447355270385742,-0.017997466027736664,-0.005168646574020386,0.059474945068359375,0.090765,-0.165674,9.758283,0
0,990.5331420898438,-1.1610244837356731E-4,7.182356057455763E-5,-3.895484551321715E-4,1.3373422622680664,16.14334487915039,-12.41609001159668,0.010466597974300385,0.013849198818206787,0.050004005432128906,0.07884091,-0.17520776,9.755918,0
0,990.5709838867188,1.681067078607157E-5,3.3817917574197054E-4,-5.22811315022409E-4,1.2760357856750488,16.138328552246094,-11.94444465637207,-0.003980740904808044,0.009046673774719238,0.050002098083496094,0.08125615,-0.15852538,9.755919,0
0,990.5585327148438,2.828819560818374E-4,-6.125499930931255E-5,1.428737014066428E-4,1.3087010383605957,16.327190399169922,-12.345449447631836,0.005469851195812225,-0.009814247488975525,0.05947303771972656,0.07411188,-0.15137622,9.758289,0
1,990.5731811523438,2.826376003213227E-4,4.7141651157289743E-4,2.75926839094609E-4,1.635993480682373,15.949230194091797,-12.989641189575195,-0.018539920449256897,-1.195073127746582E-5,0.03106975555419922,0.08847666,-0.16567647,9.770127,0
1,990.5635375976562,2.823926624841988E-4,4.7145626740530133E-4,1.4266397920437157E-4,0.9836108684539795,16.444252014160156,-12.379186630249023,-0.004226401448249817,-0.01896706223487854,0.045271873474121094,0.083722204,-0.16091058,9.760661,0
1,990.5330810546875,6.816221284680068E-4,3.383379662409425E-4,9.401293937116861E-6,1.572484016418457,16.20511245727539,-11.840066909790039,-0.004299968481063843,-0.018730297684669495,0.05000782012939453,0.08135772,-0.15614459,9.767765,0
1,990.5559692382812,2.8190360171720386E-4,-3.2741198083385825E-4,5.419282242655754E-4,1.4160947799682617,16.32249641418457,-12.515687942504883,0.004837647080421448,-0.013866394758224487,0.02633953094482422,0.07899314,-0.16329512,9.774869,0
1,990.5608520507812,1.53430228237994E-5,0.001004207064397633,2.7550742379389703E-4,1.2490527629852295,16.4295654296875,-12.650186538696289,-0.018985487520694733,-0.01417270302772522,0.03579902648925781,0.09335795,-0.15376255,9.753566,0
1,990.5761108398438,-6.506909267045557E-4,4.7161505790427327E-4,0.0012075082631781697,1.4643850326538086,16.051881790161133,-12.892221450805664,-0.019212841987609863,5.213171243667603E-4,0.05000782012939453,0.08621365,-0.15852979,9.755937,0
1,990.5512084960938,9.469591896049678E-4,7.218101382022724E-5,5.416135536506772E-4,1.6416449546813965,15.217071533203125,-13.024656295776367,-0.02435171604156494,7.684379816055298E-4,0.06895065307617188,0.09579858,-0.16568023,9.7535715,0
1,990.5479125976562,1.4776707394048572E-4,8.711683913134038E-4,8.078247192315757E-4,1.1913328170776367,16.0592041015625,-12.234697341918945,0.004249729216098785,-0.00393366813659668,0.035808563232421875,0.081484616,-0.15614775,9.767777,0
1,990.5585327148438,4.138383665122092E-4,7.226036541396752E-5,4.0824609459377825E-4,1.181497573852539,15.892436981201172,-12.993265151977539,-0.010022588074207306,0.010215774178504944,0.04053783416748047,0.09345946,-0.16568145,9.760677,0
1,990.566162109375,1.4119963452685624E-5,0.0012707214336842299,4.081412043888122E-4,1.0584781169891357,16.356609344482422,-12.847505569458008,-0.01458420604467392,-0.013817936182022095,0.054734230041503906,0.08392522,-0.156149,9.758312,0
1,990.5484008789062,-5.187562783248723E-4,-0.0013923976803198457,8.562637958675623E-6,1.0472807884216309,16.714588165283203,-12.404817581176758,-0.009614743292331696,-0.008745938539505005,0.031063079833984375,0.08395064,-0.1537663,9.774885,0
1,990.5684204101562,-3.8584304274991155E-4,-5.934101645834744E-4,2.7477359981276095E-4,1.655503749847412,15.756546020507812,-12.596452713012695,-0.009572669863700867,-0.0042452216148376465,0.06419563293457031,0.08636588,-0.16568336,9.751216,0
1,990.57861328125,1.462996588088572E-4,7.382485782727599E-4,1.4140608254820108E-4,1.2083725929260254,16.707542419433594,-12.660181045532227,-0.0194314643740654,-0.009001731872558594,0.05946063995361328,0.08878118,-0.15615085,9.755952,0
1,990.57861328125,1.462996588088572E-4,7.382485782727599E-4,1.4140608254820108E-4,1.2083725929260254,16.707542419433594,-12.660181045532227,0.004378579556941986,2.9315054416656494E-4,0.05472087860107422,0.081636846,-0.16330132,9.767791,0
1,990.5512084960938,-7.860507466830313E-4,3.3881451236084104E-4,-1.250147761311382E-4,1.7523822784423828,15.847454071044922,-12.924638748168945,0.004298321902751923,-0.004871353507041931,0.04524421691894531,0.07927233,-0.1561521,9.758325,0
1,990.5585327148438,-0.0010526110418140888,-6.06196335866116E-5,4.0751227061264217E-4,1.5056076049804688,15.40561294555664,-12.783773422241211,-0.014480210840702057,9.85264778137207E-5,0.04050731658935547,0.08407754,-0.15853602,9.760694,0
1,990.5684204101562,-1.2075009726686403E-4,-5.932116182520986E-4,-7.910141721367836E-4,1.6108007431030273,15.661815643310547,-12.276086807250977,-0.0055283308029174805,-0.00952322781085968,0.06417083740234375,0.08419865,-0.1609222,9.751236,0
1,990.5457763671875,-1.18868840218056E-4,0.0015353095950558782,4.0541408816352487E-4,1.5209887027740479,15.946561813354492,-12.432878494262695,-0.015073210000991821,-0.009337738156318665,0.05470085144042969,0.091397464,-0.15377313,9.753606,0
1,990.57373046875,-2.528124605305493E-4,8.696475415490568E-4,6.713932962156832E-4,1.2866888046264648,16.14864158630371,-12.485578536987305,-0.015623100101947784,0.00953163206577301,0.040495872497558594,0.08903676,-0.17522344,9.770179,0
1,990.57080078125,-3.8625154411420226E-4,-3.287282888777554E-4,-1.276748371310532E-4,1.261335849761963,15.335004806518555,-12.895967483520508,-0.005671665072441101,-0.014363855123519897,0.049957275390625,0.08906594,-0.15854117,9.760713,0
1,990.57080078125,-3.8625154411420226E-4,-3.287282888777554E-4,-1.276748371310532E-4,1.261335849761963,15.335004806518555,-12.895967483520508,-0.015000797808170319,-0.004894539713859558,0.049953460693359375,0.08670521,-0.1656917,9.7559805,0
1,990.57080078125,-3.8625154411420226E-4,-3.287282888777554E-4,-1.276748371310532E-4,1.0999994277954102,16.34247589111328,-12.314184188842773,-8.583143353462219E-4,-0.014664039015769958,0.06415081024169922,0.0819546,-0.15139276,9.753616,0
1,990.5634155273438,-9.191645658574998E-4,-6.23667729087174E-5,-2.60953267570585E-4,1.6907758712768555,15.210304260253906,-12.877862930297852,-0.005844622850418091,-0.009716004133224487,0.049948692321777344,0.08437365,-0.15854332,9.753619,0
1,990.57861328125,2.789755235426128E-4,-6.232110899873078E-5,-1.279159332625568E-4,1.7750742435455322,15.763631820678711,-13.385133743286133,0.008538857102394104,0.0047548264265060425,0.04047966003417969,0.07962304,-0.16569385,9.760724,0
2,990.5509033203125,7.092762971296906E-4,3.6370352609083056E-4,7.036831812001765E-5,1.554196834564209,15.767135620117188,-12.735429763793945,-0.02952662855386734,-3.6850571632385254E-5,0.054678916931152344,0.09399164,-0.16092801,9.763093,0
2,990.5555419921875,-8.99524602573365E-5,-5.683563649654388E-4,-6.291011231951416E-5,1.030379056930542,16.172164916992188,-12.678407669067383,-0.014771871268749237,-0.009448781609535217,0.035737037658691406,0.08446121,-0.16807857,9.763096,0
2,990.5559692382812,3.092399856541306E-4,-5.683107301592827E-4,-4.6250445302575827E-4,1.4232687950134277,15.591804504394531,-12.628011703491211,-0.014527872204780579,-0.009767025709152222,0.05466461181640625,0.089270115,-0.1513963,9.75363,0
2,990.5433349609375,-3.568308602552861E-4,-1.6879127360880375E-4,-1.963090617209673E-4,1.5035433769226074,15.772430419921875,-12.80491828918457,0.023557022213935852,-0.01922738552093506,0.03572654724121094,0.06779021,-0.15139702,9.770204,0
2,990.53564453125,1.7523849965073168E-4,9.761590627022088E-5,-0.0011286556255072355,1.3735942840576172,15.966863632202148,-12.873254776000977,-0.01923132687807083,0.004694759845733643,0.06412792205810547,0.08932853,-0.16331413,9.756002,0
2,990.5582275390625,1.7495735664851964E-4,-5.681281327269971E-4,-1.9667053129523993E-4,1.363919973373413,16.32631492614746,-12.507875442504883,-0.019237428903579712,0.004872545599937439,0.040457725524902344,0.089357674,-0.1704647,9.760739,0
2,990.5379638671875,3.0783427064307034E-4,2.3086511646397412E-4,2.0268277148716152E-4,1.8731987476348877,15.644182205200195,-12.392473220825195,-0.024106115102767944,2.62334942817688E-4,0.054660797119140625,0.08938682,-0.16331556,9.76311,0
2,990.5433349609375,-9.192081051878631E-5,8.967005996964872E-4,3.3572016400285065E-4,1.585202693939209,15.84860610961914,-12.360052108764648,-0.005408793687820435,0.004881963133811951,0.04519081115722656,0.08463621,-0.16569957,9.765479,0
2,990.5506591796875,3.072718682233244E-4,6.304302951321006E-4,-1.9703211728483438E-4,0.9229838848114014,16.176860809326172,-12.50816535949707,-5.729719996452332E-4,-0.014097660779953003,0.054656028747558594,0.07510579,-0.15140057,9.756013,0
2,990.5455932617188,-9.24830965232104E-5,9.784410940483212E-5,-3.3031043130904436E-4,1.373051404953003,16.335153579711914,-12.971708297729492,0.003957614302635193,-0.0043296217918396,0.05465888977050781,0.072745085,-0.16331771,9.751281,0
2,990.5757446289062,3.067095822189003E-4,-3.5268181818537414E-5,2.022007538471371E-4,1.0493464469909668,16.34777069091797,-12.383672714233398,-7.639080286026001E-4,-0.004185989499092102,0.040454864501953125,0.079943955,-0.16093513,9.770222,0
2,990.5782470703125,5.727441748604178E-4,-1.683804439380765E-4,-6.423564627766609E-5,1.1276626586914062,15.788867950439453,-12.209070205688477,-0.019674211740493774,-0.01850704848766327,0.05939006805419922,0.09192258,-0.15855256,9.760756,0
2,990.5529174804688,-9.33267583604902E-5,-3.0149274971336126E-4,2.0195968681946397E-4,1.3774800300598145,16.233657836914062,-12.504545211791992,-0.015313521027565002,-0.018404871225357056,0.054656028747558594,0.09195179,-0.15378669,9.756024,0
2,990.5580444335938,-9.360778494738042E-5,0.001163290347903967,2.0183922606520355E-4,1.2797603607177734,15.878902435302734,-12.699678421020508,-0.020434454083442688,6.982982158660889E-4,0.04992103576660156,0.08720112,-0.1680871,9.763128,0
2,990.5527954101562,3.055848937947303E-4,7.638621027581394E-4,4.6803458826616406E-4,1.8120293617248535,15.74508285522461,-12.619897842407227,-0.006137162446975708,0.005429282784461975,0.03571605682373047,0.08245051,-0.1728544,9.763131,0
2,990.557861328125,1.7214546096511185E-4,2.3127594613470137E-4,-1.9787566270679235E-4,1.2100021839141846,15.602672576904297,-12.364831924438477,-0.006115376949310303,0.010202229022979736,0.0262451171875,0.072920084,-0.16808853,9.77497,0
2,990.5629272460938,3.8706493796780705E-5,-3.4994256566278636E-5,4.677935503423214E-4,1.159646987915039,16.24010467529297,-12.00944709777832,-0.02007897198200226,0.024348780512809753,0.040439605712890625,0.09143728,-0.18237343,9.763079,0
2,990.5452270507812,-8.921745466068387E-4,-7.009828113950789E-4,3.3516038092784584E-4,0.9549682140350342,16.628101348876953,-12.308549880981445,-0.009616263210773468,-0.01870208978652954,0.06422615051269531,0.093187094,-0.15852499,9.765388,0
2,990.5604248046875,5.046409205533564E-5,0.0012946764472872019,-5.979917477816343E-5,1.3488378524780273,16.417503356933594,-12.433904647827148,-0.00966179370880127,-0.01889088749885559,0.031085968017578125,0.083605945,-0.1585244,9.772487,0
2,990.568115234375,-4.8195963609032333E-4,-1.700946595519781E-4,7.344785262830555E-5,1.1974208354949951,16.065093994140625,-12.543916702270508,-0.01909133791923523,-2.1339952945709229E-4,0.050018310546875,0.09314394,-0.16090718,9.758281,0
2,990.5604248046875,-8.812256855890155E-4,-4.364443593658507E-4,-1.9277888350188732E-4,1.2223381996154785,16.14067840576172,-11.859323501586914,-0.02351067215204239,-0.00951559841632843,0.04055309295654297,0.08595267,-0.16567323,9.76538,0
2,990.5679931640625,-8.206986240111291E-5,-1.7016215133480728E-4,-8.584795286878943E-4,0.9660272598266602,16.164203643798828,-12.052152633666992,-0.01377696543931961,-0.024126708507537842,0.050017356872558594,0.09071091,-0.151373,9.763012,0
2,990.5451049804688,-4.813357663806528E-4,-1.701959117781371E-4,-4.5891653280705214E-4,1.4491653442382812,16.037151336669922,-12.119165420532227,0.005240336060523987,-0.004807412624359131,0.05475902557373047,0.085909545,-0.15375575,9.755908,0
2,990.5731811523438,4.509778518695384E-4,-3.7071702536195517E-5,8.727521053515375E-4,1.2064149379730225,15.968017578125,-12.30866813659668,3.5797804594039917E-4,0.004624471068382263,0.06896305084228516,0.08110815,-0.16328833,9.76064,0
2,990.5629272460938,5.171206430532038E-5,0.001427631825208664,-8.582121226936579E-4,1.0854604244232178,16.06537628173828,-12.141763687133789,0.014611341059207916,-9.849667549133301E-5,0.03582572937011719,0.07391685,-0.16328779,9.758271,0
3,990.5702514648438,-3.475538396742195E-4,-8.360868669115007E-4,6.066144560463727E-4,1.176931619644165,15.888015747070312,-12.761350631713867,-0.018410570919513702,-0.014539539813995361,0.050024986267089844,0.08823472,-0.15137088,9.758269,0
3,990.5702514648438,-7.468197727575898E-4,-1.703309826552868E-4,-4.5856001088395715E-4,0.7268638610839844,15.729724884033203,-12.297815322875977,-0.013330116868019104,-0.005199894309043884,0.059490203857421875,0.08582324,-0.16090351,9.7559,0
3,990.5499877929688,-2.1397994714789093E-4,-0.001102470327168703,7.416092557832599E-5,1.3449525833129883,16.15070915222168,-12.802614212036133,0.010487250983715057,-3.9884448051452637E-4,0.050024986267089844,0.07863194,-0.16090295,9.753531,0
3,990.5371704101562,-3.4672205219976604E-4,4.953573807142675E-4,-1.9197666551917791E-4,1.2053289413452148,16.7045955657959,-12.505571365356445,-0.008560046553611755,0.008990883827209473,0.06896305084228516,0.0905599,-0.16805229,9.7464285,0
3,990.5546264648438,-8.019813685677946E-5,4.953236202709377E-4,-5.913613131269813E-4,1.2245409488677979,15.879776000976562,-12.537252426147461,-0.0036763399839401245,-0.010172322392463684,0.031087875366210938,0.088148385,-0.15851858,9.765363,0
3,990.5546264648438,-8.019813685677946E-5,4.953236202709377E-4,-5.913613131269813E-4,1.2245409488677979,15.879776000976562,-12.537252426147461,-0.01338975876569748,-0.005354762077331543,0.03582477569580078,0.08573693,-0.1585181,9.765361,0
3,990.5546264648438,-8.019813685677946E-5,4.953236202709377E-4,-5.913613131269813E-4,1.5391154289245605,15.858322143554688,-12.661455154418945,-0.008693188428878784,0.004423201084136963,0.04530143737792969,0.07854563,-0.17043391,9.767726,0
3,990.5498046875,1.863256620708853E-4,6.284479168243706E-4,-1.917984918691218E-4,1.3695712089538574,15.594156265258789,-12.542890548706055,-0.013468675315380096,0.004254579544067383,0.05476856231689453,0.09525335,-0.16566688,9.751154,0
3,990.5498046875,4.530574951786548E-4,-3.740936517715454E-5,7.404853822663426E-4,1.3012280464172363,16.425743103027344,-12.657999038696289,-0.01307910680770874,-0.009909451007843018,0.05477142333984375,0.0856722,-0.16328308,9.758254,0
3,990.5498046875,4.530574951786548E-4,-3.740936517715454E-5,7.404853822663426E-4,1.3012280464172363,16.425743103027344,-12.657999038696289,-0.003490068018436432,0.004200801253318787,0.04530048370361328,0.08087081,-0.15851596,9.755884,0
3,990.5244140625,1.8715756596066058E-4,-1.706348266452551E-4,4.743477620650083E-4,1.011411190032959,15.996559143066406,-12.973150253295898,-0.007887937128543854,0.004627123475074768,0.05004119873046875,0.09518865,-0.1656653,9.760617,0
3,990.5648193359375,3.205234243068844E-4,-8.364582899957895E-4,-4.576686769723892E-4,1.0900259017944336,16.069791793823242,-12.373674392700195,-0.008045203983783722,-0.009691119194030762,0.045310020446777344,0.08799735,-0.15613163,9.760615,0
3,990.561767578125,-3.026137128472328E-4,8.693387499079108E-4,-3.469756920821965E-4,1.1754086017608643,15.886545181274414,-12.684045791625977,-0.017311908304691315,-2.995729446411133E-4,0.05951118469238281,0.092755586,-0.16804749,9.739308,0
3,990.5972900390625,-1.6924783994909376E-4,-1.959584915312007E-4,5.852190079167485E-4,1.5768887996673584,15.68331527709961,-13.195924758911133,-0.0125599205493927,0.009665295481681824,0.059520721435546875,0.08317441,-0.1608971,9.7582445,0
3,990.5670776367188,6.299077067524195E-4,-1.9599216466303915E-4,5.267641972750425E-5,1.507566213607788,16.145137786865234,-13.135286331176758,-0.012339405715465546,0.009576186537742615,0.04058074951171875,0.087932646,-0.17042977,9.772445,0
3,990.5718994140625,4.969578003510833E-4,-1.9602598331402987E-4,-3.4670828608796E-4,1.6024868488311768,15.49652099609375,-13.111959457397461,-0.0022846460342407227,0.005060762166976929,0.03585052490234375,0.08313125,-0.16327932,9.770076,0
3,990.5667724609375,2.3084985150489956E-4,-8.618494030088186E-4,-8.030334720388055E-5,1.4037582874298096,15.784492492675781,-13.021200180053711,-0.012475036084651947,6.152838468551636E-4,0.031023025512695312,0.08893758,-0.1656878,9.763068,0
3,990.589599609375,6.255184998735785E-4,-0.001260543242096901,-2.1552061662077904E-4,1.6790368556976318,15.936569213867188,-12.533628463745117,-0.003059297800064087,-0.013390123844146729,0.049965858459472656,0.088957906,-0.16092178,9.758336,0
3,990.5848999023438,0.001019884366542101,7.376550929620862E-4,-8.834993350319564E-4,1.3979692459106445,16.410736083984375,-12.287111282348633,0.0018290281295776367,0.0011346936225891113,0.049965858459472656,0.08180845,-0.16330555,9.748869,0
3,990.5868530273438,8.865309646353126E-4,-7.270505884662271E-4,-3.509512753225863E-4,1.0339651107788086,15.806821823120117,-12.734575271606445,-0.011970482766628265,-0.003634020686149597,0.031023025512695312,0.08421862,-0.16568929,9.767808,0
3,990.5588989257812,-3.1208584550768137E-4,-0.0011264925124123693,1.815966097638011E-4,1.660069465637207,15.760965347290039,-12.828367233276367,0.0024637803435325623,0.015293672680854797,0.0546875,0.086628824,-0.17045632,9.758342,0
3,990.5592041015625,-4.596564394887537E-5,7.196063234005123E-5,4.8354879254475236E-5,1.4967517852783203,15.60860824584961,-13.718095779418945,-0.006929382681846619,0.0012063384056091309,0.035750389099121094,0.0794794,-0.16092375,9.770179,0
3,990.5943603515625,8.699683530721813E-5,-5.937973619438708E-4,-2.1804479183629155E-4,1.3759582042694092,16.232181549072266,-12.427240371704102,0.007708527147769928,9.265691041946411E-4,0.0452117919921875,0.08427948,-0.1680741,9.772548,0
3,990.589599609375,-5.789882270619273E-4,-5.937656969763339E-4,4.818732850253582E-5,0.9941263198852539,16.34864616394043,-12.221246719360352,-0.006441012024879456,-0.013029113411903381,0.040477752685546875,0.093859375,-0.16092476,9.7583475,0
4,990.56396484375,7.523954845964909E-4,-3.2741803443059325E-4,-4.845283110626042E-4,1.1175823211669922,16.62252426147461,-12.641218185424805,-0.0019537582993507385,0.0012805461883544922,0.045212745666503906,0.08432007,-0.15854195,9.7701845,0
4,990.5791015625,-4.6747722080908716E-5,6.04719331022352E-4,8.469673339277506E-4,1.706294298171997,15.857170104980469,-13.226041793823242,-0.0068713948130607605,0.0012635588645935059,0.06888484954833984,0.07956058,-0.16569227,9.751248,0
4,990.5462036132812,-4.694318340625614E-5,7.379089365713298E-4,3.142517525702715E-4,1.5316429138183594,15.956872940063477,-12.974008560180664,-0.017156608402729034,-0.007998421788215637,0.04995441436767578,0.08436066,-0.16569278,9.751251,0
4,990.5540161132812,6.186510436236858E-4,0.0012705723056569695,-8.530577179044485E-5,1.7961063385009766,15.572420120239258,-13.069250106811523,-0.007414214313030243,-0.017546579241752625,0.054686546325683594,0.09155062,-0.15139362,9.763089,0
4,990.5489501953125,3.521394683048129E-4,-3.272910544183105E-4,4.4724211329594254E-4,1.445716381072998,16.508411407470703,-12.762086868286133,0.0020013824105262756,-0.017250701785087585,0.07362651824951172,0.07245171,-0.15616068,9.748887,0
4,990.5587768554688,3.519441233947873E-4,4.716883413493633E-4,4.4715835247188807E-4,1.319896936416626,15.96921157836914,-12.78813362121582,0.001996241509914398,0.006390988826751709,0.05941963195800781,0.074861884,-0.16807756,9.748889,0
4,990.5765380859375,-4.471990978345275E-4,-3.2722760806791484E-4,4.4707453344017267E-4,1.6073517799377441,16.133075714111328,-12.919000625610352,-0.012243688106536865,-0.01289263367652893,0.035739898681640625,0.0892216,-0.14901176,9.767829,0
4,990.586669921875,-8.470639586448669E-4,-6.084820779506117E-5,8.463807753287256E-4,1.2013053894042969,16.331890106201172,-12.175207138061523,-0.021428264677524567,-0.008303701877593994,0.04046630859375,0.09880149,-0.16331199,9.770198,0
4,990.586669921875,-8.470639586448669E-4,-6.084820779506117E-5,8.463807753287256E-4,1.2013053894042969,16.331890106201172,-12.175207138061523,0.007182404398918152,0.015421420335769653,0.04519844055175781,0.07970253,-0.1704624,9.7702,0
4,990.5686645507812,-1.814697025110945E-4,-6.081649917177856E-5,-4.8528244951739907E-4,1.3022065162658691,16.795509338378906,-12.83375358581543,0.00231759250164032,0.005490213632583618,0.04045677185058594,0.077332914,-0.15616319,9.758366,0
4,990.5487060546875,-4.4798117596656084E-4,2.055310906143859E-4,-8.589233038946986E-5,1.27921724319458,16.247190475463867,-12.798131942749023,-0.0024548694491386414,-0.027647674083709717,0.040457725524902344,0.07974309,-0.1466305,9.758368,0
4,990.5813598632812,2.176130801672116E-4,-6.075299461372197E-5,-8.597614942118526E-5,1.5045223236083984,16.14219093322754,-12.980672836303711,-0.021511338651180267,-0.008450910449028015,0.054660797119140625,0.09171289,-0.16331396,9.763104,0
4,990.5813598632812,-4.889826232101768E-5,-4.6019512228667736E-4,4.709794302470982E-5,1.3760960102081299,16.33810043334961,-13.126314163208008,-0.002268195152282715,-0.017708346247673035,0.0499267578125,0.0869534,-0.15139803,9.760739,0
4,990.54345703125,4.8353790771216154E-4,-7.264792220667005E-4,-2.1930172806605697E-4,1.0219273567199707,15.90095329284668,-12.815206527709961,0.007574066519737244,-0.0035048872232437134,0.04992103576660156,0.08697367,-0.15139863,9.756006,0
4,990.5637817382812,8.386863919440657E-5,-6.065779598429799E-5,-8.622754830867052E-5,1.2843263149261475,15.883321762084961,-12.931596755981445,-0.001648247241973877,0.005998596549034119,0.04044818878173828,0.08699393,-0.17284861,9.760741,0
4,990.54833984375,-3.158007748425007E-4,-5.932578351348639E-4,-8.6311309132725E-5,1.3084020614624023,15.69505500793457,-12.770318984985352,-0.006266884505748749,0.001226082444190979,0.040444374084472656,0.07745463,-0.16093269,9.758376,0
4,990.5460815429688,4.8295140732079744E-4,2.0572154608089477E-4,7.125524571165442E-4,1.175952434539795,15.518253326416016,-12.585596084594727,0.004342369735240936,0.0014119893312454224,0.02164173126220703,0.08153504,-0.16091555,9.774883,0
4,990.5460815429688,4.8295140732079744E-4,2.0572154608089477E-4,7.125524571165442E-4,1.175952434539795,15.518253326416016,-12.585596084594727,0.004200980067253113,-0.0031441599130630493,0.035851478576660156,0.08079195,-0.16089734,9.77955,0
4,990.5787963867188,-4.987603460904211E-5,7.25953868823126E-5,-6.191107095219195E-4,1.0910053253173828,16.439556121826172,-12.549432754516602,0.009136155247688293,0.006306126713752747,0.050055503845214844,0.08075386,-0.16566297,9.765344,0
4,990.5562133789062,-1.7373992886859924E-4,-6.0075282817706466E-5,4.527585406322032E-4,1.5360708236694336,15.85537338256836,-12.506845474243164,9.722262620925903E-5,-0.0031220316886901855,0.05952739715576172,0.07354608,-0.16327873,9.753503,0
4,990.575927734375,7.604578859172761E-4,-3.2673077657818794E-4,5.418123328126967E-5,1.3163108825683594,16.334556579589844,-12.731973648071289,-2.5054067373275757E-4,-0.007678821682929993,0.021660804748535156,0.073508024,-0.16089448,9.777172,0
4,990.5536499023438,2.2819281730335206E-4,7.268351328093559E-5,-4.782932228408754E-4,1.5566983222961426,16.138370513916016,-12.988489151000977,-0.004408314824104309,-0.017240017652511597,0.054800987243652344,0.08302963,-0.16089356,9.760598,0
4,990.5408935546875,2.2855975839775056E-4,-7.263236911967397E-4,1.8765366985462606E-4,1.4147109985351562,16.426939010620117,-13.13746452331543,-0.004011712968349457,0.006629124283790588,0.05006694793701172,0.08777133,-0.16804245,9.765328,0
4,990.5633544921875,9.61351179284975E-5,7.250487396959215E-5,-8.772956789471209E-4,1.421884536743164,15.696252822875977,-13.249784469604492,4.3179839849472046E-4,0.006637454032897949,0.05954265594482422,0.09012321,-0.17042479,9.751122,0
4,990.5507202148438,4.95975895319134E-4,7.38235074095428E-4,1.8812523921951652E-4,1.2541613578796387,16.065692901611328,-12.783647537231445,0.0050625428557395935,-0.01221415400505066,0.059554100036621094,0.07574576,-0.16327405,9.751119,0
5,990.5536499023438,3.631845465861261E-4,3.3870170591399074E-4,7.209141040220857E-4,1.5979208946228027,15.492101669311523,-12.880041122436523,-0.004701010882854462,0.02105061709880829,0.05955791473388672,0.08765718,-0.170423,9.748747,0
5,990.5457763671875,-4.2316855979152024E-4,8.693731506355107E-4,-3.529377863742411E-4,1.372615098953247,15.597103118896484,-12.69749641418457,-0.03799055516719818,-0.02144753932952881,0.02642345428466797,0.10195851,-0.15135583,9.777151,0
5,990.5556640625,9.087777580134571E-4,-7.285817409865558E-4,-8.646451169624925E-5,1.1337497234344482,15.794761657714844,-12.518289566040039,0.010385289788246155,0.0070182085037231445,0.045357704162597656,0.07324171,-0.16327128,9.765311,0
5,990.5607299804688,-4.224350268486887E-4,-8.617990533821285E-4,4.6850473154336214E-5,1.7379803657531738,15.67626953125,-13.451292037963867,-0.017646200954914093,-0.012363582849502563,0.05008697509765625,0.09232283,-0.15850374,9.760573,0
5,990.5606689453125,-6.883842288516462E-4,-0.0013944902457296848,-8.615030674263835E-5,1.4272913932800293,15.964515686035156,-12.958375930786133,-0.0078573077917099,-0.01704832911491394,0.06429290771484375,0.08272517,-0.1561195,9.755836,0
5,990.5380859375,3.7724649882875383E-4,-4.6244438271969557E-4,-8.599302964285016E-5,1.281282901763916,15.880373001098633,-12.776983261108398,-0.0030620992183685303,-0.022102832794189453,0.03588390350341797,0.077907324,-0.14896873,9.762934,0
5,990.5430297851562,-0.0010871242266148329,6.027595954947174E-4,3.136379236821085E-4,1.1293225288391113,15.896257400512695,-12.985452651977539,-0.00810880959033966,0.0018357634544372559,0.05483055114746094,0.08742887,-0.17041731,9.770032,0
5,990.5580444335938,3.7797956611029804E-4,3.3638416789472103E-4,7.132688770070672E-4,1.2661998271942139,15.971561431884766,-12.703012466430664,0.006706349551677704,-0.00782795250415802,0.05009269714355469,0.0850009,-0.15850008,9.760559,0
5,990.5582275390625,-8.200747543014586E-4,-9.952548425644636E-4,3.1395239057019353E-4,1.3820452690124512,16.238075256347656,-12.736459732055664,0.011446177959442139,-0.01261758804321289,0.05009651184082031,0.08018309,-0.15611586,9.767657,0
5,990.5606689453125,-2.0760497136507183E-5,-5.958405672572553E-4,4.7793611884117126E-5,1.4390850067138672,16.870811462402344,-12.55131721496582,-0.0023348331451416016,-0.007950171828269958,0.05483055114746094,0.08970463,-0.16564801,9.760552,0
5,990.5631713867188,1.1276403529336676E-4,-3.295841161161661E-4,1.8110868404619396E-4,1.6791749000549316,16.0424861907959,-13.232706069946289,0.012461468577384949,0.006352812051773071,0.04536247253417969,0.077717066,-0.16088054,9.770017,0
5,990.555419921875,1.1313120921840891E-4,-8.62275599502027E-4,4.475819005165249E-4,1.444737434387207,16.138648986816406,-12.586336135864258,0.0076691582798957825,0.011215299367904663,0.040630340576171875,0.07767901,-0.17041269,9.770015,0
5,990.5580444335938,-5.522920400835574E-4,-1.965452975127846E-4,-6.175244343467057E-4,1.3730518817901611,16.335153579711914,-12.971704483032227,0.0029892325401306152,0.005778461694717407,0.040622711181640625,0.08242077,-0.16564515,9.772378,0
5,990.5631103515625,-0.00148403097409755,-7.292365771718323E-4,4.4789613457396626E-4,1.2942988872528076,16.156003952026367,-12.872102737426758,0.012531928718090057,0.010195508599281311,0.0737619400024414,0.07760286,-0.16802749,9.746335,0
5,990.5658569335938,-9.510319796390831E-4,3.359673428349197E-4,-8.835259941406548E-4,1.6019444465637207,15.864810943603516,-13.210409164428711,-0.011304885149002075,1.7702579498291016E-4,0.040617942810058594,0.089514375,-0.17040983,9.774738,0
5,990.5679321289062,-2.8487565577961504E-4,6.959190068300813E-5,3.1505266088061035E-4,1.3810667991638184,15.86831283569336,-12.560705184936523,-0.001733139157295227,0.005010440945625305,0.054825782775878906,0.091866195,-0.16087589,9.758164,0
5,990.5732421875,-1.819319004425779E-5,4.690062487497926E-4,-8.426402928307652E-5,1.360034704208374,16.059524536132812,-12.876588821411133,-0.006329432129859924,-0.023236587643623352,0.0453643798828125,0.08257055,-0.15373251,9.760556,0
5,990.5758056640625,9.12842049729079E-4,-7.292414666153491E-4,4.843514761887491E-5,1.1792948246002197,16.153335571289062,-12.315336227416992,0.00275285542011261,0.00539650022983551,0.045310020446777344,0.08524251,-0.16088924,9.760582,0
5,990.5681762695312,1.0604195995256305E-4,-7.253985968418419E-4,-2.1756021305918694E-4,1.5485453605651855,16.49929428100586,-12.700414657592773,0.008051842451095581,0.014912381768226624,0.05477619171142578,0.08522856,-0.16565543,9.758213,0
5,990.5579223632812,-1.6013957792893052E-4,-7.254204829223454E-4,-7.501342333853245E-4,1.578709602355957,16.31692123413086,-12.848360061645508,-0.010912075638771057,0.010140150785446167,0.045307159423828125,0.08760449,-0.17518821,9.75111,0
5,990.5753784179688,-2.6846824766835198E-5,4.729791253339499E-4,5.815027398057282E-4,1.1135597229003906,16.24981689453125,-12.310853958129883,0.008001744747161865,-0.0041410475969314575,0.05004405975341797,0.078030944,-0.16327152,9.755843,0
5,990.5452880859375,-1.597358495928347E-4,-4.591701435856521E-4,3.1530213891528547E-4,0.9282302856445312,15.91891098022461,-13.340707778930664,-0.001723848283290863,3.329366445541382E-4,0.031105995178222656,0.0875766,-0.16088787,9.765311,0
5,990.5452880859375,-1.597358495928347E-4,-4.591701435856521E-4,3.1530213891528547E-4,0.9282302856445312,15.91891098022461,-13.340707778930664,0.0032548680901527405,-0.009047582745552063,0.040576934814453125,0.08517271,-0.15850422,9.767676,0
5,990.56298828125,6.393461371771991E-4,7.34398199710995E-5,-2.1727202693000436E-4,1.287370204925537,15.886268615722656,-13.086206436157227,0.012729667127132416,-0.0041663795709609985,0.045314788818359375,0.08276886,-0.16088715,9.760573,0
5,990.5782470703125,-1.59466580953449E-4,-4.5921382843516767E-4,-6.166880484670401E-4,1.388974666595459,16.507814407348633,-12.522356033325195,-0.006299450993537903,0.005348086357116699,0.04531383514404297,0.080365,-0.16327015,9.770041,0
6,990.5855102539062,2.4014146765694022E-4,8.723438368178904E-4,4.486330726649612E-4,1.1979634761810303,15.696807861328125,-12.445466995239258,-0.011365644633769989,5.889087915420532E-4,0.045319557189941406,0.08752078,-0.16565305,9.7653055,0
6,990.5528564453125,-4.255134263075888E-4,8.723219507373869E-4,8.481645490974188E-4,0.7830615043640137,16.098613739013672,-12.635995864868164,-0.00192917138338089,0.010226503014564514,0.050057411193847656,0.08511692,-0.16565272,9.758203,0
6,990.5528564453125,-4.255134263075888E-4,8.723219507373869E-4,8.481645490974188E-4,0.7830615043640137,16.098613739013672,-12.635995864868164,0.002624824643135071,-0.004253789782524109,0.040589332580566406,0.085102975,-0.16326907,9.767671,0
6,990.5732421875,3.73568560462445E-4,-3.2612140057608485E-4,4.927458940073848E-5,1.1452453136444092,16.06891632080078,-12.536104202270508,0.007336445152759552,-0.008904978632926941,0.04059314727783203,0.08030921,-0.15850213,9.758201,0
6,990.5653686523438,-5.584024474956095E-4,7.391202962026E-4,-2.1698360797017813E-4,1.5240330696105957,15.949508666992188,-12.587484359741211,-0.002223573625087738,-0.004447415471076965,0.040589332580566406,0.08268514,-0.15373531,9.770035,0
6,990.5452880859375,1.0752183152362704E-4,2.0646674965973943E-4,3.157057799398899E-4,1.2616338729858398,15.967140197753906,-12.471094131469727,-0.011932753026485443,-0.00883302092552185,0.031128883361816406,0.08984086,-0.15611821,9.772401,0
6,990.552490234375,2.4081423180177808E-4,2.0644486357923597E-4,5.820792866870761E-4,0.6841180324554443,16.374523162841797,-12.328958511352539,-0.002638399600982666,-0.018462523818016052,0.05006885528564453,0.085047096,-0.1513513,9.753463,0
6,990.57275390625,-9.573381976224482E-4,7.324326725210994E-5,5.821945960633457E-4,1.2184531688690186,15.873884201049805,-12.228033065795898,0.01653187721967697,-0.009000122547149658,0.0453338623046875,0.07547355,-0.16088411,9.755828,0
6,990.5404663085938,2.412179601378739E-4,-1.9309448543936014E-4,-2.1669536363333464E-4,1.2628579139709473,15.336479187011719,-12.973272323608398,-0.007720746099948883,-0.008908197283744812,0.04534149169921875,0.08740908,-0.16803363,9.765296,0
6,990.5755004882812,1.0819424642249942E-4,0.0011384631507098675,4.967814311385155E-5,1.3965847492218018,16.515178680419922,-12.908884048461914,-0.0026718154549598694,-0.004480019211769104,0.0453338623046875,0.082615346,-0.16803327,9.76056,0
6,990.565185546875,-2.4828765162965283E-5,-1.9313814118504524E-4,-4.82895877212286E-4,1.6705858707427979,15.665359497070312,-12.67042350769043,-0.0028931796550750732,-0.013697832822799683,0.04060649871826172,0.08021146,-0.15373322,9.772395,0
6,990.552490234375,2.4162133922800422E-4,6.057876744307578E-4,-3.4968036925420165E-4,1.5416159629821777,16.229557037353516,-12.914522171020508,-0.007284171879291534,8.141547441482544E-4,0.059548377990722656,0.08258742,-0.16088268,9.751088,0
6,990.5526123046875,2.4175603175535798E-4,-0.0013916034949943423,1.8300910596735775E-4,1.5324835777282715,16.220720291137695,-12.450689315795898,-0.016987942159175873,-0.00868496298789978,0.054816246032714844,0.08735329,-0.15611586,9.753455,0
6,990.5598754882812,-1.5758333029225469E-4,3.3942805021069944E-4,1.8306676065549254E-4,1.0835332870483398,16.538105010986328,-12.861978530883789,-0.0028159692883491516,-0.018234550952911377,0.040615081787109375,0.084949374,-0.15134892,9.781859,0
6,990.567626953125,9.205643436871469E-5,5.429902230389416E-4,-1.2924711336381733E-4,1.356447696685791,16.42486572265625,-12.820428848266602,0.0017414093017578125,6.62580132484436E-4,0.06428718566894531,0.08015567,-0.16564825,9.753451,0
6,990.565185546875,-1.741247542668134E-4,9.424421587027609E-4,3.968394594267011E-6,1.8312721252441406,16.13252067565918,-13.72331428527832,-0.021852508187294006,-0.003945395350456238,0.050086021423339844,0.0920912,-0.16803119,9.760552,0
6,990.5726318359375,-1.739902945701033E-4,-0.0010549486614763737,1.3718398986384273E-4,1.6019444465637207,15.864810943603516,-13.210412979125977,0.006120339035987854,-0.004122942686080933,0.05947303771972656,0.08816138,-0.15613565,9.760631,0
6,990.565185546875,-5.794975440949202E-4,-1.218637335114181E-4,1.3459823094308376E-4,1.316011667251587,15.702423095703125,-13.15684700012207,-0.0036696791648864746,4.448145627975464E-4,0.04526710510253906,0.08340189,-0.16090271,9.7606325,0
6,990.549560546875,-3.1539195333607495E-4,6.77442760206759E-4,-1.326648343820125E-4,1.176931619644165,15.888015747070312,-12.761350631713867,0.0010350346565246582,4.488825798034668E-4,0.049999237060546875,0.081032276,-0.16566971,9.763001,0
6,990.56005859375,3.502020554151386E-4,-1.2147316010668874E-4,-1.327487698290497E-4,1.4162328243255615,16.42841339111328,-13.21476936340332,0.0010597482323646545,-0.013994291424751282,0.04526042938232422,0.076272726,-0.15852043,9.758269,0
6,990.555419921875,-5.820989608764648E-4,-1.2144142237957567E-4,-7.986221462488174E-4,1.4819684028625488,16.33193016052246,-13.219255447387695,-0.003440752625465393,-0.009329378604888916,0.035785675048828125,0.083462745,-0.16328752,9.767739,0
6,990.5447998046875,-0.001114926184527576,-5.208834772929549E-4,-3.9923223084770143E-4,1.4231624603271484,16.698150634765625,-13.000665664672852,0.0060240477323532104,-0.014092609286308289,0.06418991088867188,0.078703225,-0.15613815,9.755906,0
6,990.5802612304688,2.1645761444233358E-4,1.449379196856171E-4,-1.3300011050887406E-4,2.0744285583496094,15.727447509765625,-12.736288070678711,0.0013219043612480164,-1.204758882522583E-4,0.04524517059326172,0.09306294,-0.16805503,9.763009,0
6,990.5499877929688,-1.8321190145798028E-4,-3.8766206125728786E-4,-3.993998107034713E-4,1.7403440475463867,15.941587448120117,-13.005277633666992,0.011155463755130768,0.009400784969329834,0.04524040222167969,0.07635391,-0.16567221,9.758276,0
7,990.5604858398438,2.1606634254567325E-4,-2.5447236839681864E-4,-1.3316774857230484E-4,1.0047810077667236,16.35895538330078,-12.762380599975586,0.01144246757030487,-0.004628583788871765,0.05944252014160156,0.08832368,-0.16328946,9.763013,0
7,990.5673217773438,2.1587099763564765E-4,-7.870724075473845E-4,-9.362702257931232E-8,1.8704304695129395,15.853069305419922,-13.636014938354492,0.0066048577427864075,-0.009274870157241821,0.04524040222167969,0.07400459,-0.15852344,9.75828,0
7,990.5626831054688,-5.0640577683225274E-5,-6.538826855830848E-4,1.3298049452714622E-4,1.5899062156677246,15.958942413330078,-13.291048049926758,-0.0027355030179023743,-0.013959109783172607,0.049973487854003906,0.08836427,-0.15852392,9.76775,0
7,990.5372314453125,-5.08360390085727E-5,-1.2121921463403851E-4,-6.660509388893843E-4,1.273672103881836,15.873008728027344,-12.390459060668945,0.0019339770078659058,0.014363572001457214,0.0547027587890625,0.08838457,-0.1704408,9.76065,0
7,990.5601196289062,-7.16821406967938E-4,0.001210391870699823,-3.450550138950348E-7,1.1754093170166016,15.886545181274414,-12.684045791625977,0.0018895864486694336,-0.019116416573524475,0.04049491882324219,0.08123517,-0.14660847,9.760652,0
7,990.5675659179688,3.480509330984205E-4,-1.2112391414120793E-4,1.326452475041151E-4,1.0052165985107422,17.09701156616211,-13.036584854125977,-0.012103304266929626,7.18235969543457E-6,0.054694175720214844,0.09081504,-0.1585254,9.755919,0
7,990.5675659179688,3.480509330984205E-4,-1.2112391414120793E-4,1.326452475041151E-4,1.0052165985107422,17.09701156616211,-13.036584854125977,-0.011946223676204681,-0.009615510702133179,0.035752296447753906,0.08605552,-0.1632925,9.767757,0
7,990.570068359375,-7.174080237746239E-4,-7.868819520808756E-4,-1.3375442358665168E-4,1.6012630462646484,16.127185821533203,-12.609781265258789,-0.007136054337024689,3.841519355773926E-5,0.05468940734863281,0.083685935,-0.16805953,9.770126,0
7,990.5775756835938,-3.181298088748008E-4,1.2097498256480321E-5,-2.669961249921471E-4,1.5557188987731934,15.768608093261719,-12.81273078918457,0.011480383574962616,0.004649445414543152,0.02628326416015625,0.078926384,-0.1561436,9.781964,0
7,990.5703735351562,4.806222568731755E-4,0.0017431824235245585,6.650255527347326E-4,1.7186307907104492,16.395172119140625,-12.72053337097168,-0.003556184470653534,-0.004720702767372131,0.03575706481933594,0.083726525,-0.16329393,9.758294,0
7,990.5902709960938,8.095274097286165E-5,0.0013437402667477727,-1.3400588068179786E-4,0.7144200801849365,16.298065185546875,-13.175981521606445,0.006382390856742859,-0.014328956604003906,0.045218467712402344,0.0765771,-0.15376133,9.76303,0
7,990.5902709960938,8.095274097286165E-5,0.0013437402667477727,-1.3400588068179786E-4,0.7144200801849365,16.298065185546875,-13.175981521606445,-0.007865853607654572,-0.014142155647277832,0.059424400329589844,0.08376706,-0.15614513,9.760665,0
7,990.5724487304688,-1.8555860151536763E-4,-0.001319386763498187,3.985420917160809E-4,0.9170334339141846,16.276885986328125,-12.898027420043945,-0.0030673667788505554,0.005108669400215149,0.05469036102294922,0.090957105,-0.16567874,9.763034,0
7,990.5724487304688,7.463514339178801E-4,-6.535652210004628E-4,-2.6733140111900866E-4,1.0684504508972168,16.629295349121094,-12.788007736206055,0.0020377039909362793,-0.018365442752838135,0.045223236083984375,0.07663798,-0.14899626,9.758302,0
7,990.5928344726562,4.798400623258203E-4,1.2256172340130433E-5,1.3205857248976827E-4,1.5877034664154053,16.219844818115234,-12.613115310668945,0.002079024910926819,6.576180458068848E-4,0.040485382080078125,0.081438065,-0.1656797,9.751202,0
7,990.5927124023438,-5.3182971896603703E-5,-7.866279338486493E-4,-2.6758285821415484E-4,1.1272568702697754,16.263072967529297,-13.006593704223633,0.0118226557970047,-0.018147334456443787,0.04048442840576172,0.08145833,-0.14899728,9.758306,0
7,990.5927124023438,-5.3182971896603703E-5,-7.866279338486493E-4,-2.6758285821415484E-4,1.1272568702697754,16.263072967529297,-13.006593704223633,-0.011974774301052094,-0.012984976172447205,0.04522418975830078,0.08587995,-0.15137175,9.763007,0
7,990.5674438476562,6.131185218691826E-4,-7.867109961807728E-4,1.3211023178882897E-4,1.1925568580627441,15.428539276123047,-12.736871719360352,0.017486289143562317,-0.008199840784072876,0.050026893615722656,0.07354942,-0.1465958,9.770074,0
7,990.5597534179688,4.862496571149677E-4,0.001209637033753097,1.3480556663125753E-4,1.32584810256958,15.869186401367188,-12.398271560668945,0.007478460669517517,-0.0031569600105285645,0.04056835174560547,0.08309889,-0.16089529,9.765338,0
7,990.5521850585938,4.86347678815946E-4,2.7751567540690303E-4,2.680055040400475E-4,1.3139464855194092,16.069236755371094,-13.177988052368164,-0.006767198443412781,0.001693427562713623,0.040569305419921875,0.08786851,-0.1680449,9.760604,0
7,990.5369873046875,8.6971529526636E-5,2.774998138193041E-4,8.006790885701776E-4,1.6836028099060059,15.940990447998047,-12.765542984008789,-0.011814616620540619,0.006295233964920044,0.04530525207519531,0.08546847,-0.17042792,9.760602,0
7,990.53466796875,-0.0012445098254829645,5.43799833394587E-4,-2.645424392540008E-4,1.194077968597412,15.430011749267578,-12.814176559448242,-0.006924338638782501,-0.00828784704208374,0.050034523010253906,0.087848246,-0.15851128,9.760602,0
7,990.58740234375,-1.791487738955766E-4,-7.877955213189125E-4,1.349732920061797E-4,1.3950626850128174,16.51370620727539,-12.831575393676758,0.007570229470729828,-0.008275985717773438,0.06423664093017578,0.08066839,-0.1513612,9.753499,0
7,990.539794921875,2.2042306954972446E-4,-2.551796496845782E-4,-5.307744722813368E-4,1.502319574356079,16.403091430664062,-12.302743911743164,-0.0010242387652397156,-0.0029054582118988037,0.05003643035888672,0.07826835,-0.1632773,9.765334,0
7,990.5521850585938,0.001285784412175417,-0.0019862486515194178,-2.644167107064277E-4,1.2966618537902832,16.42132568359375,-12.426088333129883,0.008225537836551666,-0.007713451981544495,0.04530620574951172,0.07586831,-0.15612718,9.755864,0
8,990.5441284179688,8.746070670895278E-5,6.768941530026495E-4,1.941138179972768E-6,1.4324002265930176,15.60064697265625,-13.091840744018555,0.0030033886432647705,-0.0027710944414138794,0.03584480285644531,0.078248054,-0.15851024,9.772434,0
8,990.56201171875,2.2071643616072834E-4,6.768784369342029E-4,2.6829889975488186E-4,1.5748238563537598,16.050128936767578,-13.217073440551758,-0.0063369423151016235,0.01149187982082367,0.031108856201171875,0.085407615,-0.16565982,9.772433,0
8,990.5545654296875,-4.5501539716497064E-5,-5.215590354055166E-4,5.346568068489432E-4,1.283782958984375,16.251609802246094,-13.030046463012695,-0.006585143506526947,-0.016895174980163574,0.0642557144165039,0.083007574,-0.15850973,9.74876,0
8,990.5448608398438,2.083620784105733E-4,0.0010462262434884906,1.4172017108649015E-4,1.729828119277954,16.037193298339844,-13.163217544555664,0.017274528741836548,0.021320804953575134,0.059525489807128906,0.06626809,-0.16804263,9.751126,0
8,990.5801391601562,6.079337908886373E-4,-6.848428165540099E-4,-2.577117411419749E-4,1.580911636352539,16.05602264404297,-13.52629280090332,-0.011188335716724396,-0.0024446994066238403,0.045322418212890625,0.09015694,-0.15612599,9.758226,0
8,990.5369873046875,2.0855777256656438E-4,-5.517007084563375E-4,4.0811984217725694E-4,1.2732670307159424,16.347217559814453,-13.187990188598633,0.007997043430805206,0.011922910809516907,0.05952739715576172,0.08058721,-0.16804215,9.751124,0
8,990.5369873046875,-5.766020331066102E-5,3.803888976108283E-4,1.418459287378937E-4,1.422863483428955,16.06601333618164,-13.425539016723633,-0.006149478256702423,-0.011938869953155518,0.03585243225097656,0.09013665,-0.14897567,9.7724285,0
8,990.557373046875,-5.756241444032639E-5,-6.848904304206371E-4,-7.902177749201655E-4,1.122392177581787,15.626520156860352,-13.199548721313477,-0.001168757677078247,-0.011672943830490112,0.06426239013671875,0.08056691,-0.16089186,9.7534895,0
8,990.5548706054688,6.083250627852976E-4,5.135150859132409E-4,-5.23859984241426E-4,0.7834982872009277,16.8366641998291,-12.91020393371582,0.017737962305545807,-0.002234742045402527,0.04059314727783203,0.08055672,-0.15374169,9.762958,0
8,990.5623168945312,7.579122029710561E-5,-8.180801523849368E-4,2.751295978669077E-4,1.3841099739074707,15.871259689331055,-12.715311050415039,-0.019864819943904877,0.0075598061084747314,0.04532814025878906,0.09249616,-0.17042437,9.767691,0
8,990.5621337890625,2.091447386192158E-4,-8.181119337677956E-4,8.078452083282173E-4,1.2656569480895996,16.33985137939453,-12.801462173461914,0.014099843800067902,0.007717952132225037,0.05953025817871094,0.07814652,-0.16089103,9.755854,0
8,990.5746459960938,4.7555839410051703E-4,1.1397774505894631E-4,-3.9053434738889337E-4,1.201305866241455,16.33188819885254,-12.175203323364258,0.0043245404958724976,0.00793825089931488,0.04059886932373047,0.08052632,-0.16565731,9.75822,0
8,990.5746459960938,4.7555839410051703E-4,1.1397774505894631E-4,-3.9053434738889337E-4,1.201305866241455,16.33188819885254,-12.175203323364258,0.004219360649585724,0.007955312728881836,0.06427192687988281,0.09007576,-0.16327381,9.748751,0
8,990.5670776367188,-4.563516122289002E-4,-9.513174882158637E-4,6.748130545020103E-4,1.044917345046997,16.449268341064453,-12.850831985473633,-0.004963427782058716,-0.011404469609260559,0.06426525115966797,0.082895935,-0.16327357,9.751117,0
8,990.5670776367188,-4.563516122289002E-4,-9.513174882158637E-4,6.748130545020103E-4,1.044917345046997,16.449268341064453,-12.850831985473633,-3.859102725982666E-4,0.0026616156101226807,0.035858154296875,0.08766553,-0.16089007,9.765319,0
8,990.5675659179688,-4.561558016575873E-4,2.4707213742658496E-4,-2.5720865232869983E-4,1.2309269905090332,16.517803192138672,-12.421602249145508,-0.005101911723613739,0.007262066006660461,0.03585529327392578,0.087655425,-0.16088983,9.77242,0
8,990.5675659179688,-4.561558016575873E-4,2.4707213742658496E-4,-2.5720865232869983E-4,1.2309269905090332,16.517803192138672,-12.421602249145508,0.004122234880924225,-0.011558666825294495,0.04053783416748047,0.07629904,-0.1537545,9.765372,0
8,990.5596313476562,7.365160272456706E-4,3.8116349605843425E-4,-2.5967281544581056E-4,1.5186254978179932,15.681241989135742,-12.878889083862305,-8.199959993362427E-4,-0.006449192762374878,0.05474662780761719,0.08348268,-0.163288,9.755904,0
8,990.5596313476562,7.365160272456706E-4,3.8116349605843425E-4,-2.5967281544581056E-4,1.5186254978179932,15.681241989135742,-12.878889083862305,0.008664831519126892,-0.006442666053771973,0.050011634826660156,0.08110675,-0.160905,9.758273,0
8,990.5927124023438,-1.9572423479985446E-4,3.8118529482744634E-4,-0.0013249940238893032,1.3625357151031494,16.43075942993164,-13.129648208618164,0.017963051795959473,-0.0019406378269195557,0.05000782012939453,0.06678128,-0.16328862,9.763009,0
8,990.5673217773438,-1.9585869449656457E-4,-1.82666553882882E-5,-3.92946123611182E-4,1.3770742416381836,16.707862854003906,-13.302068710327148,0.003811679780483246,0.0029666125774383545,0.050006866455078125,0.09069428,-0.16090572,9.763011,0
8,990.5673217773438,-1.9585869449656457E-4,-1.82666553882882E-5,-3.92946123611182E-4,1.3770742416381836,16.707862854003906,-13.302068710327148,0.008512206375598907,-0.006510138511657715,0.06421089172363281,0.081148624,-0.15852278,9.75591,0
8,990.5723876953125,2.0348055113572627E-4,-1.8244798411615193E-5,1.396280131302774E-4,1.5417225360870361,15.123210906982422,-12.541864395141602,0.013463854789733887,-0.0017627477645874023,0.05947303771972656,0.088332295,-0.16567299,9.758279,0
8,990.5597534179688,-1.961277303053066E-4,-2.845388080459088E-4,-2.5990349240601063E-4,1.0644280910491943,16.25658416748047,-12.457647323608398,0.018242985010147095,-0.011632397770881653,0.04052925109863281,0.074006855,-0.1489903,9.760647,0
9,990.5670776367188,-6.310459866654128E-5,-2.8451698017306626E-4,4.0582858491688967E-4,1.2195696830749512,16.349563598632812,-13.102869033813477,-0.0058096423745155334,-0.0020213276147842407,0.04526519775390625,0.08597034,-0.15614054,9.774852,0
9,990.5623168945312,-6.337363447528332E-5,-4.176312650088221E-4,-1.2691854499280453E-4,1.2451677322387695,16.162771224975586,-13.018896102905273,-0.005918070673942566,-0.006471320986747742,0.045269012451171875,0.08837417,-0.16090742,9.767751,0
9,990.5289306640625,0.0010017554741352797,3.8133826456032693E-4,6.719714147038758E-4,1.4203627109527588,15.694780349731445,-13.172479629516602,-0.01566752791404724,-0.016071751713752747,0.05000114440917969,0.09794775,-0.14184156,9.763019,0
9,990.5724487304688,-0.0011289063841104507,6.476759444922209E-4,-6.596656749024987E-4,1.2025299072265625,15.701225280761719,-12.67738151550293,0.003279164433479309,-0.020794808864593506,0.05473804473876953,0.08840209,-0.14660838,9.760652,0
9,990.60009765625,4.68854617793113E-4,2.482239797245711E-4,2.723822253756225E-4,1.0955710411071777,16.4439754486084,-12.781343460083008,0.01754278689622879,-0.0016147047281265259,0.040535926818847656,0.07407665,-0.15614188,9.767755,0
9,990.5674438476562,6.924588524270803E-5,7.808775408193469E-4,1.3916660100221634E-4,1.506587028503418,15.775375366210938,-12.959527969360352,-0.011490821838378906,-0.0017672330141067505,0.03579998016357422,0.09320986,-0.16329208,9.765389,0
9,990.5673217773438,-3.3036229433491826E-4,6.477414863184094E-4,4.054248274769634E-4,1.461341142654419,16.048934936523438,-12.737607955932617,0.0026373714208602905,-0.0016772300004959106,0.054739952087402344,0.0908339,-0.15614259,9.758288,0
9,990.5573120117188,-1.973391481442377E-4,3.814474621322006E-4,-1.27264647744596E-4,1.0605430603027344,15.989791870117188,-12.826356887817383,-0.0021843835711479187,-0.0015631765127182007,0.03580284118652344,0.086068034,-0.15614295,9.755923,0
9,990.5745239257812,2.0200021390337497E-4,-1.800450263544917E-5,-6.59954035654664E-4,1.5672142505645752,16.042766571044922,-12.830549240112305,-0.01650194823741913,-0.011221170425415039,0.04526710510253906,0.08847195,-0.1513767,9.760659,0
9,990.5774536132812,-3.307661390863359E-4,-1.798267476260662E-5,-1.2737989891320467E-4,1.3019089698791504,16.16337013244629,-13.258630752563477,0.012035667896270752,0.0028439313173294067,0.045264244079589844,0.07414645,-0.16806,9.763026,0
9,990.5647583007812,-1.9774264364968985E-4,1.1519710824359208E-4,2.720362099353224E-4,1.4297926425933838,16.33575439453125,-13.21143913269043,0.011633530259132385,0.017427697777748108,0.05000495910644531,0.07416043,-0.17521021,9.760661,0
9,990.56201171875,6.010702927596867E-4,9.141666814684868E-4,1.3882064376957715E-4,1.6124603748321533,15.769207000732422,-13.052465438842773,-0.0025582388043403625,-0.01591479778289795,0.04526805877685547,0.09090367,-0.14422789,9.760663,0
9,990.5721435546875,-3.311697510071099E-4,-1.79171038325876E-5,-6.60184770822525E-4,1.362941026687622,15.956554412841797,-12.332120895385742,-0.002762414515018463,-0.006112322211265564,0.0452728271484375,0.09091768,-0.15852788,9.760664,0
9,990.5645141601562,7.339589647017419E-4,-1.789526140782982E-5,-5.270844558253884E-4,1.2646780014038086,15.970088958740234,-12.625707626342773,-0.007401511073112488,-0.001323997974395752,0.050004005432128906,0.08376193,-0.16091153,9.760665,0
9,990.5594482421875,-6.512300751637667E-5,-4.1734721162356436E-4,-7.934580789878964E-4,0.9730949401855469,16.53985595703125,-12.537134170532227,-0.017125077545642853,-0.006086945533752441,0.04053688049316406,0.0909456,-0.1561453,9.763034,0
9,990.57470703125,6.00531988311559E-4,0.0011805698741227388,-2.6088394224643707E-4,0.9027934074401855,16.631919860839844,-12.300729751586914,0.016629919409751892,0.008105024695396423,0.03106212615966797,0.08139995,-0.1656788,9.7583,0
9,990.5543212890625,-4.648658796213567E-4,-8.167773485183716E-4,-1.277836854569614E-4,1.0559773445129395,15.985374450683594,-12.594442367553711,0.002180822193622589,-0.020409435033798218,0.031063079833984375,0.08366281,-0.15614259,9.765389,0
9,990.569580078125,-5.284567596390843E-4,4.902418586425483E-4,2.3332462296821177E-4,1.167799472808838,15.879180908203125,-12.297525405883789,-0.002240322530269623,-0.006072938442230225,0.059494972229003906,0.08830699,-0.15375593,9.760643,0
9,990.5621337890625,6.455258699133992E-6,-4.42233809735626E-4,-3.201415529474616E-5,1.2641348838806152,16.338376998901367,-12.724157333374023,0.0073857903480529785,-0.006133332848548889,0.059493064880371094,0.08352971,-0.15852258,9.753543,0
9,990.5823364257812,6.768648745492101E-6,3.566628438420594E-4,5.007520085200667E-4,1.4293572902679443,15.597696304321289,-12.937227249145508,0.0071866437792778015,0.008089974522590637,0.04528999328613281,0.08114231,-0.16805574,9.751175,0
9,990.5647583007812,2.730601991061121E-4,-4.280696884961799E-5,6.338994717225432E-4,1.4444384574890137,15.506511688232422,-13.011201858520508,-0.021724842488765717,-0.010904103517532349,0.035823822021484375,0.1002641,-0.16805586,9.77248,0
9,990.5673217773438,-5.259366007521749E-4,6.229907739907503E-4,7.670364575460553E-4,0.9600772857666016,16.26422691345215,-12.442014694213867,-0.007806651294231415,0.012613728642463684,0.050024986267089844,0.10265654,-0.16328928,9.765378,0
9,990.5673217773438,-5.259366007521749E-4,6.229907739907503E-4,7.670364575460553E-4,0.9600772857666016,16.26422691345215,-12.442014694213867,-0.007934324443340302,-0.006250977516174316,0.0737009048461914,0.08592975,-0.1609061,9.753543,0
9,990.579345703125,2.7298685745336115E-4,8.893104968592525E-4,2.3439418873749673E-4,1.4595212936401367,15.415325164794922,-13.085176467895508,0.006182432174682617,0.0034175515174865723,0.06423664093017578,0.08354241,-0.15852284,9.748809,0
9,990.5670776367188,9.387520840391517E-4,3.5668277996592224E-4,6.338575622066855E-4,1.034945011138916,16.17658233642578,-12.91032600402832,0.0011716559529304504,0.012994170188903809,0.04056739807128906,0.08593488,-0.17043939,9.763012,0
10,990.5416870117188,2.729377301875502E-4,0.0011556342942640185,1.0121529339812696E-4,1.2300853729248047,16.253957748413086,-12.944925308227539,-0.01308722048997879,-0.015413716435432434,0.05003833770751953,0.07637778,-0.16328952,9.767747,0
10,990.5647583007812,-1.2658486957661808E-4,-5.754110170528293E-4,-4.3143739458173513E-4,1.186361312866211,16.52899169921875,-12.800310134887695,-0.012978717684745789,0.0034472793340682983,0.054767608642578125,0.09071976,-0.16567293,9.758279,0
10,990.5647583007812,-1.2658486957661808E-4,-5.754110170528293E-4,-4.3143739458173513E-4,1.186361312866211,16.52899169921875,-12.800310134887695,0.006133280694484711,0.0034626424312591553,0.06897163391113281,0.08594245,-0.16090634,9.758279,0
10,990.5594482421875,-5.26083167642355E-4,4.898565821349621E-4,6.338156526908278E-4,1.5362083911895752,15.961292266845703,-13.205926895141602,-0.003258228302001953,-0.0013363659381866455,0.026358604431152344,0.08833489,-0.16805634,9.763013,0
10,990.5594482421875,-5.26083167642355E-4,4.898565821349621E-4,6.338156526908278E-4,1.8046948909759521,15.94955062866211,-13.631532669067383,0.0017112046480178833,0.003273025155067444,0.035823822021484375,0.073998034,-0.16090652,9.758279,0
10,990.5466918945312,4.0599823114462197E-4,-0.0012411928037181497,-1.6514240996912122E-4,1.2455730438232422,15.68856430053711,-12.221368789672852,-0.012935683131217957,0.0033336281776428223,0.040561676025390625,0.08117026,-0.16567317,9.765381,0
10,990.5670776367188,2.727911632973701E-4,-4.276335675967857E-5,-8.309531258419156E-4,1.4840331077575684,15.965112686157227,-13.19810676574707,0.005868673324584961,0.003541499376296997,0.03583240509033203,0.08595264,-0.16567323,9.763014,0
10,990.5670776367188,2.727911632973701E-4,-4.276335675967857E-5,-8.309531258419156E-4,1.4840331077575684,15.965112686157227,-13.19810676574707,0.010571308434009552,-0.0011970102787017822,0.0453033447265625,0.08834505,-0.16329,9.760647,0
10,990.5848999023438,-2.5988960987888277E-4,3.5671849036589265E-4,1.0113147436641157E-4,1.4960715770721436,15.870979309082031,-13.117471694946289,8.550733327865601E-4,-0.0060370564460754395,0.05003643035888672,0.08595765,-0.1585235,9.760647,0
10,990.5848999023438,-2.5988960987888277E-4,3.5671849036589265E-4,1.0113147436641157E-4,1.4960715770721436,15.870979309082031,-13.117471694946289,0.010397247970104218,-0.0015039145946502686,0.04529857635498047,0.078790516,-0.153757,9.763015,0
10,990.5594482421875,1.395599974785E-4,9.04065600479953E-5,9.000686695799232E-4,1.2656564712524414,16.33985137939453,-12.801462173461914,-0.017991334199905396,-0.0014032870531082153,0.04529762268066406,0.09074253,-0.16329017,9.751179,0
10,990.57177734375,2.726689272094518E-4,9.041449084179476E-5,-1.6521586803719401E-4,1.2677218914031982,15.973033905029297,-12.780313491821289,-0.008765250444412231,0.00334031879901886,0.059502601623535156,0.085965306,-0.16567352,9.746445,0
10,990.57177734375,2.726689272094518E-4,9.041449084179476E-5,-1.6521586803719401E-4,1.2677218914031982,15.973033905029297,-12.780313491821289,3.768056631088257E-4,0.012608826160430908,0.054767608642578125,0.08835775,-0.160907,9.751179,0
10,990.5492553710938,2.726200327742845E-4,0.0012888439232483506,6.337108789011836E-4,1.6621348857879639,15.394145965576172,-12.807222366333008,-0.0043652355670928955,-0.0011905282735824585,0.050040245056152344,0.08597037,-0.16090709,9.755914,0
10,990.5315551757812,8.052273187786341E-4,-9.74837108515203E-4,-3.208930138498545E-5,1.1738872528076172,15.885072708129883,-12.606744766235352,0.00492444634437561,-0.0013194680213928223,0.040572166442871094,0.07880324,-0.168057,9.758281,0
10,990.5645751953125,6.255257176235318E-6,8.893781341612339E-4,-4.3157360050827265E-4,0.8973860740661621,16.36365509033203,-12.592138290405273,-0.0044466182589530945,0.003504842519760132,0.03110218048095703,0.078805745,-0.16329047,9.767751,0
10,990.5668334960938,-3.9324312820099294E-4,-1.758814905770123E-4,2.3420556681230664E-4,1.215003490447998,16.345144271850586,-12.870950698852539,0.0015043020248413086,0.0032090693712234497,0.05013084411621094,0.08545309,-0.15851116,9.758233,0
10,990.55712890625,8.7045191321522E-6,-4.425990046001971E-4,5.015815841034055E-4,1.44281005859375,16.61138153076172,-13.306554794311523,-0.022498227655887604,-0.010986194014549255,0.04540252685546875,0.08967918,-0.15373102,9.7581835,0
10,990.5921020507812,-1.1968178296228871E-4,9.086099453270435E-5,-4.256768152117729E-4,1.2226142883300781,16.352510452270508,-13.257478713989258,-0.003687262535095215,-0.015809744596481323,0.04067230224609375,0.08247012,-0.15372995,9.765281,0
10,990.5693969726562,-2.5246068253181875E-4,0.0010229051113128662,-2.6040535885840654E-5,1.178889274597168,16.62754249572754,-13.112863540649414,-0.003968492150306702,0.00300811231136322,0.03593921661376953,0.0704813,-0.16802868,9.760543,0
10,990.5745239257812,-1.1892368638655171E-4,8.896855870261788E-4,5.067536840215325E-4,1.7081146240234375,16.490779876708984,-12.878473281860352,-0.013764463365077972,-0.011175170540809631,0.045416831970214844,0.08478141,-0.14657822,9.760539,0
10,990.5820922851562,-6.511766114272177E-4,0.0010227820603176951,1.0744226165115833E-4,1.2150039672851562,16.345144271850586,-12.870950698852539,-0.00451061874628067,-0.0018679499626159668,0.06435775756835938,0.07996231,-0.16087696,9.743965,0
10,990.5770874023438,-2.5132388691417873E-4,3.56930831912905E-4,2.4076260160654783E-4,1.3175339698791504,15.70389175415039,-13.234148025512695,1.6761571168899536E-4,-0.011388570070266724,0.04069042205810547,0.079922974,-0.160876,9.765266,0
10,990.5772094726562,1.4852898311801255E-4,4.900272469967604E-4,2.4092503008432686E-4,1.0061640739440918,16.254514694213867,-12.140607833862305,0.004964865744113922,-0.002068430185317993,0.0454254150390625,0.07271397,-0.16325834,9.7605295,0
10,990.561767578125,-5.16881758812815E-4,-1.758239814080298E-4,-4.247021861374378E-4,1.6580047607421875,16.12778091430664,-12.849512100219727,0.009850561618804932,0.012010976672172546,0.04542350769042969,0.07506454,-0.1727905,9.748689,0
11,990.552001953125,-7.82818824518472E-4,4.899041960015893E-4,9.070395026355982E-4,1.3962860107421875,15.883045196533203,-13.33375358581543,-0.004895910620689392,-0.01672099530696869,0.04069328308105469,0.07980502,-0.15372327,9.765256,0
11,990.5748901367188,-2.498079265933484E-4,7.561586098745465E-4,1.0825428762473166E-4,1.258047103881836,16.33248519897461,-12.414937973022461,-0.004735395312309265,-0.011565625667572021,0.04070472717285156,0.09649503,-0.15610555,9.762885,0
11,990.56201171875,5.498974933288991E-4,2.2340375289786607E-4,2.4173702695406973E-4,1.397808313369751,15.884515762329102,-13.41105842590332,-1.3549625873565674E-4,-0.001796424388885498,0.054917335510253906,0.07494658,-0.168021,9.751044,0
11,990.56201171875,5.498974933288991E-4,2.2340375289786607E-4,2.4173702695406973E-4,1.397808313369751,15.884515762329102,-13.41105842590332,1.730024814605713E-5,0.003223434090614319,0.045454978942871094,0.07968706,-0.16563675,9.76051,0
11,990.5545654296875,5.428109579952434E-5,5.9336627600714564E-5,-7.842223858460784E-4,1.4313149452209473,16.337223052978516,-13.28874397277832,0.004888169467449188,-0.01589404046535492,0.06439495086669922,0.08203766,-0.15610269,9.751039,0
11,990.5545654296875,5.428109579952434E-5,5.9336627600714564E-5,-7.842223858460784E-4,1.4313149452209473,16.337223052978516,-13.28874397277832,-0.009442590177059174,0.003357112407684326,0.03125953674316406,0.086778134,-0.15848503,9.76287,0
11,990.5643310546875,-3.444348694756627E-4,-0.0011392078595235944,-9.170555276796222E-4,1.3810665607452393,15.86831283569336,-12.560701370239258,-0.013567887246608734,-0.0013425648212432861,0.035994529724121094,0.08912873,-0.15610078,9.758133,0
11,990.5643310546875,-3.444348694756627E-4,-0.0011392078595235944,-9.170555276796222E-4,1.3810665607452393,15.86831283569336,-12.560701370239258,0.005410782992839813,-0.0011989474296569824,0.05020427703857422,0.08430961,-0.15609983,9.758129,0
11,990.5592651367188,5.579705612035468E-5,-4.735412367153913E-4,-3.840991121251136E-4,1.3651437759399414,15.69565200805664,-13.010049819946289,0.005741119384765625,-0.010573849081993103,0.05967903137207031,0.07471073,-0.15848204,9.760492,0
11,990.579345703125,1.8933380488306284E-4,5.916607333347201E-4,-2.507787139620632E-4,1.6646356582641602,15.765384674072266,-13.060281753540039,8.159428834915161E-4,-0.001122117042541504,0.036009788513183594,0.0794512,-0.16086438,9.769958,0
11,990.579345703125,1.8933380488306284E-4,5.916607333347201E-4,-2.507787139620632E-4,1.6646356582641602,15.765384674072266,-13.060281753540039,-0.022717639803886414,-0.010748371481895447,0.03600788116455078,0.08419168,-0.16086343,9.772322,0
11,990.5748901367188,-4.760769661515951E-4,-6.068221991881728E-4,5.483313580043614E-4,1.2923409938812256,15.416481018066406,-12.520593643188477,-0.00854349136352539,0.0034797340631484985,0.05494976043701172,0.09610182,-0.16324577,9.758115,0
11,990.5693969726562,-2.093821531161666E-4,-2.0740987383760512E-4,1.4901990653015673E-4,1.7735519409179688,15.762161254882812,-13.307832717895508,-0.012708403170108795,0.013061493635177612,0.0502166748046875,0.084113,-0.17277792,9.755744,0
11,990.5693969726562,-2.093821531161666E-4,-2.0740987383760512E-4,1.4901990653015673E-4,1.7735519409179688,15.762161254882812,-13.307832717895508,0.0070645809173583984,0.013641908764839172,0.05495738983154297,0.081683815,-0.16562715,9.765208,0
11,990.5645751953125,1.9047071691602468E-4,-4.737872804980725E-4,-1.1713348794728518E-4,1.6068081855773926,16.501367568969727,-13.017454147338867,-0.011133857071399689,-0.008647367358207703,0.031307220458984375,0.0792546,-0.1513265,9.762838,0
11,990.5645751953125,0.005117693450301886,-0.00406911363825202,-6.496029673144221E-4,1.2673163414001465,16.447240829467773,-13.577844619750977,0.0022153854370117188,0.00367012619972229,0.050223350524902344,0.07682538,-0.16085863,9.7581005,0
11,990.7244873046875,-0.001406666822731495,0.0013903009239584208,1.4950719196349382E-4,1.518625259399414,15.681243896484375,-12.878889083862305,-0.003687158226966858,0.0033689141273498535,0.05005455017089844,0.088137686,-0.16566819,9.753526,0
11,990.569580078125,-0.003936288878321648,3.2497590291313827E-4,-0.001048751873895526,1.1470651626586914,16.702526092529297,-12.188535690307617,0.01652040332555771,-0.004451155662536621,0.05480480194091797,0.088169456,-0.15136927,9.774835,0
11,990.4806518554688,-3.5343924537301064E-4,-8.714302675798535E-4,-2.551250217948109E-4,1.7764577865600586,15.659191131591797,-12.763360977172852,-0.012367866933345795,-0.0044919997453689575,0.040599822998046875,0.09059107,-0.16090322,9.753531,0
11,990.518310546875,0.006433130241930485,-0.0035338611342012882,-1.2388918548822403E-4,1.45731782913208,15.676225662231445,-12.407243728637695,-0.008137799799442291,0.012840941548347473,0.03583812713623047,0.07867327,-0.16328722,9.76537,0
11,990.5541381835938,-0.0014237990835681558,-3.379711415618658E-4,-2.5730920606292784E-4,1.5791137218475342,15.842718124389648,-12.050832748413086,-0.00328894704580307,-0.010810419917106628,0.04057121276855469,0.08587468,-0.16567132,9.774843,0
11,990.4859619140625,-9.252514428226277E-5,-3.379214904271066E-4,4.0834955871105194E-4,1.7422711849212646,15.468852996826172,-12.285051345825195,-0.012383565306663513,0.0036522597074508667,0.054770469665527344,0.09068626,-0.15852225,9.755908,0
11,990.5435791015625,7.061163196340203E-4,-6.041877204552293E-4,-9.233609307557344E-4,1.8657262325286865,15.742733001708984,-12.705022811889648,0.006678052246570587,-0.010465025901794434,0.04530143737792969,0.085938126,-0.15375647,9.758278,0
11,990.5466918945312,4.0020917367655784E-5,1.9480957416817546E-4,-1.245443127118051E-4,1.8128705024719238,16.008930206298828,-12.096582412719727,-0.002837568521499634,0.02254733443260193,0.03108978271484375,0.085969865,-0.17759004,9.76775,0
12,990.5442504882812,3.9714745071250945E-5,-3.377725661266595E-4,-1.2467536726035178E-4,1.4713139533996582,16.32162094116211,-12.678117752075195,-0.012243762612342834,0.0035135596990585327,0.05949211120605469,0.09078139,-0.16567442,9.758284,0
12,990.5518188476562,-4.932227311655879E-4,1.9490884733386338E-4,-6.574381841346622E-4,1.4938685894012451,16.131881713867188,-12.439538955688477,0.011420533061027527,-0.0010861307382583618,0.04055595397949219,0.074083835,-0.1656752,9.758286,0
12,990.5594482421875,3.054194385185838E-4,-7.135742635000497E-5,-0.001057043089531362,1.3288912773132324,15.872133255004883,-12.552888870239258,-0.002979777753353119,0.008357971906661987,0.05948925018310547,0.09084481,-0.16329268,9.75829,0
12,990.5465087890625,3.051139647141099E-4,-3.376237000338733E-4,-3.913843829650432E-4,1.6386010646820068,15.214122772216797,-12.87004280090332,-0.02188403159379959,-0.010371804237365723,0.050019264221191406,0.08609676,-0.15137711,9.755925,0
12,990.5614624023438,4.379658494144678E-4,-7.125810952857137E-5,-5.246734945103526E-4,1.5180821418762207,16.04953384399414,-12.97734260559082,0.006879039108753204,0.003948956727981567,0.031080245971679688,0.07656887,-0.16567749,9.760663,0
12,990.5665893554688,7.039759075269103E-4,-6.038403371348977E-4,1.4098529936745763E-4,1.9002118110656738,16.565208435058594,-12.758462905883789,-0.002589091658592224,-0.010165274143218994,0.06421947479248047,0.083770335,-0.16329506,9.74883,0
12,990.5621337890625,-3.615935565903783E-4,3.283149271737784E-4,2.7401221450418234E-4,1.5334632396697998,16.59048080444336,-12.626443862915039,-0.0026934444904327393,-0.005145758390426636,0.04055023193359375,0.09097171,-0.1632958,9.774871,0
12,990.5846557617188,5.70206088013947E-4,-7.110922888386995E-5,1.4072321937419474E-4,1.5365066528320312,16.593429565429688,-12.78105354309082,-0.017056427896022797,-0.005197584629058838,0.05948448181152344,0.10295302,-0.14899689,9.760671,0
12,990.594482421875,1.7042679246515036E-4,-6.036914419382811E-4,-2.5888162781484425E-4,1.4908246994018555,16.128934860229492,-12.284929275512695,0.011986501514911652,-0.004897698760032654,0.05474567413330078,0.071915984,-0.16329736,9.760674,0
12,990.5567016601562,8.359110215678811E-4,-4.7048379201442003E-4,-1.2585474178195E-4,1.6913728713989258,16.47457504272461,-12.028116226196289,-0.0021857023239135742,0.009143278002738953,0.050004005432128906,0.08867699,-0.16091487,9.772513,0
12,990.5665893554688,-4.959740908816457E-4,-3.3727625850588083E-4,-2.591436787042767E-4,2.4049248695373535,15.878652572631836,-12.411142349243164,0.017069242894649506,0.009202420711517334,0.05946922302246094,0.08631885,-0.1728321,9.758313,0
12,990.5919799804688,1.695094397291541E-4,-4.703845188487321E-4,-1.2611685087904334E-4,1.8801283836364746,15.913921356201172,-12.178369522094727,-0.01146940141916275,0.00936676561832428,0.05946826934814453,0.08874047,-0.16091639,9.755948,0
12,990.5742797851562,5.68677787669003E-4,-2.04019044758752E-4,-1.2624781811609864E-4,1.5816154479980469,16.213951110839844,-12.303895950317383,0.0027978643774986267,0.009376883506774902,0.049996376037597656,0.08399239,-0.15853393,9.751218,0
12,990.5590209960938,3.5740558814723045E-5,1.955044863279909E-4,2.730948617681861E-4,1.6519169807434082,16.121891021728516,-12.540292739868164,0.012270800769329071,0.013939917087554932,0.04998970031738281,0.07685441,-0.16806784,9.760689,0
12,990.57177734375,-7.63512565754354E-4,1.9555407925508916E-4,8.055957150645554E-4,1.8791799545288086,16.75641632080078,-13.074350357055664,-0.011448599398136139,-0.014715194702148438,0.0689229965209961,0.08644575,-0.16091874,9.74649,0
12,990.5869140625,1.68286613188684E-4,-8.696598233655095E-4,2.728328399825841E-4,1.5521323680877686,16.13395118713379,-12.756570816040039,-0.006880372762680054,-0.014489710330963135,0.04998779296875,0.07691783,-0.156153,9.7654295,0
12,990.569091796875,-6.309665041044354E-4,7.282850565388799E-4,-2.5992983137257397E-4,1.6705858707427979,15.66535758972168,-12.670427322387695,0.011609360575675964,-0.00969742238521576,0.045256614685058594,0.08358261,-0.14660746,9.763015,0
12,990.5668334960938,4.352710675448179E-4,0.0013939166674390435,-6.589861586689949E-4,1.5290350914001465,16.69198226928711,-13.093606948852539,0.007780797779560089,9.232759475708008E-5,0.05482769012451172,0.07826555,-0.15374413,9.753497,0
12,990.578857421875,5.773180164396763E-4,4.603680281434208E-4,1.0613090125843883E-5,1.9609451293945312,15.726249694824219,-12.25682258605957,0.01697971671819687,0.01911376416683197,0.04536247253417969,0.075864255,-0.16566023,9.758231,0
12,990.5740356445312,5.867411382496357E-4,2.895273210015148E-4,-4.656212986446917E-4,1.2800583839416504,16.511035919189453,-12.274808883666992,0.0029615238308906555,-0.01411527395248413,0.054831504821777344,0.071072996,-0.15851009,9.746394,0
12,990.5589599609375,1.8737741629593074E-4,-7.757541607134044E-4,2.0021555246785283E-4,1.5039794445037842,16.510480880737305,-13.079126358032227,-0.001868218183517456,-0.009332463145256042,0.05009746551513672,0.078231335,-0.1632764,9.765331,0
12,990.5869140625,-7.882868521846831E-5,-2.4314018082804978E-4,-1.9921123748645186E-4,1.7684431076049805,16.12602996826172,-13.174367904663086,0.007635265588760376,2.8176605701446533E-4,0.031164169311523438,0.07821989,-0.1751925,9.774798,0
12,990.5869140625,-7.882868521846831E-5,-2.4314018082804978E-4,-1.9921123748645186E-4,1.812464952468872,16.483135223388672,-12.894109725952148,0.007659658789634705,-0.008974432945251465,0.05957794189453125,0.080598384,-0.15135944,9.748757,0
12,990.5664672851562,0.0012529708910733461,2.8945584199391305E-4,8.661466417834163E-4,1.5540900230407715,16.873477935791016,-13.108087539672852,0.026705928146839142,-0.004051268100738525,0.04064369201660156,0.06863749,-0.15135917,9.7653265,0
12,990.5664672851562,0.0012529708910733461,2.8945584199391305E-4,8.661466417834163E-4,1.3824820518493652,16.97612762451172,-13.010663986206055,0.01233045756816864,-0.008893683552742004,0.03590869903564453,0.06623614,-0.1561254,9.7724285,0
13,990.569091796875,5.465917638503015E-5,1.562800898682326E-4,5.998779088258743E-4,1.4722938537597656,16.691383361816406,-12.853876113891602,0.007633604109287262,5.500167608261108E-4,0.040642738342285156,0.06861466,-0.16327497,9.762958,0
13,990.5488891601562,-3.447046328801662E-4,-1.1005366832250729E-4,-3.3218064345419407E-4,1.7692842483520508,16.389877319335938,-12.651044845581055,-0.002082422375679016,8.698403835296631E-4,0.035915374755859375,0.08055273,-0.15612492,9.767692,0
13,990.5360717773438,-4.777524445671588E-4,-2.4322947137989104E-4,-4.65291494037956E-4,1.4728364944458008,16.323091506958008,-12.755422592163086,0.007437646389007568,0.005608484148979187,0.054854393005371094,0.07098174,-0.16089115,9.76769,0
13,990.5913696289062,5.876210052520037E-4,1.5622656792402267E-4,-7.315601105801761E-4,1.428133487701416,16.228361129760742,-12.435056686401367,0.011869743466377258,-0.003886014223098755,0.050124168395996094,0.07814005,-0.15374103,9.748752,0
13,990.5664672851562,5.509910988621414E-5,-1.1010721937054768E-4,7.33224384021014E-4,1.5506095886230469,16.132476806640625,-12.679269790649414,0.011956848204135895,0.010479167103767395,0.045391082763671875,0.0661791,-0.16327387,9.755853,0
13,990.5740356445312,-2.109967463184148E-4,-6.427747430279851E-4,-3.319449024274945E-4,1.6088733673095703,16.13454818725586,-12.996305465698242,-0.006932027637958527,-0.003833964467048645,0.05486011505126953,0.075727284,-0.15850702,9.762953,0
13,990.5865478515625,3.217451449017972E-4,-2.4331870372407138E-4,-4.6505575301125646E-4,1.6423797607421875,16.587257385253906,-12.873994827270508,0.0027200281620025635,0.0057867467403411865,0.04065895080566406,0.0852755,-0.15850678,9.765319,0
13,990.5735473632812,5.553915980271995E-5,2.2979314962867647E-5,-4.6500860480591655E-4,1.766240119934082,16.386932373046875,-12.496431350708008,0.0077180564403533936,-0.003833964467048645,0.05959510803222656,0.08048427,-0.1656563,9.758216,0
13,990.561279296875,5.564905586652458E-5,-3.765123547054827E-4,-1.9864551723003387E-4,1.7276251316070557,16.298091888427734,-12.485284805297852,0.002674609422683716,0.005604445934295654,0.035923004150390625,0.07330316,-0.16088948,9.765317,0
13,990.5460815429688,-4.7687257756479084E-4,2.8925950755365193E-4,3.340333350934088E-4,1.298865795135498,16.160423278808594,-13.10401725769043,0.007064715027809143,0.01036679744720459,0.04539680480957031,0.07090187,-0.17757219,9.75348,0
13,990.5684204101562,1.890270214062184E-4,8.218733128160238E-4,0.0011330281849950552,1.6628694534301758,16.76433563232422,-12.656557083129883,0.0022354647517204285,0.015036776661872864,0.04539680480957031,0.073280334,-0.17280534,9.774783,0
13,990.5585327148438,5.597897688858211E-5,4.2238173773512244E-4,-3.31662071403116E-4,1.419980525970459,16.58928680419922,-12.146982192993164,0.011292889714241028,0.010017290711402893,0.054866790771484375,0.078048766,-0.15373877,9.760579,0
13,990.5659790039062,-6.097005680203438E-4,8.218376897275448E-4,2.0101683912798762E-4,1.707977056503296,16.38486099243164,-12.17939567565918,0.016354694962501526,5.675256252288818E-4,0.031194686889648438,0.073257536,-0.16565496,9.76768,0
13,990.5784912109375,4.556728235911578E-4,-9.092334075830877E-4,4.6737981028854847E-4,1.766240119934082,16.386932373046875,-12.496438980102539,0.008365660905838013,0.011968478560447693,0.03594684600830078,0.08280569,-0.16088805,9.767679,0
13,990.6036376953125,0.005249468609690666,-0.0037055681459605694,6.795307854190469E-5,1.8660244941711426,16.37487030029297,-12.280153274536133,0.01706453412771225,0.010584652423858643,0.06907463073730469,0.07323471,-0.15850452,9.74874,0
13,990.6575317382812,-0.003938319161534309,0.0020202056039124727,6.006320472806692E-4,1.57857084274292,16.21100616455078,-12.149282455444336,-0.011711359024047852,0.005810365080833435,0.04540443420410156,0.082782865,-0.16088757,9.760575,0
13,990.4970703125,-6.092607509344816E-4,1.559765951242298E-4,-4.645843873731792E-4,1.489302635192871,16.12746238708496,-12.207620620727539,0.016752958297729492,-0.0038975179195404053,0.06435394287109375,0.06352517,-0.15611756,9.748727,0
13,990.5528564453125,5.724673974327743E-5,0.0012211236171424389,-5.974346422590315E-4,1.935783863067627,16.651098251342773,-12.614999771118164,-0.0014517828822135925,0.0027517229318618774,0.04070758819580078,0.089797586,-0.15850043,9.765296,0
13,990.6038208007812,0.003919581416994333,-0.0023742634803056717,-7.302690646611154E-4,1.729444980621338,16.93170166015625,-12.137720108032227,0.002564750611782074,0.010738223791122437,0.05962657928466797,0.08261138,-0.16803315,9.753458,0
13,990.6444702148438,-0.002871314063668251,0.0016204490093514323,7.345363264903426E-4,1.9248316287994385,16.008649826049805,-12.498735427856445,0.0024726316332817078,0.005760490894317627,0.03122234344482422,0.077815086,-0.170416,9.77476,0
13,990.52490234375,-4.7431225539185107E-4,5.551596987061203E-4,6.014464888721704E-4,1.7405047416687012,16.46780776977539,-11.881326675415039,-0.007035508751869202,8.413344621658325E-4,0.0501556396484375,0.08257842,-0.15849927,9.755822,0
13,990.5452270507812,-0.0014062589034438133,-9.096034918911755E-4,-5.969068151898682E-4,1.3532662391662598,16.31600570678711,-11.966737747192383,0.0029116198420524597,4.669874906539917E-4,0.06435298919677734,0.07300231,-0.15849885,9.753453,0
13,990.5753784179688,5.879622767679393E-5,-2.4386527366004884E-4,-9.962443727999926E-4,1.3273687362670898,15.870662689208984,-12.475580215454102,-0.011390134692192078,5.800575017929077E-4,0.035948753356933594,0.07776564,-0.15373185,9.767655,0
13,990.5753784179688,5.879622767679393E-5,-2.4386527366004884E-4,-9.962443727999926E-4,1.3273687362670898,15.870662689208984,-12.475580215454102,-0.0015825405716896057,0.0052878111600875854,0.040680885314941406,0.07296935,-0.16326454,9.765286,0
14,990.5452880859375,5.915870424360037E-4,-1.1073321365984157E-4,3.354031650815159E-4,1.6354506015777588,16.317520141601562,-13.088094711303711,-0.0018481388688087463,6.399303674697876E-4,0.04542255401611328,0.075342745,-0.16564742,9.765285,0
14,990.5804443359375,-6.06675399467349E-4,1.5555688878521323E-4,3.3547126804478467E-4,1.6833577156066895,16.941417694091797,-12.439126968383789,0.0025636479258537292,-0.009038403630256653,0.05962657928466797,0.07054645,-0.15849724,9.762916,0
14,990.5783081054688,-4.73358464660123E-4,6.881627487018704E-4,6.018553394824266E-4,1.1848392486572266,16.52751922607422,-12.723005294799805,0.011719636619091034,0.009898215532302856,0.059630393981933594,0.07530975,-0.16326332,9.760547,1
14,990.5523681640625,9.916966082528234E-4,-3.771522606257349E-4,2.0251769456081092E-4,1.5514512062072754,16.396324157714844,-12.155946731567383,-0.002529650926589966,0.010375186800956726,0.0501708984375,0.072903395,-0.15849641,9.767648,1
14,990.5523681640625,9.916966082528234E-4,-3.771522606257349E-4,2.0251769456081092E-4,1.5514512062072754,16.396324157714844,-12.155946731567383,0.0024344101548194885,0.010355830192565918,0.03596687316894531,0.08005658,-0.15849599,9.767646,1
14,990.5699462890625,1.929078425746411E-4,-6.434940733015537E-4,3.3574376720935106E-4,1.9211063385009766,16.26807975769043,-11.743501663208008,-0.002179771661758423,-0.003930076956748962,0.05963897705078125,0.082429975,-0.15611228,9.751074,1
14,990.56005859375,-7.390385726466775E-4,2.2269923647399992E-5,2.026539295911789E-4,1.4559571743011475,16.200971603393555,-11.205987930297852,0.002539798617362976,-0.004209458827972412,0.040699005126953125,0.07285389,-0.15134537,9.760542,1
14,990.5776977539062,-7.308987551368773E-5,-0.0010430194670334458,-6.359379040077329E-5,1.5996036529541016,16.019794464111328,-11.833398818969727,0.003021635115146637,-0.004052579402923584,0.0359649658203125,0.08239704,-0.16564456,9.770009,1
14,990.5726318359375,1.3759618741460145E-4,-3.6269708652980626E-4,-6.361384876072407E-4,1.5816152095794678,16.213951110839844,-12.303895950317383,0.012925565242767334,0.00522826611995697,0.03595924377441406,0.07282093,-0.16802749,9.765273,1
14,990.5726318359375,1.3759618741460145E-4,-3.6269708652980626E-4,-6.361384876072407E-4,1.5816152095794678,16.213951110839844,-12.303895950317383,0.01778522878885269,-0.004665553569793701,0.026485443115234375,0.068024606,-0.16326052,9.770005,1
14,990.544677734375,-3.9487655158154666E-4,-8.953546057455242E-4,8.286669617518783E-4,1.7928173542022705,16.569904327392578,-12.588220596313477,0.01217920333147049,-0.011031240224838257,0.054874420166015625,0.068008155,-0.15849355,9.767636,1
14,990.559326171875,-0.0011936654336750507,1.698830456007272E-4,0.0013613668270409107,2.5115015506744385,16.030412673950195,-11.281679153442383,0.02851138263940811,0.003750920295715332,0.03081989288330078,0.053652227,-0.19900888,9.777104,1
14,990.5318603515625,-0.01783824898302555,5.693310522474349E-4,0.0024266985710710287,1.689009666442871,16.20925521850586,-12.474138259887695,0.17157325148582458,4.990845918655396E-4,-0.17816734313964844,0.008227587,-0.14180976,10.252911,1
14,990.4886474609375,-0.054456524550914764,-0.028325965628027916,-0.015815872699022293,1.7079768180847168,16.38486099243164,-12.17939567565918,0.16858503222465515,-0.15600401163101196,-0.7150449752807617,0.49575108,-0.33723828,10.115611,1
14,990.4703369140625,-0.11704059690237045,-0.1769302636384964,-0.10569741576910019,0.6170215606689453,16.99574851989746,-11.12321662902832,0.17385196685791016,-0.010887384414672852,0.4034605026245117,1.3226407,-0.7137959,9.289456,1
14,990.5388793945312,-0.6308967471122742,-2.0892114639282227,0.09577067941427231,-5.08555269241333,18.397979736328125,-9.171754837036133,0.05508387088775635,-0.09598731994628906,-0.1918010711669922,2.1614795,-0.8281927,9.703715,1
14,990.516357421875,-0.47736549377441406,-1.664570689201355,0.0911102294921875,-6.913593769073486,19.424766540527344,-7.795381546020508,-0.36655688285827637,0.002692580223083496,-0.10593128204345703,2.5583434,-1.09274,9.556962,1
14,990.5770874023438,-0.8364923596382141,-0.8744117617607117,-0.01821237988770008,-8.248523712158203,20.597187042236328,-6.42652702331543,0.23899483680725098,-0.1450413465499878,-0.16312789916992188,2.9313173,-1.4550022,9.220832,1
14,990.6253051757812,-0.9548723101615906,-1.0001122951507568,0.1516960859298706,-9.417932510375977,21.661060333251953,-4.84587287902832,0.021516084671020508,-0.08355259895324707,0.1877422332763672,2.7568507,-1.7266958,8.936769,1
14,990.6555786132812,-0.9062699675559998,0.05476491153240204,0.4273328483104706,-8.776992797851562,22.524444580078125,-4.687223434448242,0.09860992431640625,-0.17710232734680176,0.4578561782836914,2.6277924,-2.2367172,8.941502,1
14,990.6272583007812,-0.5849598050117493,1.4883434772491455,0.5120213627815247,-6.485109806060791,23.72207260131836,-4.648565292358398,0.41781365871429443,-0.27707719802856445,-0.28446483612060547,1.0241644,-2.1771352,9.566443,1
14,990.596923828125,-0.5159839391708374,1.7912777662277222,0.6913851499557495,-3.4093422889709473,25.443981170654297,-6.301065444946289,-0.7085529565811157,0.4871542453765869,0.19984912872314453,1.4184945,-3.3544745,9.147449,1
14,990.53857421875,-0.5551323294639587,1.6799577474594116,0.5775351524353027,-1.5145344734191895,26.323036193847656,-7.106393814086914,-0.30971211194992065,-0.18422842025756836,0.057094573974609375,0.8544738,-2.8754356,9.270541,1
14,990.5101928710938,-0.5596596598625183,0.9173620343208313,0.14703546464443207,-0.1572718620300293,26.381614685058594,-6.087221145629883,0.4791263937950134,0.13408422470092773,0.5022010803222656,-0.2568344,-3.4569554,9.235034,1
14,990.6144409179688,-0.384823203086853,0.4841992259025574,0.2960391938686371,0.8209357261657715,27.13971710205078,-6.513271331787109,0.6845723986625671,1.2419586181640625,-2.0286903381347656,-0.048916787,-3.633318,11.95258,1
15,991.0238647460938,-0.5438138246536255,0.7213534712791443,0.7049672603607178,2.575546979904175,27.728694915771484,-6.048269271850586,-0.39591169357299805,-1.3565056324005127,-2.3984575271606445,-0.24967232,-2.5346265,10.705066,1
15,990.8201904296875,0.8247835636138916,1.001251459121704,0.4596903324127197,3.9446635246276855,26.746612548828125,-7.895437240600586,-0.08921915292739868,0.3824009895324707,-0.03558826446533203,-0.30703378,-1.9030576,9.038554,1
15,990.7617797851562,1.743972897529602,0.10549803823232651,0.3070913255214691,3.6001474857330322,25.529708862304688,-9.772733688354492,-0.5764786005020142,-1.808249592781067,1.6749153137207031,0.032328486,-0.98072886,8.740287,1
15,990.6829223632812,0.9807115793228149,-0.5831948518753052,-0.20996087789535522,2.89621639251709,24.133617401123047,-10.506380081176758,0.04790891706943512,0.08846473693847656,-1.4094018936157227,-0.23056453,-1.7481444,11.334741,1
15,990.6803588867188,0.3691171705722809,-0.8010412454605103,-0.35483676195144653,0.7819228172302246,23.945571899414062,-11.324338912963867,0.4653535783290863,-0.10717189311981201,-2.729731559753418,-0.48389792,-1.7243116,12.40945,1
15,990.6392822265625,0.3020056486129761,-0.1701389104127884,-0.2612266540527344,-0.6108040809631348,22.69476318359375,-12.114313125610352,0.4405251145362854,0.33673322200775146,-0.4070310592651367,-0.47434214,-1.738611,9.838668,1
15,990.448974609375,0.6657931804656982,0.38193389773368835,-0.04644289240241051,-0.5868878364562988,21.98027801513672,-13.076990127563477,0.4577093720436096,0.4718118906021118,-0.9433383941650391,-0.29510328,-1.4407012,11.041205,1
15,990.4838256835938,0.9499521851539612,-0.3453747630119324,0.09616927802562714,-0.9596409797668457,20.473018646240234,-14.086118698120117,-0.39606261253356934,-0.15646541118621826,-0.5896339416503906,0.3740654,-0.6804352,10.172442,1
15,990.4660034179688,0.9189264178276062,-0.05402519926428795,0.14503824710845947,-1.5817761421203613,19.259017944335938,-15.073976516723633,-0.0022198930382728577,0.292153537273407,-0.9341554641723633,0.18047956,-0.60178685,10.69086,1
15,990.4710693359375,0.6860332489013672,-0.14270839095115662,0.14091037213802338,-1.3782367706298828,17.975040435791016,-15.72307014465332,-0.24022474884986877,-0.27603599429130554,-0.09946727752685547,0.223494,-0.20854592,10.080121,1
15,990.4508056640625,0.6685895323753357,-0.328730046749115,0.023065611720085144,-2.134045124053955,17.21490478515625,-16.024030685424805,0.13900041580200195,1.1527436971664429,-2.48846435546875,0.3883934,-0.82104826,12.572783,1
15,990.5575561523438,0.534765899181366,-0.3222053050994873,0.04676774516701698,-3.096052646636963,16.841289520263672,-16.546789169311523,-0.3000226318836212,-0.2997116446495056,-0.6145076751708984,0.013174981,0.48737162,9.883641,1
15,990.4889526367188,0.788698136806488,0.7877992987632751,0.017872482538223267,-2.7498459815979004,15.006370544433594,-17.647531509399414,0.7009376883506775,-0.07150411605834961,-0.5726079940795898,-0.5484558,0.63036835,10.768975,1
15,990.501220703125,1.0512856245040894,-0.2736026644706726,-0.08492543548345566,-2.6557679176330566,14.093908309936523,-18.14752769470215,0.8982120752334595,1.327800989151001,-2.0581064224243164,-0.7874497,-0.10606459,11.427058,1
15,990.5340576171875,1.418002724647522,-0.21221686899662018,-0.05549750104546547,-2.9369421005249023,11.30294418334961,-19.403589248657227,1.160061001777649,0.9515024423599243,-0.8187503814697266,-0.8400314,0.96402764,10.437568,1
15,990.4987182617188,1.506952166557312,0.08019796013832092,0.26940786838531494,-3.148197650909424,9.314430236816406,-19.870553970336914,1.0818471908569336,0.9774055480957031,-0.00879669189453125,-0.96669996,1.3834846,9.398364,1
15,990.4987182617188,1.506952166557312,0.08019796013832092,0.26940786838531494,-3.525516986846924,7.8027496337890625,-20.647768020629883,1.010875940322876,0.8225972652435303,0.927952766418457,-0.9714836,2.0412695,8.505929,1
15,990.4828491210938,1.3370428085327148,0.28739169239997864,0.4747374355792999,-3.162163734436035,5.50982666015625,-21.801340103149414,0.8729900121688843,0.9530670642852783,0.5577764511108398,-0.25929666,2.4821763,8.442014,1
15,990.45458984375,1.3048185110092163,-0.28066009283065796,0.5204105973243713,-3.270781993865967,1.7737150192260742,-22.258852005004883,0.7743828892707825,0.5347297191619873,1.5392842292785645,-0.14458519,3.2424421,7.528273,1
15,990.45458984375,1.3048185110092163,-0.28066009283065796,0.5204105973243713,-3.270781993865967,1.7737150192260742,-22.258852005004883,0.8363553881645203,0.4843158721923828,0.6266317367553711,-0.3477306,3.2948742,8.898883,1
15,990.3809814453125,0.8472878932952881,0.1377221792936325,0.3871195316314697,-2.8778910636901855,1.1933555603027344,-22.20844841003418,0.11086484789848328,0.6734902858734131,-0.1084146499633789,0.027480125,3.34969,8.853906,1
15,990.3885498046875,0.16725033521652222,0.5065696835517883,0.41268590092658997,-2.1265645027160645,0.4224262237548828,-23.125940322875977,0.14980703592300415,0.23520922660827637,0.8445730209350586,-0.21629363,4.0384574,8.141377,1
15,990.4647827148438,0.47018471360206604,0.3290700912475586,0.3365195691585541,-1.1301250457763672,-0.014050483703613281,-23.40791893005371,0.6487883925437927,-0.0014567375183105469,-0.9876365661621094,-1.0384238,3.3592231,10.735831,1
15,990.4566040039062,0.20613250136375427,0.4414553642272949,0.1494326889514923,-0.804598331451416,0.6069393157958984,-23.648386001586914,1.4291996955871582,1.518068790435791,-1.4043807983398438,-1.95376,2.5274591,9.968858,1
15,990.5253295898438,0.011056223884224892,0.8989860415458679,0.1092190220952034,2.231680154800415,0.7639026641845703,-24.741323471069336,0.9609602093696594,0.682603120803833,-0.14026165008544922,-1.7988284,3.1661878,9.395957,1
16,990.4920654296875,0.12304209172725677,0.9485207796096802,0.670213520526886,3.689408302307129,0.5480403900146484,-24.10650062561035,0.37839001417160034,-0.09038877487182617,-1.8864974975585938,-1.3929756,3.9884293,10.158156,1
16,990.4717407226562,0.2849656045436859,0.44438716769218445,0.8892645835876465,4.2694244384765625,0.5118961334228516,-24.501699447631836,0.2825338840484619,0.28545331954956055,-1.8745174407958984,-1.3738848,3.661921,10.33096,1
16,990.514892578125,0.44981542229652405,0.7043114304542542,0.8138972520828247,6.480000019073486,-0.4734225273132324,-24.861665725708008,1.0355370044708252,0.8878161907196045,-0.7931404113769531,-1.7347885,3.7715526,9.698914,1
16,990.4866943359375,0.8652684688568115,0.6053749918937683,0.8988522291183472,7.475706100463867,-2.2800893783569336,-25.294313430786133,0.09482121467590332,0.7985048294067383,-0.9111499786376953,-1.2544467,4.05993,8.957977,1
16,990.4666137695312,1.2911078929901123,0.6463875770568848,0.908572793006897,8.658943176269531,-4.016751289367676,-25.375024795532227,0.698650598526001,1.2133994102478027,0.21053647994995117,-1.7993728,4.1195126,7.6938877,1
16,990.4278564453125,1.0805853605270386,0.9884702563285828,0.9866034388542175,10.268280029296875,-6.513197422027588,-25.707895278930664,0.39959871768951416,1.0430316925048828,1.3790326118469238,-1.5078332,4.7391653,6.4629397,1
16,990.38720703125,0.8231914043426514,0.7750181555747986,1.0302793979644775,11.335968017578125,-7.884232997894287,-25.330293655395508,0.9096057415008545,1.5060043334960938,0.6764912605285645,-1.8950258,4.4007406,7.4595294,1
16,990.3495483398438,0.6562115550041199,0.371549516916275,0.9241526126861572,11.473634719848633,-9.177650451660156,-25.275819778442383,0.08899462223052979,1.4926676750183105,-0.7608985900878906,-0.99167144,4.8464146,8.306987,1
16,990.4351806640625,0.7614066004753113,0.365291029214859,1.0204259157180786,12.071884155273438,-10.408376693725586,-25.526945114135742,0.1494044065475464,1.25030517578125,-0.5568180084228516,-0.93434227,5.4327016,7.4476886,1
16,990.4580688476562,0.9353111982345581,0.8807453513145447,0.9897996783256531,12.97500228881836,-12.513364791870117,-24.46516227722168,-0.3518734574317932,0.9313163757324219,0.6457467079162598,-0.58544505,5.8426266,6.193069,1
16,990.4198608398438,0.9715304374694824,1.0205612182617188,0.835869312286377,14.207233428955078,-14.362710952758789,-23.70000648498535,-0.39579224586486816,0.9237480163574219,0.5568814277648926,-0.6810696,6.271617,6.3161607,1
16,990.3893432617188,0.9574159383773804,0.8637010455131531,0.6465188264846802,15.381772994995117,-15.370149612426758,-23.591093063354492,-0.2634686231613159,0.8706426620483398,0.057633399963378906,-0.9224782,6.4932623,6.1338835,1
16,990.4147338867188,0.7811151146888733,1.2107106447219849,0.5177551507949829,16.66191291809082,-16.595598220825195,-22.176965713500977,-0.3117465376853943,0.9183735847473145,0.6011819839477539,-0.87470865,6.7149086,5.3361335,1
16,990.4326171875,0.7554159164428711,1.3543881177902222,0.5443869233131409,18.866943359375,-17.955102920532227,-22.1292667388916,-0.6998118162155151,0.9376869201660156,0.20474481582641602,-0.8675674,6.722059,5.9160953,1
16,990.41943359375,0.6370388269424438,1.2445327043533325,0.5003117322921753,20.847211837768555,-19.577892303466797,-21.800569534301758,-0.6876861453056335,1.130366325378418,0.16708707809448242,-0.7409311,7.1438994,4.978681,1
16,990.4573974609375,0.7897711992263794,1.2482609748840332,0.5826035141944885,22.334774017333984,-21.820528030395508,-20.666826248168945,-0.8845871686935425,0.38367748260498047,0.9194860458374023,-0.7314,7.89225,4.3276973,1
16,990.4446411132812,0.5787161588668823,0.892462968826294,0.4551714062690735,23.534095764160156,-22.858306884765625,-19.17424201965332,0.05132746696472168,1.1533751487731934,0.02894878387451172,-2.036315,6.8150086,5.0023475,1
16,990.4569091796875,0.18976208567619324,0.7917954325675964,0.3085646331310272,24.233949661254883,-23.46748161315918,-18.861520767211914,0.055744290351867676,1.3394899368286133,-0.19781875610351562,-1.3958497,7.067637,5.364527,1
16,990.45947265625,0.21945685148239136,0.7980538010597229,0.9245535135269165,25.14236831665039,-24.197866439819336,-17.8809871673584,-1.0488653182983398,0.6861152648925781,-0.8474984169006348,-0.5880913,7.601492,5.71487,1
16,990.45947265625,0.21945685148239136,0.7980538010597229,0.9245535135269165,25.14236831665039,-24.197866439819336,-17.8809871673584,-1.0538424253463745,0.5188150405883789,-0.35668230056762695,-0.40648726,8.025716,4.6851344,1
16,990.4439697265625,0.3783145844936371,0.8587737679481506,0.7722209692001343,25.17804527282715,-25.218313217163086,-17.364870071411133,-0.707628607749939,0.5510034561157227,0.4926567077636719,-0.6909141,7.9089365,4.311114,1
16,990.43896484375,0.1640637069940567,0.7546442151069641,0.5640951991081238,25.470333099365234,-25.630157470703125,-16.231046676635742,-0.32722747325897217,0.8550572395324707,0.05648946762084961,-0.7459103,7.7564077,4.576238,1
16,990.4491577148438,-0.015299773775041103,0.7336052656173706,0.5827374458312988,26.419570922851562,-26.53260040283203,-15.939592361450195,-0.7539837956428528,0.6910181045532227,-0.5853977203369141,-0.35399488,7.9589868,5.130161,1
16,990.4310913085938,-0.12795111536979675,0.8759510517120361,0.6639639139175415,26.22374725341797,-26.347604751586914,-15.30436897277832,-1.2434335947036743,0.4553661346435547,-0.1220545768737793,0.36772698,8.271196,4.6425147,1
17,990.4412231445312,-0.03460711985826492,0.8598389029502869,0.6465203166007996,27.16497039794922,-26.783206939697266,-15.423917770385742,-1.5101896524429321,0.39301395416259766,0.0325160026550293,0.37344277,8.178226,4.4532237,1
17,990.4412231445312,-0.03460711985826492,0.8598389029502869,0.6465203166007996,27.812074661254883,-28.232528686523438,-14.130094528198242,-1.3139643669128418,0.5165596008300781,-0.3216366767883301,0.6004936,8.216358,5.258074,1
17,990.4356079101562,-0.06536980718374252,0.689130961894989,0.5065699815750122,28.283472061157227,-27.63331413269043,-13.852876663208008,-1.8430752754211426,0.07702350616455078,-1.2763934135437012,1.104773,8.619132,5.7575545,1
17,990.4482421875,-0.15845295786857605,0.4542413055896759,0.556901216506958,28.281408309936523,-27.266498565673828,-13.874021530151367,-1.869158387184143,-0.20051956176757812,-0.23608827590942383,0.99723756,8.745444,4.732557,1
17,990.473388671875,-0.10052935779094696,0.619223952293396,0.590323805809021,28.362224578857422,-27.45416259765625,-13.952478408813477,-1.6397888660430908,0.01639270782470703,-0.5471463203430176,0.8514637,8.607215,5.3243585,1
17,990.4810791015625,-0.14140893518924713,0.8855398297309875,0.44864368438720703,29.028873443603516,-27.88391876220703,-13.337202072143555,-1.518646001815796,-0.08677005767822266,-0.4071769714355469,0.5957544,8.678714,4.8793254,1
17,990.4454956054688,-0.2585880160331726,0.7866035103797913,0.3419841229915619,29.92538833618164,-28.41425323486328,-13.136384963989258,-1.1787015199661255,-0.2931194305419922,0.3496270179748535,0.48104924,8.831243,4.98585,1
17,990.4508056640625,-0.10106229037046432,0.6566413640975952,0.2562303841114044,30.365482330322266,-28.528640747070312,-13.65941047668457,-1.646620512008667,-0.04212760925292969,-2.544280529022217,0.4452108,8.602448,6.0771313,1
17,990.4730834960938,0.057661786675453186,0.5606345534324646,0.10922393947839737,31.28363037109375,-27.985912322998047,-12.292966842651367,-0.6506974697113037,-0.7973365783691406,2.2189791202545166,-0.18093331,8.962322,3.0139723,1
17,990.488037109375,0.12557224929332733,0.15170656144618988,0.025867024436593056,31.263141632080078,-28.162994384765625,-12.510400772094727,-1.021763801574707,-0.3062715530395508,-0.376375675201416,0.16083276,8.638197,4.9077353,1
17,990.5316162109375,-0.53928542137146,-0.38345518708229065,0.06781173497438431,30.95395278930664,-28.2935791015625,-13.917814254760742,-0.8755725622177124,-0.4636964797973633,-0.8063960075378418,0.06285697,8.728761,6.1623535,1
17,990.4091796875,-0.47590240836143494,-0.5340569019317627,0.04956905543804169,30.29684066772461,-28.329193115234375,-14.199396133422852,-0.7423336505889893,-0.13287734985351562,-1.156569480895996,0.28034818,8.602447,5.946939,1
17,990.43896484375,-0.16191604733467102,-0.22499720752239227,0.13399115204811096,29.505516052246094,-27.542659759521484,-13.892526626586914,-0.861015796661377,-0.4492921829223633,0.001986980438232422,0.12501466,8.719227,4.9716525,1
17,990.421630859375,-0.19161036610603333,0.030266568064689636,0.07526845484972,29.554540634155273,-26.44308090209961,-14.118387222290039,-0.22361373901367188,-0.0059108734130859375,0.22000932693481445,-0.415093,8.202056,5.094748,1
17,990.4237060546875,-0.1910778284072876,-0.21034981310367584,-0.0347200483083725,29.317337036132812,-26.13803482055664,-14.71556282043457,-0.039458900690078735,0.2631263732910156,-0.37088632583618164,-0.31948677,8.039992,5.693651,1
17,990.4594116210938,-0.13568422198295593,-0.2658766508102417,-3.653412277344614E-4,28.756423950195312,-25.82036590576172,-14.724695205688477,-0.31701546907424927,-0.010989189147949219,-0.322843074798584,-0.13784409,8.116257,5.485338,1
17,990.4619750976562,-0.048599034547805786,-0.10622025281190872,-0.04430750384926796,28.719032287597656,-26.539865493774414,-15.215723037719727,-0.11569815874099731,0.31564807891845703,0.310213565826416,-0.27405837,8.025692,5.2699237,1
17,990.4390869140625,-0.06577650457620621,-0.09130656719207764,-0.056158602237701416,28.344266891479492,-26.04775047302246,-15.494707107543945,-0.4662422835826874,0.34827089309692383,-0.6597890853881836,-0.006379187,7.792131,5.7457323,1
17,990.4769287109375,0.07057712227106094,-0.164277121424675,-0.0633491724729538,28.618568420410156,-26.26543617248535,-14.831384658813477,-0.35993459820747375,0.5183486938476562,0.2689676284790039,-0.020708442,7.7778306,4.966924,1
17,990.4891967773438,0.045010700821876526,-0.19503659009933472,0.012683969922363758,28.111595153808594,-26.950538635253906,-15.252058029174805,-0.4957561194896698,0.3552370071411133,0.41496753692626953,0.3282274,7.9970922,5.0829177,1
17,990.45654296875,-0.18335527181625366,-0.32672974467277527,0.08658658713102341,27.213014602661133,-26.053394317626953,-15.474023818969727,-0.9775979518890381,0.07024288177490234,-0.6536240577697754,0.74886024,8.013775,5.98719,1
17,990.4534912109375,-0.21611222624778748,-0.30489182472229004,0.02946178987622261,26.920047760009766,-25.37917709350586,-16.007219314575195,-0.696856677532196,0.35648298263549805,0.27087926864624023,0.43579322,7.7516136,5.0687165,1
17,990.4357299804688,-0.048599619418382645,-0.24057653546333313,-0.08145881444215775,26.76990509033203,-24.72968292236328,-15.868120193481445,-0.32779553532600403,0.429229736328125,0.07426881790161133,0.2087627,7.703948,5.3007035,0
17,990.4457397460938,-0.1440739631652832,-0.3436407744884491,-0.0890488550066948,27.09621810913086,-25.477405548095703,-16.336557388305664,-0.322654128074646,0.6018614768981934,-0.05727195739746094,0.16575456,7.5561843,5.639214,0
17,990.4179077148438,-0.10465932637453079,-0.355225533246994,-0.1090225949883461,26.715068817138672,-25.623319625854492,-16.7311954498291,-0.20529906451702118,0.23864269256591797,-0.2832450866699219,0.21720296,7.980436,5.6533136,0
18,990.4559326171875,-0.07403308898210526,-0.18544912338256836,-0.08066000044345856,26.414875030517578,-25.850982666015625,-17.90336036682129,-0.43646690249443054,-0.3196563720703125,0.5407552719116211,0.35700822,8.480954,5.1347866,0
18,990.4505004882812,-0.1508520245552063,-0.14110569655895233,-0.12645404040813446,25.851898193359375,-25.1664981842041,-17.933645248413086,-0.23532310128211975,-0.704681396484375,0.1351776123046875,0.120325446,8.700217,5.672134,0
18,990.4861450195312,-0.3271495997905731,-0.17186576128005981,-0.1895693987607956,25.971904754638672,-24.42136001586914,-18.99653434753418,-0.0831107422709465,-0.5183525085449219,-0.4644932746887207,-0.037490577,8.297444,6.3302093,0
18,990.468017578125,-0.15444216132164001,-0.1046212688088417,-0.1044807955622673,25.403276443481445,-23.004714965820312,-18.99180793762207,-0.4544057846069336,-0.3099350929260254,-0.39669179916381836,0.22770607,8.187817,6.3278337,0
18,990.468017578125,-0.15444216132164001,-0.1046212688088417,-0.1044807955622673,25.403276443481445,-23.004714965820312,-18.99180793762207,-0.270551860332489,0.05228757858276367,-0.26113080978393555,0.029261708,7.651581,6.065067,0
18,990.503173828125,0.05528238043189049,-0.13298402726650238,-0.14775678515434265,25.451427459716797,-23.381244659423828,-18.669252395629883,-0.03803826868534088,0.32117223739624023,0.08600330352783203,-0.1142149,7.637283,5.5371733,0
18,990.4547119140625,0.04756001755595207,0.005500099156051874,-0.05454589053988457,25.380146026611328,-23.65894317626953,-18.257097244262695,-0.1850578933954239,-0.21286916732788086,1.0958685874938965,0.038656324,8.061509,4.940631,0
18,990.4375610351562,-0.10903292149305344,0.005100497510284185,-0.041895542293787,25.82013702392578,-22.6669921875,-19.152788162231445,-0.0973929613828659,0.21399497985839844,0.3582305908203125,-0.15500824,7.4752245,5.617643,0
18,990.467529296875,-0.2665579617023468,-0.07332965731620789,-0.11646365374326706,25.72782325744629,-22.753482818603516,-19.056520462036133,0.11044833064079285,0.4398989677429199,0.0039033889770507812,-0.34150308,7.2297487,6.249678,0
18,990.4596557617188,-0.24751558899879456,-0.17572824656963348,-0.03829959034919739,25.706249237060547,-22.193984985351562,-19.470853805541992,0.008413955569267273,0.4154071807861328,-0.4604310989379883,-0.040457934,7.503828,6.325422,0
18,990.4596557617188,-0.24751558899879456,-0.17572824656963348,-0.03829959034919739,25.35319709777832,-22.15545082092285,-20.034578323364258,0.22748887538909912,-0.2501688003540039,0.11976194381713867,-0.45638332,8.090116,6.081592,0
18,990.4800415039062,0.01507265493273735,-0.18478313088417053,0.062234990298748016,25.202077865600586,-21.875717163085938,-19.7197208404541,0.5479130148887634,-0.792320728302002,-0.44559240341186523,-0.49709415,8.607289,6.3798523,0
18,990.4644165039062,0.035313453525304794,-0.1909085065126419,-0.0031452160328626633,24.218355178833008,-21.795745849609375,-19.957735061645508,0.45159128308296204,-0.7783913612365723,0.10780811309814453,-0.61667174,8.2498,5.9584823,0
18,990.447021484375,-0.054034724831581116,-0.05042700842022896,0.01722828671336174,24.413360595703125,-21.824289321899414,-19.29325294494629,0.7361131906509399,0.027046680450439453,-0.18529462814331055,-0.769708,7.60155,6.429548,0
18,990.4542846679688,-0.12620551884174347,0.16209293901920319,-0.040428757667541504,24.969161987304688,-21.77808380126953,-19.150651931762695,0.16745370626449585,-0.08099651336669922,-0.327667236328125,0.018877149,7.706417,6.585776,0
18,990.479736328125,-0.2391226589679718,0.19351807236671448,0.11723057925701141,25.052913665771484,-20.856460571289062,-19.756372451782227,-0.4725435674190521,-0.15621137619018555,-0.7288298606872559,0.5445732,7.792217,6.8508945,0
18,990.4593505859375,-0.11235552281141281,0.14864371716976166,0.3502573072910309,25.32028579711914,-21.343883514404297,-19.307153701782227,-0.6252527236938477,-0.31119680404663086,-0.012174606323242188,0.6615958,7.944748,5.889803,0
18,990.4818725585938,0.18631935119628906,0.21788561344146729,0.24772639572620392,25.045551300048828,-21.864253997802734,-19.69626808166504,-0.33837851881980896,-0.18541288375854492,0.5619597434997559,0.32453716,7.787454,5.731193,0
18,990.44580078125,-0.002231513150036335,0.2272065132856369,0.07701824605464935,25.46281623840332,-22.000743865966797,-19.059724807739258,-0.15079380571842194,0.12491130828857422,-0.0548558235168457,0.0926342,7.4228144,6.263806,0
18,990.4431762695312,-0.15589497983455658,0.29325273633003235,0.022024357691407204,26.339824676513672,-22.338390350341797,-19.25209617614746,-0.04349828138947487,0.45790624618530273,-0.13147926330566406,-0.026943415,7.0748577,6.4579086,0
18,990.4736328125,-0.09530733525753021,0.20630046725273132,0.06383629888296127,26.391998291015625,-22.34221076965332,-19.259912490844727,0.048324890434741974,0.5694150924682617,-0.6617293357849121,-0.027025878,7.031961,6.7987785,0
18,990.4761352539062,0.02666614204645157,0.11016029864549637,0.2048509120941162,26.03079605102539,-21.942752838134766,-19.53556251525879,-0.12585027515888214,0.2942495346069336,-0.1931295394897461,0.27162933,7.45142,6.237744,0
18,990.47607421875,0.05409746989607811,0.1724780797958374,0.33800917863845825,26.057777404785156,-22.233991622924805,-18.82982063293457,-0.4526240825653076,-0.08554792404174805,0.09908151626586914,0.54877543,7.713583,6.221166,0
18,990.4581909179688,-0.03897913172841072,0.11974742263555527,0.29380103945732117,26.20226287841797,-22.151321411132812,-18.933908462524414,-0.41192933917045593,0.023158550262451172,-0.3670773506164551,0.47460604,7.4824066,6.552567,0
19,990.450439453125,-0.012346748262643814,0.0829956978559494,0.14200137555599213,26.51129150390625,-22.546953201293945,-18.650442123413086,-0.04767465591430664,0.3152165412902832,0.013901710510253906,0.09313929,7.2607393,6.0531716,0
19,990.4856567382812,0.03891509771347046,0.13852320611476898,0.059574905782938004,26.54091453552246,-22.361040115356445,-18.89683723449707,0.07111714780330658,0.2363572120666504,0.30954742431640625,0.041538924,7.3870287,5.894658,0
19,990.4678344726562,-0.022218365222215652,0.1057686060667038,0.07554786652326584,26.520126342773438,-23.170255661010742,-19.539140701293945,0.14418530464172363,0.1445450782775879,0.2611708641052246,-0.061229408,7.4656773,6.0201197,0
19,990.4754638671875,-0.03939571604132652,0.038390692323446274,0.05291103571653366,26.26329803466797,-22.358135223388672,-18.007402420043945,0.3684345483779907,0.09517574310302734,0.033338069915771484,-0.2739332,7.4966598,6.100604,0
19,990.4778442382812,-0.05271147936582565,0.04371700808405876,0.041193146258592606,26.537870407104492,-22.363985061645508,-18.74222755432129,0.43009066581726074,-0.04983854293823242,0.4886302947998047,-0.22613771,7.6968555,5.790501,0
19,990.4547119140625,-0.08387041836977005,0.010693833231925964,0.07288474589586258,26.29305648803711,-22.066303253173828,-18.952871322631836,0.059864744544029236,-0.26285648345947266,0.2101154327392578,0.10127634,7.734988,6.311285,0
19,990.4725341796875,-0.20344622433185577,-0.06920093297958374,0.028809476643800735,26.13652801513672,-22.054840087890625,-18.92942237854004,0.30116283893585205,0.0766606330871582,-0.4865074157714844,-0.09708807,7.389413,6.9125543,0
19,990.469482421875,-0.198785662651062,-0.03870776668190956,-0.0035478901118040085,26.03704261779785,-21.4106388092041,-18.720834732055664,0.1918756365776062,-0.05516338348388672,-0.2930917739868164,0.074982285,7.5419426,6.6639977,0
19,990.5028076171875,-0.058437179774045944,-0.0605456717312336,0.05477529391646385,25.729536056518555,-21.013530731201172,-19.081605911254883,-0.09058168530464172,-0.24913740158081055,-0.32578372955322266,0.30441034,7.6229734,6.862842,0
19,990.4669189453125,-0.07827768474817276,-0.0684020072221756,0.019088979810476303,25.937397003173828,-21.292665481567383,-19.636194229125977,-0.03558139503002167,-0.02770376205444336,-0.4768033027648926,0.23749053,7.413246,6.841537,0
19,990.4948120117188,-0.033403437584638596,-0.02632409706711769,-0.0373699814081192,26.319225311279297,-21.40912437438965,-19.842187881469727,0.04581518471240997,0.06805562973022461,-0.3959007263183594,0.16818088,7.2726326,6.8462715,0
19,990.4617919921875,-0.022750776261091232,-0.036310940980911255,-0.05454733967781067,26.18136978149414,-21.854190826416016,-19.948869705200195,0.06486733257770538,0.21158647537231445,-0.4033060073852539,0.17295817,7.2011337,6.841537,0
19,990.4716186523438,0.016397707164287567,-0.05948043242096901,-0.06346890330314636,26.143596649169922,-21.679182052612305,-19.414400100708008,-0.029236212372779846,0.21239757537841797,-0.28562402725219727,0.23748296,7.2082834,6.7634187,0
19,990.4716186523438,0.016397707164287567,-0.05948043242096901,-0.06346890330314636,26.143596649169922,-21.679182052612305,-19.414400100708008,0.10689197480678558,0.25466489791870117,-0.0486907958984375,0.051068068,7.1391687,6.403604,0
19,990.48681640625,0.02159089222550392,-0.04736306518316269,-0.07678469270467758,26.007152557373047,-21.016433715820312,-19.971044540405273,0.09811076521873474,0.1153106689453125,0.0811300277709961,0.07496458,7.3322144,6.4746194,0
19,990.4635620117188,-0.048583321273326874,-0.09143833816051483,-0.0492209829390049,25.566516876220703,-20.53375244140625,-19.546464920043945,0.08584794402122498,-0.048480987548828125,-0.18498992919921875,0.15143889,7.4537616,6.583511,0
19,990.4942016601562,-0.055906981229782104,-0.10821625590324402,-0.05947413668036461,26.187076568603516,-20.95378875732422,-19.23259162902832,-0.040238529443740845,-0.13591766357421875,0.0024814605712890625,0.23508292,7.4704447,6.595347,0
19,990.49365234375,-0.025413762778043747,-0.18664629757404327,-0.11007412523031235,25.143163681030273,-20.40315818786621,-19.87379264831543,0.09031310677528381,-0.20811700820922852,-0.04835653305053711,0.15621361,7.515727,6.621386,0
19,990.49365234375,-0.025413762778043747,-0.18664629757404327,-0.11007412523031235,25.143163681030273,-20.40315818786621,-19.87379264831543,0.03671620786190033,-0.17581558227539062,-0.18411684036254883,0.22790813,7.494277,6.777621,0
19,990.4406127929688,-0.04765111207962036,-0.20089419186115265,-0.11646570265293121,25.16433334350586,-20.488449096679688,-20.256982803344727,0.008354753255844116,-0.1065969467163086,-0.3712453842163086,0.28526324,7.398946,6.9078164,0
19,990.4406127929688,-0.04765111207962036,-0.20089419186115265,-0.11646570265293121,25.204715728759766,-21.3985652923584,-20.67186164855957,-0.0031063854694366455,0.058336734771728516,-0.4428091049194336,0.2900405,7.246417,6.9740977,0
19,990.4635009765625,-7.794947014190257E-4,-0.2550894618034363,-0.1295151561498642,24.731552124023438,-20.998828887939453,-20.545351028442383,-0.00991109013557434,0.15971899032592773,-0.5309596061706543,0.3450057,7.1820683,6.8581047,0
19,990.46826171875,0.055413201451301575,-0.18784472346305847,-0.13031408190727234,24.268901824951172,-20.69469451904297,-20.26090431213379,-0.009143739938735962,0.3384432792663574,0.06476736068725586,0.349783,7.08197,6.410703,0
19,990.46826171875,0.055413201451301575,-0.18784472346305847,-0.13031408190727234,24.268901824951172,-20.69469451904297,-20.26090431213379,0.006288051605224609,0.272458553314209,0.12337589263916016,0.39279866,7.163002,6.242632,0
19,990.4605712890625,0.11853008717298508,-0.23218631744384766,-0.13817039132118225,24.064224243164062,-20.30670738220215,-20.56000328063965,-0.03866606950759888,0.22077465057373047,0.28018760681152344,0.42625487,7.1892185,6.1266384,0
20,990.4373779296875,0.06966114789247513,-0.21421001851558685,-0.12219143658876419,23.53662872314453,-21.27480697631836,-20.499040603637695,-0.02499142289161682,0.275968074798584,0.1562819480895996,0.444223,7.1844797,6.225956,0
20,990.4498901367188,0.041431691497564316,-0.22659370303153992,-0.12898246943950653,23.450946807861328,-21.723695755004883,-20.61353874206543,-0.07468369603157043,0.2491903305053711,0.058553218841552734,0.513482,7.167798,6.4271636,0
20,990.4548950195312,-0.0385892353951931,-0.2735968232154846,-0.1470843255519867,22.650381088256836,-19.83965301513672,-20.21549415588379,-0.10245007276535034,0.20521306991577148,-0.101287841796875,0.580351,7.229765,6.4508314,0
20,990.4623413085938,-0.0404529832303524,-0.2423047572374344,-0.1369641125202179,21.951313018798828,-20.59919548034668,-20.756189346313477,-0.18623164296150208,0.11723041534423828,0.014103412628173828,0.66394943,7.3632293,6.4673977,0
20,990.4520263671875,-0.036857254803180695,-0.23937536776065826,-0.14202390611171722,21.774734497070312,-20.026750564575195,-21.224382400512695,-0.19017043709754944,-0.07058954238891602,-0.1825270652770996,0.6878003,7.510994,6.4626584,0
20,990.4595947265625,-0.0291336290538311,-0.17865543067455292,-0.15986688435077667,21.775577545166016,-19.762907028198242,-20.701059341430664,-0.2599768340587616,-0.22637367248535156,0.22457599639892578,0.69492185,7.603943,6.3016844,0
20,990.4418334960938,-0.048973698168992996,-0.17133180797100067,-0.2111324816942215,21.90329933166504,-20.116743087768555,-21.777814865112305,-0.1169535219669342,-0.11105775833129883,-0.2398548126220703,0.46305317,7.4371147,6.642557,0
20,990.46923828125,-0.0941137745976448,-0.08078449219465256,-0.24335649609565735,21.748733520507812,-19.365755081176758,-22.10587501525879,0.06083667278289795,-0.10202550888061523,0.2558298110961914,0.3004917,7.506231,6.24723,0
20,990.4615478515625,-0.11928015947341919,0.06848547607660294,-0.2197873592376709,22.202545166015625,-19.046588897705078,-21.50162696838379,0.028854697942733765,-0.16118144989013672,-0.05520915985107422,0.16660893,7.394218,6.6780562,0
20,990.453857421875,-0.3258076608181,0.27567917108535767,-0.20407451689243317,22.977161407470703,-18.637067794799805,-22.029874801635742,0.016065023839473724,-0.1546039581298828,0.11967849731445312,0.059015214,7.3227205,6.633075,0
20,990.4589233398438,-0.27174505591392517,0.2948538661003113,-0.15307483077049255,23.530899047851562,-18.224044799804688,-21.908418655395508,0.047394607216119766,-0.2381143569946289,0.27875661849975586,-7.805526E-4,7.382304,6.4152875,0
20,990.4461669921875,-0.03885137662291527,0.013491024263203144,-0.11112987995147705,23.971834182739258,-18.074588775634766,-21.908124923706055,0.09629200398921967,-0.160552978515625,0.17754650115966797,-0.07969546,7.3131905,6.4863,0
20,990.4588623046875,0.02240174636244774,-0.08810856193304062,-0.08383229374885559,23.76465606689453,-18.057830810546875,-21.954164505004883,0.15956437587738037,-0.07950210571289062,0.1830744743347168,-0.1251518,7.2345433,6.486295,0
