Timestamp,P,Gx,Gy,Gz,Mx,My,Mz,LiAx,LiAy,LiAz,Ax,Ay,Az,Value,Type
0,990.5520629882812,-4.325878689996898E-4,0.001403624890372157,1.0695206583477557E-4,3.7466542720794678,20.033483505249023,-14.631654739379883,-0.7308993339538574,-0.05366581678390503,0.05541038513183594,0.091793776,-0.14936808,9.752588,0
0,990.5520629882812,-4.325878689996898E-4,0.001403624890372157,1.0695206583477557E-4,0.6334424018859863,15.959510803222656,-14.221471786499023,-0.7084352970123291,-0.038631901144981384,0.02723979949951172,0.08697209,-0.16605002,9.769155,0
0,990.3815307617188,0.004965323489159346,4.6287852455861866E-5,0.001096658525057137,0.9917407035827637,15.663022994995117,-14.490289688110352,-0.7236234545707703,-0.06229802966117859,-9.0789794921875E-4,0.086930275,-0.16128245,9.771518,0
0,990.428955078125,0.0012373042991384864,5.788540584035218E-4,-3.6790594458580017E-4,1.2462306022644043,15.005889892578125,-14.645021438598633,-0.7246289849281311,-0.05729697644710541,0.013544082641601562,0.09166831,-0.17081448,9.773881,0
0,990.4468383789062,-0.0010259774280712008,-2.2015902504790574E-4,3.174072480760515E-5,0.6644477844238281,16.040985107421875,-13.846094131469727,-0.7162922620773315,-0.05690634250640869,0.009050369262695312,0.0892365,-0.15889707,9.77861,0
0,990.4641723632812,4.3956618173979223E-4,8.449736633338034E-4,-0.0012994932476431131,1.1677770614624023,15.458873748779297,-14.120546340942383,-0.7176717519760132,-0.046899691224098206,0.023481369018554688,0.09875432,-0.16366264,9.771504,0
0,990.4517822265625,4.049562267027795E-5,-8.719741890672594E-5,-3.6721484502777457E-4,0.7327909469604492,15.20939826965332,-13.730981826782227,-0.6996829509735107,-0.04662880301475525,0.018983840942382812,0.086762965,-0.16842815,9.7738695,0
0,990.499755859375,4.089876892976463E-5,-3.535787109285593E-4,3.243179526180029E-5,0.7141218185424805,15.66592788696289,-13.600851058959961,-0.7051843404769897,-0.051239013671875,0.014509201049804688,0.093890816,-0.15174416,9.759663,0
0,990.4794921875,-9.185602539218962E-5,-8.862759568728507E-4,-1.005532976705581E-4,0.8713283538818359,15.39208984375,-14.22492790222168,-0.701815128326416,-0.06506362557411194,0.03840446472167969,0.08667928,-0.15412644,9.757291,0
0,990.499755859375,3.0802105902694166E-4,7.115539046935737E-4,1.6593531472608447E-4,0.6284410953521729,15.217037200927734,-13.715349197387695,-0.7032108306884766,-0.07424445450305939,0.019685745239257812,0.09380716,-0.15650865,9.771491,0
0,990.4895629882812,3.0842432170175016E-4,-8.74591787578538E-5,-1.0020783520303667E-4,0.8646976947784424,15.754487991333008,-14.014158248901367,-0.685612678527832,-0.05016517639160156,0.024628639221191406,0.09137541,-0.15650764,9.76912,0
0,990.4866943359375,-7.564359111711383E-4,5.782650550827384E-4,-3.66350868716836E-4,1.1143782138824463,16.093360900878906,-13.610551834106445,-0.6918709874153137,-0.07391367852687836,0.02956867218017578,0.093723506,-0.13982368,9.759647,0
0,990.4994506835938,3.0923073063604534E-4,9.776733350008726E-4,2.9961171094328165E-4,0.765754222869873,16.030397415161133,-13.707117080688477,-0.6789076328277588,-0.06881308555603027,0.0013799667358398438,0.08412203,-0.14935574,9.778581,0
0,990.4515380859375,-4.893135046586394E-4,3.1181820668280125E-4,-3.6600511521101E-4,0.9380428791046143,15.66537094116211,-14.405168533325195,-0.6758062839508057,-0.054403841495513916,0.01577472686767578,0.0793004,-0.16365448,9.771476,0
0,990.4864501953125,-3.5575233050622046E-4,7.112265448085964E-4,9.657471673563123E-4,0.9500806331634521,15.571239471435547,-14.324525833129883,-0.6866711378097534,-0.05412288010120392,0.030195236206054688,0.09598786,-0.16127011,9.759636,0
0,990.4689331054688,4.412475391291082E-5,-2.2094445012044162E-4,3.3814372727647424E-5,0.671919584274292,15.942436218261719,-13.533540725708008,-0.6914736032485962,-0.05833977460861206,0.0020895004272460938,0.093556136,-0.15411928,9.778569,0
0,990.47119140625,3.1084389775060117E-4,5.77937753405422E-4,-4.986446583643556E-4,1.0136141777038574,15.735658645629883,-13.651079177856445,-0.6685898303985596,-0.05797886848449707,0.025995254516601562,0.0863446,-0.15650153,9.764362,0
0,990.4839477539062,4.493104643188417E-5,-8.791747677605599E-5,3.4159893402829766E-5,0.8000483512878418,15.114387512207031,-13.812772750854492,-0.6653035879135132,-0.04332426190376282,0.04040241241455078,0.088692635,-0.16841689,9.7619915,0
0,990.4585571289062,3.1165030668489635E-4,3.1149087590165436E-4,1.674907107371837E-4,0.40965914726257324,16.06598663330078,-14.116235733032227,-0.6685415506362915,-0.0337582528591156,0.0026197433471679688,0.09104073,-0.18033227,9.778558,0
0,990.4813232421875,-3.537361335474998E-4,-3.5436433972790837E-4,1.6766352928243577E-4,0.764775276184082,15.660634994506836,-13.531362533569336,-0.6795592904090881,-0.06659986078739166,0.03596782684326172,0.0957787,-0.14934862,9.766718,0
0,990.4963989257812,4.456145397853106E-4,4.4451793655753136E-4,-2.3163750302046537E-4,0.6892046928405762,15.590347290039062,-14.28544807434082,-0.6523689031600952,-0.06172914803028107,0.04563426971435547,0.08378735,-0.15649739,9.750144,0
0,990.4912719726562,-2.197719004470855E-4,-8.817932393867522E-5,-8.972544455900788E-4,0.8742351531982422,15.289119720458984,-13.680459976196289,-0.6441662907600403,-0.05699439346790314,0.017426490783691406,0.088525295,-0.15411308,9.771445,0
0,990.4608154296875,4.6947243390604854E-5,-8.824474934954196E-5,3.0133977998048067E-4,0.43511962890625,15.773277282714844,-13.333185195922852,-0.6550239324569702,-0.061436429619789124,0.03184032440185547,0.09087336,-0.15411207,9.759604,0
0,990.4989624023438,-4.8528125626035035E-4,4.443215439096093E-4,1.683546870481223E-4,0.18489646911621094,15.802698135375977,-13.835241317749023,-0.6566087603569031,-0.06593738496303558,0.013093948364257812,0.09083158,-0.14696118,9.773804,0
0,990.5011596679688,-8.54042882565409E-5,-8.837571658659726E-5,3.536962321959436E-5,0.6189031600952148,15.682411193847656,-14.049051284790039,-0.6579549312591553,-0.07493621110916138,0.03223896026611328,0.09317961,-0.14219362,9.75723,0
1,990.468505859375,6.926505593582988E-4,-3.529363020788878E-4,-7.38498056307435E-6,0.6388494968414307,16.22777557373047,-13.930070877075195,-0.6352424025535583,-0.055450960993766785,0.05612659454345703,0.09074786,-0.16125885,9.743022,0
1,990.4934692382812,1.6042203060351312E-4,-8.6685897258576E-5,-1.4037007349543273E-4,0.5455584526062012,15.771524429321289,-13.658037185668945,-0.6417956352233887,-0.05022089183330536,0.013699531555175781,0.085926235,-0.15172467,9.77616,0
1,990.47314453125,4.271411744412035E-4,3.127225209027529E-4,3.9243444916792214E-4,0.8471150398254395,15.474437713623047,-13.687124252319336,-0.6479626893997192,-0.054768696427345276,0.013895034790039062,0.09544402,-0.14934036,9.773789,0
1,990.4710083007812,-6.377191748470068E-4,4.4581497786566615E-4,3.926071512978524E-4,0.8179292678833008,16.026575088500977,-13.714937210083008,-0.6495376229286194,-0.05940774083137512,0.02828216552734375,0.08823246,-0.16363904,9.761949,0
1,990.4808349609375,1.6163158579729497E-4,4.4574952335096896E-4,-6.693851901218295E-6,0.988558292388916,15.554161071777344,-13.636598587036133,-0.6323542594909668,-0.0589461475610733,0.009512901306152344,0.088190675,-0.16840455,9.776149,0
1,990.4805908203125,2.887690789066255E-5,1.793681876733899E-4,-2.7283685631118715E-4,0.6368918418884277,15.488250732421875,-13.578554153442383,-0.6335582733154297,-0.030214041471481323,0.03338623046875,0.09053874,-0.16840354,9.773778,0
1,990.4805908203125,2.887690789066255E-5,1.793681876733899E-4,-2.7283685631118715E-4,0.9514651298522949,15.466796875,-13.702756881713867,-0.6114073991775513,-0.0445757657289505,0.03355121612548828,0.08571708,-0.16601923,9.754836,0
1,990.4755859375,-2.3703582701273263E-4,-7.528028800152242E-4,-6.721379468217492E-4,0.5703146457672119,15.320884704589844,-14.097391128540039,-0.6331174373626709,-0.06354723870754242,0.014704704284667969,0.09132552,-0.15412313,9.766747,0
1,990.4855346679688,-5.029485328122973E-4,0.0013776588020846248,2.601405722089112E-4,0.8330113887786865,15.93539047241211,-13.788911819458008,-0.6297512054443359,-0.0537690669298172,0.014893531799316406,0.08891529,-0.16365579,9.78095,0
1,990.470458984375,1.6046257223933935E-4,-2.218408917542547E-4,-4.235334927216172E-6,0.7762701511383057,15.934791564941406,-13.549173355102539,-0.6121772527694702,-0.04864835739135742,0.015076637268066406,0.08172533,-0.16842186,9.785682,0
1,990.4803466796875,-1.0978127829730511E-4,-8.80452644196339E-5,-6.717086071148515E-4,0.7458086013793945,15.485027313232422,-13.826105117797852,-0.5996284484863281,-0.05808940529823303,0.03417682647705078,0.08409494,-0.14458856,9.766743,0
1,990.4804077148438,-1.0958558414131403E-4,-6.207088590599597E-4,5.267967935651541E-4,0.6222457885742188,16.317489624023438,-13.778787612915039,-0.6060353517532349,-0.06240944564342499,0.02962017059326172,0.084074646,-0.15650442,9.76674,0
1,990.4551391601562,2.9027939308434725E-4,-8.814056491246447E-5,-5.667301593348384E-6,0.5265903472900391,15.59592056274414,-13.952779769897461,-0.6015164852142334,-0.05692441761493683,0.02514171600341797,0.08405435,-0.15650392,9.769105,0
1,990.4551391601562,2.9027939308434725E-4,-8.814056491246447E-5,-5.667301593348384E-6,0.5265903472900391,15.59592056274414,-13.952779769897461,-0.5998783111572266,-0.05219145119190216,0.006289482116699219,0.08642393,-0.16365328,9.776206,0
1,990.4652099609375,-7.745928596705198E-4,7.107435376383364E-4,-9.376051602885127E-4,0.6234686374664307,15.68682861328125,-14.280961990356445,-0.6067308187484741,-0.04737342894077301,0.03483867645263672,0.09596327,-0.15650296,9.773837,0
1,990.4803466796875,-6.412393413484097E-4,-8.823586540529504E-5,-2.717316383495927E-4,1.1025841236114502,15.187067031860352,-14.017610549926758,-0.6016390323638916,-0.05183446407318115,0.02564239501953125,0.083993435,-0.14696935,9.766733,0
1,990.4672241210938,1.5790399629622698E-4,-6.208994309417903E-4,-5.379637586884201E-4,0.7774944305419922,15.304126739501953,-14.051355361938477,-0.5889849662780762,-0.03732335567474365,0.0210723876953125,0.08158323,-0.16841838,9.773833,0
1,990.4953002929688,-3.745321882888675E-4,-2.2145730326883495E-4,1.2790979235433042E-4,0.1818528175354004,15.799749374389648,-13.680627822875977,-0.5810174345970154,-0.05132347345352173,0.0354461669921875,0.08156294,-0.16126797,9.764362,0
1,990.4900512695312,6.909269141033292E-4,-2.214890264440328E-4,1.2799364048987627E-4,0.6388494968414307,16.2277774810791,-13.930063247680664,-0.5923422574996948,-0.051293790340423584,0.02139759063720703,0.09110227,-0.16126749,9.769094,0
1,990.4749145507812,-5.072988569736481E-4,4.479509516386315E-5,-2.713963622227311E-4,0.6309413909912109,15.588275909423828,-13.968412399291992,-0.5715979337692261,-0.055546924471855164,0.04516315460205078,0.07913244,-0.1636503,9.7572565,0
1,990.4696655273438,4.2500230483710766E-4,-2.215525892097503E-4,-5.376284243538976E-4,0.6755070686340332,15.577089309692383,-13.589700698852539,-0.5830721855163574,-0.02695503830909729,0.03110504150390625,0.09106168,-0.16841641,9.761989,0
1,990.4746704101562,2.92039941996336E-4,4.442053905222565E-4,-2.712286077439785E-4,1.0757627487182617,16.0045223236084,-13.599405288696289,-0.5703907012939453,-0.0600958913564682,0.0123291015625,0.08865148,-0.15411618,9.776191,0
1,990.4747314453125,-3.735541831701994E-4,-6.210898864082992E-4,-6.706187268719077E-4,0.700019359588623,16.126876831054688,-13.702634811401367,-0.576754093170166,-0.0311947762966156,0.007761955261230469,0.086241275,-0.16364875,9.771455,0
1,990.4846801757812,4.2558915447443724E-4,5.772997974418104E-4,-2.7106108609586954E-4,1.105926752090454,15.822149276733398,-13.747354507446289,-0.5582062005996704,-0.050167664885520935,0.022174835205078125,0.08383107,-0.14696535,9.771453,0
2,990.491943359375,-7.726367330178618E-4,-8.852160681271926E-5,-4.66126948595047E-6,0.9163305759429932,16.11895751953125,-14.120424270629883,-0.569810152053833,-0.040254101157188416,0.031787872314453125,0.09337038,-0.15649799,9.77145,0
2,990.4871826171875,-2.3980927653610706E-4,5.772362928837538E-4,2.6173845981247723E-4,0.9192366600036621,16.015987396240234,-13.575956344604492,-0.5730079412460327,-0.04959845542907715,0.04607200622558594,0.0981299,-0.15411422,9.757245,0
2,990.4718627929688,5.593340611085296E-4,4.457280010683462E-5,2.618222788441926E-4,0.9009501934051514,15.578006744384766,-14.471323013305664,-0.5687354803085327,-0.039613112807273865,0.03208732604980469,0.0981096,-0.16126361,9.766712,0
2,990.4666748046875,1.6005581710487604E-4,8.43488669488579E-4,7.945378310978413E-4,0.8224959373474121,16.030994415283203,-13.946847915649414,-0.5576821565628052,-0.030054479837417603,0.0037527084350585938,0.078970075,-0.16602954,9.771445,0
2,990.4716186523438,-5.055381916463375E-4,1.776672143023461E-4,-1.3748393394052982E-4,0.6153159141540527,16.047752380371094,-13.992891311645508,-0.5499231815338135,-0.05852499604225159,0.032306671142578125,0.0861195,-0.14934614,9.769076,0
2,990.4590454101562,-3.7218467332422733E-4,-8.868042641552165E-5,-2.7055799728259444E-4,0.6559963226318359,15.769773483276367,-13.982892990112305,-0.5567543506622314,-0.06769001483917236,0.03717994689941406,0.09087902,-0.14219579,9.764339,0
2,990.4688720703125,2.9380060732364655E-4,-4.881859349552542E-4,-2.7047412004321814E-4,1.3598737716674805,15.533302307128906,-14.000539779663086,-0.5476202368736267,-0.0527997761964798,0.027930259704589844,0.0812991,-0.15411171,9.766705,0
2,990.47412109375,2.939961850643158E-4,4.4388783862814307E-4,-1.3723236043006182E-4,1.424224853515625,15.541267395019531,-14.626794815063477,-0.5413870811462402,-0.05746087431907654,0.02326679229736328,0.08362174,-0.14934352,9.769066,0
2,990.4736328125,9.618120966479182E-4,1.7605675384402275E-4,3.9803143590688705E-4,1.1557388305664062,15.553009033203125,-14.201189041137695,-0.5370762348175049,-0.04737217724323273,0.047158241271972656,0.083551615,-0.15649164,9.761958,0
2,990.4736328125,9.618120966479182E-4,1.7605675384402275E-4,3.9803143590688705E-4,1.1557388305664062,15.553009033203125,-14.201189041137695,-0.5548607110977173,-0.052205607295036316,0.023546218872070312,0.09069726,-0.15887433,9.780894,0
2,990.4761352539062,-0.0011683701304718852,5.754746380262077E-4,-2.6761050685308874E-4,0.6355078220367432,15.592695236206055,-14.200326919555664,-0.5332297086715698,-0.047208622097969055,0.02366924285888672,0.0858933,-0.161257,9.776156,0
2,990.47607421875,-1.0264198499498889E-4,0.0011080309050157666,5.315362941473722E-4,0.9871740341186523,15.65860366821289,-14.258371353149414,-0.5434476733207703,-0.05630868673324585,0.019134521484375,0.083479345,-0.15410659,9.7761545,0
2,990.4532470703125,6.965380162000656E-4,-8.893759222701192E-4,5.316359456628561E-4,0.40204930305480957,16.05862045288086,-13.729707717895508,-0.5307742357254028,-0.041495829820632935,0.03822517395019531,0.07628554,-0.15887254,9.769052,0
2,990.4935913085938,1.5477355918847024E-4,-0.0011338932672515512,-3.7746550515294075E-4,0.6831169128417969,15.584453582763672,-13.976228713989258,-0.5227538347244263,-0.02713903784751892,0.028906822204589844,0.08821091,-0.17078838,9.771416,0
2,990.4935913085938,1.5477355918847024E-4,-0.0011338932672515512,-3.7746550515294075E-4,0.6831169128417969,15.584453582763672,-13.976228713989258,-0.5214242935180664,-0.06478007137775421,0.019507408142089844,0.083407044,-0.14695498,9.773781,0
2,990.4658203125,-3.776261874008924E-4,-6.866746116429567E-5,-1.1105008888989687E-4,0.7359721660614014,15.318260192871094,-14.584672927856445,-0.5219593644142151,-0.040640026330947876,0.02443981170654297,0.080993,-0.15887079,9.771412,0
2,990.4984741210938,5.547119653783739E-4,1.9761068688239902E-4,1.5536529826931655E-4,0.3239774703979492,15.61709976196289,-14.230733871459961,-0.5381579995155334,-0.030599385499954224,0.03404998779296875,0.09530836,-0.16602,9.759573,0
2,990.4984741210938,5.547119653783739E-4,1.9761068688239902E-4,1.5536529826931655E-4,0.3239774703979492,15.61709976196289,-14.230733871459961,-0.5125261545181274,-0.030673474073410034,0.024656295776367188,0.083334714,-0.16363615,9.773774,0
2,990.4855346679688,9.544179192744195E-4,-6.874292739666998E-5,2.23068636842072E-5,0.2871823310852051,16.161869049072266,-13.872018814086914,-0.5238338708877563,-0.06380271911621094,0.01532745361328125,0.092870235,-0.14218602,9.764304,0
2,990.4803466796875,-1.1061333498219028E-4,-0.0016666759038344026,1.5556439757347107E-4,0.5022158622741699,15.152050018310547,-14.53892707824707,-0.5306023359298706,-0.039663925766944885,0.034394264221191406,0.09045622,-0.16363496,9.771402,0
2,990.4883422851562,-1.1038096999982372E-4,-2.019762177951634E-4,-2.4380977265536785E-4,0.18503427505493164,15.908613204956055,-14.534318923950195,-0.5089004039764404,-0.03935419023036957,0.05344963073730469,0.092822015,-0.15171793,9.761931,0
2,990.485595703125,1.5616705059073865E-4,8.632495300844312E-4,-1.105522969737649E-4,0.3602290153503418,15.440616607666016,-14.687898635864258,-0.496731698513031,-0.03903719782829285,0.044101715087890625,0.080848426,-0.1517174,9.754828,0
2,990.4828491210938,5.561053403653204E-4,1.9738437549676746E-4,1.5596256707794964E-4,-0.3605508804321289,15.134664535522461,-14.943849563598633,-0.4985118508338928,-0.052886322140693665,0.01583385467529297,0.07365465,-0.14456692,9.773763,0
2,990.4727172851562,5.563379381783307E-4,-0.0011342326179146767,-5.097275134176016E-4,-0.03407621383666992,14.913158416748047,-14.288335800170898,-0.4897731840610504,-0.03848591446876526,0.05388069152832031,0.08558002,-0.16124931,9.754824,0
2,990.48779296875,-7.750093354843557E-4,7.299408316612244E-4,2.300366759300232E-5,-0.0858159065246582,15.655035018920898,-14.554727554321289,-0.5028214454650879,-0.03827570378780365,0.020799636840820312,0.08794585,-0.16601527,9.773759,0
3,990.48779296875,1.5732840984128416E-4,6.411341018974781E-5,2.8941925847902894E-4,-0.31622934341430664,16.123905181884766,-14.238718032836914,-0.5002087354660034,-0.04754719138145447,0.03038501739501953,0.092701524,-0.15409827,9.769023,0
3,990.48779296875,-3.7507087108679116E-4,-6.908223440404981E-5,2.3202912416309118E-5,0.008562564849853516,15.374706268310547,-14.629850387573242,-0.5105150938034058,-0.042573243379592896,0.03055858612060547,0.09506732,-0.16363081,9.773755,0
3,990.4928588867188,2.909509639721364E-4,8.629857329651713E-4,-2.4301349185407162E-4,-0.3468303680419922,15.568222045898438,-13.816568374633789,-0.48060479760169983,-0.05190572142601013,0.025879859924316406,0.08548364,-0.14218068,9.77612,0
3,990.4725341796875,8.238149457611144E-4,1.9715823873411864E-4,5.56033686734736E-4,-0.31112051010131836,15.760034561157227,-14.372182846069336,-0.47170817852020264,-0.046898990869522095,0.030790328979492188,0.08784941,-0.15647978,9.766648,0
3,990.4700317382812,-7.738479762338102E-4,-6.018270505592227E-4,-2.4281447986140847E-4,0.2012019157409668,15.080842971801758,-14.411386489868164,-0.48946550488471985,-0.037254735827445984,0.011911392211914062,0.08782536,-0.15886244,9.783216,0
3,990.4598999023438,2.5331937649752945E-5,-6.923307955730706E-5,8.22548579890281E-4,-0.13204002380371094,15.558830261230469,-14.157052993774414,-0.4629218578338623,-0.05129599571228027,0.030961990356445312,0.08302143,-0.15647861,9.776113,0
3,990.4873046875,-3.7390951183624566E-4,-8.682183688506484E-4,-7.752468809485435E-4,0.12813282012939453,15.381793975830078,-15.418535232543945,-0.46972331404685974,-0.04648827016353607,0.03581047058105469,0.07821751,-0.15171143,9.757173,0
3,990.4796752929688,2.5796434783842415E-5,4.63323260191828E-4,-6.419895216822624E-4,-0.20565366744995117,16.228069305419922,-15.262651443481445,-0.4814395308494568,-0.02722744643688202,0.0169830322265625,0.087784946,-0.16601136,9.773744,0
3,990.4796752929688,2.5876994186546654E-5,-6.019532447680831E-4,-9.082710603252053E-4,-0.1575007438659668,15.851539611816406,-14.940099716186523,-0.4787716567516327,-0.04142971336841583,0.017088890075683594,0.08540481,-0.1588617,9.776113,0
3,990.4721069335938,-0.001171008450910449,6.23398955212906E-5,-3.715324273798615E-4,0.13256072998046875,15.280296325683594,-14.951372146606445,-0.4697265625,-0.03211839497089386,0.021988868713378906,0.08538324,-0.15171137,9.764274,0
3,990.4797973632812,-7.713268860243261E-4,-0.0010029574623331428,5.606621270999312E-4,-0.04774332046508789,16.112163543701172,-14.664327621459961,-0.47338980436325073,-0.04132787883281708,0.03150749206542969,0.0877516,-0.15886068,9.776109,0
3,990.4869995117188,2.782866795314476E-5,-7.088546408340335E-5,-3.713544283527881E-4,0.05921506881713867,15.36941146850586,-14.560358047485352,-0.46577903628349304,-0.04127165675163269,0.026885986328125,0.08773005,-0.1540936,9.766638,0
3,990.4742431640625,2.943522413261235E-4,-3.372350474819541E-4,-3.7126525421626866E-4,-0.04651975631713867,15.481496810913086,-15.166505813598633,-0.47274404764175415,-0.03142201900482178,0.03646278381347656,0.0948782,-0.15885961,9.750065,0
3,990.4539794921875,4.277179832570255E-4,6.220504292286932E-5,5.609292420558631E-4,-0.20913362503051758,15.487071990966797,-14.833833694458008,-0.4749765992164612,-0.0596669465303421,0.04130363464355469,0.09246671,-0.14932597,9.771367,0
3,990.4767456054688,-6.373378564603627E-4,3.284871927462518E-4,5.610183579847217E-4,-0.22628068923950195,15.945075988769531,-14.781007766723633,-0.46308523416519165,-0.031146720051765442,0.0461273193359375,0.09005529,-0.16124183,9.766631,0
3,990.4788818359375,-5.039719981141388E-4,-7.102037488948554E-5,-6.373140495270491E-4,-0.34709692001342773,16.148347854614258,-15.313173294067383,-0.4464000463485718,-0.03575222194194794,0.027281761169433594,0.09003371,-0.15647474,9.776098,0
3,990.4686889648438,1.6202538972720504E-4,-2.0421195949893445E-4,4.2803847463801503E-4,-0.5667510032653809,15.521186828613281,-15.165643692016602,-0.4675484895706177,-0.035518571734428406,0.032126426696777344,0.099571764,-0.15885755,9.766627,0
3,990.48388671875,2.907512680394575E-5,6.207013211678714E-5,4.2812753235921264E-4,-0.43169307708740234,14.962879180908203,-15.230772018432617,-0.45062464475631714,-0.040377646684646606,0.013284683227539062,0.08282092,-0.15885696,9.77136,0
3,990.4686889648438,5.621224991045892E-4,-7.369450759142637E-4,-6.369579350575805E-4,-0.3622097969055176,15.027275085449219,-14.16746711730957,-0.44210463762283325,-0.03980894386768341,0.05131244659423828,0.08518922,-0.15647319,9.75242,0
3,990.4686889648438,5.621224991045892E-4,-7.369450759142637E-4,-6.369579350575805E-4,-0.3622097969055176,15.027275085449219,-14.16746711730957,-0.4502873420715332,-0.0490436851978302,0.041899681091308594,0.08994752,-0.15885589,9.759521,0
3,990.4535522460938,8.286460652016103E-4,-6.038207793608308E-4,-3.7055302527733147E-4,-0.6294426918029785,15.620613098144531,-15.315767288208008,-0.43816131353378296,-0.029513463377952576,0.04673957824707031,0.09231585,-0.16600525,9.761886,0
3,990.4840087890625,1.6306416364386678E-4,6.19351485511288E-5,2.953257062472403E-4,-1.015702247619629,15.83857536315918,-15.576936721801758,-0.4259367287158966,-0.034465402364730835,0.042098045349121094,0.08512458,-0.151705,9.764251,0
3,990.4660034179688,2.9663770692422986E-4,-3.3760612132027745E-4,-2.3712791153229773E-4,-0.6643328666687012,15.272346496582031,-16.059858322143555,-0.41272103786468506,-0.024460479617118835,0.04224205017089844,0.07554343,-0.16600418,9.757148,0
3,990.4660034179688,2.9663770692422986E-4,-3.3760612132027745E-4,-2.3712791153229773E-4,-0.9524674415588379,15.370853424072266,-15.328363418579102,-0.4390747547149658,-0.043713703751564026,0.03285408020019531,0.087471366,-0.16123709,9.778451,0
4,990.4887084960938,-0.001034734072163701,1.9499192421790212E-4,-5.033547058701515E-4,-1.3106274604797363,15.773262023925781,-15.758623123168945,-0.4170409142971039,-0.02459581196308136,0.028224945068359375,0.08267,-0.15885326,9.757143,0
4,990.4887084960938,-0.001034734072163701,1.9499192421790212E-4,-5.033547058701515E-4,-1.3106274604797363,15.773262023925781,-15.758623123168945,-0.4205377399921417,-0.02917727828025818,0.0282745361328125,0.08025861,-0.16361931,9.773711,0
4,990.4736328125,1.8351092876400799E-4,1.4924566494300961E-4,-5.802363157272339E-4,-1.9889073371887207,15.822940826416016,-15.657007217407227,-0.4271179139614105,-0.05277465283870697,0.047324180603027344,0.08262691,-0.15170237,9.754771,0
4,990.4579467773438,-8.259703463409096E-5,0.0013476333115249872,-4.469890845939517E-4,-2.265408992767334,16.30152130126953,-15.642404556274414,-0.41994452476501465,-0.03832206130027771,0.04741191864013672,0.08738515,-0.15170184,9.761871,0
4,990.4756469726562,-3.4870521631091833E-4,-2.5029561948031187E-4,6.183633813634515E-4,-1.7731385231018066,16.183307647705078,-16.173250198364258,-0.4030218720436096,-0.047785744071006775,0.03803443908691406,0.07541412,-0.15646788,9.7642355,0
4,990.4756469726562,-3.4870521631091833E-4,-2.5029561948031187E-4,6.183633813634515E-4,-1.7731385231018066,16.183307647705078,-16.173250198364258,-0.4545646011829376,-0.0712043046951294,0.033344268798828125,0.087342024,-0.15885064,9.7595,0
4,990.46826171875,5.0976392230950296E-5,-3.834873205050826E-4,3.521364997141063E-4,-1.9131979942321777,15.999141693115234,-15.60200309753418,-0.43773481249809265,-0.07585985958576202,0.02396392822265625,0.09449017,-0.12548417,9.783171,0
4,990.475341796875,4.5086571481078863E-4,1.4907708100508898E-4,-4.4663308653980494E-4,-2.249485492706299,16.47418212890625,-15.193056106567383,-0.4120340049266815,0.005340069532394409,0.028763771057128906,0.09446865,-0.17076597,9.764232,0
4,990.47802734375,3.179155755788088E-4,9.4799097860232E-4,8.850353769958019E-4,-1.568162441253662,16.42745018005371,-15.449281692504883,-0.4182713031768799,-0.023167192935943604,0.019460678100585938,0.0840227,-0.1612111,9.766517,0
4,990.4804077148438,-3.395088715478778E-4,-2.5672675110399723E-4,-5.720729241147637E-4,-1.9955382347106934,16.185338973999023,-15.446237564086914,-0.4150594174861908,-0.05136816203594208,0.0148468017578125,0.08157694,-0.14691007,9.778348,0
4,990.4526977539062,-7.063800876494497E-5,5.418061628006399E-4,-3.8346246583387256E-5,-2.3700575828552246,15.67702865600586,-16.051645278930664,-0.40918856859207153,-0.046410948038101196,0.04802894592285156,0.079131246,-0.15644178,9.766507,0
4,990.4855346679688,-2.0325799414422363E-4,6.748767336830497E-4,-3.0443156720139086E-4,-2.03401517868042,16.202415466308594,-16.13416862487793,-0.39735347032546997,-0.055791765451431274,0.01970386505126953,0.079075396,-0.15405717,9.77597,0
4,990.47509765625,6.359607505146414E-5,-7.899480406194925E-4,0.0010273786028847098,-1.5654163360595703,15.798259735107422,-16.02876091003418,-0.4045878052711487,-0.041250646114349365,0.024522781372070312,0.08618927,-0.15643904,9.773599,0
4,990.4474487304688,4.6360830310732126E-4,-1.242456928594038E-4,-1.7081221449188888E-4,-1.9633088111877441,15.636146545410156,-15.573041915893555,-0.38690444827079773,-0.050284966826438904,0.02938079833984375,0.07418391,-0.15167117,9.766492,0
4,990.472412109375,3.309883177280426E-4,8.82489257492125E-6,-4.3689741869457066E-4,-1.4991378784179688,15.333488464355469,-15.934797286987305,-0.3945426046848297,-0.011929556727409363,0.04838752746582031,0.07412809,-0.16596943,9.766486,0
4,990.462646484375,1.9836869614664465E-4,5.413693143054843E-4,4.954387550242245E-4,-2.2850565910339355,16.388290405273438,-15.336519241333008,-0.4078989624977112,-0.02603869140148163,0.0389556884765625,0.09797126,-0.16596806,9.766481,0
4,990.4647216796875,1.989070005947724E-4,4.0812406223267317E-4,-3.696235944516957E-5,-1.7165355682373047,16.077991485595703,-15.713907241821289,-0.38662976026535034,-0.025827541947364807,0.04376697540283203,0.071626484,-0.16120014,9.764109,0
4,990.4395141601562,3.326029982417822E-4,6.743524572812021E-4,-3.673162427730858E-5,-1.7759380340576172,15.179935455322266,-16.345064163208008,-0.37997156381607056,-0.030664414167404175,0.020155906677246094,0.07396054,-0.15643221,9.77594,0
4,990.4470825195312,-1.9949044508393854E-4,5.41107205208391E-4,-7.022906793281436E-4,-1.8228435516357422,15.346105575561523,-15.346757888793945,-0.40662556886672974,-0.025436460971832275,0.010764122009277344,0.09541386,-0.15881413,9.778302,0
4,990.4521484375,3.336792578920722E-4,5.410198355093598E-4,-3.627038677223027E-5,-1.7651233673095703,15.71646499633789,-15.762250900268555,-0.3890995383262634,-0.039564430713653564,0.029808998107910156,0.08818829,-0.1468963,9.768828,0
4,990.485107421875,-3.315722569823265E-4,8.300732588395476E-6,-3.0235564918257296E-4,-1.7156949043273926,16.341835021972656,-15.190584182739258,-0.3928248882293701,-0.0393957793712616,0.034583091735839844,0.09291226,-0.14927828,9.77119,0
4,990.4546508789062,2.0159770792815834E-4,8.071610354818404E-4,-4.352828545961529E-4,-1.646233081817627,15.98592758178711,-15.95030403137207,-0.38143283128738403,-0.02483266592025757,0.03464698791503906,0.08568674,-0.1540434,9.764083,0
4,990.4572143554688,-6.418021803256124E-5,6.739157252013683E-4,-3.5578530514612794E-5,-1.3109259605407715,15.141124725341797,-16.18349266052246,-0.40238434076309204,-0.0383768230676651,0.04422569274902344,0.09041071,-0.15880868,9.766446,0
4,990.459716796875,0.0011347795370966196,4.0751247433945537E-4,-3.5347911762073636E-5,-1.6808257102966309,16.269798278808594,-16.26951789855957,-0.4013049304485321,-0.038211047649383545,0.03479576110839844,0.09274477,-0.15880725,9.764073,0
4,990.4669189453125,-1.9626189896371216E-4,9.400569251738489E-4,-5.677490262314677E-4,-1.5097928047180176,15.323177337646484,-15.39366340637207,-0.38009268045425415,-0.04303362965583801,0.039595603942871094,0.08312935,-0.15165612,9.77117,0
5,990.4745483398438,-1.9572371093090624E-4,2.741797943599522E-4,3.645871765911579E-4,-1.4931883811950684,15.233463287353516,-15.544939041137695,-0.37816426157951355,-0.033087655901908875,0.039666175842285156,0.08068359,-0.1611878,9.775899,0
5,990.4795532226562,4.7060439828783274E-4,6.735662464052439E-4,-8.336035534739494E-4,-1.6516413688659668,15.717660903930664,-16.241708755493164,-0.3619060814380646,-0.03275540471076965,0.039732933044433594,0.07106817,-0.14927003,9.768792,0
5,990.4592895507812,8.706161752343178E-4,-2.586267073638737E-4,2.3189058993011713E-4,-1.1701626777648926,15.483219146728516,-15.532342910766602,-0.36022454500198364,-0.018147528171539307,0.030323028564453125,0.07818204,-0.16595164,9.76642,0
5,990.462158203125,4.7168065793812275E-4,5.402335664257407E-4,-5.668264348059893E-4,-1.3954682350158691,15.588220596313477,-15.349802017211914,-0.39140042662620544,-0.036910995841026306,0.03513526916503906,0.09485552,-0.14926729,9.768783,0
5,990.4490966796875,-4.5934878289699554E-4,8.063747663982213E-4,-3.0004928703419864E-4,-1.216930866241455,15.755306243896484,-15.233125686645508,-0.3695429265499115,-0.017844170331954956,0.035221099853515625,0.08285022,-0.15641579,9.764043,0
5,990.4490966796875,-4.5934878289699554E-4,8.063747663982213E-4,-3.0004928703419864E-4,-1.216930866241455,15.755306243896484,-15.233125686645508,-0.3780888617038727,-0.027285978198051453,0.03998851776123047,0.097133756,-0.1516478,9.764037,0
5,990.4666137695312,-3.256526542827487E-4,5.399715155363083E-4,4.991289461031556E-4,-1.2249464988708496,16.222148895263672,-15.644121170043945,-0.36687520146369934,-0.017603635787963867,0.049510955810546875,0.08273852,-0.16832945,9.764032,0
5,990.4590454101562,7.435913721565157E-5,0.0014719896716997027,-1.664300507400185E-4,-1.4609055519104004,16.316837310791016,-14.920446395874023,-0.3650144338607788,-0.03659157454967499,0.021164894104003906,0.078297675,-0.15880463,9.773532,0
5,990.4512939453125,4.7342944890260696E-4,-1.2584000069182366E-4,2.328706905245781E-4,-1.1130166053771973,15.00960922241211,-14.974550247192383,-0.36828145384788513,-0.040932729840278625,0.054309844970703125,0.07866049,-0.1492804,9.75226,0
5,990.4512939453125,4.7342944890260696E-4,-1.2584000069182366E-4,2.328706905245781E-4,-1.0237479209899902,15.093154907226562,-14.916208267211914,-0.3664432466030121,-0.031563714146614075,0.025954246520996094,0.08819598,-0.16119623,9.77593,0
5,990.4843139648438,2.0159728592261672E-4,-6.593435537070036E-4,-4.338360158726573E-4,-0.7217545509338379,15.53411865234375,-15.219499588012695,-0.3641435205936432,-0.026742607355117798,0.054427146911621094,0.0881719,-0.15404579,9.759357,0
5,990.4639282226562,-9.965922217816114E-4,-5.262233316898346E-4,2.320531930308789E-4,-0.5812902450561523,15.244081497192383,-14.993219375610352,-0.3431050777435303,-0.035984575748443604,0.03555107116699219,0.07380834,-0.1540452,9.768825,0
5,990.4843139648438,-6.425398169085383E-5,2.7268659323453903E-4,2.3215290275402367E-4,-0.5432181358337402,15.701210021972656,-15.102819442749023,-0.3602883219718933,-0.030808553099632263,0.04981708526611328,0.08812368,-0.15881118,9.761721,0
5,990.491943359375,3.356843371875584E-4,6.72084977850318E-4,-4.3343764264136553E-4,-0.5371303558349609,15.707103729248047,-15.412042617797852,-0.3387164771556854,-0.035350725054740906,0.021485328674316406,0.07376015,-0.1564273,9.780655,0
5,990.4716186523438,-6.35571195743978E-5,5.388893187046051E-4,4.98767476528883E-4,0.32533836364746094,15.092351913452148,-15.431985855102539,-0.35553303360939026,-0.011654496192932129,0.021547317504882812,0.09524518,-0.16357654,9.778287,0
5,990.466552734375,-6.719790399074554E-4,-9.801326086744666E-4,2.959325793199241E-4,0.5875997543334961,14.968799591064453,-14.849298477172852,-0.3487400710582733,-0.016159474849700928,0.021608352661132812,0.080881625,-0.1683425,9.775917,0
5,990.466552734375,-6.719790399074554E-4,-9.801326086744666E-4,2.959325793199241E-4,0.5875997543334961,14.968799591064453,-14.849298477172852,-0.3380633592605591,-0.030484065413475037,0.03110790252685547,0.07846767,-0.15165895,9.778281,0
5,990.44873046875,2.6059127412736416E-4,-7.138921646401286E-4,1.6297385445795953E-4,0.45514965057373047,14.791999816894531,-14.664571762084961,-0.3456687033176422,-0.025426745414733887,0.0027608871459960938,0.080833435,-0.15642491,9.787749,0
5,990.46142578125,3.9398157969117165E-4,6.176495226100087E-4,5.625472986139357E-4,1.1683201789855957,15.090583801269531,-14.022096633911133,-0.3440495431423187,-0.03455902636051178,0.04068946838378906,0.07841945,-0.1588076,9.764073,0
5,990.4512939453125,1.278978306800127E-4,8.839276852086186E-4,2.9633092344738543E-4,0.7965989112854004,15.585651397705078,-14.455690383911133,-0.3459561765193939,-0.02954360842704773,0.036037445068359375,0.090344846,-0.16834015,9.761704,0
5,990.4662475585938,2.6128836907446384E-4,-1.8137358711101115E-4,1.63272547069937E-4,0.8352141380310059,15.674489974975586,-14.466836929321289,-0.34492743015289307,-0.02460196614265442,0.040802955627441406,0.09510055,-0.1611897,9.766437,0
5,990.4487915039062,1.2836256064474583E-4,-7.140430388972163E-4,6.960037862882018E-4,1.4355826377868652,15.70950698852539,-13.945528030395508,-0.32837995886802673,-0.029112055897712708,0.045599937438964844,0.080737054,-0.151656,9.764068,0
5,990.4686889648438,3.9491080678999424E-4,-4.4776484719477594E-4,1.634715881664306E-4,1.3493578433990479,15.628908157348633,-14.158479690551758,-0.3265818655490875,-0.014625772833824158,0.021982192993164062,0.07832301,-0.17072165,9.7688,0
5,990.4711303710938,-2.706465311348438E-4,8.482925477437675E-5,-3.690605517476797E-4,1.2700624465942383,15.818050384521484,-14.157327651977539,-0.3530915379524231,-0.03388501703739166,0.036238670349121094,0.08546859,-0.1540381,9.771165,0
5,990.4412231445312,-4.035721067339182E-4,-8.47314135171473E-4,-2.3580290144309402E-4,1.2565021514892578,15.910711288452148,-14.16065788269043,-0.3319113254547119,-0.03350342810153961,0.04103374481201172,0.08544454,-0.15642077,9.761695,0
6,990.4609985351562,1.2929202057421207E-4,8.475378854200244E-5,3.061245661228895E-5,1.6381964683532715,15.688329696655273,-13.667573928833008,-0.33514708280563354,-0.009806036949157715,0.055275917053222656,0.08781034,-0.16595331,9.768793,0
6,990.493896484375,-3.6339115467853844E-6,7.505057728849351E-4,-6.350778276100755E-4,1.5187630653381348,15.787158966064453,-13.577966690063477,-0.31434041261672974,-0.023912638425827026,0.02691650390625,0.080616504,-0.16118616,9.766423,0
6,990.4811401367188,1.297567505389452E-4,2.178362919948995E-4,-5.018202355131507E-4,1.370528221130371,15.543615341186523,-14.54167366027832,-0.3264158368110657,-0.028598010540008545,0.05538177490234375,0.080592394,-0.15165243,9.752219,0
6,990.455810546875,-2.694850554689765E-4,-0.0013800967717543244,-1.0224687866866589E-4,1.5536308288574219,15.715124130249023,-14.65690803527832,-0.33384525775909424,-0.028367891907691956,0.041237831115722656,0.090127945,-0.15403512,9.77352,0
6,990.4507446289062,-5.3556845523417E-4,-1.8171296687796712E-4,3.1010713428258896E-5,1.4726758003234863,15.796875,-13.879373550415039,-0.3317079544067383,-0.023862570524215698,0.041286468505859375,0.078154325,-0.16595092,9.771152,0
6,990.4611206054688,-8.016520878300071E-4,-0.0012470142683014274,0.0013626896543428302,1.2540016174316406,15.539474487304688,-13.907602310180664,-0.3106900751590729,-0.028768092393875122,0.0460662841796875,0.078130186,-0.15880051,9.766416,0
6,990.4635009765625,-2.687879605218768E-4,-4.863046342507005E-5,2.975257229991257E-4,1.9058408737182617,15.412742614746094,-14.61650276184082,-0.30381274223327637,-0.01896326243877411,0.04138946533203125,0.078106076,-0.16594979,9.759311,0
6,990.4555053710938,5.303919315338135E-4,-1.818261225707829E-4,3.1309318728744984E-5,1.7742328643798828,15.499786376953125,-13.908456802368164,-0.32644450664520264,-0.03311721980571747,0.02245044708251953,0.08101183,-0.15642932,9.768827,0
6,990.4761352539062,-4.0406372863799334E-4,-1.8144462956115603E-4,-6.354876095429063E-4,1.1254363059997559,15.629467010498047,-13.354162216186523,-0.31048399209976196,-0.03307214379310608,0.02722454071044922,0.08339918,-0.15642926,9.768827,0
6,990.465576171875,-2.7203388162888587E-4,-1.8158109742216766E-4,-3.681387170217931E-4,1.200303554534912,15.54182243347168,-13.822473526000977,-0.31718868017196655,-0.01881474256515503,0.027291297912597656,0.08817643,-0.16357902,9.7688265,0
6,990.465576171875,-2.7203388162888587E-4,-1.8158109742216766E-4,-3.681387170217931E-4,1.200303554534912,15.54182243347168,-13.822473526000977,-0.32106339931488037,-0.0282181054353714,0.041518211364746094,0.09056383,-0.15166256,9.7688265,0
6,990.4354248046875,6.600960623472929E-4,-4.479009367059916E-4,1.6450363909825683E-4,1.0513877868652344,15.560649871826172,-14.185556411743164,-0.30947601795196533,-0.03252911567687988,0.036838531494140625,0.08339161,-0.14689595,9.761725,0
6,990.45068359375,-5.669102392857894E-6,-5.810628645122051E-4,3.135611768811941E-5,0.8285832405090332,16.03688621520996,-14.256074905395508,-0.3216139078140259,-0.04188421368598938,0.01795482635498047,0.09533852,-0.16119552,9.7711935,0
6,990.4838256835938,5.269871326163411E-4,-7.142246467992663E-4,1.6452456475235522E-4,1.1838371753692627,15.737451553344727,-14.370275497436523,-0.30069708824157715,-0.027718305587768555,0.03693199157714844,0.078606725,-0.15166238,9.7711935,0
6,990.4431762695312,1.275621762033552E-4,7.505046669393778E-4,-1.0177039075642824E-4,1.1316628456115723,15.741273880004883,-14.362459182739258,-0.3222721219062805,-0.013314157724380493,0.03225135803222656,0.097723365,-0.16357869,9.768826,0
6,990.4431762695312,1.275621762033552E-4,7.505046669393778E-4,-1.0177039075642824E-4,1.1316628456115723,15.741273880004883,-14.362459182739258,-0.3209443688392639,-0.027535438537597656,0.041751861572265625,0.10011077,-0.15642884,9.7569895,0
6,990.4685668945312,-5.571313522523269E-6,-8.473945781588554E-4,2.977139374706894E-4,0.6334424018859863,15.959514617919922,-14.221471786499023,-0.29039034247398376,-0.046405062079429626,0.022859573364257812,0.07620919,-0.15166214,9.783029,0
6,990.49365234375,3.939267189707607E-4,-9.805564768612385E-4,-5.012232577428222E-4,0.271939754486084,15.726837158203125,-14.921991348266602,-0.3074292540550232,-0.022422119975090027,0.05605030059814453,0.09293598,-0.15642872,9.7546215,0
6,990.460693359375,3.9395151543430984E-4,-3.147707902826369E-4,-6.343707209452987E-4,0.8107025623321533,15.124698638916016,-14.353906631469727,-0.2953509986400604,-0.031583741307258606,0.0513763427734375,0.08815363,-0.1588119,9.759356,0
6,990.44775390625,-1.3865591608919203E-4,-4.8458881792612374E-5,3.142957575619221E-5,0.5086021423339844,15.790081024169922,-14.423273086547852,-0.2889366149902344,-0.016885951161384583,0.02301311492919922,0.08576119,-0.1564286,9.778294,0
6,990.44775390625,-1.3865591608919203E-4,-4.8458881792612374E-5,3.142957575619221E-5,0.5086021423339844,15.790081024169922,-14.423273086547852,-0.2881191670894623,-0.01679070293903351,0.046703338623046875,0.08575863,-0.15642849,9.7593565,0
6,990.4605712890625,3.940002934541553E-4,-1.8162080959882587E-4,-0.0011669815285131335,0.4432497024536133,14.992046356201172,-15.44428825378418,-0.27687153220176697,-0.026099756360054016,0.037276268005371094,0.0785864,-0.16357827,9.756988,0
6,990.460693359375,5.271828267723322E-4,-1.81624767719768E-4,-1.0170746827498078E-4,0.35384368896484375,14.80258560180664,-14.803552627563477,-0.29405340552330017,-0.025951281189918518,0.04205513000488281,0.08575356,-0.16596147,9.764089,0
6,990.44287109375,1.2773319031111896E-4,-1.816287258407101E-4,5.640927120111883E-4,0.30889463424682617,15.70828628540039,-14.156755447387695,-0.3066495358943939,-0.02148723602294922,0.03735065460205078,0.09053081,-0.16119486,9.773558,0
7,990.4580078125,-5.380073562264442E-4,-4.847871605306864E-5,-3.679919755086303E-4,0.3731081485748291,15.610330581665039,-14.083940505981445,-0.29450786113739014,-0.031039610505104065,0.051606178283691406,0.09291822,-0.15642825,9.754621,0
7,990.4628295898438,-5.379831418395042E-4,-4.8482761485502124E-5,-1.01665616966784E-4,0.2262578010559082,15.262344360351562,-14.425870895385742,-0.2738131880760193,-0.016579940915107727,0.04690742492675781,0.07618636,-0.16119474,9.75462,0
7,990.457763671875,-2.7164272614754736E-4,-1.8164460198022425E-4,-9.006027830764651E-4,0.8257846832275391,15.033512115478516,-14.427881240844727,-0.268381267786026,-0.016532570123672485,0.04218864440917969,0.07140398,-0.15881142,9.768823,0
7,990.4625244140625,5.273295100778341E-4,3.509831440169364E-4,0.001096776919439435,0.9431517124176025,15.301502227783203,-14.538629531860352,-0.2850635349750519,-0.030506327748298645,0.03750896453857422,0.083351016,-0.14927822,9.773557,0
7,990.4424438476562,1.6108504496514797E-4,-5.6955512263812125E-5,-2.2810482187196612E-4,0.8457303047180176,15.578882217407227,-14.308893203735352,-0.288756787776947,-0.025716617703437805,0.028062820434570312,0.08812824,-0.16834441,9.775924,0
7,990.4805297851562,-6.378380348905921E-4,-5.895913345739245E-4,3.045374760404229E-4,1.0800299644470215,15.37680435180664,-14.256193161010742,-0.29207754135131836,-0.020925983786582947,0.02335834503173828,0.10246515,-0.16357777,9.780658,0
7,990.4755249023438,-1.0518193448660895E-4,-3.2327932422049344E-4,4.3770589400082827E-4,0.9439926147460938,15.565347671508789,-14.015314102172852,-0.2758851647377014,-0.02076263725757599,0.05653858184814453,0.0881232,-0.1540446,9.752252,0
7,990.4324951171875,5.606322083622217E-4,-1.90125429071486E-4,-6.275472114793956E-4,0.8713281154632568,15.39208984375,-14.224924087524414,-0.27439936995506287,-0.011199325323104858,0.03289604187011719,0.08601254,-0.16596785,9.768847,0
7,990.4856567382812,-2.3829087149351835E-4,6.088182562962174E-4,3.0456893728114665E-4,0.4868888854980469,16.24365997314453,-14.138528823852539,-0.2725202441215515,-0.034951359033584595,0.05182933807373047,0.09347865,-0.16120857,9.761773,0
7,990.4552001953125,-2.4309218861162663E-4,-5.888238083571196E-4,-7.627521990798414E-4,0.9797015190124512,15.757160186767578,-14.570924758911133,-0.27111583948135376,-0.011128932237625122,0.047119140625,0.09110904,-0.1564425,9.757041,0
7,990.4778442382812,-3.771212650462985E-4,3.434231912251562E-4,1.689799828454852E-4,1.0030975341796875,15.83126449584961,-13.809022903442383,-0.2791580557823181,-0.020607709884643555,0.02821063995361328,0.09351927,-0.16359279,9.766511,0
7,990.45751953125,-1.1100095434812829E-4,2.1029703202657402E-4,3.573816502466798E-5,1.021224021911621,15.743022918701172,-14.037607192993164,-0.24961967766284943,-0.02033485472202301,0.047168731689453125,0.07442033,-0.16121009,9.759412,0
7,990.445068359375,8.209089282900095E-4,3.434867539908737E-4,-6.30135356914252E-4,1.281259536743164,15.46006965637207,-14.600011825561523,-0.2675468921661377,-0.020221620798110962,0.032989501953125,0.088780046,-0.16359386,9.773616,0
7,990.4476318359375,-2.4455017410218716E-4,7.720259600318968E-5,3.557052696123719E-5,1.420637607574463,15.906612396240234,-14.570634841918945,-0.26618003845214844,-0.02481837570667267,0.02828216552734375,0.07685083,-0.16359434,9.768884,0
7,990.4631958007812,2.1570136595983058E-5,7.723437738604844E-5,3.54867079295218E-5,1.1094064712524414,16.563148498535156,-14.176172256469727,-0.2834252119064331,-0.005701914429664612,0.03778553009033203,0.08882061,-0.17551121,9.768886,0
7,990.4625244140625,-1.1178338172612712E-4,-0.0011211553355678916,-3.6407093284651637E-4,1.1789734363555908,15.100894927978516,-14.563234329223633,-0.26211291551589966,-0.014997899532318115,0.037827491760253906,0.074501514,-0.15167889,9.759418,0
7,990.4527587890625,2.117886469932273E-5,-5.5860058637335896E-5,-9.783892892301083E-5,0.9576907157897949,15.578605651855469,-14.711057662963867,-0.26158538460731506,-0.005345672369003296,0.052041053771972656,0.08886123,-0.16359589,9.761787,0
7,990.4502563476562,4.2045710142701864E-4,6.099614547565579E-4,-8.968703332357109E-4,1.2444641590118408,16.004840850830078,-14.241296768188477,-0.2696231007575989,-0.019559890031814575,0.04260063171386719,0.09366131,-0.15644649,9.764155,0
7,990.4650268554688,2.059213147731498E-5,0.0011426565470173955,3.013834066223353E-4,1.3961257934570312,15.356822967529297,-14.457700729370117,-0.2581644058227539,-0.019065439701080322,0.037906646728515625,0.08651191,-0.15644696,9.775994,0
7,990.4650268554688,2.059213147731498E-5,0.0011426565470173955,3.013834066223353E-4,1.3961257934570312,15.356822967529297,-14.457700729370117,-0.257440447807312,-0.028621643781661987,0.05685615539550781,0.086532205,-0.15883073,9.759425,0
7,990.44482421875,-3.7907727528363466E-4,-5.88364782743156E-4,4.3445752817206085E-4,0.9765205383300781,15.648292541503906,-13.71723747253418,-0.2557229995727539,-0.028387844562530518,0.03795051574707031,0.0865525,-0.15168136,9.771264,0
7,990.478271484375,4.19674557633698E-4,-3.2201712019741535E-4,3.0121573945507407E-4,0.9603531360626221,16.476058959960938,-13.840166091918945,-0.24496077001094818,-0.023413151502609253,0.05691242218017578,0.0794031,-0.15168196,9.747594,0
7,990.44287109375,1.5316309873014688E-4,0.0012759099481627345,0.0012332374462857842,1.2133212089538574,15.817453384399414,-13.917596817016602,-0.25352218747138977,-0.023245736956596375,0.042728424072265625,0.08420318,-0.15644899,9.761799,0
7,990.4376220703125,4.192834021523595E-4,7.752017700113356E-5,4.342059837654233E-4,1.3654193878173828,15.907485961914062,-14.408208847045898,-0.25686532258987427,-0.027760639786720276,0.052224159240722656,0.09139323,-0.15168291,9.768903,0
7,990.4730834960938,-2.467019949108362E-4,-5.5606040405109525E-5,-9.850965579971671E-5,0.8577685356140137,15.484748840332031,-14.22825813293457,-0.25996363162994385,-0.02765493094921112,0.03331470489501953,0.08902359,-0.16121653,9.771272,0
8,990.4348754882812,1.9418199372012168E-5,-8.545218734070659E-4,-4.980672965757549E-4,1.3022913932800293,15.26885986328125,-14.284128189086914,-0.2494763433933258,-0.027601972222328186,0.057003021240234375,0.08665401,-0.1493006,9.75707,0
8,990.4524536132812,-7.797250291332603E-4,0.0020749846007674932,3.007965278811753E-4,1.443192481994629,15.716873168945312,-14.332052230834961,-0.2390056699514389,8.779764175415039E-4,0.03807640075683594,0.08906418,-0.17075065,9.764174,0
8,990.47021484375,-1.1413089669076726E-4,4.7712106606923044E-4,1.675547391641885E-4,1.6368112564086914,15.792774200439453,-14.289346694946289,-0.25172334909439087,-0.023206502199172974,0.038097381591796875,0.08669454,-0.1564515,9.75944,0
8,990.47021484375,-1.1413089669076726E-4,4.7712106606923044E-4,1.675547391641885E-4,1.3415875434875488,15.095325469970703,-14.895898818969727,-0.2647232711315155,-0.0039057135581970215,0.023919105529785156,0.08910474,-0.18028477,9.776013,0
8,990.4625244140625,-1.1432659084675834E-4,2.1083686442580074E-4,-2.320028725080192E-4,0.9260044097900391,15.75950813293457,-14.485803604125977,-0.24901840090751648,-0.02281351387500763,0.05234813690185547,0.08912504,-0.16360226,9.768914,0
8,990.4703369140625,-6.471538217738271E-4,-3.2176313106901944E-4,-6.315605132840574E-4,1.1657118797302246,15.825695037841797,-14.141695022583008,-0.2432234287261963,-0.013109341263771057,0.03342914581298828,0.086755455,-0.16121948,9.785486,0
8,990.4551391601562,6.842300062999129E-4,3.4405835322104394E-4,-2.3217062698677182E-4,1.0401921272277832,15.918628692626953,-13.742868423461914,-0.23665519058704376,-0.017705261707305908,0.03819465637207031,0.08677572,-0.15883675,9.76655,0
8,990.4727172851562,5.508763715624809E-4,-1.8854171503335238E-4,3.406155155971646E-5,1.5997188091278076,15.705408096313477,-14.355504989624023,-0.24042527377605438,-0.007815495133399963,0.01927661895751953,0.07876739,-0.16358271,9.780677,0
8,990.452392578125,9.501546155661345E-4,-1.8850984633900225E-4,1.6713558579795063E-4,0.7603468894958496,15.762134552001953,-13.998525619506836,-0.23227137327194214,-0.03137442469596863,0.038405418395996094,0.07787737,-0.15641096,9.766392,0
8,990.4677734375,3.5400975320953876E-5,-1.9303927547298372E-4,4.2906554881483316E-5,1.3031325340270996,15.532707214355469,-13.760805130004883,-0.250221848487854,-0.016775161027908325,0.047901153564453125,0.096948385,-0.16117635,9.768754,0
8,990.4727172851562,1.6902352217584848E-4,4.726750194095075E-4,-3.563681966625154E-4,0.9686431884765625,16.221052169799805,-14.82731819152832,-0.23942475020885468,-0.007323086261749268,0.03845405578613281,0.0897305,-0.16594186,9.780586,0
8,990.44482421875,-3.631438594311476E-4,2.0628368656616658E-4,-2.2301118588075042E-4,0.6474080085754395,15.392646789550781,-13.420610427856445,-0.22342956066131592,-0.016753464937210083,0.04795360565185547,0.08012271,-0.16117412,9.764012,0
8,990.4549560546875,5.694263381883502E-4,-4.5958138071000576E-4,-3.559700562618673E-4,1.117666244506836,15.095878601074219,-14.091585159301758,-0.24133910238742828,-0.01675635576248169,0.03377246856689453,0.09202403,-0.16355619,9.764008,0
8,990.4320678710938,-3.6221486516296864E-4,3.3929088385775685E-4,3.100187168456614E-4,1.2787585258483887,15.08883285522461,-14.346948623657227,-0.22545234858989716,-0.026226744055747986,0.048004150390625,0.08002633,-0.16117176,9.759269,0
8,990.4221801757812,-3.61750484444201E-4,-4.5973225496709347E-4,-8.925591828301549E-5,1.3644394874572754,15.537723541259766,-14.232450485229492,-0.20969873666763306,-0.021367862820625305,0.052765846252441406,0.07519835,-0.15163743,9.754529,0
8,990.47021484375,3.045037155970931E-4,4.7229795018211007E-4,4.4357476872392E-4,1.5130572319030762,14.886756896972656,-14.294244766235352,-0.2416660487651825,-0.025633007287979126,0.03386402130126953,0.08709964,-0.1540195,9.766362,0
8,990.4422607421875,3.049682127311826E-4,7.385385106317699E-4,4.437738098204136E-4,1.2488923072814941,15.90334701538086,-13.774133682250977,-0.2266380935907364,-0.020917147397994995,0.03861045837402344,0.08466154,-0.15163505,9.773458,0
8,990.4297485351562,2.4901627330109477E-4,-7.01963381288806E-6,5.700432229787111E-4,0.9820654392242432,16.022476196289062,-14.124910354614258,-0.24452786147594452,-0.035093724727630615,0.024431228637695312,0.094172984,-0.1468673,9.773454,0
8,990.4856567382812,-1.4999292034190148E-4,-7.0950709414319135E-6,8.365580579265952E-4,1.0542943477630615,15.457679748535156,-13.641084671020508,-0.24277785420417786,-0.02996601164340973,0.033935546875,0.09173486,-0.1492494,9.77345,0
8,990.4828491210938,1.1678734153974801E-4,-4.0664427797310054E-4,-9.534851415082812E-5,0.8306481838226318,15.67007064819336,-14.234922409057617,-0.2408290058374405,-0.024938493967056274,0.01977062225341797,0.094076574,-0.14924821,9.771077,0
8,990.4828491210938,2.504097647033632E-4,1.259120472241193E-4,3.800861304625869E-5,0.9019293785095215,15.947769165039062,-14.64708137512207,-0.22495557367801666,-0.025310486555099487,0.04346179962158203,0.08685869,-0.15639687,9.763972,0
8,990.4295654296875,-0.0010807049693539739,-8.062689448706806E-4,4.376815049909055E-4,1.564009189605713,15.513599395751953,-13.799886703491211,-0.2195012867450714,-0.01104004681110382,0.02926921844482422,0.08442059,-0.16354552,9.775804,0
8,990.46044921875,-1.4976991224102676E-5,-5.400284426286817E-4,-4.942250088788569E-4,1.2714462280273438,15.71360969543457,-13.535554885864258,-0.23710837960243225,-0.020641416311264038,0.043496131896972656,0.08915216,-0.1587778,9.756862,0
8,990.4677124023438,-0.0010797760915011168,-2.737879694905132E-4,-9.455211693421006E-5,1.213757038116455,16.555503845214844,-14.191801071166992,-0.22128066420555115,-0.020919635891914368,0.034046173095703125,0.08671409,-0.15877661,9.766326,0
9,990.44482421875,-4.1352194966748357E-4,-1.4070543693378568E-4,-9.4353046733886E-5,1.2549800872802734,15.909236907958984,-14.083353042602539,-0.22003531455993652,-0.049346208572387695,0.04353904724121094,0.08427602,-0.14447573,9.77579,0
9,990.46533203125,-5.462152766995132E-4,-7.622883458680008E-6,3.900390584021807E-5,1.1692991256713867,15.460346221923828,-14.197851181030273,-0.20943745970726013,-0.016112223267555237,0.03408622741699219,0.08183789,-0.15639094,9.766316,0
9,990.4802856445312,2.5319698033854365E-4,7.912493892945349E-4,-3.602706710807979E-4,1.1181025505065918,15.833934783935547,-14.365793228149414,-0.2131085991859436,-0.020545512437820435,0.053048133850097656,0.08656952,-0.15162319,9.759211,0
9,990.4727172851562,2.536614774726331E-4,3.917001304216683E-4,5.720339249819517E-4,1.357809066772461,15.90011978149414,-14.021684646606445,-0.22602172195911407,-0.015344589948654175,0.03413963317871094,0.09369105,-0.16592172,9.766309,0
9,990.4827270507812,7.867577369324863E-4,-7.849078428989742E-6,-7.593464688397944E-4,0.9880156517028809,15.922452926635742,-13.735052108764648,-0.22497297823429108,-0.02005009353160858,0.03415966033935547,0.088863015,-0.15400413,9.771039,0
9,990.44482421875,-1.4488333545159549E-4,-2.742404176387936E-4,-2.265155198983848E-4,1.3107423782348633,15.540069580078125,-14.147329330444336,-0.21871553361415863,-0.015076160430908203,0.038921356201171875,0.08642492,-0.16591933,9.775767,0
9,990.4573364257812,2.55519466008991E-4,-1.4123329310677946E-4,1.7335632583126426E-4,1.1946523189544678,16.273983001708984,-13.78746223449707,-0.2166493684053421,-0.010119244456291199,0.03895759582519531,0.07920706,-0.1706847,9.76156,0
9,990.4573364257812,2.55519466008991E-4,-1.4123329310677946E-4,1.7335632583126426E-4,1.1946523189544678,16.273983001708984,-13.78746223449707,-0.18717412650585175,-0.014956042170524597,0.03423309326171875,0.06959924,-0.15876713,9.773393,0
9,990.4397583007812,2.559839631430805E-4,-5.407824646681547E-4,-7.585500716231763E-4,1.0478010177612305,15.925994873046875,-14.129392623901367,-0.2157963663339615,-0.024247586727142334,0.03417491912841797,0.08714402,-0.15163732,9.768732,0
9,990.4573974609375,2.5241717230528593E-4,6.561186746694148E-4,1.743421598803252E-4,1.6122994422912598,15.242984771728516,-14.176416397094727,-0.2148526906967163,-0.0287703275680542,0.038926124572753906,0.091909885,-0.1492537,9.771098,0
9,990.44482421875,2.50672223046422E-4,1.2377016537357122E-4,-0.001024827128276229,1.3202800750732422,15.074701309204102,-13.813631057739258,-0.21321658790111542,-0.014527857303619385,0.029478073120117188,0.08711612,-0.15640315,9.763995,0
9,990.44482421875,2.50672223046422E-4,1.2377016537357122E-4,-0.001024827128276229,1.0296754837036133,16.014236450195312,-13.900812149047852,-0.21699638664722443,-0.023743420839309692,0.043700218200683594,0.08949208,-0.16355264,9.756892,0
9,990.44482421875,2.50672223046422E-4,1.2377016537357122E-4,-0.001024827128276229,1.0296754837036133,16.014236450195312,-13.900812149047852,-0.19712179899215698,-0.014230355620384216,0.04371070861816406,0.08469832,-0.16116908,9.763993,0
9,990.4524536132812,2.508065663278103E-4,2.569062926340848E-4,-7.584536797367036E-4,1.0864167213439941,16.014833450317383,-14.140542984008789,-0.20538276433944702,-0.01405245065689087,0.02479267120361328,0.082294464,-0.16831854,9.778195,0
9,990.4750366210938,5.172571400180459E-4,2.568844356574118E-4,-4.920800565741956E-4,1.074378252029419,16.108966827392578,-14.22117805480957,-0.20439639687538147,4.4952332973480225E-4,0.02954387664794922,0.0870603,-0.16831818,9.768725,0
9,990.4473876953125,1.1791778524639085E-4,-6.752429762855172E-4,3.069251251872629E-4,0.6554536819458008,16.138063430786133,-14.081342697143555,-0.213182270526886,-0.023341700434684753,0.053226470947265625,0.09182614,-0.15640143,9.759254,0
9,990.4269409179688,5.175260594114661E-4,9.226305410265923E-4,1.738248683977872E-4,1.3207154273986816,15.812755584716797,-14.087839126586914,-0.18826527893543243,-0.013529792428016663,0.0627126693725586,0.0942021,-0.163551,9.752152,0
9,990.452392578125,-1.497111952630803E-5,2.568189229350537E-4,4.072458250448108E-5,1.1250319480895996,16.10367202758789,-14.151689529418945,-0.19654156267642975,-0.01833847165107727,0.03905773162841797,0.082238615,-0.15878406,9.763987,0
9,990.4700317382812,1.18321280751843E-4,5.231130635365844E-4,7.0657191099599E-4,1.444033145904541,15.980720520019531,-13.808732986450195,-0.21432112157344818,-0.008754536509513855,0.04854297637939453,0.09178427,-0.15640041,9.756884,0
9,990.4472045898438,-1.4772568829357624E-4,-2.7587832300923765E-4,3.072134277317673E-4,1.0036406517028809,15.462976455688477,-13.710573196411133,-0.2036195695400238,-0.017901822924613953,0.053299903869628906,0.08460063,-0.16354993,9.761617,0
9,990.4625244140625,2.518829423934221E-4,2.567315532360226E-4,-9.220273932442069E-5,1.2148432731628418,15.818925857543945,-13.994905471801758,-0.18348069489002228,-0.02244625985622406,0.04858112335205078,0.07024723,-0.15163317,9.756881,0
9,990.4752807617188,1.1885923595400527E-4,-2.759220078587532E-4,4.404866776894778E-4,0.9210033416748047,15.017032623291016,-13.979684829711914,-0.2059098184108734,-0.012778207659721375,0.04386711120605469,0.08935249,-0.15878269,9.75688,0
9,990.4498291015625,2.5215186178684235E-4,0.0010556356282904744,1.7422836390323937E-4,1.2098722457885742,16.288711547851562,-14.560514450073242,-0.18607208132743835,-0.017709046602249146,0.020201683044433594,0.08216882,-0.15878233,9.782918,0
9,990.452392578125,-2.8034544084221125E-4,-6.754394853487611E-4,3.0744398827664554E-4,1.396263599395752,15.462738037109375,-15.156778335571289,-0.1989593505859375,-0.012878358364105225,0.024953842163085938,0.08454478,-0.16593185,9.766345,0
9,990.4374389648438,-1.470530405640602E-4,-5.423033726401627E-4,7.069754647091031E-4,1.7101571559906006,15.703659057617188,-14.680356979370117,-0.18776458501815796,-0.018154427409172058,0.024964332580566406,0.091700494,-0.1516318,9.773446,0
10,990.4473876953125,-0.0014784977538511157,-5.423252005130053E-4,3.075592976529151E-4,1.3272087574005127,15.344440460205078,-13.599527359008789,-0.19592967629432678,-0.022775515913963318,0.039185523986816406,0.082126975,-0.15639806,9.761609,0
10,990.4852905273438,-1.4678400475531816E-4,-5.423469701781869E-4,4.4077489292249084E-4,1.279599666595459,15.352680206298828,-13.823629379272461,-0.19520190358161926,-0.017893269658088684,0.04866504669189453,0.07733321,-0.16116425,9.756873,0
10,990.4548950195312,3.859823336824775E-4,6.560525507666171E-4,-4.912730655632913E-4,1.05472993850708,16.19573211669922,-13.915292739868164,-0.18508034944534302,-0.02751345932483673,0.039200782775878906,0.08209905,-0.15639737,9.761606,0
10,990.4677734375,-4.1283085010945797E-4,-6.755486247129738E-4,4.1416322346776724E-5,1.0839147567749023,15.643596649169922,-13.887483596801758,-0.18381062150001526,-0.017913833260536194,0.03448295593261719,0.08447504,-0.15878028,9.763972,0
10,990.4473876953125,3.862512530758977E-4,-2.7609665994532406E-4,8.404216496273875E-4,1.4460992813110352,15.613899230957031,-13.78758430480957,-0.19122689962387085,-0.02237054705619812,0.039246559143066406,0.09163076,-0.15163007,9.759236,0
10,990.4472045898438,-1.4624593313783407E-4,-6.755923386663198E-4,4.1531689930707216E-5,1.3208534717559814,15.918672561645508,-14.786916732788086,-0.1765206754207611,-0.017396554350852966,0.034519195556640625,0.0892269,-0.15401307,9.778173,0
10,990.437255859375,2.6398675981909037E-4,2.9658901621587574E-4,5.50342258065939E-4,1.1319608688354492,16.373409271240234,-13.937593460083008,-0.19401392340660095,-0.022020921111106873,0.0582122802734375,0.08443314,-0.15877926,9.759234,0
10,990.4777221679688,-2.1946689230389893E-6,-2.360645739827305E-4,5.503998836502433E-4,0.591240406036377,16.23601722717285,-14.154165267944336,-0.1744755506515503,0.0016962885856628418,0.04874610900878906,0.07729685,-0.16831324,9.761604,0
10,990.4777221679688,1.309846993535757E-4,2.965637540910393E-4,-3.8169644540175796E-4,1.1421780586242676,15.645668029785156,-14.20451545715332,-0.19291460514068604,-0.012587442994117737,0.029808998107910156,0.09167251,-0.16593084,9.771076,0
10,990.4498901367188,-5.354819586500525E-4,8.293053251691163E-4,-1.1567072942852974E-4,1.2344913482666016,15.732158660888672,-14.300786972045898,-0.17268434166908264,-0.012388452887535095,0.03929328918457031,0.072543144,-0.16116402,9.763974,0
10,990.4701538085938,3.9672141429036856E-4,-3.691319434437901E-4,5.501608829945326E-4,1.0904388427734375,16.387542724609375,-14.470911026000977,-0.1761522889137268,-0.017016828060150146,0.020372390747070312,0.079702735,-0.15401396,9.775809,0
10,990.4422607421875,1.3060122728347778E-4,3.0310075089801103E-5,-5.150189390406013E-4,1.4542512893676758,15.252975463867188,-14.075662612915039,-0.19897344708442688,-0.03085656464099884,0.03459453582763672,0.086862266,-0.14686385,9.763972,0
10,990.4422607421875,1.3060122728347778E-4,3.0310075089801103E-5,-5.150189390406013E-4,1.4542512893676758,15.252975463867188,-14.075662612915039,-0.1869954764842987,-0.004360944032669067,0.015725135803222656,0.09163195,-0.16116318,9.771073,0
10,990.4502563476562,0.008519649505615234,-0.005029707215726376,-3.818189725279808E-4,1.5925140380859375,15.223834991455078,-13.171449661254883,-0.18665744364261627,-0.01905059814453125,0.025191307067871094,0.08445209,-0.15877968,9.771072,0
10,990.6934814453125,-0.00612762663513422,0.003625542623922229,5.503285210579634E-4,1.1604654788970947,16.083646774291992,-13.309152603149414,-0.17216482758522034,-0.0161362886428833,0.058302879333496094,0.079662085,-0.15401289,9.7545,0
10,990.4548950195312,-0.0013338427525013685,4.297363047953695E-4,-1.1541927233338356E-4,1.181497573852539,15.892435073852539,-12.993265151977539,-0.17152586579322815,-0.001829788088798523,0.04410743713378906,0.074872136,-0.16592905,9.749765,0
10,990.3533325195312,-1.3532338198274374E-4,8.291942067444324E-4,2.840965171344578E-4,1.0068459510803223,15.992141723632812,-12.741235733032227,-0.16461196541786194,5.4836273193359375E-5,-0.0031843185424804688,0.09159133,-0.16116223,9.801843,0
10,990.3939819335938,0.005457407794892788,-0.0031655598431825638,-9.142829803749919E-4,1.5302581787109375,16.061317443847656,-13.595781326293945,-0.18351349234580994,-0.020019948482513428,0.039409637451171875,0.08919126,-0.15401217,9.7544985,0
10,990.5848388671875,-0.004263023845851421,0.0030928475316613913,1.7864513210952282E-5,1.262314796447754,15.704769134521484,-13.071725845336914,-0.18277940154075623,-0.02056083083152771,0.029939651489257812,0.08440131,-0.16592833,9.763966,0
10,990.4069213867188,-8.008196018636227E-4,2.965148014482111E-4,-1.1525151785463095E-4,1.0817131996154785,15.904499053955078,-13.209550857543945,-0.18690058588981628,-0.02528245747089386,0.03941535949707031,0.09395078,-0.15877825,9.775802,0
10,990.3888549804688,1.313836546614766E-4,1.6334097017534077E-4,5.505800945684314E-4,1.0871202945709229,16.17276382446289,-12.918142318725586,-0.17164269089698792,-0.011003941297531128,0.053627967834472656,0.09155074,-0.1611613,9.763964,0
10,990.3888549804688,1.313836546614766E-4,1.6334097017534077E-4,5.505800945684314E-4,0.8438262939453125,16.471920013427734,-13.206094741821289,-0.1562987118959427,-0.01115599274635315,0.03943061828613281,0.07720116,-0.1587778,9.771065,0
10,990.42431640625,-1.348343212157488E-4,2.964830491691828E-4,4.1746406350284815E-4,1.6058058738708496,15.7113037109375,-14.664724349975586,-0.17440173029899597,0.007874682545661926,0.048908233642578125,0.089140534,-0.1754604,9.761595,0
10,990.4727172851562,-5.342104705050588E-4,-6.356384255923331E-4,5.506639136001468E-4,1.2458486557006836,15.900398254394531,-13.619524002075195,-0.1876760721206665,-0.02520751953125,0.034720420837402344,0.09152031,-0.15162733,9.766328,0
10,990.4752807617188,1.3167725410312414E-4,5.62767090741545E-4,-5.145575851202011E-4,1.4862356185913086,15.704212188720703,-13.876039505004883,-0.17208370566368103,-0.029901772737503052,0.034732818603515625,0.08434045,-0.15877697,9.771062,0
11,990.4854125976562,7.975645130500197E-4,-3.693542967084795E-4,6.839056732133031E-4,1.5443615913391113,15.600364685058594,-13.493997573852539,-0.15690112113952637,-0.01990477740764618,0.05842113494873047,0.06999087,-0.15162688,9.763959,0
11,990.4498901367188,-8.002327522262931E-4,-7.688440382480621E-4,-1.1500000255182385E-4,1.5589005947113037,15.877471923828125,-13.666421890258789,-0.15539544820785522,0.04128526151180267,0.04421710968017578,0.08909994,-0.14924335,9.759224,1
11,990.452392578125,0.0013303919695317745,-2.3622807930223644E-4,-6.475899135693908E-4,1.1641902923583984,15.82421875,-14.064386367797852,-0.15465837717056274,0.001924172043800354,0.034732818603515625,0.1034292,-0.082511336,9.775793,1
11,990.454833984375,-0.004927835427224636,0.003225846914574504,0.0012167050736024976,1.3676447868347168,16.06688690185547,-13.263113021850586,0.21240052580833435,0.47753313183784485,0.23286914825439453,-0.12362163,-0.018162549,9.870481,1
11,990.404052734375,-0.03968196362257004,0.07766111940145493,-0.19612333178520203,1.440554141998291,15.23971939086914,-13.379915237426758,-0.4025099277496338,0.07265087962150574,-0.3126840591430664,0.296991,-0.41378656,9.811299,1
11,990.32080078125,-0.16405139863491058,-0.10303421318531036,-0.10597535222768784,0.938746452331543,15.823299407958984,-13.182767868041992,-0.45240628719329834,-0.2625519633293152,-0.033904075622558594,0.24918276,-0.18022504,9.83497,1
11,990.3456420898438,-0.11771231889724731,-0.006361572537571192,0.050485264509916306,0.8027098178863525,16.011844635009766,-12.94188117980957,0.0367828831076622,0.10682108998298645,0.03489875793457031,-0.11648238,-0.4662182,9.801829,1
11,990.3915405273438,-0.19574277102947235,-0.006228430662304163,0.05754267796874046,1.0439388751983643,16.079505920410156,-12.675081253051758,0.39930689334869385,-0.0108986496925354,-0.006855010986328125,-0.3426759,-0.6259186,9.801907,1
11,990.411865234375,-0.25793153047561646,0.0037590644787997007,-0.22182439267635345,0.8633365631103516,16.27923583984375,-12.812902450561523,-0.1624465435743332,1.0237314701080322,0.057791709899902344,0.09948009,-1.0930418,9.792439,1
11,990.3990478515625,-0.32185158133506775,0.02852713130414486,-0.7053226232528687,0.27255868911743164,17.411413192749023,-12.249223709106445,-0.5904657244682312,-0.12759166955947876,-0.17009925842285156,0.5511956,-0.46624014,9.894232,1
11,990.4091796875,-0.4511481821537018,-0.07706707715988159,-0.6210338473320007,-0.12533283233642578,17.24930191040039,-11.79350471496582,-0.688207745552063,-0.4407583475112915,-0.6075992584228516,0.4508438,-0.5472722,10.21144,1
11,990.4573974609375,-0.62851482629776,-0.3026365637779236,-0.10904163867235184,-0.761655330657959,18.02289581298828,-11.432775497436523,-0.812083899974823,-1.339548110961914,-0.32271480560302734,0.55602366,0.10812876,9.896604,1
11,990.4623413085938,-1.0847140550613403,-0.19464550912380219,0.4655348062515259,-0.6953225135803223,19.190689086914062,-10.587518692016602,-0.8436853289604187,0.2808142900466919,-0.7934055328369141,0.5703871,-2.3680983,10.741696,1
11,990.449951171875,-0.7302478551864624,1.0196218490600586,0.24329407513141632,0.5044651031494141,20.103225708007812,-10.440874099731445,-0.9528270363807678,-0.10939657688140869,0.4199867248535156,-0.2612746,-1.5887666,8.417107,1
11,990.452392578125,-0.0926879420876503,1.3639683723449707,0.41080668568611145,2.5653364658355713,20.505451202392578,-10.935953140258789,-0.12169653177261353,0.697479248046875,2.6127395629882812,-1.0618677,-2.8614378,7.5838523,1
11,990.5057373046875,-0.8815158605575562,-0.12899848818778992,0.351418137550354,2.322341203689575,21.436744689941406,-10.799036026000977,0.05489987134933472,0.33332109451293945,0.4980010986328125,-0.35204268,-2.6731596,10.147535,1
11,990.5157470703125,-1.4695414304733276,-1.7082515954971313,0.5351759791374207,0.5628349781036377,23.370424270629883,-9.255331039428711,0.15301036834716797,-0.2960827350616455,-2.153615951538086,-0.25403258,-2.6707768,10.628079,1
11,990.4623413085938,-0.7857757210731506,-0.24497897922992706,0.3496868908405304,0.32152223587036133,24.82941436767578,-8.071767807006836,0.07696104049682617,-0.4462909698486328,0.4136505126953125,-0.2731277,-2.8781226,8.357936,1
11,990.4443969726562,-0.43037739396095276,0.5217444896697998,0.006405602674931288,0.493971586227417,24.9906005859375,-7.645868301391602,0.3585093319416046,-0.5254631042480469,1.5800046920776367,-0.6148596,-3.2236986,8.713017,1
11,990.47509765625,-0.551551342010498,-0.5825342535972595,-0.15271824598312378,0.013196945190429688,25.382976531982422,-7.132835388183594,-1.1822746992111206,0.35192179679870605,-3.3977489471435547,0.86212385,-3.3619294,10.7156725,1
11,990.4702758789062,-0.5812457799911499,-0.07160725444555283,-0.27655521035194397,-0.9537601470947266,25.899456024169922,-6.398176193237305,0.8887024521827698,0.21361541748046875,0.5010700225830078,-0.47380716,-3.995882,8.973414,1
11,990.5028076171875,-0.9598141312599182,0.28805243968963623,-0.3794863820075989,-0.4743466377258301,26.031829833984375,-5.709955215454102,-0.36351221799850464,-0.19351816177368164,0.01361846923828125,0.15237123,-4.093597,8.637274,1
11,990.5133056640625,-1.1138780117034912,0.25995612144470215,-0.5712339282035828,-1.4552454948425293,27.535476684570312,-3.9531307220458984,-0.6422035694122314,-0.010821342468261719,-0.02049732208251953,0.73314154,-4.7156334,8.755636,1
11,990.4852905273438,-0.9627440571784973,0.15662558376789093,-0.3154376745223999,-1.891998291015625,28.284954071044922,-3.159841537475586,-0.4966576397418976,-0.06407356262207031,0.14847183227539062,0.5467533,-4.9611115,8.021806,1
12,990.5076293945312,-1.0952364206314087,-0.1262018382549286,0.22465085983276367,-2.006704807281494,28.91442108154297,-2.178201675415039,-0.5204541087150574,-0.032636165618896484,0.41863250732421875,0.34363574,-5.1017256,8.02891,1
12,990.4873046875,-0.2628665864467621,-0.7260782718658447,1.148900032043457,-1.1859259605407715,31.367095947265625,0.16927146911621094,0.008483394980430603,-1.8816728591918945,-0.27504730224609375,-0.5334342,-3.7075083,8.571001,1
12,990.4873046875,-0.2628665864467621,-0.7260782718658447,1.148900032043457,-1.1859259605407715,31.367095947265625,0.16927146911621094,-0.7674421072006226,-1.761021375656128,-0.11377811431884766,0.6543712,-3.7408748,8.36979,1
12,990.528076171875,0.7339534759521484,-0.14670805633068085,0.34515848755836487,-1.0754871368408203,31.36534881591797,-0.15558433532714844,-0.861473560333252,1.2823491096496582,0.4069795608520508,0.35087776,-6.8319874,9.66702,1
12,990.5991821289062,1.655273199081421,-0.35856229066848755,-0.06030752509832382,-0.9805893898010254,30.296424865722656,-1.955282211303711,1.5284632444381714,2.1418185234069824,-3.792499542236328,-1.4773731,-5.2971563,11.861419,1
12,990.6651000976562,2.093229293823242,-0.18306010961532593,0.4313115179538727,-1.2563261985778809,28.985992431640625,-3.9916763305664062,0.31101784110069275,0.04798388481140137,0.11567974090576172,0.26249957,-2.1726794,7.889255,1
12,990.6651000976562,2.093229293823242,-0.18306010961532593,0.4313115179538727,-0.6871781349182129,26.780750274658203,-5.720981597900391,-0.6500247716903687,-3.636634349822998,1.1259698867797852,0.42503703,0.022319496,9.34272,1
12,990.5836181640625,2.2796502113342285,0.08858215063810349,1.1097511053085327,-1.3829255104064941,26.235992431640625,-7.81443977355957,-0.0498354434967041,0.8645648956298828,-2.3649768829345703,-0.02424045,-3.7980762,12.7514925,1
12,990.4389038085938,0.806124210357666,-0.5657559633255005,-0.1330120712518692,-2.9285364151000977,26.263870239257812,-7.885835647583008,1.589000940322876,1.6028685569763184,-2.8984498977661133,-1.1355208,-3.4096026,11.551324,1
12,990.5835571289062,0.5235627889633179,-0.5614948868751526,-0.5467338562011719,-2.371701717376709,23.940929412841797,-8.29762077331543,0.25055962800979614,-0.24613070487976074,-1.0254745483398438,0.033165365,-1.5005972,10.658891,1
12,990.6217651367188,0.6030578017234802,0.43758922815322876,0.10946834832429886,-1.8792943954467773,23.928630828857422,-9.527544021606445,-0.4205584228038788,-0.4897141456604004,-1.084676742553711,0.39645457,-1.1145067,11.283834,1
12,990.4718627929688,0.7742987275123596,0.24384446442127228,0.6029515862464905,-1.2312335968017578,22.428762435913086,-10.232503890991211,-0.023906774818897247,0.15549027919769287,-2.585190773010254,-0.052822873,-1.5434974,11.8567,1
12,990.4490356445312,0.8896130919456482,0.147438183426857,0.19162648916244507,-1.2960658073425293,20.842138290405273,-12.978094100952148,0.4836522340774536,0.582658052444458,-1.0551033020019531,-0.42562348,-1.1693232,10.694406,1
12,990.415771484375,1.1382187604904175,0.07713082432746887,0.28070905804634094,-1.5842766761779785,18.88778305053711,-14.820917129516602,0.35089075565338135,0.0264798104763031,-0.46155548095703125,-0.18660918,-0.15404722,10.474257,1
12,990.4032592773438,1.3454123735427856,-0.4276708662509918,0.3187921643257141,-1.635962963104248,16.890748977661133,-15.465944290161133,0.08419224619865417,0.42075684666633606,-1.3290643692016602,0.2745511,-0.30895814,11.146535,1
12,990.4132690429688,1.257128357887268,-0.3885223865509033,0.17924250662326813,-2.48978853225708,15.143718719482422,-16.38690757751465,0.149215966463089,0.8403469324111938,-0.6811180114746094,0.0067858994,0.08666852,10.261193,1
12,990.4080810546875,1.1141175031661987,0.17327231168746948,0.18496699631214142,-2.1406455039978027,14.418094635009766,-18.014921188354492,0.12056611478328705,0.31554341316223145,0.07993793487548828,-0.009926528,0.8683834,9.761714,1
12,990.3877563476562,1.099070429801941,0.09870389848947525,0.21932168304920197,-2.0594754219055176,12.123653411865234,-18.047143936157227,0.032429128885269165,0.42745816707611084,-0.28472900390625,0.20040166,1.0900279,10.154672,1
12,990.3900756835938,1.0255671739578247,0.023602843284606934,0.18789632618427277,-2.497666835784912,11.345008850097656,-18.626916885375977,0.03462047874927521,0.7571767568588257,-0.4210977554321289,0.19324884,1.3474214,10.007907,1
12,990.412841796875,1.165649175643921,0.07500184327363968,0.1741809993982315,-1.656038761138916,8.28847885131836,-20.04046058654785,-0.09438256919384003,0.8014651536941528,-0.30383968353271484,0.31037086,1.6715469,9.423209,1
12,990.4205322265625,1.1942780017852783,0.13678713142871857,0.19708409905433655,-1.8404192924499512,7.115070343017578,-20.174341201782227,-0.17573831975460052,0.48070430755615234,1.0515079498291016,0.36296558,2.4437287,8.426619,1
12,990.387451171875,0.6890765428543091,0.3093598783016205,0.2223840355873108,-1.1883339881896973,5.987909317016602,-21.209665298461914,-0.4657752513885498,0.08732819557189941,-0.06893062591552734,0.4036107,2.6105578,9.9676695,1
12,990.3391723632812,0.16123832762241364,0.19990403950214386,0.08762812614440918,-0.6560654640197754,5.854093551635742,-21.129884719848633,-0.30034786462783813,0.4603917598724365,-1.5025691986083984,0.31520128,2.65584,10.372462,1
12,990.412841796875,0.609580934047699,0.18432460725307465,-0.029550934210419655,-0.8367209434509277,4.421258926391602,-22.019006729125977,-0.01825825870037079,0.4828145503997803,0.34365081787109375,-0.02653791,2.8727176,8.715423,1
12,990.3923950195312,0.6765592694282532,0.36821576952934265,-0.0993257611989975,-0.41755151748657227,3.391733169555664,-22.485261917114258,-0.3709582984447479,0.7695205211639404,-1.0506858825683594,-0.036080614,2.7535534,10.07183,1
13,990.3389282226562,0.5204979181289673,0.18072938919067383,-0.006781065836548805,0.12243413925170898,2.158935546875,-22.41935157775879,-0.35879459977149963,0.7792794704437256,-0.3286876678466797,-0.098201245,3.0562296,8.814847,1
13,990.4097290039062,0.8838858008384705,0.4069647490978241,0.05660204216837883,0.32985830307006836,1.141749382019043,-22.699731826782227,-0.13778063654899597,0.6815028190612793,1.5122222900390625,-0.36824334,3.5853167,7.366121,1
13,990.3943481445312,1.0731030702590942,0.14451049268245697,0.09694883227348328,1.0882210731506348,-0.4657878875732422,-23.030466079711914,-0.01706346869468689,0.6987712383270264,1.1060867309570312,-0.38017598,3.866543,8.346144,1
13,990.3341674804688,0.620099663734436,-0.07959429174661636,0.05753401294350624,0.5085868835449219,-1.3241548538208008,-23.660764694213867,-0.20210757851600647,0.7505488395690918,-0.8346891403198242,-0.3228015,3.6758804,9.016065,1
13,990.38916015625,0.6220967769622803,0.27487218379974365,0.029570773243904114,1.1563735008239746,-3.0358548164367676,-22.96756935119629,0.030733704566955566,1.1450145244598389,0.9184188842773438,-0.59762335,3.9547236,7.3542895,1
13,990.4119262695312,0.8431388735771179,0.47128018736839294,0.11226178705692291,1.7290244102478027,-4.079791069030762,-23.30266761779785,-0.06408035755157471,0.7916641235351562,1.068784236907959,-0.63823485,4.450445,7.7567153,1
13,990.3740234375,0.6150391101837158,0.20416533946990967,0.145151749253273,2.476327896118164,-5.223428726196289,-23.88979148864746,0.007315635681152344,1.1027631759643555,-0.4455699920654297,-0.7887818,4.1310854,8.663356,1
13,990.3739013671875,0.3298146426677704,0.6394586563110352,0.12704218924045563,2.6743760108947754,-5.249029636383057,-23.37992286682129,-0.23084110021591187,1.328895092010498,0.369290828704834,-0.81266403,4.369413,7.1814885,1
13,990.3714599609375,0.5443319082260132,1.026282548904419,0.35514166951179504,4.532548904418945,-7.670444965362549,-23.8325138092041,-0.17122197151184082,0.419097900390625,1.2431321144104004,-1.0635868,5.1678104,7.176755,1
13,990.3732299804688,0.5094444155693054,0.6128271818161011,0.38017529249191284,5.754593372344971,-7.5797882080078125,-23.872163772583008,-0.3331823945045471,0.9283075332641602,-0.12909603118896484,-1.0277214,4.812701,7.58865,1
13,990.3935546875,0.49173420667648315,0.5639582276344299,0.30267730355262756,6.494585037231445,-8.09865665435791,-23.647890090942383,-0.17173278331756592,1.188857078552246,0.6070795059204102,-1.1448097,4.7841015,7.323525,1
13,990.3731079101562,0.4519198536872864,0.4413197934627533,0.4944246709346771,7.790761947631836,-9.465828895568848,-24.306520462036133,-0.5148407220840454,0.9064788818359375,0.03590965270996094,-0.5042992,5.837511,7.586286,1
13,990.39599609375,0.46869757771492004,0.4166855812072754,0.8161341547966003,7.932748794555664,-9.75439453125,-24.157548904418945,-1.818408489227295,-0.43718767166137695,-0.8152599334716797,0.52576536,6.6597414,8.057362,1
13,990.3909912109375,0.43953582644462585,0.6491793990135193,0.563666582107544,8.316070556640625,-11.081644058227539,-23.369112014770508,-1.030903935432434,0.593907356262207,0.4293975830078125,-0.78149414,5.8494263,6.509212,1
13,990.3909912109375,0.43953582644462585,0.6491793990135193,0.563666582107544,9.48039436340332,-11.361347198486328,-22.993268966674805,-0.5679618716239929,0.5866703987121582,0.48843955993652344,-0.85243917,6.1950417,6.7221103,1
13,990.3883056640625,0.6547189354896545,0.7213510274887085,0.17631013691425323,10.453409194946289,-13.084196090698242,-22.965410232543945,-0.8276641964912415,0.38060998916625977,-0.1403827667236328,-0.7401632,6.5787506,7.3470473,1
13,990.3930053710938,0.4982641339302063,0.4824647307395935,0.37405216693878174,10.977663040161133,-12.75117015838623,-23.296640396118164,-0.8604649901390076,0.11712360382080078,-0.5137395858764648,-0.87404716,6.7265153,6.6368823,1
13,990.4031982421875,0.22823190689086914,0.5674149990081787,0.45222386717796326,12.428705215454102,-14.237197875976562,-23.202333450317383,-0.29464399814605713,0.3383350372314453,1.2657461166381836,-1.3018891,6.8456807,5.401198,1
13,990.4060668945312,0.47737088799476624,0.6762049198150635,0.4211982786655426,12.36601448059082,-14.137774467468262,-23.35245704650879,-0.1247028112411499,0.4052553176879883,0.5749273300170898,-1.2852093,6.8266153,5.6947265,1
13,990.3750610351562,0.6980140805244446,0.1808573454618454,0.37046533823013306,12.508108139038086,-15.532686233520508,-22.830827713012695,-0.523565411567688,0.3358030319213867,0.6784062385559082,-0.65910447,7.3318715,5.815449,1
13,990.3751831054688,0.6127935647964478,-0.09344810247421265,0.36979973316192627,12.051517486572266,-16.43492317199707,-21.78386116027832,-0.541259765625,0.3071556091308594,0.23579883575439453,-0.9411624,7.0077467,5.6473737,1
13,990.3621826171875,0.23236218094825745,0.36528080701828003,0.40135857462882996,11.841402053833008,-17.527454376220703,-21.302637100219727,0.040625572204589844,0.6582126617431641,1.3365592956542969,-1.0917757,7.2031765,4.6886516,1
13,990.3190307617188,0.23822161555290222,0.3302602469921112,0.5277256369590759,11.708109855651855,-17.968097686767578,-21.6412296295166,-0.355696439743042,0.504417896270752,0.7363781929016113,-0.76918834,7.160279,5.3372607,1
13,990.3617553710938,0.005728328134864569,0.30496013164520264,0.6125474572181702,12.221273422241211,-18.383440017700195,-21.157114028930664,-0.040607988834381104,0.05824136734008789,1.3276429176330566,-0.80986613,7.825215,4.0660686,1
14,990.362060546875,0.020109862089157104,0.5088248252868652,0.670870840549469,12.738056182861328,-17.95186996459961,-21.80088996887207,-0.3836228847503662,-0.2570786476135254,2.4168636798858643,-0.59960425,7.8133,4.326456,1
14,990.3316650390625,-0.40306559205055237,0.046633586287498474,0.46873727440834045,12.633161544799805,-17.57593536376953,-21.88371467590332,-0.3110545873641968,-0.08251333236694336,0.018052101135253906,-0.29374632,7.5964227,6.4545665,1
14,990.4151000976562,-0.5118551254272461,-0.16655233502388,0.298428475856781,11.746075630187988,-16.40462875366211,-22.123491287231445,-0.4306485652923584,0.3960566520690918,-0.7943859100341797,-0.29618567,6.995838,7.3043876,1
14,990.4151000976562,-0.27576565742492676,-0.0067629022523760796,0.13171495497226715,11.749555587768555,-15.663626670837402,-22.552309036254883,-0.41303133964538574,0.22294855117797852,-0.7415804862976074,-0.13611174,7.2699156,6.838044,1
14,990.41748046875,0.07417389005422592,0.07273230701684952,0.1054830402135849,11.49835205078125,-16.003971099853516,-22.878602981567383,-0.39199531078338623,0.30600643157958984,-0.34597063064575195,-0.28672504,7.274683,6.4237795,1
14,990.4174194335938,0.09255016595125198,0.17726121842861176,0.076587975025177,12.380767822265625,-16.073354721069336,-22.779565811157227,-0.32720276713371277,-0.063995361328125,0.4019145965576172,-0.3058937,7.6393266,6.040288,1
14,990.3895874023438,0.02916746586561203,0.16394533216953278,0.05794606730341911,12.146469116210938,-15.8712797164917,-22.8322696685791,-0.31970417499542236,-0.2783522605895996,-0.08538007736206055,-0.38003013,7.8228407,6.3858953,1
14,990.3995971679688,-0.11304473876953125,0.1880468726158142,0.0217273086309433,12.145488739013672,-16.24104118347168,-22.65651512145996,-0.4745483100414276,-0.34117937088012695,-0.3248434066772461,-0.32033208,7.7584934,6.736236,1
14,990.4046020507812,-0.08747794479131699,0.11947043985128403,-0.050310928374528885,12.84439468383789,-16.007720947265625,-23.239774703979492,-0.30562013387680054,-0.1654648780822754,-0.48737525939941406,-0.48528475,7.5749817,6.5799966,1
14,990.3842163085938,0.12877103686332703,0.11627456545829773,-0.07561074197292328,13.455278396606445,-16.068307876586914,-22.560518264770508,-0.18791109323501587,0.17121648788452148,0.41516876220703125,-0.709985,7.319972,5.7254324,1
14,990.3914794921875,0.19561679661273956,0.054755523800849915,-0.08266790956258774,13.308971405029297,-16.784589767456055,-22.80400276184082,-0.17513060569763184,0.24903154373168945,0.24082040786743164,-0.50928277,7.3867054,6.1325865,1
14,990.3583984375,0.01718563213944435,-0.12074672430753708,0.00748022785410285,13.071788787841797,-16.059234619140625,-21.578142166137695,-0.479701966047287,-0.05620002746582031,0.08460521697998047,-0.38744724,7.5559196,6.101808,1
14,990.3988037109375,-0.023693377152085304,-0.10716468840837479,-0.03659484535455704,12.547916412353516,-17.28676986694336,-22.272417068481445,-0.203407883644104,0.06908941268920898,0.1538372039794922,-0.60975754,7.4462895,6.1065383,1
14,990.3683471679688,-0.05738185718655586,-0.15377002954483032,-0.0977141484618187,12.636238098144531,-16.360729217529297,-23.110055923461914,-0.07824057340621948,-0.018051624298095703,-0.15591812133789062,-0.63609594,7.574988,6.471082,1
14,990.3961181640625,0.026108644902706146,-0.31569018959999084,-0.09411866962909698,12.251224517822266,-16.353130340576172,-22.05037498474121,-0.24311038851737976,-0.15726470947265625,-0.018870830535888672,-0.4324733,7.6726904,6.3077893,1
14,990.3681030273438,0.0049370089545845985,-0.26495710015296936,-0.12035057693719864,11.978446960449219,-16.133970260620117,-22.7910099029541,-0.3002115488052368,-0.1670513153076172,-0.4481792449951172,-0.41762054,7.5844965,6.7268314,1
14,990.3982543945312,-0.11491374671459198,-0.12673772871494293,-0.17681321501731873,11.62525749206543,-16.20135498046875,-22.655656814575195,-0.09842675924301147,0.027811527252197266,-0.17288923263549805,-0.6518372,7.4796324,6.345711,1
14,990.4085083007812,0.00226403446868062,-0.14058595895767212,-0.20704060792922974,11.35897445678711,-16.450515747070312,-22.907983779907227,-0.09621995687484741,0.15909147262573242,0.2359929084777832,-0.65901333,7.272288,6.1516004,1
14,990.3955688476562,-0.017975911498069763,-0.2515065371990204,-0.17321845889091492,10.859231948852539,-16.233747482299805,-22.689687728881836,-0.0854455828666687,0.21462106704711914,-0.4113011360168457,-0.57776296,7.31042,6.6842203,1
14,990.4031982421875,-0.015046374872326851,-0.35217395424842834,-0.09145946800708771,10.826811790466309,-17.423036575317383,-22.615102767944336,-0.1214287281036377,0.044562339782714844,0.059978485107421875,-0.49651265,7.4391174,6.42146,1
14,990.4083251953125,0.013982118107378483,-0.23219864070415497,-0.05577310547232628,10.67460823059082,-16.40673065185547,-22.49714469909668,-0.18523553013801575,-0.031248092651367188,-0.3062782287597656,-0.4989089,7.489166,6.468804,1
14,990.4307250976562,-0.001197827747091651,-0.1027691438794136,-0.06469466537237167,9.954262733459473,-15.974625587463379,-23.027299880981445,0.11404871940612793,0.17788219451904297,0.19822072982788086,-0.71878624,7.238922,6.3670135,1
14,990.3726806640625,-0.10146570205688477,-0.10183705389499664,-0.05803673714399338,10.336637496948242,-16.459379196166992,-23.134843826293945,-0.24675413966178894,-0.1090235710144043,-0.7715950012207031,-0.27905062,7.5749645,7.136354,1
14,990.4153442382812,-0.11185196042060852,-0.04764178395271301,0.03370910882949829,10.106223106384277,-15.990508079528809,-22.818838119506836,-0.1685275435447693,0.06626129150390625,-0.348268985748291,-0.48936832,7.3485537,6.7576003,1
14,990.4153442382812,-0.11185196042060852,-0.04764178395271301,0.03370910882949829,10.262748718261719,-16.001972198486328,-22.842287063598633,-0.25913965702056885,-0.122222900390625,-0.510134220123291,-0.3029623,7.524916,6.7504983,1
15,990.374755859375,0.10373087227344513,0.11374561488628387,0.07125969976186752,10.475879669189453,-16.118757247924805,-22.406389236450195,-0.4352424740791321,-0.11904764175415039,-1.0386080741882324,-0.28384945,7.522533,6.942241,1
15,990.374755859375,0.10373087227344513,0.11374561488628387,0.07125969976186752,10.475879669189453,-16.118757247924805,-22.406389236450195,-0.5179741382598877,-0.03708028793334961,-1.3431482315063477,-0.30058506,7.818059,6.5445504,1
15,990.3519897460938,0.0074577415362000465,0.2530288100242615,0.04050024226307869,11.303211212158203,-16.08134651184082,-22.844003677368164,-0.10427546501159668,-0.45276784896850586,1.957892894744873,-0.82159,7.6536136,4.773883,1
15,990.3948974609375,0.2641863226890564,0.5620883703231812,0.06566711515188217,12.243997573852539,-17.2550048828125,-22.689348220825195,0.1699497103691101,-0.050238609313964844,0.1573476791381836,-0.9578208,7.613098,6.3575406,1
15,990.4152221679688,0.32717007398605347,-0.0035665580071508884,-0.17401713132858276,11.497480392456055,-17.480079650878906,-22.33018684387207,-0.12454003095626831,-0.13964223861694336,-0.5622682571411133,-0.8741806,7.4581847,6.942239,1
15,990.3489379882812,-0.3435463309288025,0.11654188483953476,-0.10344339162111282,12.312967300415039,-15.610055923461914,-22.796228408813477,0.05493795871734619,-0.013530731201171875,0.09346961975097656,-1.0008516,7.3247223,6.5208764,1
15,990.4096069335938,0.04247858747839928,-0.02247501164674759,-0.020619122311472893,12.063150405883789,-16.054851531982422,-22.50075340270996,-0.031181693077087402,-0.10866975784301758,0.307340145111084,-0.8479043,7.503468,5.9267077,1
15,990.4146728515625,0.1514018476009369,-0.28120091557502747,0.008276177570223808,11.724063873291016,-16.583179473876953,-22.263620376586914,0.13170170783996582,0.01745128631591797,0.6358871459960938,-0.9100482,7.4510355,5.749167,1
15,990.3865356445312,-0.07523291558027267,-0.2929188013076782,0.012936732731759548,10.946840286254883,-16.257593154907227,-21.85496711730957,-2.2351741790771484E-4,-0.026101112365722656,0.3096485137939453,-0.68062395,7.3557043,6.206036,1
15,990.3767700195312,-0.3010687232017517,-0.22767141461372375,0.01333623193204403,10.713659286499023,-15.579839706420898,-22.782503128051758,0.005406618118286133,0.024469852447509766,0.013359546661376953,-0.6662908,7.2007914,6.7173514,1
15,990.38916015625,-0.33462443947792053,-0.19344983994960785,0.009607836604118347,9.753768920898438,-14.687702178955078,-22.532819747924805,-0.02507108449935913,0.28339290618896484,-0.21330976486206055,-0.5468021,7.084011,6.7007804,1
15,990.3866577148438,-0.15605959296226501,-0.09451351314783096,0.055281031876802444,10.01671028137207,-15.073625564575195,-22.550756454467773,-0.317708283662796,-0.18118810653686523,-0.05404329299926758,-0.2624101,7.381922,6.4853644,1
15,990.3739624023438,-0.060185812413692474,-0.0479082390666008,0.03384263813495636,9.914859771728516,-14.694746971130371,-22.78818702697754,-0.1773262619972229,0.0384068489074707,0.36976099014282227,-0.41537017,7.1173773,6.414348,1
15,990.3966064453125,-0.09786945581436157,-0.09517931193113327,-0.026611046865582466,10.236364364624023,-14.446466445922852,-22.69828224182129,-0.07431668043136597,0.017852306365966797,0.05926370620727539,-0.43210584,7.081628,6.591888,1
15,990.3685913085938,-0.10732360929250717,-0.12673775851726532,-5.120621644891798E-4,9.375959396362305,-14.198530197143555,-22.657190322875977,-0.20060408115386963,0.2328033447265625,0.19163799285888672,-0.20575318,7.0053806,6.4616284,1
15,990.40869140625,-0.0740308165550232,-0.13299672305583954,0.027186205610632896,9.034402847290039,-13.885839462280273,-23.238733291625977,-0.47531944513320923,-0.09049177169799805,0.14829730987548828,0.02772826,7.1865273,6.5302105,1
15,990.3838500976562,-0.06083546206355095,-0.1589680165052414,-0.03006243146955967,8.93850326538086,-13.606983184814453,-23.086301803588867,-0.2919348180294037,0.11783504486083984,0.7381954193115234,-0.19220361,6.9410515,5.997585,0
15,990.404052734375,-0.13247384130954742,-0.08519862592220306,-0.10116851329803467,9.121606826782227,-13.435479164123535,-23.201539993286133,-0.18424749374389648,0.1465005874633789,0.5011610984802246,-0.22094333,6.92437,6.60595,0
15,990.4140014648438,-0.27774858474731445,-0.19904877245426178,-0.07906405627727509,8.827522277832031,-13.236942291259766,-22.859899520874023,-0.3397868275642395,0.057084083557128906,-0.3143434524536133,-0.032201976,6.9553537,7.103057,0
15,990.40869140625,-0.2580406069755554,-0.16362884640693665,-0.07240590453147888,8.308270454406738,-12.827493667602539,-23.034799575805664,-0.26243650913238525,-0.01245737075805664,0.015860557556152344,-0.12546903,6.8624077,7.088848,0
15,990.404052734375,-0.2725542485713959,-0.13153786957263947,-0.12460356950759888,8.316423416137695,-13.188417434692383,-23.3228702545166,-0.29428982734680176,0.0011467933654785156,-0.04599809646606445,-0.08968136,6.8004436,7.015459,0
15,990.3756103515625,-0.21502941846847534,-0.13633166253566742,-0.14657437801361084,8.385639190673828,-12.543902397155762,-23.756166458129883,-0.2445507049560547,0.02435588836669922,-0.05639934539794922,-0.14232011,6.7146473,7.1338134,0
15,990.3809204101562,-0.18759827315807343,-0.19212493300437927,-0.17640149593353271,8.112724304199219,-12.430662155151367,-23.7977237701416,-0.2458285242319107,0.07874250411987305,0.03882122039794922,-0.12326178,6.595485,7.221395,0
15,990.4181518554688,-0.21529455482959747,-0.23420295119285583,-0.1859886199235916,7.721654415130615,-11.216694831848145,-23.50056266784668,-0.15978297591209412,0.07275056838989258,-0.2526531219482422,-0.18068032,6.5120716,7.543329,0
15,990.3980712890625,-0.238729789853096,-0.22421617805957794,-0.18838520348072052,7.265231132507324,-10.800750732421875,-24.22441291809082,-0.09028252959251404,0.1600184440612793,-0.2022256851196289,-0.24526857,6.4501076,7.4462676,0
16,990.4205932617188,-0.17614494264125824,-0.22394995391368866,-0.1745365411043167,7.228978633880615,-10.624267578125,-23.767244338989258,-0.18860813975334167,0.011912345886230469,-0.40287208557128906,-0.07803632,6.4310427,7.8202806,0
16,990.403076171875,-0.12061750143766403,-0.3287453353404999,-0.16734576225280762,6.348927021026611,-10.289567947387695,-23.420263290405273,-0.00282895565032959,0.2547922134399414,-0.29161739349365234,-0.3003581,6.240382,7.51964,0
16,990.4027099609375,-0.08346585184335709,-0.20104698836803436,-0.1636170893907547,5.953535079956055,-10.080442428588867,-23.217607498168945,0.1360892504453659,0.10827493667602539,0.03328275680541992,-0.30041897,6.380997,7.349196,0
16,990.4002685546875,-0.015821032226085663,-0.2346028834581375,-0.10875576734542847,5.6089348793029785,-9.770698547363281,-23.644529342651367,-0.05081084370613098,0.041886329650878906,0.07577371597290039,-0.17142515,6.4024487,7.330253,0
16,990.4027709960938,-0.06668678671121597,-0.23633404076099396,-0.11022023856639862,5.633691787719727,-10.221338272094727,-24.083887100219727,0.23572254180908203,0.03461170196533203,0.02194833755493164,-0.32921958,6.359551,7.491217,0
16,990.3975219726562,-0.1516403704881668,-0.16402944922447205,-0.10129815340042114,4.751736164093018,-8.993595123291016,-22.63409996032715,0.342185378074646,0.030042171478271484,-0.01563739776611328,-0.3770785,6.290437,7.566962,0
16,990.3975219726562,-0.1516403704881668,-0.16402944922447205,-0.10129815340042114,4.751736164093018,-8.993595123291016,-22.63409996032715,0.237911194562912,0.03768444061279297,0.0828561782836914,-0.2695938,6.2761393,7.439127,0
16,990.3975219726562,-0.1516403704881668,-0.16402944922447205,-0.10129815340042114,4.694451332092285,-8.625904083251953,-22.49281883239746,0.19980169832706451,-0.0500483512878418,0.052936553955078125,-0.15015961,6.342872,7.4627934,0
16,990.3897094726562,-0.12993504106998444,-0.19492219388484955,-0.048700518906116486,3.9541616439819336,-8.739173889160156,-23.141958236694336,0.027080878615379333,-0.030370712280273438,0.14582586288452148,0.086379796,6.3238077,7.434382,0
16,990.3672485351562,-0.046977050602436066,-0.301049143075943,-0.019139204174280167,3.7004594802856445,-9.45075798034668,-23.21519660949707,-0.04277530312538147,-0.08427190780639648,-0.29050254821777344,0.28468072,6.3142757,7.8912463,0
16,990.4075317382812,-0.03259541094303131,-0.3709571361541748,-0.009285264648497105,3.016230583190918,-9.301054000854492,-23.503442764282227,0.029337376356124878,0.08020496368408203,-0.23218727111816406,0.22248244,6.1259985,7.77288,0
16,990.389404296875,-0.13326223194599152,-0.337534636259079,-0.023000283166766167,2.936253547668457,-8.84953498840332,-22.90165901184082,0.1550600528717041,0.1279463768005371,-0.09090566635131836,0.14594468,6.047352,7.6426787,0
16,990.3968505859375,-0.16015954315662384,-0.1991836279630661,-0.04230792820453644,2.3970553874969482,-8.985456466674805,-23.195539474487305,0.21910294890403748,0.11876869201660156,0.26923704147338867,0.16022319,5.987771,7.3870153,0
16,990.3892822265625,-0.13885368406772614,-0.1730847805738449,-0.019803987815976143,2.080415964126587,-8.597184181213379,-23.092477798461914,0.2831754982471466,0.13832902908325195,0.0849456787109375,0.16255221,5.985389,7.6639724,0
16,990.394287109375,-0.1794656664133072,-0.24605552852153778,0.0330602191388607,1.3599352836608887,-8.271001815795898,-22.923559188842773,0.2823643684387207,0.013870716094970703,-0.2942037582397461,0.3218516,6.033016,8.080744,0
16,990.3993530273438,-0.21090006828308105,-0.23380352556705475,0.08805053681135178,0.5767624378204346,-7.845392227172852,-22.90476417541504,0.1939111351966858,-0.11603164672851562,-0.6565570831298828,0.4509101,6.018717,8.580224,0
16,990.4141235351562,-0.23221106827259064,-0.1895941197872162,0.09017860889434814,0.5001053810119629,-7.179096698760986,-23.85575294494629,0.24351048469543457,0.012018203735351562,-1.2270078659057617,0.43896437,5.8876367,9.04893,0
16,990.3967895507812,-0.1593737155199051,-0.05963196977972984,0.10695648938417435,0.2676258087158203,-6.343410015106201,-23.560888290405273,0.3400200605392456,-0.1156611442565918,-0.8273453712463379,0.345762,5.980584,8.506841,0
16,990.3988037109375,-0.013299505226314068,0.10641597956418991,0.13438701629638672,0.3704543113708496,-6.352520942687988,-23.499216079711914,0.33478307723999023,-0.1499185562133789,-0.5547623634338379,0.3362062,6.0234833,8.38138,0
16,990.4038696289062,0.05687469244003296,0.1375749409198761,0.13891436159610748,0.32324981689453125,-6.818487167358398,-22.9257869720459,0.38707906007766724,-0.044606685638427734,-0.49041080474853516,0.2979716,5.906702,8.36481,0
16,990.3963623046875,0.08710150420665741,0.194566547870636,0.1462380290031433,1.2480049133300781,-7.0584611892700195,-23.593137741088867,0.298444926738739,0.048709869384765625,-0.6317272186279297,0.35294318,5.8089876,8.452396,0
16,990.4010009765625,0.10947199910879135,0.25914815068244934,0.18685120344161987,1.534480094909668,-7.264362335205078,-23.548250198364258,0.16698235273361206,0.2919907569885254,-0.7370996475219727,0.37206614,5.6945906,8.4831705,0
16,990.3937377929688,0.19509254395961761,0.322131872177124,0.22986118495464325,1.8153023719787598,-6.738099575042725,-23.468351364135742,0.3265133798122406,0.06436300277709961,-0.21135377883911133,0.18565762,6.071149,7.6806893,0
16,990.3428344726562,0.25274986028671265,0.49816665053367615,0.3000354468822479,2.4787442684173584,-7.697018146514893,-23.82240867614746,0.19416186213493347,-0.17142391204833984,0.4783620834350586,0.19283113,6.257044,7.2522254,0
17,990.3858032226562,0.22372141480445862,0.4216008484363556,0.2867196202278137,2.848942756652832,-8.19355583190918,-23.31151008605957,0.3785828948020935,0.08670663833618164,-0.03761148452758789,-0.01747644,5.949601,7.8132534,0
17,990.3878784179688,0.08576975017786026,0.36381033062934875,0.2750017046928406,3.6346166133880615,-8.247930526733398,-23.5833683013916,0.3084660470485687,0.17833995819091797,-0.5852012634277344,0.09963256,5.9948835,8.2843275,0
17,990.3882446289062,0.046354956924915314,0.37406349182128906,0.3779327869415283,3.9797921180725098,-7.713709831237793,-24.12972068786621,0.15262645483016968,0.06804990768432617,-0.6258716583251953,0.24064058,6.13073,8.225147,0
17,990.3832397460938,0.17924654483795166,0.38418349623680115,0.4294648766517639,4.9867472648620605,-8.24578857421875,-24.253755569458008,-0.0070687830448150635,0.02131509780883789,-0.23927974700927734,0.3003919,6.202228,7.616776,0
17,990.3751831054688,0.261671245098114,0.40282562375068665,0.39364537596702576,5.303822040557861,-7.896008491516113,-24.63102149963379,0.0777362585067749,0.1681046485900879,-0.0382232666015625,0.24542803,6.125963,7.7304025,0
17,990.3651733398438,0.18004542589187622,0.3286566734313965,0.3482384979724884,6.515318870544434,-8.922003746032715,-23.75687599182129,0.0044997334480285645,0.2679128646850586,-0.5569467544555664,0.22870249,6.049698,7.9079432,0
17,990.3624877929688,0.13317379355430603,0.4105488061904907,0.3337242603302002,6.806061267852783,-9.755619049072266,-24.368776321411133,0.11403553187847137,0.2441720962524414,-0.18642807006835938,0.121160716,6.166479,7.685426,0
17,990.3750610351562,0.10640900582075119,0.4813888370990753,0.34850478172302246,7.42455530166626,-9.808841705322266,-24.076047897338867,0.05574969947338104,0.25092267990112305,-0.1963791847229004,0.08053619,6.133113,7.5575976,0
17,990.3876953125,0.14862003922462463,0.45861881971359253,0.3357216417789459,7.888481616973877,-9.111074447631836,-24.11138343811035,0.1042516678571701,0.2508525848388672,0.04727792739868164,0.03752172,6.237977,7.3634872,0
17,990.36181640625,0.1656641811132431,0.3274582624435425,0.312152624130249,9.236152648925781,-10.21969223022461,-24.17719841003418,0.05416390299797058,0.33600378036499023,-0.374539852142334,0.092493296,6.2403603,7.657021,0
17,990.36181640625,0.1656641811132431,0.3274582624435425,0.312152624130249,9.236152648925781,-10.21969223022461,-24.17719841003418,0.20998942852020264,0.3915886878967285,-0.19484281539916992,-0.13932341,6.178395,7.422668,0
17,990.359130859375,0.18656989932060242,0.40295881032943726,0.3409147262573242,9.651491165161133,-9.883451461791992,-24.26087760925293,0.21076330542564392,0.23429632186889648,-0.07378578186035156,-0.15604886,6.361907,7.3327146,0
17,990.359130859375,0.18656989932060242,0.40295881032943726,0.3409147262573242,9.651491165161133,-9.883451461791992,-24.26087760925293,0.1395980417728424,0.2357325553894043,0.0680994987487793,-0.06761873,6.4906044,7.0439167,0
17,990.3818969726562,0.10840615630149841,0.46767356991767883,0.34517574310302734,10.815515518188477,-10.7952880859375,-24.309911727905273,-0.08167774230241776,-0.0053958892822265625,0.1295018196105957,0.0040821433,6.5883183,7.211988,0
17,990.3745727539062,0.06992347538471222,0.3463667035102844,0.2571583390235901,11.326591491699219,-11.26411247253418,-25.669965744018555,0.15136200189590454,0.310117244720459,-0.2446436882019043,-0.24273439,6.3571568,7.3728976,0
17,990.3870849609375,0.055941857397556305,0.344901978969574,0.2140151411294937,11.267946243286133,-10.371672630310059,-24.32743263244629,0.1546054482460022,0.3132200241088867,-0.029581546783447266,-0.195633,6.3619404,7.102973,0
17,990.3893432617188,0.01933804340660572,0.3976278007030487,0.24531611800193787,11.943428039550781,-11.424729347229004,-24.600854873657227,-0.0802169144153595,0.3718409538269043,0.04746818542480469,-0.049898446,6.3261924,7.2686725,0
17,990.3893432617188,0.01933804340660572,0.3976278007030487,0.24531611800193787,13.169492721557617,-10.961359024047852,-24.97087287902832,-0.18001747131347656,0.3093833923339844,-0.2206287384033203,-0.05711761,6.2832947,7.543264,0
17,990.4013671875,-0.10023730993270874,0.3879072368144989,0.23546263575553894,13.815948486328125,-10.936053276062012,-24.14815330505371,-0.11849528551101685,0.37572383880615234,-0.5181922912597656,-0.2005612,6.2427797,7.6379466,0
17,990.4093627929688,-0.12260736525058746,0.3816486895084381,0.21508967876434326,13.956413269042969,-11.226097106933594,-23.921873092651367,0.001574397087097168,0.3812136650085449,0.005402088165283203,-0.30337647,6.2809134,7.1739707,0
17,990.3788452148438,-0.07160739600658417,0.41174235939979553,0.2350635528564453,14.567436218261719,-11.180765151977539,-23.94169807434082,-0.013266772031784058,0.2534332275390625,0.08652114868164062,-0.27713698,6.3738627,7.1289897,0
17,990.429443359375,0.0410446934401989,0.3182653486728668,0.2648911476135254,14.521646499633789,-10.538908958435059,-23.8182315826416,-0.00468108057975769,0.2788243293762207,-0.043118953704833984,-0.2724067,6.3547974,7.358604,0
17,990.38623046875,-0.09743861109018326,0.22611992061138153,0.2947188913822174,15.642383575439453,-10.437664031982422,-23.996858596801758,-0.12377437949180603,0.10388660430908203,0.005443572998046875,-0.19597927,6.44298,7.3514977,0
17,990.38623046875,-0.09743861109018326,0.22611992061138153,0.2947188913822174,15.642383575439453,-10.437664031982422,-23.996858596801758,-0.09644070267677307,0.0819239616394043,-0.09892892837524414,-0.21275805,6.416765,7.51483,0
17,990.3709106445312,-0.16361714899539948,0.3049492835998535,0.2644924819469452,16.229625701904297,-9.571931838989258,-23.753084182739258,-0.047786712646484375,0.1455373764038086,-0.16923904418945312,-0.30362383,6.3714843,7.410669,0
18,990.4033203125,-0.02420031651854515,0.2759207785129547,0.26649007201194763,16.98690414428711,-10.442891120910645,-24.28072166442871,-0.04599502682685852,0.014515399932861328,0.2164769172668457,-0.24870549,6.5216317,7.1218653,0
18,990.3956909179688,-0.011017199605703354,0.2780512273311615,0.2919234335422516,17.209165573120117,-10.550836563110352,-24.308656692504883,-0.2483905553817749,-0.09956026077270508,0.16353416442871094,0.021303922,6.6169643,7.26626,0
18,990.3881225585938,-0.047501999884843826,0.261672705411911,0.2827357351779938,17.49205207824707,-10.391389846801758,-24.207605361938477,-0.6048603653907776,-0.08530282974243164,-0.07731246948242188,0.24590522,6.5764494,7.4153895,0
18,990.385498046875,-0.07959259301424026,0.27978211641311646,0.23466593027114868,18.501510620117188,-10.552233695983887,-24.58470344543457,-0.5519557595252991,-0.011249065399169922,-0.2610011100769043,0.14309001,6.4048553,7.640269,0
18,990.3701782226562,-0.03884578496217728,0.2162656933069229,0.1656903177499771,17.905868530273438,-10.05661392211914,-24.213979721069336,-0.42678311467170715,0.21168088912963867,-0.4214324951171875,0.08568287,6.25471,7.893555,0
18,990.4004516601562,-0.007020554970949888,0.1792476922273636,0.19059103727340698,17.91043472290039,-10.052194595336914,-24.445894241333008,-0.5922533273696899,0.10653543472290039,-0.4815483093261719,0.27204573,6.4072404,7.6236897,0
18,990.3902587890625,0.06621678918600082,0.21959447860717773,0.2309381067752838,18.63243865966797,-10.376909255981445,-24.69212532043457,-0.6717735528945923,0.14011430740356445,0.1414623260498047,0.29589534,6.321444,7.252034,0
18,990.3724975585938,0.0606246292591095,0.17498648166656494,0.190458282828331,19.002094268798828,-10.505157470703125,-24.27967643737793,-0.6542679071426392,0.28299379348754883,-0.18844127655029297,0.2791165,6.221347,7.4674454,0
18,990.3826904296875,0.02706930786371231,0.14742271602153778,0.17141693830490112,18.92997169494629,-11.046701431274414,-24.390844345092773,-0.5293014049530029,0.3016691207885742,-0.12552976608276367,0.19303054,6.2570977,7.3916903,0
18,990.3899536132812,0.028268206864595413,0.16553212702274323,0.18273556232452393,19.212018966674805,-11.151103973388672,-24.813119888305664,-0.5311235189437866,0.20237970352172852,0.21216630935668945,0.16430229,6.3476634,7.0602775,0
18,990.3770751953125,0.06888184696435928,0.12891362607479095,0.18699681758880615,19.4222412109375,-11.164920806884766,-24.92168617248535,-0.4661366045475006,0.14597368240356445,0.03888845443725586,0.13796389,6.4477625,7.2614846,0
18,990.3820190429688,0.020545998588204384,0.09309405088424683,0.19125807285308838,19.416261672973633,-12.277153968811035,-24.239809036254883,-0.5073142647743225,-0.027927875518798828,0.2652735710144043,0.269359,6.655109,7.0176587,0
18,990.3896484375,0.019081739708781242,0.10707556456327438,0.2117646038532257,19.18889045715332,-11.805336952209473,-24.07840919494629,-0.6926155090332031,-0.21819734573364258,0.12098407745361328,0.35773593,6.7885733,7.1170764,0
18,990.3843383789062,0.04864327982068062,0.043958619236946106,0.16369476914405823,19.29987144470215,-12.17537784576416,-24.304811477661133,-0.4747611880302429,-0.1690845489501953,0.23963022232055664,0.26209038,6.8314734,6.965571,0
18,990.3871459960938,0.005367424339056015,0.08443854749202728,0.14452023804187775,18.8365421295166,-11.608871459960938,-23.419740676879883,-0.5552805066108704,-0.42312002182006836,0.3544149398803711,0.31349438,6.9911237,7.039066,0
18,990.4046630859375,-0.054158248007297516,0.08403974026441574,0.12121586501598358,19.11554527282715,-11.71622085571289,-23.687402725219727,-0.44698062539100647,-0.28047895431518555,-0.02504253387451172,0.15098232,6.8004613,7.3586383,0
18,990.4043579101562,-0.039784640073776245,0.05874094367027283,0.0714116021990776,19.632869720458984,-11.652935028076172,-24.232728958129883,-0.3089331388473511,-0.10919427871704102,-0.23352956771850586,0.09840578,6.652698,7.507772,0
18,990.3887939453125,-0.01754727214574814,0.09083200991153717,0.07593896985054016,19.543601989746094,-11.736480712890625,-24.29107093811035,-0.2749789357185364,-0.029096126556396484,-0.08696460723876953,-0.0019688606,6.5811996,7.330232,0
18,990.3687133789062,-0.025803077965974808,0.16992782056331635,0.09311633557081223,20.0441837310791,-11.689398765563965,-23.986040115356445,-0.30784302949905396,-0.053437232971191406,-0.06438159942626953,0.05539006,6.619332,7.3917794,0
18,990.4041137695312,-0.03219467028975487,0.13983413577079773,0.11069318652153015,20.510175704956055,-11.358448028564453,-24.00023078918457,-0.3517114222049713,-0.006815433502197266,-0.13859844207763672,0.107969165,6.5478334,7.460428,0
18,990.3837890625,0.025862177833914757,0.07964674383401871,0.11002738028764725,20.40430450439453,-11.352278709411621,-23.90729331970215,-0.37215420603752136,-0.0026831626892089844,-0.11868715286254883,0.10080075,6.585966,7.339701,0
18,990.376220703125,-0.0030331057496368885,0.15275044739246368,0.1284031718969345,20.469356536865234,-11.186384201049805,-23.3111515045166,-0.4439008831977844,-0.07457685470581055,0.1748523712158203,0.18922839,6.6407814,7.110083,0
18,990.3858032226562,-0.009291540831327438,0.1559462547302246,0.15037423372268677,20.134838104248047,-11.710298538208008,-23.30592918395996,-0.4011645019054413,-0.03665494918823242,0.04236316680908203,0.14621139,6.585966,7.330232,0
18,990.3912353515625,-0.028865769505500793,0.09416097402572632,0.15929581224918365,20.43196678161621,-11.905889511108398,-23.80217933654785,-0.5361477732658386,-0.11045169830322266,-0.12462949752807617,0.33262503,6.6932135,7.2947245,0
19,990.3859252929688,0.03944423794746399,0.09123148769140244,0.1980447620153427,20.837875366210938,-12.210615158081055,-23.846895217895508,-0.5044957399368286,-0.0984954833984375,0.19295835494995117,0.27765852,6.6550813,7.1479583,0
19,990.3859252929688,0.03944423794746399,0.09123148769140244,0.1980447620153427,20.014564514160156,-11.875312805175781,-23.73964500427246,-0.4281633496284485,-0.04758405685424805,-0.027126789093017578,0.24420118,6.655081,7.297092,0
19,990.3807373046875,0.041974227875471115,0.0820435956120491,0.18259842693805695,20.469600677490234,-12.186811447143555,-23.637571334838867,-0.3370024859905243,-0.08729124069213867,0.10846233367919922,0.11753768,6.6526976,7.076943,0
19,990.3856811523438,0.00828525796532631,0.10707729309797287,0.18486212193965912,20.722463607788086,-11.739076614379883,-24.087656021118164,-0.19198130071163177,-0.05848217010498047,0.21831989288330078,0.076910585,6.69798,7.105349,0
19,990.3807373046875,0.04277315363287926,0.12665151059627533,0.1768726110458374,20.818225860595703,-12.123851776123047,-23.541006088256836,-0.28193598985671997,-0.15779829025268555,0.0053424835205078125,0.14860892,6.7551785,7.1739984,0
19,990.3854370117188,0.016541026532649994,0.11093887686729431,0.1985773742198944,20.738088607788086,-12.198558807373047,-24.06317710876465,-0.30069321393966675,-0.10590171813964844,0.15789365768432617,0.18445867,6.707513,7.1574273,0
19,990.3778076171875,0.010815221816301346,0.14342941343784332,0.19817788898944855,20.84436798095703,-12.678935050964355,-23.35858726501465,-0.2949126958847046,-0.023140907287597656,-0.14599895477294922,0.2059691,6.628865,7.3728433,0
19,990.4002685546875,0.011880474165081978,0.11173783242702484,0.17647314071655273,21.203208923339844,-13.343710899353027,-23.528947830200195,-0.3231201171875,0.010707378387451172,0.05278730392456055,0.19641078,6.6407814,7.105349,0
19,990.40283203125,0.022799400612711906,0.16766417026519775,0.1780710071325302,21.745994567871094,-13.573138236999512,-23.291231155395508,-0.28128957748413086,-0.14394712448120117,0.13174915313720703,0.21553123,6.793311,7.1171856,0
19,990.3975219726562,0.03198728337883949,0.1150667816400528,0.17767156660556793,21.61397933959961,-13.011879920959473,-23.380712509155273,-0.22324353456497192,-0.10153484344482422,0.12314701080322266,0.12710613,6.709896,7.095881,0
19,990.4205322265625,8.283155621029437E-4,0.14409522712230682,0.1582304835319519,21.21858787536621,-12.802760124206543,-23.178056716918945,-0.20760366320610046,-0.06857919692993164,0.014698505401611328,0.14144683,6.7241955,7.188202,0
19,990.400146484375,-6.364341243170202E-4,0.15261732041835785,0.19311785697937012,21.54009246826172,-12.554473876953125,-23.088151931762695,-0.2667515277862549,-0.11935234069824219,0.20775222778320312,0.23704416,6.7980776,7.065107,0
19,990.4000244140625,0.01986987702548504,0.1414320468902588,0.22081468999385834,21.962711334228516,-14.05526065826416,-22.9114933013916,-0.28254327178001404,-0.1642446517944336,-0.2112445831298828,0.2370454,6.7766275,7.436758,0
19,990.4000244140625,0.006420912221074104,0.13264362514019012,0.22028207778930664,22.08061981201172,-14.155564308166504,-22.923795700073242,-0.23554420471191406,-0.1253066062927246,0.006188392639160156,0.24660635,6.826677,7.1834674,0
19,990.3873291015625,0.02000300958752632,0.17365628480911255,0.2502426207065582,22.340953826904297,-13.806382179260254,-23.06132698059082,-0.30987313389778137,-0.20103025436401367,-0.0886383056640625,0.32786423,6.800461,7.3752112,0
19,990.4172973632812,0.018804578110575676,0.13171154260635376,0.2535715401172638,22.270111083984375,-13.346029281616211,-22.92337989807129,-0.2582307755947113,0.03701639175415039,-0.14897775650024414,0.28859925,6.664639,7.214147,0
19,990.39990234375,0.08099813014268875,0.14502395689487457,0.2605016827583313,22.56557846069336,-13.649005889892578,-22.64324378967285,-0.357208251953125,-0.12265634536743164,0.18633460998535156,0.47736216,6.833853,7.0318694,0
19,990.3790893554688,0.0881914421916008,0.10694033652544022,0.2754165828227997,22.671995162963867,-14.023469924926758,-22.637727737426758,-0.27915382385253906,-0.07381057739257812,-0.05135679244995117,0.33870858,6.7814217,7.157327,0
19,990.39990234375,0.02973547764122486,0.15607556700706482,0.23067563772201538,22.395057678222656,-14.282937049865723,-22.34891700744629,-0.17517057061195374,-0.03702878952026367,0.1395859718322754,0.298041,6.7790384,7.0508,0
19,990.3994750976562,0.019615856930613518,0.14888495206832886,0.21602845191955566,22.305789947509766,-14.36648178100586,-22.407262802124023,-0.11548790335655212,-0.09950590133666992,-0.15386390686035156,0.26693296,6.7933397,7.306454,0
19,990.391845703125,0.005368333775550127,0.12931068241596222,0.2009817659854889,22.80455207824707,-14.953006744384766,-22.449800491333008,-0.09773731231689453,0.01302337646484375,-0.06680631637573242,0.21909565,6.68371,7.1786213,0
19,990.391845703125,0.013890820555388927,0.15447746217250824,0.17847824096679688,23.290054321289062,-14.814743041992188,-22.0707950592041,-0.013625115156173706,0.17290687561035156,-0.03142833709716797,0.21666646,6.5073485,7.2093916,0
19,990.38427734375,0.016820672899484634,0.12984319031238556,0.15371103584766388,23.106407165527344,-14.617961883544922,-22.05401039123535,-0.11371009051799774,0.32155609130859375,-0.273587703704834,0.25486553,6.381036,7.349053,0
19,990.3994750976562,0.042254216969013214,0.13263943791389465,0.12521539628505707,23.258365631103516,-14.633845329284668,-21.845544815063477,-0.11767393350601196,0.35083484649658203,0.1296987533569336,0.23331714,6.359587,7.0389457,0
19,990.38916015625,0.037061434239149094,0.20401203632354736,0.09379028528928757,23.435222625732422,-14.994444847106934,-22.7755069732666,-0.159083753824234,0.26685333251953125,0.01455068588256836,0.23805767,6.4906683,7.1644044,0
20,990.4119262695312,0.021881813183426857,0.15154774487018585,0.05703885480761528,23.794904708862305,-15.395380020141602,-22.422555923461914,-0.0920017659664154,0.33530521392822266,-0.06200122833251953,0.15198192,6.395338,7.126525,0
20,990.385986328125,0.04505167156457901,0.1355687379837036,0.0036426782608032227,24.566038131713867,-15.72685718536377,-22.521989822387695,-0.02273651212453842,0.3766775131225586,0.05830669403076172,0.013328314,6.4501543,7.043669,0
20,990.3737182617188,-0.009143230505287647,0.13490289449691772,0.0016454714350402355,24.786235809326172,-15.467987060546875,-22.571069717407227,0.1004084050655365,0.09856605529785156,0.09268426895141602,-0.1181556,6.633668,7.0128922,0
20,990.3934936523438,-0.04842444509267807,0.09428965300321579,0.018024060875177383,24.599544525146484,-15.274148941040039,-22.399667739868164,0.1399562954902649,0.17335271835327148,-0.08174610137939453,-0.094295874,6.619369,7.254343,0
20,990.385986328125,-0.04030143469572067,8.127197506837547E-4,0.06556160748004913,24.553319931030273,-15.370351791381836,-22.00200080871582,-0.008105700835585594,-0.05721855163574219,-0.004598140716552734,0.07773778,6.841015,7.069698,0
20,990.3809204101562,-0.03297736868262291,0.015593190677464008,0.0921933576464653,24.487041473388672,-14.905580520629883,-22.095964431762695,-0.12094680964946747,-0.16097259521484375,-0.021184444427490234,0.15417534,6.781434,7.3632274,0
20,990.3707275390625,-0.10901016741991043,-0.008641616441309452,0.031207185238599777,24.62459945678711,-15.09264850616455,-22.414148330688477,-0.03142864629626274,0.06264495849609375,-0.5246524810791016,0.0800491,6.597923,7.661491,0
20,990.4212036132812,-0.08078030496835709,0.016658330336213112,-0.005544245708733797,24.808818817138672,-14.445465087890625,-23.40422248840332,-0.10769514739513397,0.11617326736450195,-0.308443546295166,0.10151887,6.531192,7.455541,0
20,990.3983764648438,-0.0240542683750391,0.0820387527346611,-0.05441288277506828,24.69283676147461,-14.817899703979492,-22.67169761657715,0.061952196061611176,0.2442150115966797,-0.23273563385009766,-0.08732265,6.4144125,7.4437013,0
20,990.3983764648438,-0.0240542683750391,0.0820387527346611,-0.05441288277506828,24.69283676147461,-14.817899703979492,-22.67169761657715,-0.04060335457324982,0.15149164199829102,-0.017444610595703125,0.017793775,6.54311,7.133594,0
20,990.3983764648438,-0.0240542683750391,0.0820387527346611,-0.05441288277506828,25.268585205078125,-14.226318359375,-22.410112380981445,-0.10201842337846756,0.024741649627685547,0.20299863815307617,-0.015704155,6.5955434,7.067309,0
20,990.38818359375,0.019488757476210594,0.08004133403301239,-0.035237982869148254,25.3709774017334,-14.973490715026855,-22.074235916137695,0.09157362580299377,0.16089248657226562,-0.10523653030395508,-0.23800433,6.4692307,7.322963,0
20,990.4111938476562,-0.027915092185139656,0.06539389491081238,-0.0717230886220932,25.61318588256836,-14.536067008972168,-21.983186721801758,0.03457733988761902,0.1311631202697754,-0.01709604263305664,-0.1950254,6.495447,7.277982,0
20,990.413330078125,-0.09489315748214722,0.0996154174208641,-0.08890031278133392,25.806941986083984,-14.354247093200684,-22.639551162719727,-0.002272859215736389,0.08099985122680664,-0.07366752624511719,-0.24525264,6.4811487,7.3726673,0
20,990.3851928710938,-0.0715901330113411,0.08190535008907318,-0.05840697139501572,25.91419792175293,-14.464861869812012,-22.110719680786133,0.05026708543300629,0.18050575256347656,-0.15631723403930664,-0.23573235,6.4048843,7.5123286,0
20,990.378173828125,-0.04961870238184929,0.04621896147727966,-0.06706207990646362,25.779983520507812,-13.642709732055664,-21.52227210998535,-0.1135534793138504,0.0847930908203125,-0.39014577865600586,-0.1951433,6.4501677,7.6306853,0
20,990.3929443359375,-0.019923720508813858,0.056205689907073975,-0.0414954274892807,25.922245025634766,-13.71944522857666,-22.771451950073242,0.01797652244567871,0.10536766052246094,0.12748956680297852,-0.3242373,6.4263363,7.2992735,0
