Timestamp,P,Gx,Gy,Gz,Mx,My,Mz,LiAx,LiAy,LiAz,Ax,Ay,Az,Value,Type
0,990.7657471,8.93E-05,1.40E-04,-1.57E-04,1.261909485,16.17897415,-13.86925316,0.005218945,0.006058306,0.060201645,0.07644862,-0.15487221,9.757707,0,
0,990.793396,7.55E-04,8.06E-04,-6.90E-04,1.001193047,16.72430229,-12.70622063,0.014495842,0.011060357,0.046006203,0.081204295,-0.16202146,9.757705,0,
0,990.7684937,3.56E-04,2.73E-04,1.09E-04,0.670014858,16.83547211,-12.43073845,1.79E-04,-0.017516971,0.050744057,0.0764004,-0.15010446,9.771905,0,
0,990.8062134,-4.31E-05,4.06E-04,-2.39E-05,0.76757431,16.66400528,-13.35955238,-0.009445682,-0.022202268,0.027076721,0.07398641,-0.14057076,9.764802,0,
0,990.831543,2.23E-04,1.40E-04,-9.56E-04,0.905676842,16.10864639,-13.57929039,-0.00934352,0.00162527,0.055484772,0.08830172,-0.15725312,9.757698,0,
0,990.8366699,-1.76E-04,-2.60E-04,-4.23E-04,0.882845879,16.08655167,-12.41971397,3.47E-04,-0.00813739,0.041280746,0.07632807,-0.1620191,9.755328,0,
0,990.8366699,-1.76E-04,-2.60E-04,-4.23E-04,0.882845879,16.08655167,-12.41971397,0.018049553,0.001090035,0.045897484,0.070387244,-0.15489945,9.760176,0,
0,990.8265991,-0.001116426,0.001206361,3.72E-04,0.846869469,16.47486687,-13.36070442,-0.00118953,0.005669266,0.050627708,0.07997221,-0.15966657,9.750709,0,
0,990.8444214,2.12E-04,8.45E-06,-5.61E-04,1.088098764,16.54252625,-13.09390068,-0.011160903,-0.027697712,0.036424637,0.084777385,-0.14060095,9.767282,0,
0,990.8343506,-3.21E-04,5.41E-04,-9.61E-04,0.637188911,16.12038803,-13.1536808,0.002727747,-0.00851427,0.060100555,0.08002296,-0.14775142,9.750712,0,
0,990.8544922,-3.21E-04,8.07E-04,-4.28E-04,0.976275921,16.64871979,-13.39081764,-0.011315048,-0.013812736,0.045881271,0.08243823,-0.14536878,9.767287,0,
0,990.8544922,-3.21E-04,8.07E-04,-4.28E-04,0.976275921,16.64871979,-13.39081764,0.002764598,-0.004332572,0.036413193,0.0752939,-0.15251923,9.764921,0,
0,990.8670654,2.11E-04,8.08E-04,-2.91E-05,0.469467402,16.48983002,-12.68754768,0.002939448,0.005105257,0.050609589,0.07531926,-0.15966967,9.762557,0,
0,990.8670654,2.11E-04,8.08E-04,-2.91E-05,0.469467402,16.48983002,-12.68754768,-0.011354625,-0.009234443,0.050607681,0.07773453,-0.14537063,9.750723,0,
0,990.8366699,-5.56E-05,-3.91E-04,1.04E-04,0.820154905,16.18597794,-12.56984138,0.012393072,-0.008983746,0.045876503,0.07775992,-0.14537129,9.767295,0,
0,990.8192139,-5.88E-04,-3.91E-04,2.37E-04,0.686321259,16.11362076,-13.00688744,-0.001980089,5.64E-04,0.064811707,0.07778525,-0.15490499,9.743627,0,
0,990.8292847,6.10E-04,5.41E-04,-5.62E-04,0.98290658,16.28632355,-13.6015873,0.002970189,-0.008851737,0.031669617,0.08020055,-0.15252233,9.774402,0,
0,990.8444214,-3.23E-04,-5.24E-04,1.04E-04,0.558437824,15.9412384,-13.05407906,-0.001761049,4.40E-04,0.04113102,0.07305622,-0.15728953,9.7578335,0,
0,990.8494873,-1.90E-04,1.42E-04,3.70E-04,0.44509244,16.04596138,-13.27369499,-0.001761526,0.01007688,0.06480217,0.082641184,-0.16205668,9.753102,0,
0,990.8266602,-1.90E-04,-5.24E-04,-9.62E-04,1.008505344,16.09952927,-13.51761818,-0.001973651,-0.018496066,0.050598145,0.08027667,-0.1429911,9.769674,0,
0,990.8243408,-5.73E-05,8.08E-04,-6.96E-04,0.628058434,16.11154938,-12.68985176,-0.011667036,-0.004247099,0.036392212,0.08269194,-0.15490809,9.767309,0,
0,990.8519897,7.56E-05,5.42E-04,-9.62E-04,0.497267485,16.04214096,-13.28151131,0.007394813,4.02E-04,0.031654358,0.075547576,-0.15252545,9.762578,0,
0,990.8395996,-5.78E-05,6.75E-04,-1.63E-04,0.725234509,16.83459473,-12.59316444,-0.002500318,-0.004303068,0.036390305,0.07318306,-0.16444245,9.767314,0,
1,990.8165894,-3.24E-04,6.75E-04,6.36E-04,0.624608517,16.58281136,-13.33277321,-0.01664263,-0.013933167,0.055321693,0.08515793,-0.14776015,9.764949,0,
1,990.8115845,3.41E-04,-0.001056175,-2.97E-04,1.054592371,16.08981705,-13.21621513,-0.002438501,-0.013907716,0.036382675,0.08518332,-0.15014401,9.767319,0,
1,990.8395996,-5.91E-04,4.09E-04,3.69E-04,0.863474369,16.38515091,-13.51198006,0.002129808,0.009815425,0.050583839,0.0804289,-0.15491125,9.762587,0,
1,990.8218384,-1.92E-04,5.42E-04,-4.30E-04,1.055273533,15.82744408,-13.81684303,-0.002648175,1.88E-04,0.055314064,0.08045423,-0.15252855,9.750752,0,
1,990.8369751,-3.25E-04,-2.57E-04,2.36E-04,0.591102123,16.13010025,-13.45508766,-0.012456834,-0.014072135,0.045845985,0.08047962,-0.15014592,9.75549,0,
1,990.8343506,-1.92E-04,0.001873458,1.02E-04,1.066087246,16.36397362,-13.23402596,0.010836616,-0.014008626,0.078989029,0.07333529,-0.14537993,9.750757,0,
1,990.8446045,7.37E-05,9.29E-06,1.02E-04,0.759123802,16.39279366,-13.49634743,0.005865633,0.009479284,0.045842171,0.070970744,-0.16444686,9.774432,0,
1,990.8065186,-7.25E-04,8.08E-04,-9.63E-04,0.794694424,16.47868729,-13.35288429,0.005700946,0.004396424,0.036367416,0.07758033,-0.15489998,9.772014,0,
1,990.84198,-3.25E-04,4.09E-04,5.02E-04,0.434576511,16.14156723,-13.43163872,0.006814025,-2.38E-04,0.060150146,0.0674254,-0.15965196,9.750653,0,
1,990.8319092,3.51E-04,4.07E-04,5.06E-04,0.877577305,15.92420387,-13.41020012,-0.007514559,-3.26E-04,0.036478043,0.076963514,-0.15488485,9.764855,0,
1,990.8471069,-5.81E-04,-5.25E-04,1.07E-04,0.505856514,16.41926575,-13.84379387,0.006909534,-0.009895027,0.041213036,0.07694203,-0.14296791,9.7601185,0,
1,990.8067017,-1.82E-04,-1.26E-04,-2.92E-04,0.890594482,16.19983292,-13.5053196,-0.002544656,-0.014692247,0.031744957,0.081700295,-0.14773396,9.774321,0,
1,990.8269043,-4.48E-04,6.73E-04,-2.92E-04,0.896544456,16.09980774,-13.11546135,0.011488453,-0.004887626,0.050691605,0.07689899,-0.15011668,9.767217,0,
1,990.8117065,8.84E-04,5.40E-04,-5.59E-04,0.819314003,15.92213058,-13.09316444,-0.002469055,-0.019074574,0.03175354,0.07926738,-0.14773294,9.767215,0,
1,990.8395996,2.19E-04,-0.001324197,-2.59E-05,0.979863167,16.28337669,-13.44697762,-0.006887592,-0.004416868,0.041228294,0.07685596,-0.15011564,9.76958,0,
1,990.8268433,0.001150896,-0.001191073,9.06E-04,1.136824608,17.0099678,-13.74463081,-0.006815121,-0.008942217,0.045969009,0.081614226,-0.15488169,9.767211,0,
1,990.8394775,-5.80E-04,1.40E-04,-2.92E-04,1.126416206,15.99922943,-13.52991676,-0.00655897,-0.013814524,0.060170174,0.08876243,-0.14296469,9.755374,0,
1,990.8319092,-4.46E-04,5.40E-04,5.07E-04,0.817386389,16.39486504,-13.81338692,-0.001961201,-0.004505858,0.060172081,0.0744015,-0.15011409,9.750636,0,
1,990.8319092,-4.46E-04,5.40E-04,5.07E-04,0.817386389,16.39486504,-13.81338692,-0.006736584,-0.004504025,0.045969009,0.07676989,-0.15726337,9.760103,0,
1,990.8193359,2.20E-04,6.73E-04,3.74E-04,0.72257328,15.9371376,-13.4640522,-0.006834656,-0.004277691,0.041243553,0.09108779,-0.14534643,9.7601,0,
1,990.8193359,2.20E-04,6.73E-04,3.74E-04,0.72257328,15.9371376,-13.4640522,0.002545439,-0.023181856,0.0507164,0.07194704,-0.14057934,9.755364,0,
1,990.8193359,2.20E-04,6.73E-04,3.74E-04,0.464197159,16.32748413,-13.67803383,0.002488531,0.009947121,0.050715446,0.07670534,-0.15726176,9.7529955,0,
1,990.8192749,-3.12E-04,1.40E-04,-2.52E-05,0.476236343,16.23334885,-13.59739494,-0.001954205,1.35E-04,0.045975685,0.07668382,-0.15964451,9.760096,0,
1,990.8192749,-3.12E-04,1.40E-04,-2.52E-05,0.476236343,16.23334885,-13.59739494,-0.006599024,0.004794255,0.050709724,0.07905221,-0.15964398,9.76246,0,
1,990.8446045,-4.45E-04,-5.26E-04,1.08E-04,1.175982952,16.73051453,-13.65732765,-0.011445895,-0.014101028,0.036512375,0.08381051,-0.14534381,9.76956,0,
2,990.8242798,4.75E-04,-7.84E-04,2.27E-04,0.531860352,15.75827026,-12.96229744,-0.006109543,-0.004361331,0.041248322,0.0861789,-0.15964293,9.760089,0,
2,990.8242798,4.75E-04,-7.84E-04,2.27E-04,0.531860352,15.75827026,-12.96229744,0.00837446,3.11E-04,0.055450439,0.07898766,-0.15010932,9.762454,0,
2,990.8369751,-7.23E-04,-2.52E-04,4.93E-04,0.980406046,15.91508675,-13.34852791,-0.006247073,-0.009529248,0.050715446,0.08374596,-0.15010872,9.760086,0,
2,990.8369751,-7.23E-04,-2.52E-04,4.93E-04,0.980406046,15.91508675,-13.34852791,-0.020203091,0.00925751,0.041240692,0.08611432,-0.16202465,9.755349,0,
2,990.8294067,-8.56E-04,-0.001317172,9.38E-05,1.377318859,15.70743561,-13.62849236,0.009251863,-0.005477756,0.031761169,0.06697363,-0.15010771,9.774284,0,
2,990.8292847,-0.001388149,-9.18E-04,9.39E-05,0.65477252,16.40044022,-13.4807148,-0.014941685,-0.001045406,0.031761169,0.093241036,-0.15487376,9.764813,0,
2,990.8218384,-5.89E-04,4.14E-04,-3.05E-04,0.652271748,16.02920151,-13.22765541,0.01365409,0.008370906,0.041230202,0.07649019,-0.15725651,9.7624445,0,
2,990.8444214,-1.89E-04,-1.19E-04,-4.39E-04,0.680370808,16.21364594,-13.39674568,-0.006146677,0.008551463,0.045898438,0.08440077,-0.16919103,9.750676,0,
2,990.7991333,4.72E-04,1.48E-04,6.25E-04,0.47623539,16.23335075,-13.59739494,0.017758533,-8.73E-04,0.05063343,0.072460175,-0.15250832,9.76488,0,
2,990.8344727,2.03E-04,-1.18E-04,2.24E-04,0.581129551,15.85741806,-13.51457787,-0.010843702,0.004053742,0.03643322,0.08202869,-0.1596584,9.771983,0,
2,990.8243408,8.69E-04,-5.17E-04,2.24E-04,0.369819641,16.60781097,-13.60290718,0.008492664,-0.009979784,0.050637245,0.07008803,-0.14774224,9.764882,0,
2,990.8318481,6.97E-05,-0.001182934,-4.42E-04,0.834831715,16.56900024,-13.44133949,0.00912068,-4.98E-04,0.055364609,0.08204648,-0.15012577,9.75068,0,
2,990.8469849,-4.63E-04,-3.84E-04,-4.22E-05,0.662245274,16.3018856,-13.16816521,0.008860625,-0.005448774,0.050629616,0.07249576,-0.15250921,9.757782,0,
2,990.8218384,4.69E-04,2.82E-04,9.09E-05,0.727437019,16.57369614,-13.27109718,-7.77E-04,0.004215732,0.041161537,0.07489458,-0.16680908,9.76015,0,
2,990.809021,-1.97E-04,0.001347108,3.57E-04,0.974318027,15.90919495,-13.03930855,0.008139245,-0.024435982,0.045898438,0.07251358,-0.14774308,9.764886,0,
2,990.8140869,6.94E-05,2.82E-04,9.08E-05,0.570613146,15.953022,-13.67252159,-0.006210163,-3.80E-04,0.036434174,0.079692185,-0.15489313,9.76962,0,
2,990.8165894,2.02E-04,1.56E-05,0.001156051,0.819015741,15.28999329,-13.5180378,0.022059254,-0.010008842,0.055372238,0.06775159,-0.14536026,9.755418,0,
2,990.8419189,-3.30E-04,0.001480308,3.57E-04,0.972390652,16.38192749,-13.75953102,-0.002270401,-0.014775947,0.04117012,0.070150405,-0.15251032,9.760154,0,
2,990.8469849,-1.97E-04,1.49E-04,3.57E-04,0.604960442,16.66958046,-13.02688026,0.002390236,0.004395306,0.055376053,0.07493907,-0.15966043,9.745951,0,
2,990.8292847,6.02E-04,2.82E-04,4.90E-04,0.396802425,16.3165741,-12.8971653,-0.006908968,-0.004731402,0.03170681,0.08211768,-0.15727726,9.774358,0,
2,990.8343506,6.02E-04,-3.84E-04,3.57E-04,0.364411831,16.3395462,-13.89431572,-0.011503793,-0.004867211,0.060109138,0.08690637,-0.15012765,9.760156,0,
2,990.8292847,-5.97E-04,-3.84E-04,3.57E-04,0.628876209,15.95509338,-13.98955727,0.012050055,-0.019060582,0.060112,0.074965805,-0.13821149,9.745954,0,
2,990.8065186,6.01E-04,6.81E-04,-4.42E-04,0.640233755,16.12333298,-13.3082943,-0.002590775,-0.00931704,0.045915604,0.074974686,-0.14536157,9.764892,0,
2,990.8192139,2.02E-04,0.001080918,9.05E-05,0.712057114,16.03274536,-13.62199593,-0.002774931,0.0049261,0.04591465,0.077373505,-0.1596615,9.760159,0,
3,990.8115845,-1.98E-04,5.48E-04,9.05E-05,0.492297173,16.51192474,-13.8471241,-0.012425296,-0.023689389,0.041179657,0.0821622,-0.1501286,9.769628,0,
3,990.8241577,-1.98E-04,-6.50E-04,-4.27E-05,0.602054358,16.77254868,-13.57134819,-0.00727509,1.91E-04,0.041176796,0.08456099,-0.15251198,9.7719965,0,
3,990.8494873,6.84E-05,1.57E-05,-4.27E-05,0.401506424,16.4269104,-13.82815742,0.020925149,0.004727721,0.055379868,0.06306076,-0.15489551,9.762527,0,
3,990.8519897,-6.49E-05,-0.00104954,-1.76E-04,0.622107983,16.21157455,-13.07971382,0.007093579,-0.01415436,0.069581032,0.070239365,-0.14536265,9.750693,0,
3,990.8519897,-6.49E-05,-0.00104954,-1.76E-04,0.622107983,16.21157455,-13.07971382,-0.011945963,-0.018855378,0.036438942,0.072638184,-0.14774618,9.769631,0,
3,990.8519897,-6.49E-05,-0.00104954,-1.76E-04,0.545856953,16.40365982,-13.23316765,0.002733663,-0.013974175,0.045905113,0.072647065,-0.14536312,9.755429,0,
3,990.8165894,6.01E-04,-6.50E-04,-3.09E-04,0.743200064,16.22013474,-13.94569588,-0.0022332,4.25E-04,0.064846992,0.08221558,-0.15489647,9.753062,0,
3,990.8164673,6.80E-05,2.82E-04,-4.29E-05,0.611186504,16.78138733,-14.03518105,-0.011878639,-0.013700172,0.045915604,0.0798029,-0.15251258,9.757794,0,
3,990.8265991,6.01E-04,6.82E-04,4.90E-04,0.782901525,15.57239342,-13.75994682,0.011730783,-0.013810545,0.041181564,0.06543881,-0.15251198,9.7672615,0,
3,990.8265991,6.01E-04,6.82E-04,4.90E-04,0.782901525,15.57239342,-13.75994682,-0.002451934,3.92E-04,0.036445618,0.08217442,-0.16442853,9.7719965,0,
3,990.8416138,-6.47E-05,4.15E-04,-1.76E-04,0.867741585,15.75743484,-14.16876793,-0.016946547,-0.013939798,0.045912743,0.07979089,-0.14297917,9.767262,0,
3,990.8065186,-6.48E-05,1.49E-04,-4.28E-05,1.219408989,15.82334518,-14.22681618,0.007048041,-0.004330188,0.045912743,0.07740736,-0.1596623,9.762529,0,
3,990.8065186,-6.48E-05,1.49E-04,-4.28E-05,1.219408989,15.82334518,-14.22681618,0.00687705,0.005093679,0.04117775,0.079803586,-0.15966246,9.774365,0,
3,990.8340454,-1.59E-04,8.40E-04,-8.82E-04,0.893638134,16.20278168,-13.65992546,0.011649847,-0.009097427,0.055382729,0.07503015,-0.15727934,9.755427,0,
3,990.8165283,2.40E-04,-3.59E-04,-8.33E-05,0.671376705,16.31072617,-13.63199043,-0.012332171,-0.009053081,0.045913696,0.07981625,-0.15727952,9.760163,0,
3,990.831665,-1.59E-04,5.73E-04,4.49E-04,0.737249613,16.32015991,-14.33555412,-0.002853788,-0.004348919,0.041178703,0.0798226,-0.15489635,9.764898,0,
3,990.8164673,-2.60E-05,1.74E-04,-6.16E-04,0.568548203,16.31983948,-13.69366646,0.002076678,-0.004553273,0.041173935,0.070269346,-0.16204628,9.753062,0,
3,990.8291016,-4.25E-04,-6.25E-04,1.83E-04,0.465719223,16.3289566,-13.75534248,0.002114028,-0.009061679,0.041176796,0.070275664,-0.14536354,9.760165,0,
3,990.8567505,0.001172335,4.09E-05,-8.34E-05,0.540150642,15.50325775,-13.94944954,0.011626892,-0.004039988,0.036446571,0.07028201,-0.15728012,9.776736,0,
3,990.8063965,-2.61E-05,-2.25E-04,-6.16E-04,0.942471027,15.5638752,-13.93800545,-0.012033522,-0.00854893,0.036447525,0.075068176,-0.15489694,9.757799,0,
3,990.831604,3.73E-04,-3.59E-04,-3.50E-04,0.731024265,16.20835114,-13.32725716,0.012165077,-0.013287589,0.031710625,0.0774644,-0.15013057,9.772002,0,
3,990.8287964,3.73E-04,-8.91E-04,-0.001015562,0.799665928,16.00889969,-12.7872715,-0.001982331,-0.00354746,0.041181564,0.06791115,-0.1548973,9.764901,0,
3,990.8062134,2.40E-04,-6.25E-04,-7.49E-04,0.61104846,16.67547226,-13.33609962,-0.006468706,0.020513162,0.050650597,0.0774771,-0.16919711,9.764902,0,
3,990.8213501,7.73E-04,-6.25E-04,4.96E-05,0.522322655,16.22363663,-13.2959919,0.007979795,-0.008081049,0.045913696,0.0727036,-0.15251431,9.760169,0,
3,990.8340454,2.40E-04,-4.92E-04,-8.35E-05,0.64730072,16.49898911,-13.7932682,0.007773489,-0.008007422,0.045916557,0.07270998,-0.1501312,9.769639,0,
4,990.8110352,2.40E-04,3.07E-04,-0.001015667,0.827902794,16.29925919,-13.65544319,0.002975695,-0.003000617,0.050654411,0.0751062,-0.15728119,9.764904,0,
4,990.8289795,3.73E-04,-6.25E-04,-8.36E-05,1.004076719,16.20102692,-13.98478127,0.01278948,-0.007618025,0.055389404,0.07989237,-0.1382151,9.757803,0,
4,990.8239746,5.06E-04,-7.58E-04,-3.50E-04,0.721188784,16.04158401,-14.08582497,0.008061744,0.002022758,0.045919418,0.07033908,-0.15489826,9.760171,0,
4,990.8491821,-6.93E-04,3.07E-04,5.82E-04,0.493680954,16.40748215,-13.22535133,-0.001787156,0.020965457,0.055390358,0.065565616,-0.16919807,9.760171,0,
4,990.8414307,3.73E-04,-3.58E-04,-8.37E-05,0.671919823,15.94243622,-13.53354073,0.003169343,-0.007420078,0.045921326,0.0846912,-0.15251526,9.764907,0,
4,990.8414307,3.73E-04,-3.58E-04,-8.37E-05,0.671919823,15.94243622,-13.53354073,-0.00161539,-0.012026682,0.050658226,0.08230764,-0.14774886,9.764907,0,
4,990.8286133,5.06E-04,-3.58E-04,-2.17E-04,0.580724239,16.33162308,-14.31210518,0.012919202,-0.002175286,0.031723022,0.0775342,-0.14774898,9.757806,0,
4,990.8286133,5.06E-04,-3.58E-04,-2.17E-04,0.580724239,16.33162308,-14.31210518,0.012468293,0.016662747,0.017478943,0.073171556,-0.1668255,9.76968,0,
4,990.821228,-3.09E-05,-2.21E-04,-8.85E-04,0.618520737,16.57691956,-13.02355003,-0.001533426,0.007288739,0.041147232,0.08036411,-0.15252635,9.76258,0,
4,990.821228,-3.09E-05,-2.21E-04,-8.85E-04,0.618520737,16.57691956,-13.02355003,-0.010711372,0.002374545,0.036405563,0.08755666,-0.15491018,9.772052,0,
4,990.8441162,-3.13E-05,-6.21E-04,-3.53E-04,0.446071148,16.41572571,-13.44944954,-0.001039661,-0.016680375,0.041136742,0.07801989,-0.14537764,9.762585,0,
4,990.8638916,-9.64E-04,4.52E-05,4.46E-04,0.816407681,16.02510071,-13.63762856,-0.006054386,0.016255215,0.045863152,0.07326293,-0.17159432,9.76022,0,
4,990.8638916,-9.64E-04,4.52E-05,4.46E-04,0.816407681,16.02510071,-13.63762856,-0.001022108,0.001757696,0.055326462,0.08284533,-0.15729517,9.757854,0,
4,990.8111572,2.35E-04,-2.21E-04,-3.53E-04,0.638849735,16.22777748,-13.93006325,0.018391348,-0.012264028,0.045856476,0.07330859,-0.15252915,9.769692,0,
4,990.8111572,2.35E-04,-2.21E-04,-3.53E-04,0.638849735,16.22777748,-13.93006325,-3.14E-04,-0.007508308,0.069522858,0.073331386,-0.15729627,9.743656,0,
4,990.8137817,-1.65E-04,-7.54E-04,-8.86E-04,0.845485687,16.57931137,-13.98247719,-4.75E-04,0.001982868,0.036379814,0.07813406,-0.15729684,9.767329,0,
4,990.8137817,-1.65E-04,-7.54E-04,-8.86E-04,0.845485687,16.57931137,-13.98247719,0.009248964,0.011552155,0.060049057,0.07815686,-0.16206393,9.76023,0,
4,990.8210449,-4.32E-04,-3.54E-04,-3.53E-04,0.445230007,16.15187836,-13.9727726,0.013855748,-0.007885724,0.036371231,0.07578981,-0.15491468,9.764966,0,
4,990.8236694,-8.32E-04,-4.87E-04,1.79E-04,0.517895222,16.32513428,-13.76315498,0.014085568,-0.003159747,0.055301666,0.07342273,-0.15014872,9.762601,0,
4,990.8236694,2.33E-04,1.79E-04,7.12E-04,0.282616615,16.15745163,-13.64010429,0.009188689,0.001633123,0.045832634,0.07583544,-0.15729907,9.762605,0,
4,990.798645,9.98E-05,4.55E-05,1.79E-04,0.780836344,15.93920898,-13.78109169,0.014313281,-0.007817522,0.031625748,0.07346839,-0.1382334,9.774442,0,
4,990.8011475,-1.67E-04,-0.001019772,4.59E-05,0.178700924,16.90314865,-13.89867592,-7.98E-05,-0.002839267,0.055299759,0.0687114,-0.15253365,9.757873,0,
4,990.8513794,2.33E-04,-2.21E-04,-8.73E-05,0.710672855,16.13718796,-14.24376869,-2.05E-04,0.015827894,0.045824051,0.07590395,-0.16683385,9.76261,0,
4,990.7984619,-4.33E-04,-8.76E-05,1.79E-04,0.916329145,16.11895752,-14.12042427,-2.16E-04,-0.008015975,0.031617165,0.07831669,-0.15015149,9.772081,0,
5,990.8134766,-3.01E-04,5.78E-04,-8.75E-05,0.554009438,16.04273605,-13.52124214,0.013764061,-0.003354996,0.050555229,0.061610192,-0.15253532,9.762614,0,
5,990.8210449,-4.34E-04,3.12E-04,4.55E-05,1.036168098,15.54592133,-13.41250038,-3.33E-04,0.005971238,0.026875496,0.08314216,-0.15491918,9.776819,0,
5,990.8259888,-3.69E-04,-0.001468223,2.28E-04,0.670535564,16.04687881,-14.15531349,0.023758076,-0.003624469,0.041074753,0.06882554,-0.1453866,9.757884,0,
5,990.8112183,-3.69E-04,3.96E-04,-3.85E-05,1.165168762,16.19398117,-14.24014473,0.013926543,0.005738124,0.05053997,0.06884837,-0.15492025,9.755519,0,
5,990.8059082,3.00E-05,1.30E-04,3.61E-04,0.689801216,16.85462189,-13.43570137,-2.99E-04,0.001000777,0.041069031,0.07126111,-0.16207066,9.762622,0,
5,990.7983398,2.96E-04,-5.36E-04,6.27E-04,-0.003858089,16.36334991,-13.68499184,0.00449691,-0.00346154,0.036336899,0.07606375,-0.159688,9.772094,0,
5,990.8085327,1.63E-04,3.96E-04,-3.05E-04,0.279029369,16.52279282,-13.58394432,0.013562411,-0.008543581,0.045801163,0.071306765,-0.1501554,9.769729,0,
5,990.8134766,-7.70E-04,7.96E-04,2.27E-04,0.374385834,16.6122303,-13.83482552,0.018471077,8.47E-04,0.041062355,0.07371953,-0.15015593,9.767362,0,
5,990.8109131,-2.37E-04,-2.70E-04,-3.90E-05,0.276527882,16.15155983,-13.33088112,0.001336157,0.010082677,0.055452347,0.08118266,-0.16202092,9.755336,0,
5,990.8059082,-3.58E-04,-6.71E-04,1.06E-04,0.927144527,16.65548706,-13.53760719,0.00659804,0.010330915,0.036520958,0.07156217,-0.16678602,9.762431,0,
5,990.8388062,7.13E-04,-8.05E-04,5.08E-04,0.923259735,16.38869476,-13.90632057,0.002058528,-0.018073916,0.045995712,0.07867098,-0.13818511,9.76716,0,
5,990.843689,-8.51E-05,1.27E-04,-6.90E-04,0.408573389,16.80256462,-14.31313515,0.006346107,0.005964875,0.055478096,0.08338988,-0.16916633,9.755319,0,
5,990.8261108,8.48E-04,2.60E-04,3.76E-04,0.475693226,16.60163879,-13.69584846,-0.003104836,0.001202464,0.050748825,0.08571893,-0.15009853,9.764782,0,
5,990.8438721,4.92E-05,2.60E-04,2.43E-04,0.475394249,15.9695034,-14.12071419,-0.003165789,-0.017919108,0.050755501,0.083268136,-0.14771375,9.75294,0,
5,990.81604,1.83E-04,0.001458569,1.10E-04,0.551102161,16.14570618,-14.06571007,-0.01759474,0.006010756,0.046029091,0.0808174,-0.16201198,9.7600355,0,
5,990.8235474,-3.49E-04,-6.26E-06,2.43E-04,0.722030401,16.30542755,-13.56250954,0.001430251,-0.013074785,0.027098656,0.07358676,-0.14532748,9.778968,0,
5,990.8261108,9.84E-04,0.001191967,-4.22E-04,0.321529865,16.87842369,-13.2263813,9.19E-04,-0.007936195,0.027118683,0.071136,-0.14532605,9.769493,0,
5,990.8261108,9.84E-04,0.001191967,-4.22E-04,0.321529865,16.87842369,-13.2263813,0.010481045,0.010946468,0.04605484,0.08302462,-0.15962419,9.762387,0,
5,990.843689,-8.80E-04,7.92E-04,-2.24E-05,0.823879719,15.92655182,-13.32507515,0.005278885,-0.008438602,0.036590576,0.071014166,-0.1477063,9.762382,0,
5,990.7955933,7.19E-04,2.60E-04,5.11E-04,0.645235777,16.86580658,-13.81441689,0.024342537,0.006413996,0.055546761,0.06617355,-0.15962121,9.755274,0,
5,990.7955933,7.19E-04,2.60E-04,5.11E-04,0.710970879,16.76932526,-13.81889915,8.89E-04,0.011067763,0.050813675,0.080452085,-0.15961969,9.769471,0,
5,990.8109131,-2.12E-04,-9.39E-04,-2.17E-05,0.34378624,16.05654907,-13.41267586,0.001109116,0.006533772,0.017680168,0.07800126,-0.16438481,9.771832,0,
5,990.8413086,4.54E-04,-4.06E-04,1.12E-04,0.322753906,16.24776077,-13.72855568,0.015011199,-0.017186999,0.041363716,0.065990865,-0.14770034,9.774195,0,
5,990.8413086,4.54E-04,-4.06E-04,1.12E-04,0.322753906,16.24776077,-13.72855568,0.005573153,-0.012165815,0.046104431,0.070709765,-0.15484866,9.767087,0,
5,990.8411255,7.21E-04,-4.07E-04,7.78E-04,0.353216171,16.69752502,-13.45163155,0.005435541,0.001953095,0.060314178,0.08020851,-0.15723047,9.757613,0,
6,990.8411255,7.21E-04,-4.07E-04,7.78E-04,0.353216171,16.69752502,-13.45163155,-0.013984092,0.016108409,0.041380882,0.08253753,-0.16437882,9.767076,0,
6,990.8312378,-3.43E-04,9.25E-04,3.79E-04,0.664746046,16.67312241,-13.42122459,0.00533168,-0.017249689,0.074524879,0.08008677,-0.1429278,9.750501,0,
6,990.8284912,-6.09E-04,6.58E-04,-2.87E-04,0.526889563,16.22805405,-13.52790642,0.005667947,-0.007551461,0.050859451,0.07285616,-0.15007612,9.757596,0,
6,990.8335571,-7.58E-05,-6.73E-04,3.79E-04,0.67982769,16.58193588,-13.49519539,0.019577943,0.00205484,0.036667824,0.060845792,-0.15722448,9.764692,0,
6,990.8109131,1.92E-04,7.91E-04,-8.19E-04,0.017174244,16.17213821,-13.36910439,0.005034588,-0.012093544,0.050879478,0.07034448,-0.15007314,9.7575865,0,
6,990.8210449,4.59E-04,-7.69E-06,0.001045875,0.501290798,16.41484833,-13.61187553,-0.014063463,-0.030849934,0.050889969,0.08701292,-0.13100547,9.745744,0,
6,990.8259888,-7.34E-05,-7.79E-06,3.80E-04,0.711514235,16.40103531,-13.72044563,0.005328104,0.002676904,0.046162605,0.0773924,-0.15483674,9.764676,0,
6,990.8261108,1.93E-04,-7.88E-06,5.14E-04,0.939182997,16.56135559,-13.45697594,0.005178057,-0.016530454,0.05563736,0.07821807,-0.13817403,9.764751,0,
6,990.8235474,-7.43E-05,-1.41E-04,5.13E-04,0.685372829,16.95611763,-13.90287209,-0.010862283,-0.00212124,0.036540031,0.08148694,-0.14296213,9.762465,0,
6,990.8286133,4.42E-05,7.94E-04,7.73E-04,0.709012985,16.02980042,-13.46738625,-0.006136641,-0.01165472,0.041274071,0.0886668,-0.14534566,9.7671995,0,
6,990.8133545,-6.22E-04,-5.25E-06,-2.58E-05,0.598711491,16.13746643,-13.84161186,0.008015037,-0.011981875,0.06020546,0.083897114,-0.1453459,9.75063,0,
6,990.8337402,-8.88E-04,-5.23E-06,-5.59E-04,0.574636459,16.32572937,-14.00288582,-0.001899675,0.00214465,0.05547142,0.07195777,-0.15964583,9.752997,0,
6,990.8312378,-2.22E-04,0.001326362,-2.59E-05,0.781815052,16.30897331,-13.95684624,-0.011683352,0.002105221,0.046001434,0.076747715,-0.15487951,9.764835,0,
6,990.8383789,-2.22E-04,3.94E-04,5.07E-04,0.582651615,15.85889053,-13.59188271,-0.006711967,0.001999006,0.050733566,0.08631748,-0.1620296,9.753,0,
6,990.8335571,1.70E-04,-3.04E-04,6.20E-05,0.700454473,16.86493301,-13.97683907,0.016561784,0.006352678,0.03652668,0.06720841,-0.1501135,9.764837,0,
6,990.8185425,-0.001161406,0.001294236,7.28E-04,0.804369926,16.11923409,-13.71826744,-0.012160316,-0.012461111,0.045998573,0.086337775,-0.14534721,9.757737,0,
6,990.8059082,5.70E-04,-4.37E-04,3.28E-04,0.678986549,16.31808853,-14.01851845,-0.006740801,0.00199914,0.041261673,0.07678828,-0.16203043,9.769573,0,
6,990.8108521,3.68E-05,-0.001102575,-3.38E-04,0.610207081,16.41162491,-13.8594265,0.002720237,-0.007547393,0.06493187,0.06723884,-0.15964738,9.750637,0,
6,990.8310547,3.03E-04,3.62E-04,-4.71E-04,0.776407957,16.04070663,-14.24825096,-0.001810804,0.00684537,0.036525726,0.074418664,-0.1620309,9.769575,0,
6,990.8209229,3.03E-04,-8.36E-04,-6.04E-04,0.8283391,17.03731155,-13.92965126,-0.01140403,-0.016997978,0.02705574,0.07920861,-0.14534816,9.771943,0,
6,990.8335571,1.70E-04,-1.70E-04,-8.70E-04,0.701540709,16.12835121,-13.77993965,-0.011114247,-0.007104442,0.055464745,0.08638847,-0.15011498,9.764843,0,
6,990.8109741,-4.96E-04,-3.72E-05,-4.71E-04,0.683276892,16.1106739,-12.85227776,0.003407359,-0.002721831,0.036517143,0.072059214,-0.15249848,9.771945,0,
6,990.8109741,-4.96E-04,-3.72E-05,-4.71E-04,0.683276892,16.1106739,-12.85227776,-0.006370783,-0.012267709,0.036519051,0.08162898,-0.14773217,9.767212,0,
6,990.8486938,3.03E-04,2.29E-04,3.28E-04,0.575041771,15.85152435,-13.20535851,-0.00623367,-0.016860545,0.045989037,0.07446939,-0.13581601,9.760112,0,
6,990.8284912,3.02E-04,9.60E-05,-7.16E-05,0.959916592,15.73801041,-13.56595802,-0.001680061,-0.011839926,0.036523819,0.08403915,-0.14296612,9.767214,0,
7,990.8261108,9.68E-04,8.95E-04,1.95E-04,0.928368568,16.02482414,-14.0397892,0.002728902,-0.001954094,0.031795502,0.07687959,-0.15011626,9.767215,0,
7,990.8261108,9.68E-04,8.95E-04,1.95E-04,0.928368568,16.02482414,-14.0397892,0.012280323,0.007508725,0.036529541,0.07210994,-0.16441616,9.767216,0,
7,990.8084106,-9.74E-05,3.62E-04,-0.001136995,0.588739157,15.86478233,-13.90110207,-0.01657287,-0.0069931,0.050728798,0.08406961,-0.15964988,9.76485,0,
7,990.8084106,-9.74E-05,3.62E-04,-0.001136995,0.588739157,15.86478233,-13.90110207,-0.002564609,-0.011878163,0.045994759,0.07213023,-0.14773372,9.769586,0,
7,990.8411255,-9.75E-05,7.62E-04,-6.04E-04,0.641212702,16.49309921,-13.48404503,-0.002515696,0.011767134,0.04598999,0.084089875,-0.15488377,9.760118,0,
7,990.8411255,-9.75E-05,7.62E-04,-6.04E-04,0.641212702,16.49309921,-13.48404503,-0.007510707,0.006826535,0.041254997,0.07932019,-0.15250072,9.767219,0,
7,990.8084106,-4.97E-04,0.001161332,-2.05E-04,0.436640739,15.77474976,-13.41049004,-0.003236145,-0.007103115,0.045996666,0.08411017,-0.15488425,9.760119,0,
7,990.8286133,7.01E-04,7.62E-04,-2.05E-04,0.261584759,16.34865952,-13.95598793,-0.003658861,-0.01179029,0.041217804,0.07503861,-0.14536312,9.767265,0,
7,990.8286133,7.01E-04,7.62E-04,-2.05E-04,0.261584759,16.34865952,-13.95598793,-0.013104983,-0.006997287,0.041215897,0.07506779,-0.1477471,9.772002,0,
7,990.8334351,1.65E-04,-7.00E-04,-2.08E-04,0.700018644,16.12687683,-13.70263481,0.00613863,0.011890188,0.01280117,0.07748687,-0.16443077,9.779107,0,
7,990.8334351,1.65E-04,-7.00E-04,-2.08E-04,0.700018644,16.12687683,-13.70263481,0.020335697,0.006897151,0.045937538,0.07512617,-0.15251508,9.767274,0,
7,990.8108521,-7.68E-04,-3.41E-05,-3.41E-04,0.67884922,16.21217155,-13.31944466,-0.017732419,0.002181858,0.036464691,0.08710486,-0.15489909,9.774378,0,
7,990.8337402,-2.35E-04,-3.41E-05,-3.41E-04,0.659338951,16.40485573,-13.71263313,-0.003048189,-0.011920393,0.031729698,0.07757443,-0.14774993,9.767279,0,
7,990.8388062,6.96E-04,-3.40E-05,7.24E-04,0.473329306,16.33631897,-14.14186287,0.001387827,-0.006960317,0.02699852,0.07521367,-0.15728375,9.779117,0,
7,990.8310547,4.30E-04,2.32E-04,-7.52E-05,0.155711651,16.35482979,-13.86304665,0.006138645,0.002049312,0.041189194,0.08002269,-0.15966776,9.767283,0,
7,990.8463745,-6.36E-04,-3.39E-05,-7.53E-05,1.177069187,15.99393463,-13.46042824,-0.0083666,-0.007404968,0.064861298,0.08722159,-0.14298552,9.757817,0,
7,990.815979,-5.03E-04,3.66E-04,-0.001140667,1.027066469,16.74934387,-14.02041054,-0.008737758,-0.012235984,0.04118824,0.08725077,-0.14060295,9.762555,0,
7,990.8312378,-1.04E-04,8.98E-04,-2.09E-04,0.673441887,15.94390678,-13.61084938,-0.003922209,0.002008855,0.022246361,0.087279946,-0.15252012,9.774394,0,
7,990.8007202,2.96E-04,-5.66E-04,4.57E-04,0.567026377,16.318367,-13.61636162,-0.008536555,0.002295271,0.045919418,0.0801394,-0.15490416,9.767295,0,
7,990.8310547,2.95E-04,7.65E-04,1.91E-04,0.936383247,15.5579834,-13.62878609,-0.018482283,0.002570033,0.036455154,0.092118114,-0.16682127,9.76493,0,
7,990.8184204,5.61E-04,9.95E-05,-8.75E-04,0.571592331,16.32278442,-13.84827614,-0.003978811,-0.011660546,0.045919418,0.07780784,-0.1525223,9.753097,0,
7,990.8209839,1.62E-04,-3.00E-04,-2.09E-04,0.643415451,16.23219681,-14.16198158,0.005477488,0.007229343,0.041181564,0.06588754,-0.1668227,9.762568,0,
7,990.8433228,-6.38E-04,3.66E-04,4.57E-04,0.650589705,15.50150681,-14.27429771,7.21E-04,0.006848842,0.055374146,0.077866256,-0.15014046,9.757836,0,
7,990.8458862,-3.72E-04,-1.67E-04,3.23E-04,0.103536129,16.35865402,-13.85523415,-0.009004369,-0.002512947,0.036437988,0.08028531,-0.14299133,9.760207,0,
8,990.8458862,1.61E-04,4.99E-04,-4.76E-04,0.516372681,16.3236618,-13.68585014,0.01029063,0.002579153,0.045907021,0.07792461,-0.14775863,9.760209,0,
8,990.8312378,2.94E-04,-5.66E-04,-7.65E-05,0.551102638,16.14570618,-14.06571007,0.005570792,-0.002228931,0.04590416,0.08512348,-0.15014258,9.769681,0,
8,990.8134766,1.60E-04,-3.34E-05,-7.42E-04,0.347946644,16.53517532,-14.44211769,6.01E-04,-0.026186898,0.060103416,0.08037287,-0.13584363,9.764949,0,
8,990.8261108,-7.77E-04,6.72E-04,2.08E-05,1.065927505,15.83775711,-14.35797691,-0.008419178,-0.007098287,0.050628662,0.08757174,-0.15729389,9.750748,0,
8,990.8209229,5.55E-04,-0.001325159,4.20E-04,0.961576462,15.84539795,-14.34234047,-0.013153546,0.002556279,0.036423683,0.08282113,-0.15729457,9.772056,0,
8,990.8413086,1.55E-04,2.73E-04,-1.13E-04,0.562054634,16.7881546,-14.1819706,-0.008753352,-0.011712655,0.060096741,0.09002,-0.14776215,9.7720585,0,
8,990.8084106,-5.11E-04,1.40E-04,1.54E-04,0.873148441,16.02569962,-13.87735939,-0.008970767,0.00708133,0.045887947,0.08287948,-0.15967926,9.762592,0,
8,990.8387451,-5.12E-04,0.001338136,2.03E-05,0.823038101,15.66270447,-13.84839821,0.005386241,0.002199471,0.045883179,0.07531488,-0.15728632,9.76729,0,
8,990.8261108,-1.04E-04,0.001203726,2.36E-05,0.393054008,16.15570068,-13.96495628,-0.003729403,0.00676398,0.060162544,0.079674184,-0.1596593,9.762518,0,
8,990.8261108,-1.04E-04,0.001203726,2.36E-05,0.393054008,16.15570068,-13.96495628,-0.022621147,-0.007563367,0.050692558,0.08683878,-0.15012601,9.762517,0,
8,990.8108521,-3.71E-04,-1.28E-04,2.37E-05,0.791788578,16.58165741,-13.89735603,-0.013075866,-0.012068689,0.060165405,0.086833715,-0.15012589,9.753048,0,
8,990.8312378,5.62E-04,-1.28E-04,-1.09E-04,0.345743656,16.79607773,-13.76418495,0.001238637,-0.002527297,0.05543232,0.08204883,-0.1548923,9.760148,0,
8,990.838562,-1.04E-04,6.71E-04,-1.09E-04,1.089460373,16.0177784,-14.29515266,-0.008571357,0.00682734,0.060166359,0.07726398,-0.15012565,9.745946,0,
8,990.838562,-1.04E-04,6.71E-04,-1.09E-04,0.41908884,16.70696259,-14.15519142,8.63E-04,0.002424866,0.036502838,0.0724791,-0.14774224,9.77435,0,
8,990.843811,1.62E-04,4.05E-04,2.90E-04,0.901386023,16.31605911,-14.74553108,-0.018581964,-0.026095226,0.045974731,0.07964373,-0.14535883,9.757781,0,
8,990.8337402,5.62E-04,5.38E-04,2.90E-04,0.350309849,16.80049515,-13.99609947,-0.014168523,-0.002275616,0.050713539,0.08919826,-0.15489182,9.760147,0,
8,990.7905884,-1.04E-04,8.04E-04,2.90E-04,1.277672291,15.82541656,-14.54385185,-0.018636912,-0.007218838,0.036504745,0.09158307,-0.15012518,9.767248,0,
8,990.7905884,-1.04E-04,8.04E-04,2.90E-04,1.277672291,15.82541656,-14.54385185,0.009748831,-0.012211964,0.022299767,0.06767899,-0.14774176,9.77435,0,
8,990.7958374,-7.70E-04,-3.94E-04,-2.42E-04,0.578765869,15.59209824,-13.96059608,-0.009459935,-0.012321055,0.036503792,0.07723352,-0.14535835,9.769614,0,
8,990.798645,-9.03E-04,0.001336813,2.38E-05,0.266693592,15.98478889,-14.08944893,-0.014734931,-0.007238746,0.050715446,0.08200824,-0.15250811,9.762512,0,
8,990.8387451,2.96E-04,4.05E-04,-5.09E-04,0.641893148,16.23072433,-14.08467293,0.013635166,-0.011878282,0.031783104,0.06527388,-0.1429748,9.769614,0,
8,990.8387451,2.96E-04,4.05E-04,-5.09E-04,0.641893148,16.23072433,-14.08467293,0.00909628,0.007117733,0.045982361,0.0796082,-0.15250781,9.764878,0,
8,990.8363037,1.63E-04,-2.61E-04,6.90E-04,0.955488443,15.83950424,-14.03312111,0.004627608,0.007191211,0.041249275,0.067653626,-0.15965751,9.750675,0,
8,990.8236694,-1.04E-04,-0.001193228,2.39E-05,0.411181211,16.06745911,-14.19353676,-1.72E-04,0.002205729,0.060182571,0.072428346,-0.15727413,9.741206,0,
8,990.8235474,-6.36E-04,5.19E-06,-1.09E-04,0.353460789,15.69709778,-13.77805519,1.39E-04,-0.007781953,0.045969963,0.07003337,-0.15727398,9.771979,0,
9,990.8361206,-0.001035668,-3.94E-04,-5.09E-04,0.932390928,16.39753342,-14.37014961,-1.71E-04,-0.007701665,0.041241646,0.070028335,-0.14774075,9.76961,0,
9,990.8236694,1.63E-04,1.38E-04,-1.09E-04,0.627790213,16.69167519,-14.18645668,0.01407484,-0.00297679,0.036507607,0.06524342,-0.14535734,9.771977,0,
9,990.8363037,2.96E-04,5.38E-04,5.57E-04,0.48093915,16.34368515,-14.52839088,-3.49E-04,-0.002690449,0.045981407,0.079577774,-0.1620402,9.757774,0,
9,990.8463745,4.29E-04,6.71E-04,2.40E-05,0.477459431,15.60268784,-14.09957314,0.009238243,-0.002626494,0.036514282,0.06762317,-0.1572735,9.76961,0,
9,990.843811,5.62E-04,-2.61E-04,2.41E-05,0.392511845,16.52398872,-14.06340599,-0.010282792,0.016751528,0.04598999,0.07239795,-0.16203997,9.767242,0,
9,990.8235474,2.96E-04,0.001070401,6.90E-04,0.491019011,15.51002693,-14.09623909,-0.014933713,0.002614453,0.060195923,0.08434236,-0.1477401,9.755406,0,
9,990.8513794,1.63E-04,-5.28E-04,-1.09E-04,0.732683659,16.31574059,-14.1036396,0.013710745,0.016711995,0.04598999,0.072387815,-0.15250656,9.7696085,0,
9,990.8235474,-1.03E-04,-2.61E-04,-2.42E-04,0.565099239,16.79109955,-14.33658409,-0.009590767,0.006874651,0.060216904,0.07923651,-0.15488192,9.755376,0,
9,990.8032227,-5.02E-04,1.38E-04,-1.09E-04,0.84518671,15.94717407,-14.40735054,0.005047798,-0.002898976,0.041275978,0.07682887,-0.16203144,9.760108,0,
9,990.8286133,-7.66E-04,-0.001060663,-3.74E-04,0.866219521,15.75595856,-14.09146309,-0.00941366,-0.00753209,0.031809807,0.0839808,-0.15249783,9.771943,0,
9,990.8236694,-2.33E-04,2.71E-04,-3.74E-04,0.614773512,16.41604233,-14.09134102,-0.014167361,-0.012433171,0.0365448,0.07918325,-0.15249738,9.767207,0,
9,990.821167,1.67E-04,2.71E-04,2.57E-05,0.35723877,17.0702343,-13.78199959,-0.009507641,-0.007798821,0.064950943,0.07916549,-0.15964678,9.757737,0,
9,990.8286133,-3.66E-04,5.37E-04,-3.74E-04,0.881301403,15.66477585,-14.16543388,-0.004589289,0.011305496,0.046014786,0.07436794,-0.15011325,9.764836,0,
9,990.8413086,7.00E-04,-1.29E-04,-2.41E-04,0.450775146,16.5260582,-14.38044167,-0.018552721,-0.007719353,0.041280746,0.09585929,-0.1453462,9.767201,0,
9,990.8234863,-4.99E-04,-9.28E-04,2.59E-05,0.968069077,15.37708282,-13.85403633,-0.023390092,-0.021856755,0.046017647,0.09106174,-0.15249562,9.762467,0,
9,990.8666382,-3.91E-05,-6.69E-04,8.43E-06,0.323732376,16.6175251,-13.90431404,-0.02276329,-0.016953319,0.050754547,0.09343389,-0.13819554,9.75773,0,
9,990.8666382,-3.91E-05,-6.69E-04,8.43E-06,0.323732376,16.6175251,-13.90431404,0.005829886,0.006716922,0.055487633,0.07907671,-0.15249476,9.767196,0,
9,990.815979,3.61E-04,0.001328464,4.08E-04,0.732683659,16.31574059,-14.1036396,-0.00884515,-0.012142986,0.041293144,0.08383876,-0.15249434,9.767196,0,
9,990.815979,3.61E-04,0.001328464,4.08E-04,0.732683659,16.31574059,-14.1036396,-0.018532544,0.006971359,0.02709198,0.07904121,-0.15726048,9.774295,0,
9,990.8213501,-3.86E-05,5.29E-04,0.001073914,0.457703829,16.79579926,-14.16633797,0.005183198,-0.007583544,0.031825066,0.074243635,-0.15249345,9.774294,0,
9,990.8463135,-5.71E-04,-2.70E-04,-6.57E-04,0.86111021,16.11983299,-13.95799828,-0.013837673,-0.022281691,0.03655529,0.08856529,-0.14057663,9.755355,0,
9,990.8463135,-5.71E-04,-2.70E-04,-6.57E-04,0.079460144,16.54691696,-14.0165081,-0.018676788,-0.007837966,0.050762177,0.078987956,-0.1548759,9.75772,0,
9,990.8337402,4.95E-04,6.63E-04,-1.24E-04,0.724232674,16.04452896,-14.24043465,-0.004570477,-0.003087431,0.050766945,0.076580256,-0.15487543,9.76482,0,
9,990.8084106,9.53E-05,2.63E-04,-1.24E-04,0.769777775,16.40310478,-14.03748512,-0.01845143,0.001687989,0.055500031,0.09568176,-0.15964156,9.755349,0,
10,990.8084106,9.53E-05,2.63E-04,-1.24E-04,0.769777775,16.40310478,-14.03748512,-0.008882836,-0.002895325,0.060236931,0.08132458,-0.1548746,9.755349,0,
10,990.8590088,3.62E-04,-2.70E-04,1.42E-04,0.818610668,15.76420212,-14.31556129,-0.013768829,-0.007878765,0.046032906,0.081306815,-0.15487412,9.767182,0,
10,990.8590088,3.62E-04,-2.70E-04,1.42E-04,0.818610668,15.76420212,-14.31556129,-0.004267663,0.00161241,0.050769806,0.08367896,-0.15725699,9.755344,0,
10,990.8134766,-4.37E-04,3.96E-04,-1.24E-04,0.491317987,16.14216232,-13.67136955,-0.004407421,0.020436749,0.036565781,0.07888138,-0.16440639,9.767179,0,
10,990.8209229,-4.37E-04,5.29E-04,5.42E-04,0.38294363,15.77709961,-13.32536888,-0.00896921,-0.003554255,0.031826973,0.08364344,-0.1572561,9.767179,0,
10,990.8514404,-3.70E-05,5.29E-04,5.42E-04,0.445230484,16.15187645,-13.9727726,-0.018589936,-0.008122653,0.046035767,0.09557521,-0.15487239,9.762443,0,
10,990.8188477,9.65E-05,3.96E-04,4.09E-04,0.432213306,15.87624741,-13.87765694,8.02E-04,-0.003027961,0.041308403,0.06448871,-0.15010542,9.764808,0,
10,990.8213501,0.00102876,-6.69E-04,8.08E-04,0.542109251,16.24278641,-14.30095863,0.015030503,-0.003267363,0.060243607,0.07403055,-0.15010494,9.75297,0,
10,990.8588257,-3.03E-04,3.96E-04,2.76E-04,0.610207558,16.411623,-13.85942268,-0.018908679,-0.003334254,0.041193962,0.08475983,-0.15251699,9.760178,0,
10,990.8084106,-4.44E-05,-0.00173028,-1.29E-04,0.589175224,16.60283661,-14.17531013,-0.013585687,-0.017543852,0.055391312,0.087178946,-0.13583472,9.757813,0,
10,990.8213501,-4.47E-04,-6.65E-04,2.72E-06,0.96462059,15.8483448,-14.49695396,-0.008785561,-0.022364452,0.036449432,0.08242828,-0.14536855,9.767285,0,
10,990.8413086,-3.14E-04,-3.98E-04,2.69E-04,0.560234785,16.15454483,-14.52954292,-0.008990377,-0.003370047,0.060119629,0.08962718,-0.1549024,9.755452,0,
10,990.8312378,-5.81E-04,5.34E-04,-1.31E-04,0.627789974,16.69167519,-14.18645668,-0.009286337,0.005839065,0.045908928,0.08248663,-0.16443625,9.764923,0,
10,990.8312378,-1.81E-04,4.01E-04,5.35E-04,0.487432241,15.87537193,-14.04007912,-0.018622316,-0.008316278,0.045907974,0.0896855,-0.14537069,9.767293,0,
10,990.8234863,6.17E-04,-1.32E-04,6.68E-04,1.025789261,15.74744415,-14.26952171,-0.027953558,-0.003634527,0.041167259,0.09927428,-0.1596711,9.767295,0,
10,990.8161621,-4.48E-04,-5.31E-04,0.00120054,0.548058271,16.14276123,-13.9111042,-0.013552509,-0.008272216,0.045900345,0.08496404,-0.14537212,9.772033,0,
10,990.8136597,-3.15E-04,1.54E-06,1.35E-04,0.384465218,15.7785759,-13.40267372,0.01046177,-0.017949119,0.045893669,0.07782352,-0.14298955,9.764934,0,
10,990.8112183,-3.16E-04,-1.32E-04,-5.31E-04,0.588876724,15.97069931,-14.60018349,-0.008334219,-0.008429989,0.036417961,0.08263248,-0.14299026,9.769671,0,
10,990.8388672,-1.83E-04,-5.31E-04,1.35E-04,0.431807995,16.35045242,-14.67518044,-0.008294314,-0.003848404,0.050616264,0.09222129,-0.15490738,9.757838,0,
10,990.8237915,-1.83E-04,1.68E-06,-6.64E-04,0.540044308,16.60960007,-14.32209969,-0.012895681,0.005641669,0.031674385,0.08030096,-0.16920778,9.767309,0,
10,990.8163452,-5.83E-04,-0.001196697,1.52E-06,0.598307133,16.61167526,-14.63914299,-0.007659391,-0.004012749,0.060071945,0.08510995,-0.15252551,9.764945,0,
10,990.8161621,8.81E-04,-1.31E-04,4.01E-04,0.536020279,16.2368927,-13.99173927,-0.012193576,-0.003723219,0.055335999,0.08274919,-0.15252623,9.757846,0,
10,990.8161621,8.81E-04,-1.31E-04,4.01E-04,0.536020279,16.2368927,-13.99173927,0.006652907,0.005913347,0.045868874,0.07321873,-0.15491024,9.762584,0,
10,990.8264771,0.001014173,1.86E-06,2.67E-04,0.568142891,16.79404831,-14.49119759,-0.021733351,-0.01311627,0.04113102,0.08758736,-0.15014437,9.76732,0,
10,990.8185425,-5.84E-04,-1.31E-04,-2.65E-04,0.548494816,16.88081551,-14.18530464,-0.007405058,-0.008617133,0.055327415,0.08044678,-0.15729496,9.7578535,0,
11,990.7958984,-7.17E-04,-3.98E-04,4.00E-04,0.668470621,16.41369247,-14.17646217,-0.012239076,-0.003787875,0.036388397,0.08764571,-0.15252909,9.767325,0,
11,990.8112183,8.80E-04,2.68E-04,-2.66E-04,0.476372957,16.33926773,-14.29647255,-0.016927056,-0.003407151,0.036389351,0.08289507,-0.15491307,9.772061,0,
11,990.8112183,8.80E-04,2.68E-04,-2.66E-04,0.476372957,16.33926773,-14.29647255,-0.002621457,-0.008295253,0.045853615,0.08292425,-0.15014723,9.760229,0,
11,990.821228,-4.52E-04,-5.30E-04,5.33E-04,0.659338474,16.40485764,-13.71263313,0.002409682,0.024787739,0.050578117,0.07578373,-0.16921419,9.757865,0,
11,990.821228,-4.52E-04,-5.30E-04,5.33E-04,0.659338474,16.40485764,-13.71263313,-0.007081069,0.005684793,0.045840263,0.073423,-0.16683161,9.757867,0,
11,990.821228,-4.52E-04,-5.30E-04,5.33E-04,0.693525314,16.59519196,-14.19094276,-0.006961577,-0.008623347,0.050571442,0.08062187,-0.14776608,9.767339,0,
11,990.826355,3.80E-05,-1.76E-04,-2.98E-05,0.698091507,16.59961319,-14.42285728,-0.030694827,-0.008651093,0.05056572,0.092600524,-0.15491661,9.76024,0,
11,990.826355,3.80E-05,-1.76E-04,-2.98E-05,0.698091507,16.59961319,-14.42285728,-0.006623082,9.12E-04,0.041093826,0.08731222,-0.14775434,9.762561,0,
11,990.8364258,-9.54E-05,-5.75E-04,-2.99E-05,0.808935404,16.12365341,-13.95018196,-0.014811464,0.005807936,0.031723022,0.08916128,-0.15727422,9.767245,0,
11,990.8237915,4.38E-04,-1.76E-04,1.04E-04,0.733227253,15.94744873,-14.0051899,-0.005187839,-0.003478274,0.055398941,0.081977665,-0.15965715,9.750674,0,
11,990.8162842,4.76E-05,-3.10E-04,2.41E-04,0.582544088,16.96523285,-13.96454048,-0.0052967,-0.013096645,0.045931816,0.08913344,-0.13820729,9.767243,0,
11,990.8137817,1.81E-04,-1.77E-04,-2.92E-04,0.59885025,16.24338341,-14.54068947,0.009042941,-0.003524855,0.036464691,0.07955989,-0.15488988,9.764874,0,
11,990.8337402,1.81E-04,-4.44E-04,-6.91E-04,0.626512527,15.68977356,-14.43557167,0.00441847,-0.008204743,0.05066967,0.07476616,-0.14297318,9.7601385,0,
11,990.8314819,1.81E-04,4.88E-04,5.07E-04,0.558574677,16.04715729,-13.75315666,-0.015057154,0.001231968,0.041204453,0.093871474,-0.16203907,9.764872,0,
11,990.8087158,-8.48E-05,4.88E-04,6.40E-04,0.744178772,16.58989906,-14.12145424,-0.014890157,-0.003595904,0.045936584,0.084297895,-0.15012231,9.771972,0,
11,990.8239746,-4.84E-04,-4.44E-04,-1.58E-04,0.823176384,15.76861954,-14.54747963,0.004237548,-0.013211608,0.060139656,0.07950419,-0.14058885,9.764869,0,
11,990.8213501,-3.51E-04,4.88E-04,2.41E-04,0.785540104,16.04954529,-14.71208382,0.003903456,-0.003812835,0.041205406,0.079490244,-0.14773831,9.760133,0,
11,990.8340454,-7.50E-04,3.55E-04,-5.58E-04,0.339357853,16.15804672,-13.87983513,0.013532698,9.58E-04,0.027003288,0.069916695,-0.1525046,9.771968,0,
11,990.8365479,4.89E-05,-1.77E-04,1.08E-04,0.203459263,16.45250702,-14.33802986,-0.005660929,0.010442108,0.04120636,0.07468259,-0.16203734,9.762498,0,
11,990.8060913,-2.17E-04,3.55E-04,2.41E-04,0.188376427,16.54369354,-14.26405525,-0.005595379,-0.003992409,0.050674438,0.08183837,-0.15727046,9.764865,0,
11,990.8237305,-7.50E-04,-1.77E-04,-5.58E-04,0.633985519,15.59122086,-14.12301826,0.004095234,-0.008786842,0.060142517,0.077044606,-0.14773703,9.757761,0,
11,990.8264771,4.49E-04,-1.77E-04,1.08E-04,0.65211153,15.50297928,-14.35160255,-6.63E-04,-0.018217534,0.060146332,0.0722509,-0.14297011,9.762494,0,
11,990.8338623,4.94E-05,-4.44E-04,-6.91E-04,0.447295189,15.78506088,-13.95162773,0.008785628,-0.003977254,0.050678253,0.06745717,-0.15250286,9.74829,0,
11,990.7960815,4.49E-04,8.88E-04,-4.24E-04,0.30294466,15.80831146,-14.54661751,-0.010519221,-0.01312831,0.036483765,0.07939273,-0.1429694,9.776694,0,
11,990.798645,8.49E-04,7.55E-04,1.08E-04,0.493818998,16.51339722,-13.92442894,-0.015568323,0.00148347,0.045960426,0.07937884,-0.16441855,9.764857,0,
12,990.8289795,1.83E-04,8.88E-05,-2.47E-05,0.561076164,16.41839027,-14.00621986,0.008044541,-0.003299624,0.041231155,0.07458508,-0.15011856,9.767222,0,
12,990.8239746,-8.32E-05,2.22E-04,-5.57E-04,0.418790817,16.07482338,-14.58006477,-0.006274097,-0.00303854,0.036501884,0.072181284,-0.15965134,9.757754,0,
12,990.8137817,8.49E-04,3.55E-04,3.75E-04,1.031197548,16.01570892,-13.97811317,0.00334432,0.001704693,0.02703476,0.074557245,-0.15011787,9.7648535,0,
12,990.826355,9.82E-04,-1.78E-04,5.08E-04,0.380580902,15.51177788,-13.7713871,-0.01560352,0.011465371,0.041240692,0.08171302,-0.15488407,9.764852,0,
12,990.8086548,-8.28E-05,-7.10E-04,1.09E-04,0.687001228,15.85124969,-13.60751534,0.003625713,-0.002350926,0.060185432,0.07452938,-0.14773396,9.7530155,0,
12,990.8213501,7.16E-04,8.87E-05,-5.57E-04,1.034784317,15.65036392,-14.03427315,-0.005889706,0.011700407,0.060182571,0.081685156,-0.16203326,9.757749,0,
12,990.8062134,7.17E-04,-4.45E-05,5.08E-04,1.062883377,15.83480835,-14.20336342,0.013137341,-0.011811674,0.055457115,0.062552005,-0.15249977,9.757747,0,
12,990.8062134,7.17E-04,-4.45E-05,5.08E-04,1.062883377,15.83480835,-14.20336342,-0.001276195,-0.007041737,0.041245461,0.07697177,-0.15488508,9.755387,0,
12,990.831543,-4.83E-04,4.88E-04,-1.58E-04,0.31375885,16.344841,-13.96380043,0.01259169,0.002308547,0.041248322,0.07218182,-0.15488485,9.764855,0,
12,990.8137817,8.49E-04,-4.45E-05,6.41E-04,0.908314705,16.58580017,-14.53142738,0.007873915,0.002704844,0.045988083,0.07456154,-0.1525012,9.753018,0,
12,990.8137817,8.49E-04,-4.45E-05,6.41E-04,0.908314705,16.58580017,-14.53142738,0.012687631,0.007538065,0.05072403,0.072161496,-0.15488425,9.760119,0,
12,990.8213501,-2.16E-04,-7.10E-04,-2.45E-05,0.663063526,16.1454277,-14.4678669,-0.001789667,0.002560839,0.04598999,0.07215133,-0.1572673,9.7577505,0,
12,990.8213501,-2.16E-04,-7.10E-04,-2.45E-05,0.663063526,16.1454277,-14.4678669,-0.016175307,0.011987641,0.036519051,0.079310894,-0.15488377,9.764852,0,
12,990.8213501,-2.16E-04,-7.10E-04,-2.45E-05,0.701540947,16.12835121,-13.77993965,-0.001991473,-0.02591297,0.03178978,0.07213101,-0.14058384,9.769586,0,
12,990.8012695,4.50E-04,-1.78E-04,-1.58E-04,0.240115643,15.80182266,-13.99766731,-0.00206022,0.003056958,0.050736427,0.08168045,-0.1548833,9.755381,0,
12,990.8012695,4.50E-04,-1.78E-04,-1.58E-04,0.240115643,15.80182266,-13.99766731,0.002461851,-0.001617759,0.050740242,0.081670284,-0.15488306,9.762481,0,
12,990.8466187,-2.16E-04,0.001020711,1.09E-04,0.926846504,16.02334976,-13.96248817,-0.007420577,-0.006845579,0.074409485,0.079270184,-0.14773297,9.75538,0,
12,990.8466187,-2.16E-04,0.001020711,1.09E-04,0.926846504,16.02334976,-13.96248817,-0.002543308,-0.011721015,0.041266441,0.06970042,-0.14534947,9.760112,0,
12,990.8213501,-3.08E-04,-2.83E-04,-1.12E-04,0.507516861,16.5266571,-14.62017632,0.011454277,0.007487848,0.055477142,0.06252059,-0.15011579,9.760111,0,
12,990.8213501,-3.08E-04,-2.83E-04,-1.12E-04,0.507516861,16.5266571,-14.62017632,-0.012530118,0.007587463,0.074416161,0.08401954,-0.16441512,9.750642,0,
12,990.8239746,-4.16E-05,1.16E-04,-1.12E-04,0.80048418,15.8524437,-14.08698082,-0.007596262,-0.002101749,0.04600811,0.08400935,-0.14773193,9.774312,0,
12,990.831543,-4.15E-05,-1.67E-05,4.20E-04,0.855703115,15.85156631,-14.249403,-0.002805918,0.002785429,0.031806946,0.074439585,-0.1572648,9.769578,0,
12,990.8291016,3.58E-04,-1.50E-04,-2.45E-04,0.747766018,16.22455215,-14.17761421,-0.002867259,0.017001182,0.022338867,0.072039515,-0.1667977,9.769576,0,
12,990.8340454,0.001157127,-2.83E-04,-2.45E-04,0.415066242,16.3342514,-13.82483101,0.00222671,0.007584855,0.027074814,0.07202935,-0.15726432,9.771943,0,
13,990.8340454,-8.40E-04,-1.50E-04,2.11E-05,0.778909206,16.41194344,-14.50131416,0.002150059,-0.001927212,0.055482864,0.07440907,-0.15249753,9.750636,0,
13,990.8213501,-4.11E-05,1.16E-04,2.12E-05,0.835512638,16.30662346,-14.04196739,0.011849083,-0.006796539,0.064949036,0.074398935,-0.14296415,9.75537,0,
13,990.8516846,-1.74E-04,-1.50E-04,2.88E-04,0.899725676,16.20867157,-13.96914864,0.007191673,0.012101203,0.036540031,0.06960893,-0.1596469,9.760104,0,
13,990.8416138,2.25E-04,-8.16E-04,1.54E-04,0.61270833,16.7828598,-14.11248589,-0.002151445,-0.00680165,0.041276932,0.0719887,-0.14534697,9.76247,0,
13,990.8341064,-3.07E-04,-1.50E-04,2.88E-04,0.705563784,16.50106049,-14.11030769,-0.007031985,-0.006875247,0.046010017,0.07436845,-0.15011325,9.76247,0,
13,990.8086548,-1.74E-04,-2.83E-04,-5.11E-04,0.957010269,15.84098053,-14.11042976,0.002344906,0.002370387,0.050743103,0.074358255,-0.1572628,9.762468,0,
13,990.8340454,-3.07E-04,0.001314706,-2.45E-04,0.26919508,16.3560257,-14.34251213,0.002245449,0.007036448,0.046009064,0.09107739,-0.15964583,9.7601,0,
13,990.8240967,-4.05E-05,-1.50E-04,5.54E-04,0.969346285,16.37898254,-13.60492134,-0.00335902,-0.016186893,0.031711578,0.07729298,-0.16204277,9.76962,0,
13,990.831604,8.92E-04,-1.69E-05,2.15E-05,1.351177692,16.26251984,-13.81091118,-0.008259214,-0.006723568,0.03644371,0.07071251,-0.15252408,9.767306,0,
13,990.8413696,2.15E-04,2.57E-04,-7.84E-04,0.551102161,16.14570808,-14.06571007,-0.018062718,-0.00192827,0.045910835,0.089867264,-0.16205809,9.760209,0,
13,990.8164673,-5.84E-04,-1.43E-04,-2.52E-04,0.42778492,15.97774506,-14.34481239,0.001476139,-0.006745473,0.045903206,0.07795328,-0.15014252,9.769681,0,
13,990.831665,3.48E-04,-0.001474065,-9.18E-04,0.721326828,16.14749908,-14.78490639,0.011406697,0.021773264,0.055364609,0.07320899,-0.1644431,9.75548,0,
13,990.8060913,8.13E-05,-6.75E-04,1.44E-05,0.185332298,16.5407486,-14.10944557,0.006635971,0.012133017,0.026952744,0.07802433,-0.16206071,9.76732,0,
13,990.8188477,-3.19E-04,3.90E-04,1.47E-04,0.66847086,16.41369438,-14.17646217,-0.012453355,-0.007050276,0.041150093,0.085229516,-0.15252843,9.7649555,0,
13,990.7937012,-1.86E-04,-5.42E-04,1.41E-05,0.519554615,16.43252373,-14.53953743,-0.012228116,-0.011762053,0.045879364,0.092434764,-0.15491259,9.772061,0,
13,990.8391724,-4.52E-04,-4.09E-04,1.39E-05,0.59276247,16.23749161,-14.23147011,-0.021651596,-0.007189572,0.03640461,0.09247029,-0.14538035,9.776797,0,
13,990.8139648,-7.19E-04,-2.75E-04,-5.19E-04,0.223404408,16.99787521,-14.21904182,0.002551816,-0.002773136,0.02692318,0.07577652,-0.15014777,9.772067,0,
13,990.8265991,7.92E-05,6.57E-04,2.80E-04,0.703606129,15.76153374,-13.75879097,-0.016617946,-0.012201414,0.050592422,0.09254134,-0.15729848,9.762601,0,
13,990.8265991,7.92E-05,6.57E-04,2.80E-04,0.703606129,15.76153374,-13.75879097,-0.002155408,-0.007557899,0.031648636,0.08062732,-0.14776626,9.772074,0,
13,990.8110352,-5.87E-04,2.57E-04,-6.52E-04,0.647981644,16.23661423,-14.39389229,-0.016998321,0.002125666,0.050590515,0.08066285,-0.1573002,9.755506,0,
13,990.8338623,-5.46E-05,5.24E-04,1.46E-04,0.778909206,16.41194344,-14.50131416,0.001842968,0.006841749,0.064791679,0.087868094,-0.14776805,9.750775,0,
13,990.8291016,6.11E-04,3.91E-04,-6.53E-04,0.473329067,16.33632088,-14.14186287,0.002082877,-0.007400081,0.045847893,0.08790362,-0.15015212,9.764981,0,
13,990.8416138,-1.88E-04,2.58E-04,-1.20E-04,0.320688725,16.61457825,-13.74970055,0.007162318,0.006817058,0.050574303,0.075989604,-0.16921929,9.760251,0,
13,990.831665,2.11E-04,-0.001207083,-5.20E-04,0.409115314,16.43427658,-14.21468544,0.011769041,0.011322141,0.05530262,0.07124531,-0.15968704,9.755519,0,
13,990.831665,2.11E-04,-0.001207083,-5.20E-04,0.409115314,16.43427658,-14.21468544,-0.007532492,-0.007656738,0.041101456,0.08084047,-0.14300492,9.760257,0,
14,990.8165283,-5.63E-05,-5.41E-04,2.79E-04,1.000191689,15.93423462,-14.35349083,-0.007259384,-0.012750179,0.045822144,0.08326584,-0.14538908,9.757894,0,
14,990.8165283,-5.63E-05,-5.41E-04,2.79E-04,1.000191689,15.93423462,-14.35349083,0.002146624,-0.008105636,0.041086197,0.08569127,-0.14777324,9.769732,0,
14,990.8341064,-9.89E-04,5.24E-04,-5.20E-04,0.885867119,15.66919518,-14.3973484,0.002213188,0.015731931,0.060018539,0.076167196,-0.1692236,9.753165,0,
14,990.8164673,-1.90E-04,2.58E-04,1.22E-05,1.050844669,15.92893982,-14.28399849,-0.012233749,0.010823771,0.04107666,0.08576232,-0.16207466,9.765004,0,
14,990.8419189,2.09E-04,1.25E-04,2.78E-04,0.704041481,16.49958801,-14.03299904,-0.007298969,0.011184707,0.041077614,0.08340794,-0.1668421,9.765007,0,
14,990.8164673,6.08E-04,-1.41E-04,-1.21E-04,1.189787865,15.63742828,-13.98041725,-0.002438158,0.00143604,0.041068077,0.07866365,-0.15969309,9.767378,0,
14,990.8088989,-5.91E-04,-5.41E-04,4.11E-04,0.536999941,16.60665703,-14.16749382,-0.0023316,0.006424829,0.050537109,0.08347899,-0.15492743,9.762647,0,
14,990.8366699,4.17E-04,-3.18E-04,-4.30E-04,0.446209192,16.52164078,-14.14853096,-0.005884022,0.001495555,0.050630569,0.08240938,-0.15490124,9.745978,0,
14,990.8164673,-1.12E-04,3.48E-04,1.04E-04,0.752874613,15.86068344,-14.31107903,-0.019970924,-0.031922773,0.031690598,0.0824005,-0.1429846,9.7743845,0,
14,990.8190308,-3.72E-04,-0.001118247,-2.93E-04,1.05040884,15.19088745,-14.00979805,-0.010372967,0.001586422,0.036429405,0.08478153,-0.15251747,9.767282,0,
14,990.8215332,2.79E-05,-5.30E-05,5.06E-04,0.479280233,16.23629379,-13.75200844,-0.01491788,-0.007842436,0.041164398,0.087162554,-0.14775065,9.760179,0,
14,990.8265381,4.27E-04,-4.52E-04,-2.62E-05,0.547080278,15.77299881,-13.73534584,0.008761838,0.011115834,0.060101509,0.07042432,-0.15728351,9.7530775,0,
14,990.80896,-1.05E-04,8.01E-05,3.73E-04,0.282753468,16.26337051,-14.3391819,-7.08E-04,-0.003542781,0.04115963,0.08236498,-0.15490016,9.772014,0,
14,990.8014526,-0.001170293,8.01E-05,-2.61E-05,0.838556767,16.30957031,-14.19657707,-6.37E-04,0.0056853,0.041155815,0.08713591,-0.15489992,9.764911,0,
14,990.8215332,-3.71E-04,-5.31E-05,2.40E-04,0.804805279,16.85728645,-13.99247551,0.008672483,-0.003394634,0.036430359,0.07517749,-0.1525164,9.772012,0,
14,990.8242798,6.94E-04,0.001145355,-5.59E-04,0.569228411,16.05746841,-14.29429054,-0.015112728,-0.00314343,0.060105324,0.101457536,-0.15251616,9.755442,0,
14,990.8215332,6.94E-04,-1.86E-04,-2.60E-05,0.590941668,15.60388184,-14.57903862,0.008562192,0.001528755,0.060106277,0.07515976,-0.15251592,9.762542,0,
14,990.8190308,-2.38E-04,8.79E-04,1.07E-04,0.808392763,16.49194336,-14.04863167,0.003570862,-0.007954687,0.069580078,0.07993066,-0.14774913,9.748338,0,
14,990.7911987,4.28E-04,2.13E-04,5.07E-04,0.506537437,16.15689278,-14.44442177,0.003894396,0.006356806,0.045905113,0.077531874,-0.15728205,9.764907,0,
14,990.8391724,5.61E-04,-0.001118386,-1.59E-04,0.621947765,15.68535233,-14.20366096,-0.001110695,-0.007691443,0.041178703,0.087082624,-0.14298221,9.760171,0,
14,990.8164673,-1.04E-04,0.001012127,1.07E-04,0.762166977,16.39574242,-13.65095711,-0.005904108,0.001995295,0.074322701,0.084683836,-0.15489838,9.748336,0,
14,990.8165283,-1.04E-04,8.00E-05,-2.92E-04,0.800483942,15.85244179,-14.08697701,-0.015367493,-0.002692997,0.036448479,0.08945477,-0.14774829,9.764905,0,
14,990.8442383,6.95E-04,-7.19E-04,-4.25E-04,0.530070305,16.33691978,-14.3815937,-0.00558389,0.011825919,0.060121536,0.08466607,-0.16204771,9.753068,0,
14,990.831604,2.95E-04,8.00E-05,1.07E-04,0.596349239,15.87214661,-14.28763008,-0.010659263,-0.035525933,0.036458969,0.091826916,-0.1382147,9.760169,0,
15,990.8190308,4.29E-04,4.79E-04,2.41E-04,0.664883614,16.77903938,-14.1203022,-0.005571537,0.002600119,0.050661087,0.079868525,-0.15489748,9.760168,0,
15,990.8291016,1.62E-04,-5.32E-05,1.07E-04,1.068289757,16.10307503,-13.91195869,0.018294938,0.002709478,0.083805084,0.06552023,-0.1548973,9.743597,0,
15,990.8012695,2.92E-05,-4.53E-04,-2.92E-04,0.450094223,16.78843307,-13.77981758,-0.014802046,0.007466391,0.012785912,0.09419018,-0.15966365,9.788573,0,
15,990.8240967,4.29E-04,-4.53E-04,0.001305977,0.48773098,16.50750732,-13.61520576,-0.014900297,0.007815197,0.031731606,0.08462173,-0.16204667,9.772002,0,
15,990.7937012,0.001360991,6.13E-04,-1.59E-04,0.586131096,16.59988976,-14.02070045,0.008884788,-0.006375581,0.031734467,0.075053215,-0.14774674,9.779102,0,
15,990.8291016,-5.03E-04,-5.33E-05,1.08E-04,0.707628489,16.13424301,-14.08915901,-6.70E-04,-0.00151597,0.04120636,0.07982412,-0.15727964,9.760163,0,
15,990.8291016,-5.03E-04,-5.33E-05,1.08E-04,0.707628489,16.13424301,-14.08915901,-7.56E-04,0.01731804,0.064875603,0.094154656,-0.16442928,9.753062,0,
15,990.831604,5.62E-04,3.46E-04,-4.25E-04,0.581810236,15.59504318,-14.11520576,-5.82E-04,0.012410313,0.041200638,0.07741648,-0.16204584,9.769631,0,
15,990.8190308,2.98E-05,7.99E-05,-6.91E-04,0.682872057,16.58488083,-13.64980507,-6.10E-04,0.007567421,0.045931816,0.09177905,-0.15489653,9.769633,0,
15,990.8190308,2.98E-05,7.99E-05,-6.91E-04,0.682872057,16.58488083,-13.64980507,-0.029190145,-0.015818879,0.055409431,0.09655124,-0.1501298,9.753061,0,
15,990.8190308,-3.70E-04,-1.86E-04,-2.92E-04,0.307373047,15.70681381,-14.07945442,-4.66E-04,-0.001108393,0.045945168,0.08459416,-0.15012953,9.767264,0,
15,990.8392944,0.001094873,-1.86E-04,5.07E-04,0.580723286,16.33162498,-14.31210518,0.004519813,0.008583993,0.050682068,0.08697641,-0.15966257,9.760163,0,
15,990.8217163,0.001094946,-1.86E-04,-4.25E-04,0.548494816,16.8808136,-14.18530464,-2.26E-04,0.013520151,0.050684929,0.079799116,-0.15251246,9.757794,0,
15,990.8190308,6.96E-04,6.12E-04,-1.59E-04,0.652409315,16.13511658,-13.92673302,-0.004614539,0.013933137,0.045954704,0.0845713,-0.15966216,9.764895,0,
15,990.7989502,9.62E-04,-8.52E-04,1.08E-04,0.912307262,15.74625015,-13.79006004,0.005316846,-0.005071193,0.050688744,0.08456373,-0.1525121,9.767262,0,
15,990.8341675,3.00E-05,-0.001118602,7.74E-04,0.673579454,16.04982376,-14.30992699,-0.008823581,-0.009780943,0.064890862,0.08694601,-0.15012866,9.757792,0,
15,990.8165283,1.63E-04,-5.86E-04,2.41E-04,0.656975269,16.13953781,-14.15864754,-0.003569052,0.014269754,0.055423737,0.082158566,-0.16681144,9.755424,0,
15,990.8165894,1.63E-04,-7.19E-04,2.41E-04,0.762007236,15.86951828,-14.77491188,-0.008453839,0.009232119,0.050686836,0.07976106,-0.1548948,9.757791,0,
15,990.8165283,2.97E-04,-5.86E-04,1.08E-04,0.65170598,15.97719002,-15.14913368,0.005973607,-1.20E-04,0.031750679,0.07736358,-0.15251142,9.776729,0,
15,990.8416748,2.97E-04,-3.20E-04,-2.92E-04,0.432649374,16.61429977,-14.15186119,-0.003352515,-0.01006037,0.036478043,0.09169537,-0.14774463,9.767259,0,
15,990.8039551,-0.001034921,-5.34E-05,1.08E-04,0.460312128,16.06068993,-14.04674339,0.001309387,-0.010043114,0.045948029,0.0797382,-0.14774445,9.762524,0,
15,990.8317871,-3.09E-04,8.57E-04,2.06E-04,0.660019159,16.14248276,-14.31325722,0.020139687,0.004223779,0.036482811,0.07734072,-0.15251082,9.76489,0,
15,990.8240356,-4.29E-05,8.57E-04,6.06E-04,0.432213306,15.87624741,-13.87765694,6.15E-04,0.004203364,0.036486626,0.074943215,-0.15966049,9.764889,0,
15,990.8140869,4.90E-04,0.001655573,6.06E-04,0.719666958,16.04011154,-14.00852394,-0.005036369,0.008646548,0.055426598,0.08449522,-0.16204357,9.753053,0,
15,990.8065186,-7.08E-04,9.90E-04,6.06E-04,0.496182442,16.77871895,-13.47841072,-0.014560059,0.008823872,0.036493301,0.08926737,-0.15727678,9.774356,0,
16,990.8493652,2.24E-04,3.24E-04,-5.97E-05,0.672760963,16.20627975,-13.01022148,-2.70E-04,-0.00553073,0.055429459,0.077310264,-0.15012684,9.755418,0,
16,990.7938843,-3.09E-04,5.76E-05,-7.25E-04,0.359984875,16.44104195,-14.36147881,-0.014556296,0.00363338,0.045956612,0.08447239,-0.15727642,9.755418,0,
16,990.8140869,-5.75E-04,-2.09E-04,-1.93E-04,0.554988384,16.41249847,-13.6970005,1.47E-04,0.022306398,0.041213036,0.08207488,-0.16680935,9.760152,0,
16,990.8114624,-7.08E-04,-7.41E-04,-1.93E-04,0.494904757,15.77681923,-13.72752571,0.014480315,0.022247568,0.050682068,0.07011777,-0.15727606,9.762517,0,
16,990.8291016,-1.75E-04,5.76E-05,-3.26E-04,1.000191689,15.93423462,-14.35349083,-0.014324784,-0.01078029,0.045953751,0.09161925,-0.14774272,9.769619,0,
16,990.8065186,3.57E-04,-7.56E-05,-1.93E-04,0.722710848,16.04305649,-14.16313362,-0.004576825,0.00359866,0.060157776,0.08205205,-0.15489241,9.75068,0,
16,990.8240356,6.24E-04,-7.56E-05,2.07E-04,0.940543175,16.03660774,-14.65822792,0.024181612,0.013078377,0.036485672,0.07248482,-0.15965876,9.757781,0,
16,990.8292847,-1.75E-04,-7.41E-04,-5.92E-04,0.046932697,16.463974,-14.3145771,-0.004362293,0.013023764,0.05068779,0.08191031,-0.16442207,9.757769,0,
16,990.8317871,4.91E-04,-0.001010368,7.73E-05,0.310714722,16.34189415,-13.80919838,0.010759071,-0.005714819,0.060181618,0.08176857,-0.15011892,9.745921,0,
16,990.8317871,-3.08E-04,4.54E-04,-4.55E-04,0.569527149,16.68960571,-13.86942482,-0.017882511,0.003670752,0.055447578,0.0960902,-0.15726832,9.755387,0,
16,990.8317871,-3.08E-04,4.54E-04,-4.55E-04,0.569527149,16.68960571,-13.86942482,0.015583046,-0.001421541,0.055443764,0.074563324,-0.14535144,9.757752,0,
16,990.8014526,-4.11E-05,5.87E-04,-3.22E-04,1.116037607,16.20075035,-14.3869381,-0.008498654,0.01272589,0.050709724,0.08410519,-0.1644173,9.757751,0,
16,990.8014526,-4.11E-05,5.87E-04,-3.22E-04,1.116037607,16.20075035,-14.3869381,0.010747351,-0.020644635,0.041240692,0.0745278,-0.1453506,9.760117,0,
16,990.8192139,-1.74E-04,-7.44E-04,-5.56E-05,0.736814022,15.58210754,-14.06134987,-0.003360838,-0.001594424,0.045976639,0.09362924,-0.15011668,9.762483,0,
16,990.8192139,-1.74E-04,-7.44E-04,-5.56E-05,0.736814022,15.58210754,-14.06134987,-0.008012988,-0.015753582,0.050712585,0.086441815,-0.15011632,9.774317,0,
16,990.8318481,9.26E-05,-4.78E-04,7.77E-05,0.792905569,17.0573349,-14.772192,-0.003315046,-0.001656666,0.050711632,0.07447454,-0.15249914,9.755378,0,
16,990.8318481,9.26E-05,-4.78E-04,7.77E-05,0.792905569,17.0573349,-14.772192,0.001403183,0.012595579,0.031774521,0.08401638,-0.15726522,9.76958,0,
16,990.8140869,-1.74E-04,-7.85E-05,-5.53E-05,0.779314041,15.93773842,-13.70378304,-0.013460785,0.002945274,0.036514282,0.08638853,-0.1524983,9.767211,0,
16,990.7913818,-3.06E-04,7.20E-04,-4.55E-04,0.380473852,16.6181221,-14.14404488,0.010894574,0.026747972,0.069654465,0.086370766,-0.16679752,9.753005,0,
16,990.7913818,-3.06E-04,7.20E-04,-4.55E-04,0.380473852,16.6181221,-14.14404488,-0.003646694,0.002950057,0.045984268,0.08157322,-0.1572639,9.757739,0,
16,990.8417358,-5.72E-04,-2.12E-04,-3.21E-04,0.621265888,15.94773102,-13.60302925,0.001075998,-0.011669919,0.027046204,0.071995854,-0.14773044,9.757736,0,
16,990.8115234,-3.06E-04,4.54E-04,6.11E-04,1.098454475,15.92070198,-14.05990791,0.019871861,0.007153809,0.036514282,0.069588184,-0.15011325,9.762469,0,
16,990.8041992,-1.73E-04,8.53E-04,2.11E-04,0.969889879,16.0106926,-13.50647163,-0.00857652,-0.030810952,0.03178215,0.079129994,-0.13581312,9.767202,0,
16,990.8242798,-7.05E-04,3.21E-04,3.45E-04,0.24522543,15.43794632,-14.13113213,0.005322859,-0.002752155,0.022310257,0.074332476,-0.15487891,9.7743025,0,
16,990.8269043,-7.05E-04,-7.87E-05,8.77E-04,0.593740225,16.60725594,-14.40722466,3.69E-04,0.016030461,0.041248322,0.08626419,-0.16441163,9.760097,0,
17,990.8266602,-8.38E-04,8.53E-04,-3.21E-04,0.464334488,16.43340111,-14.37710762,0.005241349,0.011224195,0.022309303,0.08624643,-0.16202787,9.779033,0,
17,990.8217163,2.28E-04,-4.78E-04,-3.21E-04,0.906356335,15.84627151,-14.17991447,-0.003886357,-0.002738357,0.06018734,0.08144888,-0.16441074,9.752994,0,
17,990.8065186,6.27E-04,-8.78E-04,-3.21E-04,0.842686176,15.57593536,-14.15428352,0.005549386,0.001747817,0.036514282,0.06709173,-0.15487722,9.764827,0,
17,990.7839355,-1.72E-04,4.54E-04,3.45E-04,0.39968586,15.79330063,-14.17572212,8.62E-04,0.006468967,0.045983315,0.07902348,-0.15964326,9.771927,0,
17,990.8217163,-3.05E-04,-2.12E-04,-5.44E-05,0.119161129,15.89917564,-13.83075905,-0.004011407,-0.003277332,0.064920425,0.07900572,-0.15964288,9.748252,0,
17,990.8140869,-7.04E-04,3.21E-04,-3.21E-04,0.737792969,15.95186996,-14.23710442,-0.013879649,-0.012878358,0.031783104,0.08376777,-0.15725917,9.760088,0,
17,990.8217163,-1.71E-04,5.87E-04,-3.21E-04,0.720209837,15.67182159,-13.91007423,0.005277865,-0.00361006,0.055452347,0.08375001,-0.15249214,9.757718,0,
17,990.8343506,-5.70E-04,1.87E-04,-5.42E-05,0.650887012,16.13364792,-13.84942818,-0.009434156,-0.008015469,0.036489487,0.08169237,-0.14773375,9.771953,0,
17,990.809021,0.001090062,8.44E-04,1.10E-04,0.447050571,16.78548813,-13.62520409,0.009324789,0.001686335,0.041231155,0.08168858,-0.15488347,9.76485,0,
17,990.8292847,2.90E-04,3.11E-04,-5.57E-04,0.647843838,16.13069916,-13.6948185,-2.06E-04,-0.003057107,0.031761169,0.086464584,-0.15250015,9.771952,0,
17,990.8317871,-3.76E-04,-8.81E-05,1.09E-04,0.865134239,16.49254227,-14.28836632,-0.018950224,-0.007694289,0.036495209,0.08168095,-0.1525,9.767217,0,
17,990.8444214,5.56E-04,-7.54E-04,-5.57E-04,0.746243954,16.22307968,-14.10030556,0.005010135,0.006615728,0.060168266,0.07928726,-0.14535013,9.753013,0,
17,990.8444214,4.23E-04,4.51E-05,-1.57E-04,0.488411903,16.24513245,-14.21583748,0.010076948,-0.021842062,0.050699234,0.06733394,-0.14535001,9.76485,0,
17,990.8469238,0.001354958,8.44E-04,7.75E-04,0.118618488,16.26746559,-13.92920876,0.014572397,0.012078807,0.050711632,0.074499846,-0.154883,9.762481,0,
17,990.8469238,0.001354958,8.44E-04,7.75E-04,0.118618488,16.26746559,-13.92920876,0.009838231,0.011967018,0.055443764,0.07449603,-0.15249965,9.75538,0,
17,990.8217163,0.001088715,4.51E-05,1.09E-04,0.381016016,16.24983215,-14.04559517,-0.004480764,0.002923086,0.041249275,0.08166194,-0.15726611,9.750645,0,
17,990.8217163,0.001088715,4.51E-05,1.09E-04,0.381016016,16.24983215,-14.04559517,0.010061547,0.012291357,0.027042389,0.07209852,-0.17156574,9.760112,0,
17,990.8192139,-2.43E-04,-8.81E-05,-2.90E-04,0.856544495,16.11541367,-13.72608376,-0.009162493,-0.001849294,0.060185432,0.07926443,-0.15011609,9.757745,0,
17,990.8192749,6.89E-04,-3.54E-04,3.76E-04,0.226012707,16.26276779,-14.09945107,-0.004309259,-0.001821101,0.031778336,0.07926062,-0.15726581,9.769582,0,
17,990.8140259,-1.10E-04,8.44E-04,-2.90E-04,0.448274136,16.1548233,-14.12738228,0.014584452,-0.006426156,0.055457115,0.08164674,-0.15249917,9.755378,0,
17,990.8446045,1.57E-04,-0.001153376,-1.57E-04,0.468763113,16.33190155,-13.90995216,0.015112072,0.017510846,0.055454254,0.07925302,-0.15488234,9.755378,0,
17,990.8446045,1.57E-04,-0.001153376,-1.57E-04,0.511944771,16.42515755,-14.15300941,9.06E-04,0.007847682,0.0507164,0.08163911,-0.15726557,9.75301,0,
17,990.8519897,6.89E-04,-8.81E-05,7.75E-04,0.316259861,16.7160759,-14.21686363,9.59E-04,-0.001881182,0.050713539,0.072075695,-0.15726545,9.748275,0,
17,990.8241577,-5.09E-04,-6.21E-04,-6.90E-04,0.589856148,16.34046173,-14.77593803,-0.004235998,-0.006595507,0.069656372,0.08163151,-0.15011558,9.748275,0,
18,990.836853,-1.09E-04,3.11E-04,-2.90E-04,0.328841209,16.25365448,-14.03777504,-0.013982102,0.003149971,0.055458069,0.093577206,-0.15011543,9.76011,0,
18,990.8192139,2.90E-04,4.44E-04,1.09E-04,0.622926235,16.05511856,-14.3794117,0.014572278,-0.001629949,0.04598999,0.07206428,-0.15249866,9.757743,0,
18,990.8344727,2.90E-04,1.78E-04,2.43E-04,0.882281065,16.03453827,-14.34118843,5.03E-04,0.007802859,0.050721169,0.06967059,-0.1691815,9.755376,0,
18,990.8344727,2.90E-04,1.78E-04,2.43E-04,0.882281065,16.03453827,-14.34118843,-0.009063378,-0.001855686,0.050720215,0.08400619,-0.15249842,9.755374,0,
18,990.8115845,5.57E-04,4.44E-04,-1.57E-04,0.36677599,16.60486412,-13.4482975,-0.004622743,-0.00604485,0.036529541,0.084002376,-0.14296523,9.767211,0,
18,990.8117065,1.57E-04,5.78E-04,5.09E-04,0.594284058,16.23896408,-14.30877495,0.004891217,-0.005733252,0.046002388,0.08160868,-0.14773169,9.764844,0,
18,990.8041992,0.001222387,1.78E-04,-4.23E-04,0.449253559,16.52458572,-14.30313683,1.76E-04,-0.001092404,0.041268349,0.074435174,-0.14773163,9.764842,0,
18,990.8266602,-3.75E-04,-3.54E-04,-4.23E-04,0.583767891,16.33457184,-14.46671486,-1.23E-04,-0.005913898,0.031759262,0.08180493,-0.14773649,9.776697,0,
18,990.8067017,-3.75E-04,1.78E-04,-4.23E-04,0.714557648,16.40398216,-13.87505913,4.76E-05,0.003584832,0.036492348,0.0748477,-0.16442466,9.76488,0,
18,990.8218384,-2.46E-04,-4.85E-04,2.39E-04,1.056252003,16.1972065,-13.99259377,0.004241385,0.003546834,0.041227341,0.07725027,-0.15727511,9.764882,0,
18,990.8319092,1.53E-04,8.47E-04,-2.93E-04,0.905270815,16.58285332,-14.3768177,-0.005454332,-0.001138508,0.074370384,0.08682257,-0.15965876,9.743578,0,
18,990.8217163,1.96E-05,8.47E-04,6.39E-04,0.408573151,16.80256462,-14.31313515,-0.005889729,-0.005758077,0.041234016,0.074885786,-0.1548925,9.769618,0,
18,990.8192139,4.19E-04,5.81E-04,3.72E-04,0.416289091,15.70359039,-14.32700539,0.008594692,0.01778774,0.017555237,0.072508514,-0.15965936,9.781455,0,
18,990.8065186,-6.46E-04,1.81E-04,7.72E-04,0.550123692,15.77594376,-13.88995171,-9.03E-04,-0.02042599,0.04122448,0.08208084,-0.14774331,9.76962,0,
18,990.8140259,1.52E-04,-8.84E-04,6.39E-04,0.95146513,15.46679497,-13.70275688,0.004102752,0.008121818,0.045953751,0.09165311,-0.15489343,9.767255,0,
18,990.8067017,-2.47E-04,-4.85E-04,3.72E-04,0.532135963,15.97010231,-14.36045265,0.013528429,-0.001273707,0.050690651,0.07493651,-0.15727702,9.77199,0,
18,990.8545532,2.85E-04,0.0011133,1.06E-04,0.498384953,16.51781845,-14.15634346,0.008442305,-0.006148994,0.041221619,0.074949175,-0.15727732,9.76489,0,
18,990.8140259,5.52E-04,4.81E-05,2.39E-04,0.741379976,15.58652496,-14.29326057,0.012960285,0.003623143,0.041225433,0.07257199,-0.15727761,9.764892,0,
18,990.814209,1.88E-05,7.14E-04,1.06E-04,0.366478205,15.97272682,-13.87317085,-0.001680993,-0.00581196,0.05069828,0.07975435,-0.15727797,9.757791,0,
18,990.809021,1.86E-05,1.81E-04,1.06E-04,0.725754738,16.04600143,-14.3177433,-0.005986542,-0.001253605,0.041219711,0.08932668,-0.14297858,9.767261,0,
18,990.8319092,-2.48E-04,-6.18E-04,-4.27E-04,0.36981988,16.60781097,-13.60290718,-0.010988601,-0.005870536,0.074362755,0.09411913,-0.14536217,9.753058,0,
18,990.8218384,7.74E-07,-0.001084452,-1.36E-04,0.440259218,16.62166595,-14.53838539,-0.015155837,0.003534496,0.041213989,0.08218235,-0.15012908,9.760161,0,
18,990.8218384,7.74E-07,-0.001084452,-1.36E-04,0.440259218,16.62166595,-14.53838539,-0.005660683,0.003575757,0.045948982,0.082194984,-0.15966251,9.769631,0,
18,990.8167725,5.33E-04,-2.85E-04,5.30E-04,0.607706547,16.04038811,-13.6063633,-0.015183859,-0.020280942,0.027009964,0.08459759,-0.14536312,9.774367,0,
18,990.8266602,2.67E-04,-5.52E-04,-2.69E-04,0.798418999,16.21925926,-14.10812569,-5.26E-04,0.013220444,0.045945168,0.07744059,-0.15489653,9.762532,0,
19,990.8266602,2.67E-04,-5.52E-04,-2.69E-04,0.798418999,16.21925926,-14.10812569,-0.014850117,-9.73E-04,0.064884186,0.09657249,-0.15728012,9.753064,0,
19,990.8218384,2.67E-04,2.47E-04,2.63E-04,0.17620039,16.53190994,-13.64561653,0.013842128,0.00354211,0.060143471,0.072686136,-0.14298078,9.7578,0,
19,990.81427,-2.66E-04,-8.18E-04,-2.69E-04,1.084351063,16.38165283,-14.16168785,0.009355806,-0.001203775,0.03646946,0.07030892,-0.1501309,9.762534,0,
19,990.8494873,-7.99E-04,-5.52E-04,-4.03E-04,0.859045982,16.48664856,-13.97914314,-0.009818465,-0.015763,0.036463737,0.08466104,-0.1501312,9.77674,0,
19,990.8242798,1.33E-04,-1.90E-05,1.30E-04,0.445367813,16.25779724,-14.67184639,1.11E-04,-0.006130889,0.031725883,0.07989392,-0.15251485,9.776741,0,
19,990.8242798,1.33E-04,-1.90E-05,1.30E-04,0.787903309,16.31486511,-14.26606941,-0.004180841,0.017904684,0.045927048,0.07990658,-0.16204825,9.760172,0,
19,990.8218384,-2.67E-04,-0.001350609,-6.69E-04,0.380473852,16.61812019,-14.14404488,0.010215566,0.022867694,0.06486702,0.072749585,-0.16204855,9.748336,0,
19,990.8218384,0.001064937,-6.85E-04,1.30E-04,0.638849497,16.22777748,-13.93006325,8.34E-04,-8.50E-04,0.036485672,0.072509766,-0.15727612,9.767252,0,
19,990.8469238,3.99E-04,2.47E-04,-2.70E-04,0.520395756,16.69637299,-14.01621437,-0.003810935,-0.019834131,0.055421829,0.07968199,-0.13820994,9.750683,0,
19,990.8269043,4.00E-04,-1.52E-04,2.63E-04,0.736706495,16.68845177,-14.43400764,-0.008840412,-0.010033816,0.04122448,0.082074404,-0.14297655,9.776721,0,
19,990.8243408,-1.31E-04,-6.83E-04,-6.69E-04,0.647438049,16.60490799,-14.49234962,0.010612331,-0.010083407,0.05542469,0.07490724,-0.14297661,9.762519,0,
19,990.8268433,2.69E-04,3.82E-04,-3.12E-06,1.183294535,16.10574341,-14.46872902,8.42E-04,0.004442587,0.031757355,0.08207953,-0.16442621,9.767253,0,
19,990.8269043,5.35E-04,5.16E-04,-1.36E-04,0.569229126,16.0574646,-14.29429054,0.019789152,0.009245038,0.041227341,0.07013255,-0.15489313,9.769621,0,
19,990.8243408,-1.31E-04,5.16E-04,-1.36E-04,0.416044712,16.70401573,-14.00058174,-0.004225314,-0.009687543,0.041230202,0.07969469,-0.1525099,9.764887,0,
19,990.8419189,2.39E-06,-1.70E-05,1.30E-04,0.894180775,15.83448982,-13.56147575,8.58E-04,0.013649523,0.060156822,0.074917436,-0.16204312,9.750684,0,
19,990.8067017,-7.97E-04,-8.16E-04,1.30E-04,0.499906301,16.51929283,-14.23365211,-0.00359641,-4.00E-04,0.031751633,0.07253006,-0.15251005,9.774356,0,
19,990.836853,8.01E-04,-9.49E-04,9.29E-04,0.579202175,16.3301506,-14.23480415,0.01095064,0.013751,0.036482811,0.06297296,-0.1644265,9.760154,0,
19,990.836853,2.32E-06,-5.50E-04,1.30E-04,0.970432758,15.64240265,-13.4080143,-0.003283352,-0.010186836,0.03647995,0.08209473,-0.15012687,9.769622,0,
19,990.8218384,-3.97E-04,-5.50E-04,-1.36E-04,1.321258783,15.44446373,-13.98938942,-0.003142163,-0.005590767,0.031741142,0.08209729,-0.15251029,9.774356,0,
19,990.7940063,-3.97E-04,1.16E-04,-1.36E-04,0.64730072,16.49898911,-13.7932682,0.00657592,-0.010235876,0.050679207,0.07970989,-0.150127,9.757786,0,
19,990.8016357,2.25E-06,-8.16E-04,-1.36E-04,0.456726074,16.42603302,-13.99058723,0.011242837,0.008750379,0.036475182,0.07015282,-0.16681007,9.771989,0,
19,990.8067017,2.22E-06,-1.69E-05,-2.70E-04,0.577680111,16.32867813,-14.1574955,0.006579652,0.004235253,0.045946121,0.07493517,-0.14536056,9.764889,0,
19,990.7991333,9.34E-04,-1.69E-05,2.63E-04,0.506536961,16.15689468,-14.44442177,0.006602816,0.004118785,0.036476135,0.070157915,-0.15966037,9.757787,0,
19,990.8117676,-3.97E-04,1.16E-04,-2.70E-04,0.430148125,16.24306297,-13.89880562,0.011204518,-5.70E-04,0.055416107,0.07972005,-0.15966037,9.757787,0,
20,990.8469238,-2.64E-04,-8.16E-04,2.63E-04,0.735046864,16.58106041,-13.6576252,0.006590642,0.00860393,0.055407524,0.07255286,-0.16204375,9.75542,0,
20,990.8167725,-2.64E-04,3.83E-04,-1.36E-04,0.272099972,16.25305557,-13.7980442,0.015975296,0.00377205,0.045939445,0.06299585,-0.15966049,9.76489,0,
20,990.8319092,-1.31E-04,-6.83E-04,-1.36E-04,0.277071476,15.78327179,-13.23243141,0.011373483,-0.005930513,0.031731606,0.074947864,-0.14536092,9.760156,0,
20,990.8319092,-1.31E-04,-1.69E-05,1.30E-04,0.710672379,16.13718796,-14.24376869,-0.002637312,0.017930463,0.050667763,0.077340305,-0.16919377,9.755421,0,
20,990.814209,2.05E-06,-1.69E-05,-2.70E-04,0.899725437,16.20866966,-13.96914864,0.00200408,-9.09E-04,0.045937538,0.079732716,-0.14774433,9.760156,0,
20,990.7940063,2.68E-04,-8.16E-04,2.63E-04,0.541565895,16.61107635,-14.39940834,0.00729432,-0.020048976,0.026993752,0.08212519,-0.13821125,9.783828,0,
20,990.8469238,-2.64E-04,-0.001881117,-3.33E-06,0.611867189,16.51901436,-14.63580513,0.012431033,0.017845631,0.045924187,0.07256809,-0.16681066,9.767258,0,
20,990.8092041,-1.31E-04,2.49E-04,6.62E-04,0.616295338,16.4175148,-14.16864204,0.007144675,0.003469914,0.064865112,0.07496053,-0.15251103,9.762523,0,
20,990.8092041,-1.31E-04,2.49E-04,6.62E-04,0.616295338,16.4175148,-14.16864204,0.006902806,-0.015598282,0.031700134,0.06804985,-0.14298427,9.7767515,0,
20,990.8167725,4.00E-04,1.19E-04,-1.38E-04,0.496319294,16.88463593,-14.17749214,-0.002820335,-0.014958292,0.060116768,0.08240199,-0.1406013,9.750712,0,
20,990.8294067,7.99E-04,-4.13E-04,-4.05E-04,0.708607674,16.50400543,-14.26491356,0.016515337,-0.005654946,0.041172981,0.072855055,-0.15490133,9.776752,0,
20,990.8041992,-4.43E-04,1.67E-05,1.41E-04,0.367051363,16.81669998,-14.84645271,-0.002726488,0.008734092,0.036439896,0.080037415,-0.15251836,9.772019,0,
20,990.8193359,7.55E-04,-2.50E-04,-7.91E-04,0.870785475,15.76037979,-14.32338142,0.002327532,-0.005488038,0.031702995,0.07288039,-0.15251866,9.764919,0,
20,990.7991333,-1.77E-04,1.67E-05,9.40E-04,0.504878521,16.04950333,-13.66803551,-0.002614185,0.004212305,0.050642967,0.07528299,-0.16205212,9.748349,0,
20,990.8369751,6.22E-04,1.67E-05,-3.91E-04,0.395012856,16.89522552,-14.31646919,-0.002776064,0.009015083,0.041174889,0.0800755,-0.15251926,9.760186,0,
20,990.8369751,6.22E-04,1.67E-05,-3.91E-04,0.395012856,16.89522552,-14.31646919,0.006885111,-0.014628917,0.050644875,0.07769826,-0.14536974,9.760188,0,
20,990.8218384,2.22E-04,-5.16E-04,2.74E-04,0.533412218,16.97200203,-14.11133385,-0.002732672,-0.014353603,0.050646782,0.07293111,-0.14537004,9.76019,0,
20,990.8344727,7.54E-04,5.49E-04,2.74E-04,0.909400463,15.84922028,-14.33452797,-0.002657525,-2.47E-04,0.045907974,0.08011353,-0.14537033,9.76019,0,
20,990.8344727,7.54E-04,5.49E-04,2.74E-04,0.909400463,15.84922028,-14.33452797,-0.007398233,-2.56E-04,0.026970863,0.082516134,-0.15252054,9.76966,0,
20,990.8217163,-3.11E-04,-1.16E-04,1.41E-04,0.970027685,16.11660767,-14.20554543,0.00180386,0.004741654,0.045911789,0.075359106,-0.1549041,9.753091,0,
20,990.8067017,-4.47E-05,1.50E-04,-1.25E-04,0.7628479,16.13336754,-14.25158501,0.002278931,0.009511113,0.069580078,0.082541496,-0.15728769,9.748359,0,
20,990.8344727,-3.11E-04,-1.16E-04,-2.59E-04,0.671216965,15.78450394,-14.75594521,0.02609276,-0.014620245,0.041168213,0.07299456,-0.14775494,9.767297,0,
20,990.8269043,-7.11E-04,-2.49E-04,-2.59E-04,0.663904905,16.40927505,-13.94454384,-0.002311401,0.0137458,0.045895576,0.07539719,-0.16205487,9.757829,0,
20,990.8117065,-7.11E-04,-3.83E-04,8.07E-04,0.929890394,16.02629662,-14.11709404,-0.002848007,-0.020075008,0.041156769,0.07779974,-0.15013883,9.767299,0,
20,990.8193359,-9.77E-04,8.16E-04,4.07E-04,0.40607214,16.43132782,-14.06007576,-0.007974841,0.003634349,0.045890808,0.087372035,-0.15967223,9.757831,0,
21,990.8369751,8.77E-05,0.00134851,7.46E-06,0.195848942,16.44514084,-13.95150566,0.006211303,-7.98E-04,0.050628662,0.070655406,-0.15013939,9.7554655,0,
21,990.8369751,6.20E-04,-3.83E-04,-9.25E-04,0.752193928,16.12305641,-13.71045113,0.010714166,0.008594066,0.050628662,0.08022767,-0.15967289,9.760201,0,
21,990.8220215,-5.78E-04,0.00134855,7.35E-06,0.493957043,16.6193161,-14.62351036,9.98E-04,0.02258411,0.036419868,0.07546061,-0.15967318,9.762569,0,
21,990.8218384,-4.45E-04,-2.49E-04,-1.26E-04,0.487867832,16.61342621,-14.31428719,-0.008420989,-0.006304055,0.041148186,0.080253065,-0.15014035,9.760203,0,
21,990.8092041,-7.12E-04,-1.16E-04,-0.001058015,0.720508337,16.30395508,-13.48519707,0.01131174,-9.15E-04,0.064823151,0.075485915,-0.1501407,9.760205,0,
21,990.8168945,0.004215003,-0.004110866,-5.25E-04,0.988016129,15.92245102,-13.73505211,0.007653944,7.20E-04,0.055370331,0.08027843,-0.1525242,9.764939,0,
21,990.9608154,2.20E-04,0.001082313,2.73E-04,0.454224348,16.05479813,-13.73752785,0.001313604,-0.005965516,0.045883179,0.082681,-0.14537475,9.767308,0,
21,990.7813721,-0.003774718,0.00321286,6.73E-04,1.081307888,16.37870407,-14.00707817,0.001408488,-0.01106213,0.026938438,0.07050723,-0.1477525,9.772022,0,
21,990.7485352,-9.78E-04,-9.15E-04,1.40E-04,0.693089962,15.85713959,-13.91673851,0.007487088,-1.70E-04,0.060135841,0.07504845,-0.15012988,9.748329,0,
21,990.8016357,0.003153875,-0.00198101,-1.24E-04,0.439577818,16.88404083,-13.93776131,-0.001987584,-0.014227301,0.041202545,0.079821944,-0.14774653,9.76253,0,
21,990.9381104,-4.41E-04,1.50E-04,2.75E-04,0.38185811,16.5136776,-13.52227211,-0.007840782,-0.015760466,0.045923233,0.07742569,-0.14536306,9.755429,0,
21,990.7966309,-0.002704951,0.001347918,-2.57E-04,0.830947399,16.30220413,-13.81005287,0.016039059,0.012686253,0.0317173,0.07024965,-0.15727928,9.769631,0,
21,990.7562866,-1.75E-04,5.49E-04,9.05E-06,0.706404686,16.76490784,-13.58698463,0.02042564,-0.006311864,0.060128212,0.063073635,-0.15489587,9.757795,0,
21,990.8218384,3.58E-04,6.82E-04,-2.57E-04,0.637870789,15.85801697,-13.75431252,-0.008216277,-0.006335497,0.041192055,0.07979661,-0.15727898,9.764896,0,
21,990.8344727,-4.41E-04,1.49E-04,-5.24E-04,0.489795685,16.14068985,-13.59406471,-0.008427799,0.002975956,0.04592514,0.08457008,-0.15251222,9.767262,0,
21,990.8371582,-8.40E-04,-2.50E-04,-6.57E-04,0.739613056,16.58547974,-13.88953972,0.025331743,-0.011395812,0.036453247,0.06305462,-0.14536229,9.7719965,0,
21,990.8092041,3.58E-04,1.63E-05,-6.57E-04,0.589037895,16.49691772,-13.47623253,0.010667428,-0.001859367,0.055394173,0.07499778,-0.15012872,9.750691,0,
21,990.8093262,2.25E-04,2.83E-04,9.18E-06,0.85447979,16.48223114,-13.74722862,-0.008583471,0.012509391,0.050662994,0.074991465,-0.1668115,9.7506895,0,
21,990.8192749,-4.14E-05,4.16E-04,-1.24E-04,0.560395718,16.68076324,-13.40558815,5.99E-04,-0.001685008,0.050667763,0.07498512,-0.1596615,9.757791,0,
21,990.8167725,4.91E-04,2.83E-04,-1.24E-04,0.651728392,16.39749336,-13.32610512,-0.003978893,0.007611603,0.060131073,0.08692831,-0.15727809,9.764893,1,
21,990.8294067,-0.001239665,-6.50E-04,-3.90E-04,0.648684978,16.3945446,-13.17149544,0.019886978,0.002769142,0.036458969,0.06780276,-0.15489462,9.767259,1,
21,990.8319092,4.91E-04,0.001081503,2.76E-04,0.995924473,16.56195068,-13.69670296,0.014836796,0.002638578,0.055397987,0.07018635,-0.15727773,9.760158,1,
21,990.8319092,4.91E-04,0.001081503,2.76E-04,0.946112394,16.83109283,-13.24286842,5.38E-04,0.002497837,0.045927048,0.06779009,-0.15727761,9.762524,1,
21,990.814209,-3.07E-04,-6.50E-04,-3.90E-04,1.112175465,16.35425949,-12.93262291,-0.014385857,0.016726032,0.055400848,0.09168279,-0.15966073,9.76489,1,
21,990.814209,-3.07E-04,-6.50E-04,-3.90E-04,1.112175465,16.35425949,-12.93262291,-0.009594813,-0.026143685,0.064870834,0.08450675,-0.13582772,9.755421,1,
22,990.8419189,-2.13E-04,0.002099232,-4.39E-04,0.950678349,16.83551216,-13.47478676,0.014179535,0.002341285,0.050666809,0.07494086,-0.15012729,9.757787,1,
22,990.8218384,-2.12E-04,1.02E-04,9.38E-05,1.088099003,16.54252625,-13.09390068,0.019094929,0.002171949,0.041194916,0.06776479,-0.14774385,9.774358,1,
22,990.8547363,-4.79E-04,-3.13E-05,-3.94E-05,1.255684137,16.06716537,-12.86095619,-0.009820029,-0.002417013,0.012793541,0.07731807,-0.15727678,9.781459,1,
22,990.7938843,5.40E-05,2.35E-04,0.001025914,1.021384716,16.26924515,-12.91366005,0.023500748,-0.011864558,0.041203499,0.06775212,-0.14774355,9.776723,1,
22,990.8192139,5.41E-05,-5.64E-04,-4.39E-04,0.663766861,16.30335999,-13.24547005,0.018745579,-0.006837681,0.022270203,0.067745775,-0.15012667,9.788558,1,
22,990.8192139,5.41E-05,-5.64E-04,-4.39E-04,0.663766861,16.30335999,-13.24547005,0.009590365,0.002817839,0.041207314,0.07490915,-0.15727636,9.776721,1,
22,990.8317871,-7.89E-05,-5.64E-04,9.39E-05,0.782519102,16.46690369,-12.73444557,0.014030367,0.00720273,0.03173542,0.06773314,-0.15727618,9.76962,1,
22,990.8343506,-3.45E-04,6.34E-04,-3.92E-05,0.657380581,15.66533279,-13.36111641,0.004183829,0.002675012,0.036438942,0.065717995,-0.162052,9.767287,1,
22,990.8595581,5.85E-04,-3.11E-05,-1.73E-04,0.884070396,15.45588684,-12.92189217,0.008452021,-0.006539389,0.017508507,0.068116814,-0.15490228,9.788592,1,
22,990.8266602,5.83E-04,0.001300795,2.26E-04,0.630260706,15.85065079,-13.3677845,0.012682937,-0.006260991,0.012782097,0.0705156,-0.15728578,9.786227,1,
22,990.8294067,1.84E-04,-1.64E-04,4.92E-04,0.457567215,16.68988037,-13.46726418,0.007875726,-0.006367996,0.031718254,0.070524454,-0.1501362,9.786227,1,
22,990.8217163,4.50E-04,5.02E-04,2.25E-04,0.476534367,16.86548615,-13.17252541,0.017208956,0.007931888,0.026986122,0.06575358,-0.17396924,9.779126,1,
22,990.8318481,5.04E-05,6.35E-04,-1.74E-04,1.081850767,16.01041412,-13.90862846,-0.015430465,-0.009906679,0.01752758,0.082491755,-0.1572865,9.786229,1,
22,990.8192139,0.00524347,-0.003093361,0.001157498,0.645641327,16.39159775,-13.01688576,0.005504243,0.002497256,0.022291183,0.06338146,-0.15490344,9.800432,1,
22,990.8040161,0.006441806,-0.005223874,7.58E-04,0.959915638,15.73801041,-13.56595802,0.023933336,0.008042946,0.017560959,0.08728939,-0.1406039,9.776761,1,
22,990.7915039,0.017760146,-0.032521233,-8.40E-04,0.949400663,15.83361435,-13.72390175,-5.94E-04,0.011794731,0.008060455,0.18528426,-0.18588644,9.745989,1,
22,990.8063965,0.004577423,-0.01347964,-0.030267887,0.710833788,16.66340637,-13.11982155,0.141858786,-0.072022751,-0.04425621,-0.003509104,-0.23593551,9.878552,1,
22,990.7609863,-0.110737436,0.039117765,-0.175809547,0.864017487,16.01686096,-13.41353035,0.018538162,1.059840083,-0.386425018,-0.029789165,-0.6649258,9.989812,1,
22,990.7330933,-0.145225435,0.052699886,0.057616282,0.707383633,17.13467026,-13.76273918,0.022811122,-1.133820772,-0.07946682,-0.003491342,0.46236458,9.852515,1,
22,990.7282715,-0.12525183,0.156962574,-0.065688007,0.91314888,16.01009369,-13.2667408,0.019035846,0.173866332,0.657962799,0.08494395,-0.65539324,9.88329,1,
22,990.7886353,-0.452154726,0.140850484,-0.139457569,0.240467548,18.06651878,-12.82150459,-0.351589233,-0.190371931,0.659779549,0.178159,-0.55052924,9.656039,1,
22,990.7886353,-0.452154726,0.140850484,-0.139457569,0.240467548,18.06651878,-12.82150459,0.095212758,-0.091974914,0.292912483,-0.15641835,-0.5958116,9.677344,1,
22,990.831665,-0.491835922,-0.013346384,-0.147846609,0.115245819,18.79159355,-11.99780464,-0.024513572,0.046269536,0.078751564,0.21641523,-1.2202308,9.757831,1,
22,990.8493652,-0.489572376,0.014217325,-0.104969792,-0.062993526,19.25664139,-11.68961525,-0.44942537,-0.17325604,0.059037209,0.32635963,-1.1511159,9.656041,1,
23,990.8493652,-0.489572376,0.014217325,-0.104969792,-0.062993526,19.25664139,-11.68961525,-0.571865022,-0.204250216,-0.17275238,0.3574372,-1.3441617,9.916434,1,
23,990.8719482,-0.529519856,-0.024398465,0.162677646,0.062580585,20.79626846,-11.33715248,0.6616745,0.054506421,-0.043376923,-0.5459368,-1.9804974,9.459565,1,
23,990.8188477,-0.752026856,-0.185919032,0.083049148,-0.032913685,20.60091591,-10.38719368,0.060807787,-0.044109106,0.275734901,-0.063167706,-1.9685812,9.428793,1,
23,990.8466187,-0.597563744,0.231930599,-0.307503104,-0.561404705,22.10787201,-10.47091484,0.611356616,-0.115855694,-0.298417091,-0.302149,-2.1878428,9.691552,1,
23,990.8136597,-0.655620635,0.117281631,-0.646523237,-0.627820492,22.4667263,-9.865804672,-0.779579163,-0.023162365,0.139234543,0.9764575,-2.5501018,9.426427,1,
23,990.8213501,-0.721267581,0.157761663,-0.649319649,-1.358275414,22.52022552,-9.756372452,-0.370419472,-0.063523531,-0.125337601,0.23798662,-2.7836633,9.395654,1,
23,990.7910767,-0.813546181,-0.016275762,0.131917983,-1.577577114,24.15776443,-8.43268013,0.362648904,-0.085765123,0.031464577,-0.30212235,-3.0744233,9.125794,1,
23,990.8086548,-0.751627803,-0.025996279,0.091970548,-1.664727688,25.33996582,-7.718584061,-0.131746352,-0.056980133,0.038237572,0.13240975,-3.3556397,9.22281,1,
23,990.8086548,-0.751627803,-0.025996279,0.091970548,-1.664727688,25.33996582,-7.718584061,-0.217476547,-0.081320524,0.013483047,0.28251684,-3.6821375,8.853484,1,
23,990.8364258,-0.742839456,0.091715358,-0.228673801,-1.730164051,26.06858826,-7.289228439,-0.1223877,0.035197973,0.294208527,0.24186188,-3.9371476,8.827443,1,
23,990.8388672,-0.786908031,0.054295219,-0.135324374,-1.677828312,26.59098434,-6.17309761,-0.175876915,-0.004115105,0.021603584,0.39000916,-4.1087427,8.915027,1,
23,990.8921509,-0.536569893,-0.011751329,0.037382044,-1.946016788,27.23485947,-5.322618484,-0.419772208,0.115990162,0.598111153,0.4688493,-4.3446865,7.8923926,1,
23,990.9145508,-0.488100111,-0.098304026,0.222604841,-1.737559795,28.22000122,-5.027463913,0.502154231,-1.305915833,-0.242276192,-0.26965702,-2.6668582,9.21329,1,
23,990.90448,0.489545971,-0.43799001,0.927010536,-0.663889408,27.96120453,-5.331737518,0.119409978,1.313898563,-0.688951492,0.22980589,-4.409034,9.286671,1,
23,990.9221802,0.82044369,-0.242114738,0.551904798,-0.600080967,28.33745575,-6.056444168,0.765543044,-0.293709993,-1.179553032,-0.29121938,-3.3484745,9.873734,1,
23,990.9677124,-0.157601088,0.08971481,-0.13598904,-0.705410957,27.97533798,-5.865055084,-0.151755571,2.778182268,-0.574703217,-0.36055315,-6.12261,9.873732,1,
23,990.8893433,0.054919243,0.281195909,0.45243597,0.648646593,27.50474167,-5.815221786,0.521692574,0.0224123,-2.167408943,-0.30322212,-3.534369,10.825345,1,
23,990.8536377,0.599668682,0.274804294,1.638873339,2.608050823,27.39134216,-7.573226929,-0.948052704,-2.451285839,2.36614275,0.41850168,-1.5395643,7.854502,1,
23,990.7780151,1.345885992,0.313819498,1.256443858,2.858251333,26.94161224,-8.894197464,0.796520531,-0.538421869,-0.905005455,-1.0417551,-1.525264,9.558887,1,
23,990.8638916,0.708326042,-0.565688729,-0.150502801,2.439570904,25.97028732,-9.080781937,0.979829252,0.314747095,-1.064216614,-1.4815236,-2.8861153,10.302186,1,
23,990.8891602,-0.052138716,0.365484715,-0.057824783,2.833876848,26.4977417,-9.480344772,0.725139916,0.253611565,-0.239684105,-1.390734,-2.607271,9.289021,1,
23,990.8686523,-0.050007936,0.484661043,0.195841208,3.051166773,26.85958862,-10.07389259,0.104920805,-0.866179705,0.409726143,-0.5686344,-2.1449146,10.40397,1,
23,990.8256836,0.351862997,-0.756504178,0.123669714,1.934262037,25.39256287,-10.27784538,0.169981599,0.288711309,-3.19183445,-0.66186714,-2.583437,11.91661,1,
23,990.9570923,1.174779296,-0.859568477,0.036185052,0.977905035,24.28679276,-10.83561516,0.344768405,-0.02706027,-0.339487076,-0.8650354,-2.0185995,10.15541,1,
23,990.833252,0.825639427,0.259091377,0.15962258,0.729885101,24.0553093,-12.0156002,-0.058311164,-0.712774992,0.113594055,-0.46594843,-1.0176216,9.6156845,1,
24,990.8383179,0.590482891,0.188118115,0.118077405,1.086362362,23.12521362,-12.6319828,0.227116793,0.549514174,-1.34478569,-0.5424519,-2.0138316,11.365045,1,
24,990.8358765,0.982233703,-0.461958975,0.005292741,0.046252251,21.09781647,-12.58402443,0.784264326,0.374492586,-0.835821152,-1.285738,-1.0247703,10.046512,1,
24,990.8634033,1.300747633,-0.143312082,0.152166069,-0.039888859,19.49057007,-14.24734688,0.472873867,-0.256404728,0.282803535,-0.15056126,0.019106358,9.336348,1,
24,990.8051758,0.813523114,-0.070075259,0.260556728,-0.186059475,18.88021088,-15.18990517,-0.822692931,-0.183151424,1.938560486,0.67631817,0.14065427,8.252166,1,
24,990.7697144,0.805533946,-0.978345633,0.052564137,-1.57435751,17.5279007,-15.51271248,0.734915435,1.093887806,-1.691555977,0.02862814,-1.4871242,10.825313,1,
24,990.8432007,0.53495723,-1.103380919,-0.250636369,-3.506962299,16.40354919,-15.99594688,0.053629488,-0.714053929,2.121703625,0.030991405,0.657827,8.306607,1,
24,990.757019,-1.305951118,1.54726088,-0.036518298,-1.787486553,17.64468765,-15.94861031,0.119947627,1.175728321,-2.892211914,-0.11003941,-1.6634855,13.265894,1,
24,990.9845581,-0.242950961,-0.151301771,-0.052763473,-1.042630672,17.76237297,-15.53138924,-0.020233661,0.788127542,-1.478604317,0.030938178,-0.97233415,10.240607,1,
24,990.9870605,1.942703724,-1.044658422,-0.130128115,-3.154316425,16.83922195,-16.22975349,1.535923243,1.185039043,-0.198982239,-0.8892006,-0.15725234,9.054636,1,
24,990.668457,0.931902111,0.72887218,0.153897882,-3.479215145,14.32329178,-17.34120369,0.699669957,0.27127701,1.019212723,-0.7338837,0.48385027,9.404979,1,
24,990.7266846,0.394610018,0.928875327,0.492119193,-1.691992283,13.46856689,-18.02850151,0.03304711,0.481781304,-0.511804581,-0.30611786,0.45525154,10.252435,1,
24,990.8277588,0.796747267,0.426603556,0.551108181,-0.804331303,13.14122772,-18.76200294,-0.107582688,0.994786739,-0.021648407,-0.14602107,0.62208176,9.38367,1,
24,990.7719116,0.918986499,0.537390828,0.609032035,0.62399745,11.31872177,-20.03022957,-0.815067649,-0.391559362,1.139399529,-0.11497897,2.1473806,8.690077,1,
24,990.6786499,0.640020907,0.573077202,0.3207452,1.172029734,10.83134079,-20.62504768,-0.040808082,0.229259014,0.32019043,-0.7047718,1.3918687,9.51391,1,
24,990.6786499,0.640020907,0.573077202,0.3207452,1.918246746,10.42428017,-21.40908241,0.573144853,1.230154157,-0.602226257,-0.84523714,1.3251235,9.625218,1,
24,990.7338867,0.66745162,-0.158226267,-0.003227939,0.876614094,8.395412445,-21.2838192,-0.037101708,0.083290339,1.17001152,-0.03505233,2.3356335,8.74462,1,
24,990.7821045,0.927632093,-0.666222095,0.109419286,-0.364588261,6.390666962,-21.59112358,0.106259495,1.56246686,-1.1909132,0.11790943,1.5563011,10.333013,1,
24,990.7944336,0.82270354,-1.013231635,0.139113471,-2.380213261,5.714876175,-21.31796455,0.206147254,-0.136734486,-0.006459236,0.4668432,3.1221151,9.542369,1,
24,990.7844849,0.581554413,-0.648378968,0.154559761,-3.361464977,4.953825951,-20.73729897,0.509236693,0.611050129,-0.620178223,0.61024535,2.633543,10.103396,1,
24,990.8500366,0.892744482,-0.963430583,0.199567109,-5.663459301,3.377595901,-20.13636971,0.405806541,0.854879379,-0.876802444,1.0332661,3.3771253,9.511596,1,
24,990.9029541,1.04201436,-1.243328571,0.18305549,-6.982818127,2.45797348,-19.49433327,-0.024443984,0.238197327,-1.124666214,1.2196866,3.3103933,10.226492,1,
24,990.7790527,0.447996676,-0.088316604,0.424470782,-7.53715086,0.780678749,-20.4655323,0.655468464,0.906139135,-1.522456169,1.0022135,3.393808,10.160212,1,
24,990.7664795,0.769839346,-0.226667702,0.632596552,-7.605386257,0.50592041,-20.20798683,0.18855679,0.160255432,-0.690124512,1.4324039,4.185056,8.896125,1,
24,990.7235107,0.684751332,0.340851486,0.604100704,-6.973632336,-0.27209568,-20.3367939,0.278137445,0.583918095,-0.639064789,1.2483896,4.2637043,9.750687,1,
25,990.6298828,0.617240191,0.403835177,0.522341728,-7.072192669,-0.890699387,-21.05525398,0.117503524,0.273195267,-0.910650253,1.4276402,4.5639973,8.55525,1,
25,990.6954956,1.321911931,0.219810918,0.377332747,-6.341088772,-2.418828964,-20.69357491,-0.668512702,-0.042975426,1.783465862,1.6451294,5.157433,6.7159343,1,
25,990.6576538,0.853462279,0.504103124,-8.36E-04,-5.649302959,-4.193729877,-21.54314995,-0.368044376,-0.065585613,-0.37142086,1.0572215,5.319496,8.578923,1,
25,990.614563,0.354119837,0.481732637,-0.122542247,-4.962190151,-4.866708279,-22.53346443,0.567287028,1.087510109,-0.31351757,0.26856202,4.235104,8.678347,1,
25,990.6522217,0.512045145,0.637394309,-0.056629099,-3.459514141,-5.988267899,-22.54542732,-0.243220508,0.555470467,-0.632401466,1.4181129,5.4291263,8.133891,1,
25,990.7052612,0.816044569,0.604237974,0.195572004,-3.009338856,-6.936319828,-22.63630867,-0.602293909,0.520946026,-0.329164505,0.9377507,5.479175,7.388222,1,
25,990.7557983,0.989682496,0.296643138,-0.079798654,-2.389514446,-8.726548195,-22.47309685,0.42018047,0.806994915,0.264286995,0.18493965,5.576889,6.7940555,1,
25,990.7633057,0.554122806,0.705704331,0.136449814,-1.299675465,-9.813117027,-22.65444374,0.43642059,0.499808311,0.508922577,-0.020583868,5.8462,7.2698636,1,
25,990.7860718,0.320430487,0.71981895,0.408491433,0.014787197,-10.74230957,-22.41770363,-0.778145075,0.219472408,-0.578345776,0.89236677,6.151259,7.9090095,1,
25,990.7860718,0.357315153,0.766024947,0.464151472,0.988971233,-10.35691261,-22.51338768,0.197297737,0.688572884,-0.601027012,-0.030127347,6.1107435,7.55393,1,
25,990.7886963,0.553057313,0.768288612,0.440582454,2.49371171,-11.84528923,-22.50420189,-0.174625218,0.168666363,0.194818497,0.30685693,6.587398,7.113631,1,
25,990.7810059,0.737747312,0.369347423,0.422073454,2.702795029,-12.75508499,-23.5609684,-0.313938171,0.286123276,-0.443407059,0.3116448,6.446785,7.3290467,1,
25,990.7936401,0.432948679,0.960302353,0.33938235,4.257508755,-13.98638344,-22.88167,-0.038899973,0.79624033,0.84424305,-0.2810428,6.3371544,5.944234,1,
25,990.8161621,0.308445901,1.377486229,0.36947602,5.955217838,-13.92422199,-23.30088234,0.139522433,0.988428593,0.151605606,-0.36229143,6.04401,6.8106313,1,
25,990.704895,0.396332979,0.964030266,0.602104127,9.687627792,-14.11701298,-23.32586479,0.549592137,1.091488838,1.578649521,-0.6451246,6.2370763,5.425742,1,
25,990.704895,0.396332979,0.964030266,0.602104127,9.687627792,-14.11701298,-23.32586479,0.5802598,1.062232971,0.98869276,-0.597352,6.625551,5.9725633,1,
25,990.6795654,0.434953362,0.06681022,0.816226184,9.703252792,-14.5764904,-23.30138588,-0.374963045,0.146512508,0.445181847,0.06701547,6.9997263,6.005702,1,
25,990.6744385,0.392742515,0.045504898,0.778542578,8.986602783,-15.61607361,-23.51504326,-0.259444624,0.892255783,-0.577209473,0.48761278,6.8781796,6.4104915,1,
25,990.6643677,0.362915397,0.427268684,0.699446797,8.886680603,-15.70993042,-23.03225136,-0.95475316,-0.014074326,1.465087891,0.7409171,7.5168986,5.103793,1,
25,990.6895142,0.419640958,0.257758588,0.528871655,8.867574692,-15.99145508,-22.62790871,0.028978042,0.556428432,-0.462094307,0.37045687,7.245206,5.9252105,1,
25,990.7299194,0.187546894,0.42580384,0.523944914,9.436256409,-15.77553368,-21.88134956,-1.303671002,-0.219594479,1.773079872,1.0133151,7.5455,5.326306,1,
25,990.744751,-0.276641458,0.970153451,0.390254408,10.44280815,-15.83341408,-22.80291176,0.856458664,1.349439144,-0.710160255,-0.6907103,6.5707397,5.9039006,1,
25,990.6970215,-0.138423264,0.803839207,0.492120296,11.08932495,-13.38358688,-24.12366676,-1.593560934,-0.545586109,0.677259445,1.2976626,7.664665,6.7040124,1,
25,990.6488647,-0.148676172,0.276001036,0.595051587,11.15362358,-10.63671684,-24.37128639,-0.440996975,0.134507179,-0.042930126,0.21023196,7.0068808,6.791597,1,
25,990.605835,0.406725854,0.12646465,0.674546957,11.2816143,-11.57067871,-23.95144463,-1.029899001,-0.520041943,0.912154675,1.1566077,8.019775,5.456492,1,
26,990.605835,0.406725854,0.12646465,0.674546957,11.2816143,-11.57067871,-23.95144463,-2.215530396,-0.894349575,1.322911263,1.9906584,8.298618,5.0303936,1,
26,990.6689453,0.200198114,0.618216872,0.768955946,11.62969398,-11.13942432,-23.9533329,-0.008609444,0.424653053,0.327199459,0.12650931,7.0497813,6.3725953,1,
26,990.744812,-0.325242907,0.851908982,0.457499683,13.0653038,-10.42749596,-23.83128548,-0.414412171,0.05932951,-0.845535755,0.685721,7.5145216,6.718204,1,
26,990.7674561,-0.497682184,0.727006793,0.271611303,14.57740784,-10.90807819,-23.88220787,-0.530903935,-0.056957722,0.477161884,1.1110982,7.6885014,5.9086185,1,
26,990.7649536,0.157588318,0.059086576,0.457499862,13.72349739,-11.12845707,-23.352808,-0.699548602,-0.236218929,0.13538599,1.0489353,7.810049,6.223455,1,
26,990.7646484,-0.11645025,0.490251899,0.325407416,13.71007538,-10.929883,-24.05521584,-0.129978627,-0.055955887,0.530718803,0.60677814,7.621771,5.981997,1,
26,990.7723999,-0.050270505,0.478800297,0.260692745,14.12816048,-11.22283173,-24.71837425,-0.487412006,-0.136401653,0.257321835,0.77882564,7.6003222,6.2116137,1,
26,990.7874756,-0.025103409,0.315015972,0.275073916,14.79942513,-10.01559639,-23.58371925,-0.355699182,-0.066198826,0.125450611,0.8385478,7.690887,5.899141,1,
26,990.7822876,0.133754253,0.237118542,0.298509806,15.34009171,-11.51076984,-24.118433,-0.52296412,-0.122973442,0.209810257,0.9580176,7.736171,5.8636303,1,
26,990.7799683,0.069439217,0.175200045,0.250306755,15.179842,-11.23987484,-23.33975029,-0.513917804,-0.044783592,-0.154575825,0.8552264,7.63369,6.263685,1,
26,990.7445679,-0.04334531,0.340449035,0.210758954,15.4829216,-11.53549099,-23.4461422,-0.516496539,-0.078246593,0.370956421,1.1802278,7.7266383,6.0672054,1,
26,990.7749634,-0.027898746,0.232591048,0.180132732,16.06097794,-12.31115913,-23.48982811,-0.429569542,0.023151875,-0.105539322,0.59228647,7.342931,6.311025,1,
26,990.7570801,-0.059057463,0.262551546,0.052168053,16.19470596,-11.13245964,-23.42543983,-0.596824169,-0.093101978,0.22898674,0.766724,7.459713,6.256577,1,
26,990.7595825,-0.022172462,0.271739393,0.152835563,16.30057907,-11.13862991,-23.5183773,-0.567131758,-0.017424107,0.265966415,0.95311105,7.535978,6.2494726,1,
26,990.7342529,0.006589893,0.115678258,0.119546175,16.95282364,-11.7395649,-23.42975044,-0.563740432,0.008883953,-0.180142879,0.93561804,7.5550632,6.2943797,1,
26,990.7668457,-0.076763466,0.283052981,0.082803369,17.12983894,-11.57395363,-23.23577309,-0.56956768,-0.19065237,0.43275404,0.8184582,7.6789947,5.946396,1,
26,990.7870483,-0.042672783,0.055485696,0.008102722,17.36718178,-11.77308178,-23.33767891,-0.835514069,0.074966908,0.721093178,0.9546281,7.385853,5.873008,1,
26,990.7846069,-0.199266016,-0.006565992,-0.136639729,17.51278687,-11.21473694,-24.31659508,-0.029149443,-0.149906158,0.77030611,0.18263528,7.588433,5.577102,1,
26,990.8705444,-0.210184425,-0.44904989,-0.188837424,17.22206688,-14.33228683,-23.01159477,0.183078557,0.711457729,-0.585375786,0.2686172,6.766203,6.6234007,1,
26,990.9765015,-0.660657167,-0.357437313,0.013163397,16.32826424,-15.64340496,-22.72016335,-0.489321351,0.782592297,-1.645070076,1.2675416,6.65419,8.413001,1,
26,990.9715576,-0.407123983,-0.129737347,0.236602649,16.62332726,-15.47217464,-23.23755836,-0.309806466,-0.080387115,-0.586121559,0.5791954,7.1427636,6.9926744,1,
26,990.9234619,0.019914076,0.324597478,0.167627051,16.77390289,-15.38361359,-23.65086174,-0.232934117,-0.104822636,-2.13E-04,0.8611492,7.2690783,6.5429006,1,
26,990.8751221,0.087958314,0.161478892,0.210770473,17.11048889,-15.22651958,-23.63493538,-0.163364112,-0.07760191,0.803383827,0.6436136,7.049818,6.377192,1,
26,990.8148804,-0.196200222,0.252558857,0.162034884,17.45218277,-15.43329048,-23.75247383,-0.340331554,0.084841251,-0.681261063,0.9518565,7.0426702,7.3003955,1,
26,990.8168945,-0.031749628,0.102622919,0.190530896,17.25247574,-15.51508522,-23.48596382,-0.623771369,-0.336843491,0.351778984,1.142994,7.450212,6.3014317,1,
27,990.7892456,0.17864044,0.048028082,0.130876377,17.40152931,-15.42799664,-23.82196236,-0.134322464,-0.189637661,0.351057529,0.6076015,7.250018,6.599694,1,
27,990.7640381,-0.161710724,0.283584386,0.057107091,17.57618141,-15.52770233,-24.07399559,-0.335915357,-0.150028229,-0.212268829,0.79156935,7.2047367,6.9358315,1,
27,990.7537231,-0.124958612,0.206086382,0.080543116,17.82792664,-15.55564785,-23.64924812,-0.161448717,-0.091206074,0.069793701,0.6266116,7.076041,6.9003186,1,
27,990.7461548,-0.002585935,-0.007632192,0.044590704,17.78170204,-15.65185165,-23.25157356,-0.213149905,-0.015099525,-0.127388,0.6624056,7.0069275,7.0092044,1,
27,990.7788696,-0.104451232,0.205953062,0.051648296,18.83596992,-16.82431412,-23.57637978,-0.150228381,-0.143079281,-0.554143429,0.57631457,7.085577,7.4708047,1,
27,990.7663574,0.001676166,0.26906985,0.049251676,18.64003944,-15.53296757,-23.31381035,0.021667838,0.215806961,-0.565703392,0.06721091,6.670888,7.1583285,1,
27,990.7663574,0.001676166,0.26906985,0.049251676,18.92583466,-15.47649765,-22.66829872,0.094589829,-0.403998852,0.912881374,0.442371,7.717149,5.479977,1,
27,990.7866211,0.393693686,0.108614437,0.103580333,18.80737877,-15.00790405,-22.75444984,-1.165700197,-0.538079739,-1.020504951,1.4628044,7.8363137,6.9594736,1,
27,990.7208862,0.373321027,0.012208007,0.334476411,17.51992989,-13.15768719,-23.35717964,-0.155010045,-0.445326805,0.728355408,0.9035131,7.543172,6.254042,1,
27,990.5841064,0.287967324,-0.454776973,0.08307448,17.08875275,-10.82176399,-24.04329491,0.103542805,0.248794556,-0.40234375,0.6405692,7.0331516,7.2151217,1,
27,990.5386963,0.035100915,-0.229074359,-0.090829574,17.26590729,-10.55023479,-24.54838753,-0.167886138,-0.026177406,0.233527184,0.44932252,7.4716763,4.994681,1,
27,990.6069336,0.123251997,-0.171550214,-0.131841987,16.45419884,-11.047122,-24.08629417,0.422680438,0.637409687,1.893137932,0.6763087,6.403969,5.669328,1,
27,990.7661133,0.46120736,-0.220685586,-0.121721767,16.43845749,-14.64472771,-22.7185955,-0.95085144,0.264062881,-0.853197575,1.5270592,7.214285,7.321631,1,
27,990.8165894,-0.529886663,0.150026038,0.153649077,17.24290848,-16.26198006,-22.74792671,0.064399242,-0.342052937,0.170989513,0.2559725,7.199977,6.7795725,1,
27,990.8546753,-0.113767967,0.071462832,0.107576475,18.01004982,-15.75390625,-23.58872414,-0.069278717,-0.006795406,-0.338703156,1.0497848,7.23095,7.0092244,1,
27,990.7835693,0.046147618,-0.143854171,0.302386522,18.46411133,-16.43516731,-23.31089592,-0.7961483,0.024050236,-0.146970272,1.6711365,7.1094036,7.02816,1,
27,990.7733154,-0.139474332,0.291039646,0.221027136,18.53264618,-15.52827072,-23.14357185,-0.709023476,-0.495611191,-0.125348091,1.0999271,7.3596487,6.919267,1,
27,990.776001,-0.098061986,0.378923833,0.036337178,18.49196625,-15.2502985,-23.15356636,-0.057555974,-0.137214661,0.021933079,0.40922254,7.2285686,6.597325,1,
27,990.7987061,0.17557779,0.002353139,0.040598322,19.04206276,-16.10449409,-23.72723961,-0.293466449,-0.004867554,0.173077106,1.3818898,7.257169,6.80327,1,
27,990.8237305,-0.021096261,0.09835998,0.270162702,18.56030846,-16.08188629,-23.03845406,-0.942580819,-0.463962555,-0.582065582,1.3746973,7.331051,7.245934,1,
27,990.7937012,0.033232402,0.17612417,0.111172229,18.64308357,-15.53002167,-23.46842384,-0.094333053,0.125925064,-0.257086754,0.8034879,6.992626,6.995009,1,
27,990.7456055,0.235899016,-0.006302235,0.039133873,18.63297272,-15.90862656,-22.82883644,0.101056635,0.033107281,0.031496525,0.21793905,7.0569754,6.360596,1,
27,990.7781982,0.260666609,-0.0017749,0.069227666,18.8046875,-17.11761856,-22.55360222,0.495564044,0.275695324,0.259429455,0.4258377,7.023609,6.6044164,1,
27,990.8134155,-0.054784339,0.159878805,0.271627814,18.7514267,-16.37721825,-22.74268532,0.133378446,-0.401518822,-0.015791893,0.11751756,7.493116,6.2777405,1,
28,990.793396,-0.186077863,0.366140455,0.259510547,19.6057415,-16.63104248,-22.47455788,1.201099038,-0.20467186,1.545874119,0.15812302,7.030761,5.4799905,1,
28,990.8285522,-0.487680376,0.054950271,0.298392743,19.16342163,-16.676054,-23.09662437,0.948993325,-0.005193233,1.083226681,0.53092486,6.8949146,6.048117,1,
28,990.8083496,-0.768909633,-0.284469336,0.050985392,19.0538559,-15.19819546,-23.32018471,1.763632536,-0.216681004,0.763661385,-0.48241636,7.323905,7.018668,1,
28,990.8208008,-0.986489534,-0.158901438,-0.065394551,19.27948952,-13.45879936,-24.14959145,-0.656124353,0.549534321,0.045230389,1.3601753,4.907261,7.293262,1,
28,990.8764648,-0.563446522,1.499713778,-0.46353668,21.30745125,-12.24500847,-23.91724205,-1.531041503,1.474435329,-0.023846626,1.6134821,5.3767676,8.244876,1,
28,990.9295654,-0.431753159,0.738849223,-0.548491359,23.45927429,-11.23154163,-23.30733681,-0.540206254,-0.019080162,-1.441862583,0.23448575,5.7986083,9.819062,1,
28,990.921936,0.047216184,-0.481410086,-0.329979122,23.48142433,-10.94707489,-23.86628532,0.521240592,1.320297718,0.783873558,-1.2831248,5.388685,6.547587,1,
28,990.8562012,-0.80392909,0.983593524,0.044061642,24.38682938,-10.46814728,-23.80287361,-0.574283183,-0.690011978,-0.824082375,0.74348915,5.8462753,9.946888,1,
28,990.8005981,-1.784504056,0.507686973,0.586680353,25.04760742,-7.953047752,-23.89790154,-0.704249382,0.75121212,-3.046914101,-0.41802597,4.4210753,11.189668,1,
28,990.8686523,-0.54733336,0.481854349,0.382149845,25.61784363,-6.523394585,-24.3003788,1.645018816,0.220397949,-1.112669945,-1.4313673,5.355321,9.108893,1,
28,990.7321777,0.793434143,0.455222756,0.717574775,26.53539276,-7.244940281,-23.78367805,-0.361509174,-0.152659416,0.364012718,-0.040467158,5.9654408,7.326388,1,
28,990.7019043,1.14909935,0.195964187,0.570435345,26.90151596,-9.746752739,-23.69370079,-0.230150446,-0.281897068,0.179240227,-0.12652645,5.9845076,7.7643185,1,
28,990.7194824,0.579716146,0.45961684,0.366037995,27.21964645,-11.34580994,-22.80232811,-0.542775869,0.279236794,-1.300479889,0.007285237,6.246669,8.628345,1,
28,990.7573853,0.25108251,1.318219066,0.686948717,28.6016655,-11.73787785,-22.22250938,-0.241051137,-1.244464874,3.997238636,-0.52807564,6.7209415,4.3531756,1,
28,990.8936157,0.747096062,0.58571738,0.276023448,29.3647213,-14.02703381,-20.58947563,-0.426205754,-0.110015869,-0.038752556,-0.03036207,6.5278807,7.229383,1,
28,990.8936157,0.747096062,0.58571738,0.276023448,29.3647213,-14.02703381,-20.58947563,0.408649027,0.210509777,0.827112198,-1.0986457,6.191839,6.4292684,1,
28,990.7596436,0.14175649,-0.485537648,0.037136566,29.89851379,-14.15938187,-20.58699989,-0.393780291,-0.194764614,-0.25028944,0.11542702,6.356285,8.67101,1,
28,990.6560059,-0.294604331,-0.153707728,-0.079377592,29.23064423,-13.09896469,-20.70010567,-0.191397995,-0.064215183,-1.60818243,-0.4127388,6.0822077,8.526611,1,
28,990.7394409,-0.553729653,-0.261965126,0.077216133,28.67595863,-12.66948605,-21.71753883,0.688053131,0.158232689,0.766911983,-1.0747391,6.2109046,6.531059,1,
28,990.8178101,0.281303704,-0.14971298,-0.142228156,28.464077,-12.76306438,-20.8325901,0.252636135,0.147378922,0.669764996,-0.44141254,6.146556,7.3619466,1,
28,990.7493286,0.368255824,-0.120018758,-0.041960247,28.40953827,-13.02456474,-21.27078438,-0.108277828,-0.022579193,-0.688060284,-0.19047031,6.2800198,7.880364,1,
28,990.7720947,-0.293006539,-0.115091912,0.119427167,28.08498955,-13.27579212,-21.20607567,-0.187473595,-0.120419979,0.382038116,-0.3243023,6.0988903,7.4661045,1,
28,990.7948608,-0.091804914,-0.190326124,-0.124518193,27.66084671,-11.77647781,-21.30542946,0.508238077,0.577435493,-0.603729725,-0.8811469,5.4983044,8.159696,1,
28,990.7922974,0.105934598,-0.25850302,-0.131841883,27.56921768,-12.12534523,-21.80978966,-1.00E-04,-0.035333633,-0.120429039,-0.5035398,5.991643,7.7880445,1,
28,990.812561,-0.063042857,0.106882386,0.128215566,27.9932518,-12.51831436,-22.08308601,-0.179439932,-0.267700195,0.178539753,-0.20001973,6.260953,7.5276527,1,
29,990.7697144,-0.092870265,0.076122902,0.055111829,27.98716354,-12.52420139,-21.77386665,0.136962593,0.146983147,-0.383527756,-0.32190222,5.9892597,8.166799,1,
29,990.7442627,-0.015239213,-0.043319765,0.015830228,27.77098846,-12.41036797,-22.0551548,-0.151428327,0.003604412,-0.378358841,-0.12592772,6.132256,7.743068,1,
29,990.746582,0.123644494,0.06080975,0.022221798,28.02479935,-12.80512905,-21.60926247,-0.112281293,-0.095344067,0.621936321,-0.26692942,6.172772,7.274362,0,
29,990.746582,-0.057583481,0.107548192,-0.053012449,28.12999153,-12.54892731,-21.10157204,-0.046365499,-0.075003624,-0.318139553,-0.29082587,6.1274896,8.010563,0,
29,990.7667847,-0.061711412,-0.001774476,-0.088565625,28.25124359,-12.01414585,-20.84361076,-0.036371291,0.114233494,-0.135188103,-0.38641942,5.9415936,7.650748,0,
29,990.774292,0.136294425,-0.095783979,-0.131043032,28.05884933,-12.72071362,-21.38849068,0.055872917,-0.060593605,0.199172974,-0.48918265,6.08459,7.4092937,0,
29,990.7439575,0.031232791,-0.076875545,-0.045555633,28.19945145,-12.90483475,-21.86129189,-0.029745013,-0.029405117,-0.458910465,-0.30037788,6.153705,7.9845243,0,
29,990.7895508,-0.10232465,-0.057833955,-0.051148281,28.270298,-13.36518669,-21.99924278,0.033680677,0.025242329,-0.355007172,-0.40075123,6.017858,7.9845243,0,
29,990.7919922,-0.043602023,-0.041455522,-0.09455777,28.08556366,-12.43182373,-22.17935371,0.079136401,0.164620399,-0.253105164,-0.36012036,6.0059423,7.835391,0,
29,990.7717896,0.084895372,-0.133600801,-0.082706727,27.66261673,-12.77543259,-21.70915794,-0.082105473,0.022239685,-0.012266636,-0.21672373,6.134639,7.6318116,0,
29,990.7617798,0.044149015,-0.122548714,-0.081508316,27.54666328,-11.935606,-22.04836464,-0.090402707,0.107819557,-0.087397575,-0.29080808,5.9439764,7.8235555,0,
29,990.7713623,-0.018035769,-0.105371319,-0.123719394,27.61804962,-12.76424694,-22.08786201,-0.046825051,0.146857262,-0.444496632,-0.2167186,6.022625,7.953752,0,
29,990.7713623,0.059595287,-0.043452878,-0.107474133,27.37779999,-12.46214104,-22.53042793,-0.019477427,0.112388134,0.342482567,-0.34338087,6.0893564,7.23649,0,
29,990.7461548,0.152672663,-0.119086586,-0.137701005,27.52185249,-13.11753273,-22.36030769,-0.004414499,0.147351265,-5.33E-04,-0.3203426,6.0202627,7.7264214,0,
29,990.758728,-0.072896905,-0.065823406,-0.10760732,27.11015511,-12.18655491,-21.5814991,-0.026022613,0.161770821,-0.043006897,-0.2854071,5.994069,7.6600566,0,
29,990.7462158,-0.053041928,-0.104979202,-0.106127761,26.77316284,-11.8694458,-22.39495277,-0.133742407,-4.85E-04,-0.404506683,-0.17792873,6.053653,8.23528,0,
29,990.7486572,0.013804005,-0.186338812,-0.14261277,27.24687195,-12.63747215,-22.42300606,-0.003765404,0.281281471,-0.452231407,-0.26642233,5.9893055,7.7428956,0,
29,990.7991943,0.221397892,-0.150253117,-0.136753544,26.7682991,-12.50599957,-22.58790779,-0.173951939,0.020795822,0.424741745,-0.08963683,6.222868,7.338098,0,
29,990.7511597,0.01260688,-0.12828216,-0.12836431,26.3020649,-11.83652687,-22.24729347,-0.173485398,0.052052021,-0.313441753,-0.14945161,6.0822563,7.787861,0,
29,990.7358398,-0.090856187,-0.079546459,-0.140348241,26.28462029,-12.01065636,-22.61934471,-0.117231876,0.005356789,0.401150703,0.008214712,6.2395544,7.231562,0,
29,990.7634888,0.027921339,-0.227085575,-0.122904278,26.17746925,-13.00638771,-22.77551842,-0.507407606,-0.101209641,-0.107767582,0.2232387,6.1895075,7.9724903,0,
29,990.7459106,-0.033330664,-0.278085172,-0.179629281,25.49604034,-11.85331535,-22.89195442,-0.169685885,0.096308231,-0.188131332,0.01286009,6.2538576,7.5345516,0,
29,990.7532349,0.115407407,-0.13906838,-0.192545339,25.58639526,-12.50634956,-22.63670921,-0.41131714,-0.270206451,0.381741047,0.055811107,6.373023,7.2883563,0,
29,990.7662964,0.060813308,-0.19859007,-0.228497684,25.42033195,-12.02952003,-22.94696236,0.047597259,-0.010825634,-0.044552803,-0.1617372,6.280077,7.7286496,0,
30,990.7662964,0.060813308,-0.19859007,-0.228497684,24.89955711,-11.62154007,-23.04454994,-0.190066501,-0.22782135,-0.040272236,-0.04469925,6.411159,7.5369,0,
30,990.7661133,-0.073009789,-0.175687045,-0.205594242,24.74567032,-11.13292694,-23.97323799,-0.117005587,-0.159750462,0.050041199,-0.0662756,6.356345,7.7523093,0,
30,990.7836304,-0.032129649,-0.142930284,-0.175367117,24.83686638,-11.52211189,-23.19467735,-0.197815001,-0.286749363,-0.228676796,-0.03766401,6.387329,7.830421,0,
30,990.7709961,-0.094446927,-0.155713543,-0.183223158,24.45006371,-10.93586349,-23.55430031,0.06413728,-0.065979481,-0.05987978,-0.3699276,6.13947,7.6931176,0,
30,990.7556763,-0.080997318,-0.079680458,-0.184154972,24.62221336,-11.40680027,-23.55327034,0.169564873,0.052914619,0.200340271,-0.29590783,6.222887,7.4232497,0,
30,990.7860718,0.060683373,-0.134541646,-0.202530518,24.3106823,-11.38239861,-23.58367729,-0.086028367,-0.184074879,0.179807186,-0.15736075,6.306303,7.508463,0,
30,990.776123,-0.021207461,-0.016164437,-0.12330097,24.5477829,-10.58110428,-23.35916328,-0.181494027,-0.099145412,-0.156605244,-0.181327,6.165691,7.676528,0,
30,990.7705688,0.061750583,-0.045326132,-0.170571774,24.37076569,-10.74672127,-23.55314827,0.157751888,0.315868855,0.290630341,-0.4251642,5.932132,7.321442,0,
30,990.7706909,0.128330186,-0.106712043,-0.138879895,24.37337494,-11.48182678,-23.43354988,-0.029120803,-0.012706757,0.244204044,-0.16712204,6.313458,7.3332715,0,
30,990.7528687,-0.033056572,-0.059973717,-0.021567471,24.28051758,-11.20002842,-23.43573189,-0.186618879,-0.02755928,0.122599602,-0.10744172,6.220512,7.5439467,0,
30,990.7807007,-0.097637534,-0.073555931,-0.041540883,24.04317856,-11.00089931,-23.33382607,-0.143069237,-0.07181263,-0.339383602,-0.114678666,6.2300463,8.000812,0,
30,990.7680664,-0.031324223,-0.065167092,-0.050861664,24.34321022,-11.29945183,-23.28560829,-0.101452827,-0.26204586,0.466078281,-0.19361264,6.3778114,7.340355,0,
30,990.7779541,0.095309615,-0.012303488,-0.053125069,24.06586838,-11.0847168,-23.79432106,-0.076921672,-0.267101765,0.455851555,-0.20562935,6.468377,7.2527623,0,
30,990.7427979,-0.060484521,-0.017097278,-0.054056898,24.35622978,-11.02382755,-23.38072395,-0.013587892,-0.267864227,0.02326107,-0.26544413,6.3682814,7.593633,0,
30,990.760376,-0.115078621,-0.056112658,-0.056453466,24.06227875,-10.7193737,-23.7381649,0.011790603,-0.096930027,-0.019054413,-0.20890161,6.2061796,7.908615,0,
30,990.800354,-0.099770717,-0.071025491,-0.009317805,23.56946945,-10.2328701,-23.30576515,-0.099804461,-0.020226479,-0.288008213,-0.21368265,6.1322985,7.712137,0,
30,990.7626343,-0.003240842,0.024583468,0.052862827,23.29266739,-10.38642502,-23.71603584,-0.080036044,-0.282543182,0.265918732,-0.06789991,6.4683404,7.402034,0,
30,990.7549438,0.066267617,-0.048919715,0.09760391,23.40601349,-10.49114227,-23.49642372,0.014923781,-0.236312389,0.292433739,-0.23758423,6.3682427,7.297877,0,
30,990.7473755,0.079050787,-0.06343393,0.081891268,23.33128357,-10.29758072,-23.72718239,0.018807098,-0.278752327,0.247449398,-0.15871873,6.377776,7.579573,0,
30,990.7648926,-0.04931346,-0.029611817,0.111585498,22.89393616,-10.81238365,-23.78363991,0.089462928,-0.114439964,-0.325782776,-0.18261904,6.203797,7.984365,0,
30,990.7423096,-0.114827149,0.089298218,0.125567079,23.31272125,-10.94740009,-23.22439384,0.114800572,0.101555824,-0.05975771,-0.22802845,6.0488834,7.6908317,0,
30,990.7623901,-0.018953418,0.048551891,0.153663412,23.63588333,-10.59172344,-23.91087914,-0.002092235,-0.014291763,-0.258908749,-0.051176965,6.0989323,8.024608,0,
30,990.772522,-0.056237631,0.05787294,0.198537633,23.61441422,-11.13856602,-23.9525547,-0.12798366,-0.050027847,-0.433972359,0.10655528,6.1537485,8.06485,0,
30,990.7623901,0.018996619,0.119258754,0.199070275,23.46786499,-10.85441971,-23.86961555,-0.048552882,0.097800732,-0.019244671,-0.044009775,5.9964514,7.6150813,0,
30,990.762207,0.147760361,0.100882955,0.152997628,23.56406212,-10.50113297,-23.59717751,-0.081034988,0.118481636,0.056844234,0.065924436,6.0822496,7.546432,0,
31,990.7495728,0.077586137,0.1865035,0.19121398,24.007061,-10.71849823,-23.57573891,-0.190357447,0.016144753,0.241948128,0.2356062,6.1847305,7.3972983,0,
31,990.7522583,0.058011927,0.181842968,0.177232385,24.33658028,-10.93705463,-23.07483482,-0.502943575,-0.066688061,0.135811329,0.42201728,6.2943616,7.4612126,0,
31,990.7394409,0.015001941,0.200751394,0.045539204,24.37987137,-11.95014668,-22.94524193,-0.167821795,0.141321182,0.172991276,0.17585611,6.115616,7.510924,0,
31,990.7394409,0.015001941,0.200751394,0.045539204,24.37987137,-11.95014668,-22.94524193,-0.105785772,0.133406639,0.194267273,0.037240535,6.106083,7.6056123,0,
31,990.7418213,-0.017488586,0.130310833,0.066178687,24.69832802,-11.70480633,-22.70073128,-0.219483554,0.053572655,-0.332391262,0.032459468,6.160898,7.868371,0,
31,990.7469482,0.010740911,0.131509259,0.085353442,24.90659332,-12.45814323,-22.45779228,-0.129448339,0.008657932,0.080429077,-0.044018686,6.263379,7.4257035,0,
31,990.7416992,-0.01682277,0.202349275,0.124102406,25.42543983,-12.39338589,-23.08042717,-0.201384798,-0.085488319,0.02737236,0.07308528,6.337261,7.579572,0,
31,990.7214355,0.021260412,0.070389777,0.129695028,25.30837059,-12.02924252,-22.54480171,-0.370370179,-0.118789196,-0.198112011,0.18540937,6.3277273,7.7973547,0,
31,990.7214355,0.021260412,0.070389777,0.129695028,25.52910995,-12.13865662,-22.4954319,-0.265485346,-0.088121414,0.066218376,0.07069281,6.3086615,7.4635787,0,
31,990.7416992,0.015667792,0.115796626,0.100932933,26.17181778,-12.27422905,-22.74050331,-0.283056557,-0.053438663,0.10263443,0.051572323,6.3348775,7.4186015,0,
31,990.7515259,0.088238887,0.088232927,0.047003977,26.19285011,-12.46543694,-22.42461967,-0.287868857,-0.10918951,0.172951698,0.001383126,6.353944,7.371258,0,
31,990.7515259,0.088238887,0.088232927,0.047003977,26.19285011,-12.46543694,-22.42461967,-0.474081188,-0.214683056,0.003642082,0.1782346,6.4111423,7.6458535,0,
31,990.7288208,0.001819403,0.140297666,0.063648723,26.5606842,-13.22729683,-22.35974312,-0.167840213,0.101318359,-0.082437038,-0.07270637,6.272912,7.4422736,0,
