Timestamp,P,Gx,Gy,Gz,Mx,My,Mz,LiAx,LiAy,LiAz,Ax,Ay,Az,Value,Type
0,990.5623779296875,-2.3109550238586962E-4,0.0051206606440246105,-3.382983850315213E-4,0.12515020370483398,22.174837112426758,-16.277467727661133,-0.3428724706172943,0.14056484401226044,0.05718708038330078,0.049799323,-0.16322383,9.741462,0
0,990.5623779296875,-2.3109550238586962E-4,0.0051206606440246105,-3.382983850315213E-4,0.960360050201416,21.639490127563477,-15.605005264282227,-0.3514896035194397,0.12127900123596191,0.05247974395751953,0.06892869,-0.153691,9.755666,0
0,990.53662109375,4.656324745155871E-4,1.5665781393181533E-4,-6.3158804550766945E-6,1.0921292304992676,22.078662872314453,-15.189096450805664,-0.36300432682037354,0.1344275325536728,0.03835582733154297,0.07132876,-0.15369123,9.758035,0
0,990.5264282226562,-6.709720037179068E-5,-2.428001316729933E-4,0.0010589056182652712,0.9957935810089111,21.619464874267578,-14.762460708618164,-0.35747718811035156,0.12899506092071533,0.047844886779785156,0.068949014,-0.14892492,9.753301,0
0,990.5067138671875,-4.666689201258123E-4,9.556373115628958E-4,-6.399874109774828E-6,1.3301537036895752,21.61716079711914,-15.891630172729492,-0.3361557722091675,0.13346391916275024,0.03370380401611328,0.05461973,-0.15369171,9.765138,0
0,990.5167846679688,0.0012642863439396024,-6.422422593459487E-4,-1.3959966599941254E-4,1.069575548171997,22.268402099609375,-15.427682876586914,-0.3485559821128845,0.15681979060173035,0.04796028137207031,0.061799586,-0.1608418,9.760405,0
0,990.5194091796875,5.98398910369724E-4,-2.4275245959870517E-4,3.929900994990021E-4,0.6968765258789062,22.39370346069336,-15.685518264770508,-0.33243319392204285,0.12742306292057037,0.05274391174316406,0.064199656,-0.1513089,9.7556715,0
0,990.519287109375,-3.338046954013407E-4,4.2305319220758975E-4,-2.728415420278907E-4,0.4293684959411621,22.775205612182617,-15.435663223266602,-0.35284197330474854,0.12158024311065674,0.052840232849121094,0.07137954,-0.15130916,9.7533045,0
0,990.53466796875,-2.0074454369023442E-4,-9.085104102268815E-4,-6.5676867961883545E-6,1.161452293395996,21.616836547851562,-15.24974250793457,-0.3327246606349945,0.1259516179561615,0.03866291046142578,0.052270472,-0.14892611,9.750938,0
0,990.5648193359375,4.649471375159919E-4,-9.084944613277912E-4,3.928642545361072E-4,1.1677007675170898,22.148950576782227,-14.435014724731445,-0.3307751715183258,0.13957302272319794,0.05291748046875,0.061840236,-0.15607616,9.75804,0
0,990.5447998046875,3.316915244795382E-4,-3.758468956220895E-4,-2.729673869907856E-4,1.1458265781402588,22.076316833496094,-15.274221420288086,-0.32878342270851135,0.12014666199684143,0.05297088623046875,0.06185037,-0.14654335,9.760409,0
0,990.5322265625,7.310673245228827E-4,-3.758309467229992E-4,-6.693531759083271E-6,0.597496509552002,21.931556701660156,-15.104272842407227,-0.32203689217567444,0.12412233650684357,0.04355430603027344,0.0618605,-0.1513102,9.767512,0
0,990.5372314453125,-3.3429410541430116E-4,1.5681664808653295E-4,2.5958046899177134E-4,0.7130439281463623,21.565937042236328,-15.562585830688477,-0.3157767653465271,0.13294000923633575,0.048325538635253906,0.05709088,-0.1536937,9.762778,0
0,990.539794921875,-6.807602039771155E-5,2.899905666708946E-4,3.926964709535241E-4,0.5617871284484863,21.739749908447266,-14.548654556274414,-0.3328016996383667,0.1321386992931366,0.04837989807128906,0.064270765,-0.15369394,9.75331,0
0,990.5223999023438,-6.8173925683368E-5,-5.089411861263216E-4,3.926545032300055E-4,0.6376338005065918,22.021869659423828,-15.192728042602539,-0.3265988528728485,0.1265183538198471,0.029478073120117188,0.04994148,-0.14416108,9.769881,0
0,990.5303344726562,-3.345877048559487E-4,9.55812050960958E-4,-5.394931649789214E-4,0.4365425109863281,22.04452133178711,-15.547983169555664,-0.32016700506210327,0.1257687211036682,0.04845619201660156,0.06668097,-0.1489279,9.760414,0
0,990.5020141601562,-3.346854937262833E-4,1.5688026905991137E-4,-1.400611363351345E-4,1.2417259216308594,21.797462463378906,-15.42664909362793,-0.31375652551651,0.13424474000930786,0.06743431091308594,0.06430125,-0.1608445,9.758048,0
0,990.5223388671875,-8.674152777530253E-4,2.9005410033278167E-4,5.256865406408906E-4,0.94970703125,21.62917709350586,-15.063871383666992,-0.3069456219673157,0.1381218284368515,0.02960968017578125,0.064311385,-0.16322803,9.758048,0
0,990.5375366210938,-2.017233637161553E-4,-5.08877681568265E-4,6.588025717064738E-4,0.7570667266845703,21.92304229736328,-15.282327651977539,-0.3338261544704437,0.12777060270309448,0.024919509887695312,0.07149124,-0.14892858,9.765151,0
0,990.5123291015625,-2.0182126900181174E-4,4.2324382229708135E-4,-4.065029788762331E-4,0.5348052978515625,22.03098487854004,-15.254396438598633,-0.32736435532569885,0.12236860394477844,0.029694557189941406,0.0669114,-0.15370008,9.769904,0
0,990.571044921875,-6.876124098198488E-5,1.5694383182562888E-4,-1.4022894902154803E-4,1.202430248260498,21.970996856689453,-14.814874649047852,-0.32127079367637634,0.12154139578342438,0.048638343811035156,0.069512755,-0.1656217,9.750985,0
0,990.5427856445312,-2.052351483143866E-4,1.5748216537758708E-4,-1.4165008906275034E-4,0.8499221801757812,21.6412410736084,-15.280153274536133,-0.3148903250694275,0.10194635391235352,0.048674583435058594,0.062368393,-0.1513226,9.767558,0
0,990.5179443359375,2.8875962016172707E-4,-4.30126856372226E-5,3.318094532005489E-4,1.0893301963806152,21.07529067993164,-15.360910415649414,-0.2985929548740387,0.12964165210723877,0.0487213134765625,0.05761397,-0.16085637,9.758092,0
0,990.5733032226562,-2.4411649792455137E-4,-8.419206133112311E-4,7.311785593628883E-4,0.9708766937255859,21.54388427734375,-15.447061538696289,-0.30145108699798584,0.13821867108345032,0.04402923583984375,0.055249423,-0.16324025,9.762828,0
0,990.5455932617188,-3.7751891068182886E-4,-3.0924921156838536E-4,-6.787385791540146E-5,1.2468347549438477,21.433589935302734,-15.560113906860352,-0.3046504259109497,0.11367517709732056,0.020392417907714844,0.062444538,-0.15847436,9.774667,0
1,990.5432739257812,-3.7776349927298725E-4,3.5658018896356225E-4,-6.79786317050457E-5,0.6355690956115723,22.388687133789062,-15.213869094848633,-0.3123199939727783,0.11778712272644043,0.06304550170898438,0.06963962,-0.14894179,9.760467,0
1,990.53564453125,2.1465730242198333E-5,-7.086436380632222E-4,4.645482113119215E-4,1.0240304470062256,21.90982437133789,-15.630632400512695,-0.2914147675037384,0.11224254965782166,0.034679412841796875,0.060105383,-0.14894244,9.7628355,0
1,990.5279541015625,-3.782525600399822E-4,-4.281421206542291E-5,4.644434666261077E-4,1.1721060276031494,21.627147674560547,-15.79088020324707,-0.30404266715049744,0.13036192953586578,0.058388710021972656,0.057740867,-0.15609291,9.746267,0
1,990.5380859375,-3.7849691580049694E-4,2.2354134125635028E-4,3.311808395665139E-4,0.6517362594604492,21.56092071533203,-15.090944290161133,-0.3022857904434204,0.11553473770618439,0.044223785400390625,0.05776623,-0.16086009,9.762839,0
1,990.5560913085938,4.202056734357029E-4,-5.753664881922305E-4,-6.839801790192723E-5,0.6416568756103516,22.39457893371582,-15.523088455200195,-0.314839243888855,0.11532141268253326,0.044264793395996094,0.06974107,-0.15132758,9.753373,0
1,990.5587768554688,0.0012189088156446815,-5.753268487751484E-4,7.30444910004735E-4,0.927152156829834,21.81891632080078,-15.302446365356445,-0.3083219528198242,0.10997836291790009,0.06323909759521484,0.06976646,-0.14894494,9.767579,0
1,990.56103515625,-2.46072857407853E-4,-3.0897126998752356E-4,-4.6808121260255575E-4,1.0396556854248047,21.450347900390625,-15.606157302856445,-0.2825920283794403,0.11395446956157684,0.04907512664794922,0.06023228,-0.15132883,9.762847,0
1,990.5256958007812,-1.1315950541757047E-4,-1.7577368998900056E-4,1.976036000996828E-4,0.9368276596069336,21.459463119506836,-15.667825698852539,-0.29044729471206665,0.12266672402620316,0.039641380310058594,0.06264752,-0.1608626,9.760482,0
1,990.5308227539062,-3.7972009158693254E-4,-3.0889184563420713E-4,-6.881722947582603E-5,0.9045982360839844,22.00865364074707,-15.541025161743164,-0.28860795497894287,0.12674298882484436,0.030211448669433594,0.05550316,-0.1584799,9.762852,0
1,990.5226440429688,2.858251391444355E-4,-3.088522353209555E-4,4.6370981726795435E-4,0.8859291076660156,22.465185165405273,-15.410890579223633,-0.30133000016212463,0.12143716961145401,0.044447898864746094,0.060308367,-0.16086385,9.77469,0
1,990.54833984375,1.9265014998381957E-5,-1.7565452435519546E-4,4.6360507258214056E-4,0.6943750381469727,22.02246856689453,-15.432455062866211,-0.2756906747817993,0.12070947885513306,0.05868721008300781,0.05794382,-0.15609786,9.7581215,0
1,990.5308227539062,-3.804537409450859E-4,-5.750886630266905E-4,-6.913160905241966E-5,1.1931381225585938,21.435935974121094,-15.474992752075195,-0.28815221786499023,0.11526137590408325,0.058724403381347656,0.0723086,-0.1608651,9.758124,0
1,990.53564453125,1.5193354920484126E-4,-9.745227289386094E-4,4.633953794836998E-4,1.2353401184082031,21.159433364868164,-15.542303085327148,-0.28589534759521484,0.1187787801027298,0.054035186767578125,0.06516424,-0.15609911,9.758126,0
1,990.5537109375,-5.141005385667086E-4,6.234121974557638E-4,5.964485462754965E-4,1.1056361198425293,20.353439331054688,-15.93705940246582,-0.2898385524749756,0.113853320479393,0.030378341674804688,0.06279975,-0.15133321,9.769965,0
1,990.5159301757812,5.509186303243041E-4,-3.0865371809341013E-4,-6.020775763317943E-4,1.040635347366333,21.820110321044922,-15.781915664672852,-0.29769235849380493,0.1182672306895256,0.044617652893066406,0.072384715,-0.16563347,9.762866,0
1,990.5464477539062,2.8435795684345067E-4,9.085984493140131E-5,3.2992297201417387E-4,0.6370904445648193,22.390159606933594,-15.291177749633789,-0.2721899151802063,0.10786689072847366,0.0635843276977539,0.062850475,-0.15133446,9.755767,0
1,990.5382690429688,-6.479922449216247E-4,-1.7541632405482233E-4,3.298182273283601E-4,0.8680477142333984,21.55299949645996,-15.508733749389648,-0.2937507629394531,0.10201645642518997,0.054160118103027344,0.065265775,-0.14656848,9.753402,0
1,990.546142578125,-2.4876263341866434E-4,-3.085346252191812E-4,6.339760147966444E-5,0.7847294807434082,21.369430541992188,-15.177217483520508,-0.26800355315208435,0.09233327209949493,0.0731353759765625,0.06051129,-0.13703603,9.746303,0
1,990.55126953125,4.167823644820601E-4,-7.079687202349305E-4,-4.6933884732425213E-4,0.8810648918151855,21.828630447387695,-15.603853225708008,-0.2865062952041626,0.12027428299188614,0.044737815856933594,0.06292662,-0.16086942,9.765243,0
1,990.5514526367188,-1.1609421926550567E-4,6.236503832042217E-4,-4.694437375292182E-4,0.7389407157897949,22.011280059814453,-15.053750991821289,-0.28929466009140015,0.10044693946838379,0.04008769989013672,0.07184282,-0.15370381,9.7722845,0
1,990.5484008789062,-6.465894402936101E-4,4.901455831713974E-4,3.304194542579353E-4,0.7320113182067871,21.74154281616211,-15.267847061157227,-0.2726457118988037,0.10881258547306061,0.03066253662109375,0.064671814,-0.1608536,9.760448,0
1,990.5333862304688,-3.763729182537645E-4,9.003857849165797E-5,-3.3369852462783456E-4,0.7445926666259766,21.27911949157715,-15.088762283325195,-0.2611580789089203,0.11751319468021393,0.040167808532714844,0.047941267,-0.16800341,9.76755,0
1,990.5258178710938,-3.7636046181432903E-4,-0.001641016686335206,-6.737746298313141E-5,0.9805517196655273,21.184429168701172,-15.812440872192383,-0.25504055619239807,0.09295476973056793,0.06386470794677734,0.047940016,-0.13940406,9.755714,0
1,990.5409545898438,-2.4319064687006176E-4,-4.3123323848703876E-5,-6.000039866194129E-4,0.8380217552185059,21.841289520263672,-16.05986213684082,-0.2686406672000885,0.10706086456775665,0.049674034118652344,0.057498336,-0.15370366,9.760449,0
2,990.5486450195312,-5.094817606732249E-4,-7.089169812388718E-4,-3.336776280775666E-4,0.7058696746826172,22.2966251373291,-15.45026969909668,-0.2517143189907074,0.110627681016922,0.04025459289550781,0.055107176,-0.15608689,9.765182,0
2,990.5486450195312,-5.094817606732249E-4,-7.089169812388718E-4,-3.336776280775666E-4,0.7058696746826172,22.2966251373291,-15.45026969909668,-0.2606104612350464,0.10092002153396606,0.05920600891113281,0.06227559,-0.15370363,9.765182,0
2,990.5333862304688,-3.7631180020980537E-4,-4.312927558203228E-5,6.580146146006882E-5,0.7465496063232422,22.018646240234375,-15.440271377563477,-0.25424474477767944,0.09548785537481308,0.059234619140625,0.055104584,-0.1441705,9.748611,0
2,990.5258178710938,-6.426030304282904E-4,2.2318260744214058E-4,-3.3366191200912E-4,0.8985104560852051,22.002761840820312,-15.231805801391602,-0.2571130394935608,0.09452375769615173,0.04506492614746094,0.052713454,-0.15132031,9.772284,0
2,990.5537109375,4.2267251410521567E-4,2.2318065748549998E-4,4.652909410651773E-4,1.1810998916625977,21.530071258544922,-15.555631637573242,-0.24609257280826569,0.10347830504179001,0.054558753967285156,0.059881896,-0.1560868,9.755713,0
2,990.5537109375,4.2267251410521567E-4,2.2318065748549998E-4,4.652909410651773E-4,1.1810998916625977,21.530071258544922,-15.555631637573242,-0.2596113979816437,0.09373697638511658,0.04983997344970703,0.069440246,-0.15132025,9.753346,0
2,990.5560913085938,-5.09408419020474E-4,7.558085490018129E-4,9.97933209873736E-4,0.8454937934875488,21.74273681640625,-15.747316360473633,-0.2767188549041748,0.09281948208808899,0.030939102172851562,0.07660866,-0.14893696,9.7628145,0
2,990.5562744140625,2.8955124435015023E-4,6.226485129445791E-4,-6.73251342959702E-5,0.9462568759918213,22.100439071655273,-15.706789016723633,-0.2515145540237427,0.09718823432922363,0.049897193908691406,0.055098295,-0.15370339,9.750979,0
2,990.55126953125,2.3247350327437744E-5,2.2317274124361575E-4,-6.731983739882708E-5,0.607607364654541,22.31015968322754,-15.743860244750977,-0.23602060973644257,0.10121098160743713,0.06412029266357422,0.05748692,-0.14893684,9.750978,0
2,990.5511474609375,-7.756877457723022E-4,2.2317067487165332E-4,-8.662623586133122E-4,0.6657326221466064,22.206314086914062,-15.361814498901367,-0.25384876132011414,0.10032624006271362,0.04046916961669922,0.05748564,-0.15846995,9.769916,0
2,990.5511474609375,-7.756877457723022E-4,2.2317067487165332E-4,-8.662623586133122E-4,0.6657326221466064,22.206314086914062,-15.361814498901367,-0.24359476566314697,0.09563237428665161,0.040482521057128906,0.052704573,-0.1513201,9.77465,0
2,990.5232543945312,7.990233134478331E-4,2.334265154786408E-4,1.446792739443481E-4,0.7314677238464355,22.109832763671875,-15.366296768188477,-0.2372463494539261,0.10475173592567444,0.04997825622558594,0.062262893,-0.15370327,9.7628145,0
2,990.5308227539062,1.3324557221494615E-4,-1.660493144299835E-4,-9.205789538100362E-4,1.0911502838134766,21.708900451660156,-15.013345718383789,-0.2453116625547409,0.09923429787158966,0.04053497314453125,0.05270201,-0.15608656,9.7604475,0
2,990.53564453125,5.327441031113267E-4,-0.0010981588857248425,-2.5477877352386713E-4,0.7214946746826172,21.837148666381836,-15.425790786743164,-0.2426028996706009,0.10336559265851974,0.07372283935546875,0.0646503,-0.16085312,9.7486105,0
2,990.53564453125,5.327441031113267E-4,-0.0010981588857248425,-2.5477877352386713E-4,0.7214946746826172,21.837148666381836,-15.425790786743164,-0.2510741651058197,0.09823770821094513,0.05953788757324219,0.06703889,-0.15370321,9.755712,0
2,990.5382690429688,1.3675889931619167E-7,-3.2899348298087716E-5,2.778634079732001E-4,0.6889677047729492,21.754199981689453,-15.72386360168457,-0.24401512742042542,0.0971047580242157,0.03116607666015625,0.06942755,-0.15131989,9.77465,0
2,990.5382690429688,1.3675889931619167E-7,-3.2899348298087716E-5,2.778634079732001E-4,0.9519093036651611,21.36827850341797,-15.741800308227539,-0.22897017002105713,0.08249396085739136,0.06431865692138672,0.059866667,-0.1489366,9.7509775,0
2,990.5308227539062,-0.001065114396624267,-6.986908847466111E-4,5.441845860332251E-4,0.8061981201171875,21.916271209716797,-15.135538101196289,-0.250666081905365,0.0961829274892807,0.0548858642578125,0.06703511,-0.160853,9.758079,0
2,990.5406494140625,3.9963479503057897E-4,-2.992191875819117E-4,2.7787391445599496E-4,0.9547085762023926,22.37165069580078,-15.56999397277832,-0.2404187172651291,0.09577348828315735,0.059630393981933594,0.055084348,-0.16085294,9.758079,0
2,990.553466796875,2.664891944732517E-4,4.997265059500933E-4,-6.542264018207788E-4,0.9582953453063965,22.006305694580078,-15.62614631652832,-0.23402459919452667,0.09020164608955383,0.05016136169433594,0.0624097,-0.15609017,9.767562,0
2,990.5380859375,1.3334371033124626E-4,-4.323810280766338E-4,1.4472645125351846E-4,1.1981396675109863,22.17841339111328,-15.981115341186523,-0.23352298140525818,0.09493526816368103,0.05490398406982422,0.062574804,-0.15847749,9.769944,0
2,990.5608520507812,1.3107023551128805E-4,0.0010327253257855773,-1.2256373884156346E-4,1.0662329196929932,21.633316040039062,-15.697938919067383,-0.21763162314891815,0.1035754531621933,0.045456886291503906,0.055416524,-0.151328,9.762843,0
2,990.5379638671875,-6.687339628115296E-4,-0.001363978604786098,1.433850557077676E-4,1.134331464767456,21.802154541015625,-15.256410598754883,-0.22011114656925201,0.08375030755996704,0.059693336486816406,0.05303806,-0.15371153,9.758111,0
2,990.5484008789062,-2.6937018265016377E-4,-6.98170973919332E-4,1.0179996024817228E-5,1.3114848136901855,22.073688507080078,-15.761499404907227,-0.2383972853422165,0.09301779419183731,0.045502662658691406,0.07216865,-0.15609509,9.76758,0
2,990.5433349609375,5.294674774631858E-4,6.334262434393167E-4,-1.2302515096962452E-4,1.1840062141418457,21.42709732055664,-15.011163711547852,-0.20817866921424866,0.08256043493747711,0.0407867431640625,0.057840705,-0.15132883,9.769948,0
3,990.5182495117188,2.630414383020252E-4,-3.2345575164072216E-5,2.764014934655279E-4,1.4332807064056396,22.24018096923828,-15.405088424682617,-0.22199712693691254,0.08240753412246704,0.045528411865234375,0.062631875,-0.15609565,9.767583,0
3,990.555908203125,-6.691742455586791E-4,-3.232770541217178E-5,1.4319643378257751E-4,1.1574287414550781,21.24413299560547,-14.919378280639648,-0.21075022220611572,0.08679786324501038,0.055024147033691406,0.048303902,-0.15132937,9.762849,0
3,990.5635375976562,2.628215297590941E-4,-9.64415492489934E-4,2.7630722615867853E-4,1.4755895137786865,20.857330322265625,-15.099740982055664,-0.21436871588230133,0.0958118587732315,0.05030345916748047,0.053095102,-0.15371293,9.758116,0
3,990.528076171875,-1.3676253729499876E-4,7.666556630283594E-4,9.944167686626315E-6,1.7328791618347168,21.203567504882812,-15.082666397094727,-0.204406276345253,0.08590485900640488,0.03136920928955078,0.045936823,-0.16086301,9.767585,0
3,990.5506591796875,6.620752392336726E-4,0.0012993052368983626,-2.564189489930868E-4,1.8107905387878418,21.11886978149414,-15.705587387084961,-0.21221283078193665,0.08985057473182678,0.036126136779785156,0.060287654,-0.15371355,9.772321,0
3,990.5355834960938,1.2933331890963018E-4,2.3405962565448135E-4,8.087975438684225E-4,1.3655877113342285,21.59713363647461,-15.049097061157227,-0.2209046185016632,0.09879069030284882,0.03613567352294922,0.05790913,-0.17039672,9.772323,0
3,990.573486328125,-5.365663673728704E-4,7.667092140763998E-4,-6.559869507327676E-4,1.8226914405822754,20.918819427490234,-14.925874710083008,-0.19157758355140686,0.06991246342658997,0.04561328887939453,0.038801372,-0.13703105,9.769956,0
3,990.5406494140625,-2.7036064420826733E-4,-1.6537847113795578E-4,2.760714269243181E-4,2.5772223472595215,20.67705535888672,-14.874029159545898,-0.2000412791967392,0.09808427095413208,0.031424522399902344,0.04598251,-0.1608642,9.760488,0
3,990.5455932617188,-1.3742261216975749E-4,-2.9850067221559584E-4,2.7597713051363826E-4,2.647928237915039,20.110788345336914,-14.312898635864258,-0.20768597722053528,0.09259102493524551,0.05512046813964844,0.057943404,-0.15609786,9.7675905,0
3,990.5352172851562,6.614149315282702E-4,-1.6532486188225448E-4,6.754038040526211E-4,2.3542799949645996,21.047374725341797,-14.24547004699707,-0.2112150341272354,0.08273246139287949,0.05513763427734375,0.05556494,-0.14418176,9.753388,0
3,990.5352172851562,6.614149315282702E-4,-1.6532486188225448E-4,6.754038040526211E-4,2.3542799949645996,21.047374725341797,-14.24547004699707,-0.19626785814762115,0.06837256252765656,0.055146217346191406,0.046016723,-0.14179876,9.769959,0
3,990.5253295898438,-4.484696546569467E-6,2.341668150620535E-4,9.566923836246133E-6,2.491976022720337,20.966222763061523,-15.262735366821289,-0.19957992434501648,0.09155865758657455,0.05042839050292969,0.04363823,-0.16563183,9.762859,0
3,990.540283203125,-1.3775276602245867E-4,-0.0014968685572966933,-7.894278969615698E-4,2.6588807106018066,20.75323486328125,-14.429162979125977,-0.19830961525440216,0.08647004514932632,0.050445556640625,0.050819337,-0.15133244,9.753392,0
3,990.5353393554688,5.2792695350945E-4,-3.211335570085794E-5,5.421043606474996E-4,3.0416600704193115,19.794275283813477,-13.739175796508789,-0.22099459171295166,0.08098617941141129,0.0362548828125,0.055610597,-0.153716,9.760495,0
3,990.5457763671875,-5.374465836212039E-4,3.6737832124345005E-4,1.4258341980166733E-4,3.331477165222168,20.223459243774414,-13.424028396606445,-0.2101377248764038,0.07607732713222504,0.05047607421875,0.06518161,-0.15133297,9.760495,0
3,990.5353393554688,0.0010603386908769608,-6.978673627600074E-4,4.088521236553788E-4,2.9717953205108643,20.6243896484375,-13.776979446411133,-0.19488880038261414,0.09008443355560303,0.045752525329589844,0.043683916,-0.16324976,9.772332,0
3,990.5176391601562,-5.0348753575235605E-6,9.000457357615232E-4,-3.9014266803860664E-4,3.3868343830108643,20.32849884033203,-14.285531997680664,-0.1844804883003235,0.08015680313110352,0.05049610137939453,0.050865024,-0.14180043,9.755763,0
3,990.5377197265625,3.9432893390767276E-4,3.6743193049915135E-4,-2.5703193387016654E-4,3.214247226715088,20.061389923095703,-14.012353897094727,-0.1932055503129959,0.0846073254942894,0.055240631103515625,0.041316867,-0.15133381,9.753396,0
3,990.512451171875,-5.365029210224748E-6,1.0115174518432468E-4,-6.565999938175082E-4,3.2242205142974854,20.33407211303711,-13.952863693237305,-0.19626647233963013,0.07933392375707626,0.050525665283203125,0.05566767,-0.15371743,9.762867,0
3,990.512451171875,-5.365029210224748E-6,1.0115174518432468E-4,-6.565999938175082E-4,3.2242205142974854,20.33407211303711,-13.952863693237305,-0.19629666209220886,0.06963565200567245,0.050495147705078125,0.048888326,-0.15134373,9.765269,0
3,990.548095703125,1.272310910280794E-4,1.0124300024472177E-4,-5.236829165369272E-4,3.4434378147125244,20.22317886352539,-13.82618522644043,-0.18584048748016357,0.08813855797052383,0.045767784118652344,0.056084633,-0.1584942,9.762904,0
3,990.5255126953125,-1.404161739628762E-4,3.668850113172084E-4,-9.256317280232906E-4,3.38531231880188,20.3270263671875,-14.208223342895508,-0.18456627428531647,0.0828424021601677,0.050515174865722656,0.044161797,-0.14896172,9.753438,0
3,990.5455932617188,-1.4067310257814825E-4,-1.657051034271717E-4,6.363872671499848E-6,3.4594993591308594,20.501754760742188,-14.07591438293457,-0.1931103765964508,0.0777091234922409,0.03158760070800781,0.051358134,-0.14419582,9.770011,0
3,990.5048828125,2.5854413979686797E-4,-3.250542067689821E-5,1.3941180077381432E-4,3.191150188446045,20.619415283203125,-14.349382400512695,-0.22065715491771698,0.08213886618614197,0.031599998474121094,0.065724194,-0.15849617,9.770013,0
4,990.5606079101562,-2.160397998522967E-4,-6.26883062068373E-4,1.9350339425727725E-4,3.4615638256073,20.13494110107422,-14.054765701293945,-0.20009997487068176,0.08643350750207901,0.03634929656982422,0.06097102,-0.15611354,9.772384,0
4,990.5606079101562,-2.160397998522967E-4,-6.26883062068373E-4,1.9350339425727725E-4,3.4615638256073,20.13494110107422,-14.054765701293945,-0.175444096326828,0.09063483774662018,0.06475830078125,0.046658248,-0.16088074,9.755816,0
4,990.5653076171875,-8.313856233144179E-5,3.0526425689458847E-4,-4.7239632112905383E-4,3.2649006843566895,20.056095123291016,-13.942865371704102,-0.1883716881275177,0.08542802929878235,0.055301666259765625,0.053854585,-0.15373155,9.760552,0
4,990.5274047851562,7.155522471293807E-4,7.047797553241253E-4,-4.725064500235021E-4,3.490206003189087,19.951093673706055,-14.125406265258789,-0.18760257959365845,0.08479250967502594,0.05057239532470703,0.053881228,-0.16326532,9.75582,0
4,990.4970092773438,-8.365218673134223E-5,4.385055508464575E-4,3.2633121008984745E-4,3.503222942352295,20.22672462463379,-14.220525741577148,-0.1870218813419342,0.09869739413261414,0.05057525634765625,0.058687717,-0.16803256,9.770026,0
4,990.5757446289062,-3.5022475640289485E-4,9.711789898574352E-4,7.256949902512133E-4,3.23183012008667,20.3414363861084,-14.339387893676758,-0.186375230550766,0.069610595703125,0.04584503173828125,0.061104268,-0.14658368,9.753458,0
4,990.5375366210938,-2.1732374443672597E-4,0.001503852428868413,-7.33626657165587E-5,3.3180549144744873,20.422035217285156,-14.126436233520508,-0.17146535217761993,0.07433523237705231,0.05058479309082031,0.046791434,-0.15135089,9.76293,0
4,990.5074462890625,7.145251147449017E-4,1.72314714291133E-4,1.9284308655187488E-4,3.4284934997558594,20.420284271240234,-14.451292037963867,-0.188679039478302,0.08779111504554749,0.045867919921875,0.0539878,-0.16565123,9.762931,0
4,990.542724609375,-2.1783713600598276E-4,-0.0010260650888085365,-2.0674080587923527E-4,3.17606782913208,20.710601806640625,-14.275411605834961,-0.16839280724525452,0.07313263416290283,0.05061149597167969,0.044454813,-0.15373549,9.760568,0
4,990.530029296875,-8.493613131577149E-5,-3.6023370921611786E-4,5.946509190835059E-5,3.0883212089538574,20.62853240966797,-14.41105842590332,-0.17243388295173645,0.08228057622909546,0.03641319274902344,0.044481516,-0.15850267,9.772406,0
4,990.5478515625,4.7965113481041044E-5,3.0559769948013127E-4,5.935499211773276E-5,3.572002410888672,20.133190155029297,-14.379621505737305,-0.19574545323848724,0.0726025402545929,0.050621986389160156,0.058847547,-0.14897022,9.765306,0
4,990.5477294921875,5.803399253636599E-4,3.9323538658209145E-5,-7.391296094283462E-5,3.479146718978882,20.414989471435547,-14.381803512573242,-0.18986287713050842,0.07683205604553223,0.031691551208496094,0.051704496,-0.15373743,9.767676,0
4,990.5525512695312,5.800832295790315E-4,9.714707848615944E-4,-2.07180914003402E-4,2.9456534385681152,21.179473876953125,-13.959405899047852,-0.17970974743366241,0.08153677731752396,0.041167259216308594,0.054121017,-0.15373808,9.767678,0
4,990.5525512695312,4.719467688119039E-5,-9.37510485528037E-5,0.0012574463617056608,2.8710310459136963,20.26668930053711,-13.817510604858398,-0.15942662954330444,0.07163437455892563,0.04117584228515625,0.04458806,-0.1537388,9.770048,0
4,990.53466796875,4.464118101168424E-4,4.389223759062588E-4,4.583886475302279E-4,2.749671459197998,20.8382511138916,-14.448125839233398,-0.18725645542144775,0.06636086106300354,0.0269775390625,0.05895412,-0.1537394,9.777152,0
4,990.542724609375,-8.647677168482915E-5,8.384378743357956E-4,5.8804755099117756E-5,2.8944039344787598,19.92049217224121,-14.878633499145508,-0.17690590023994446,0.08490581810474396,0.050652503967285156,0.04942116,-0.15612337,9.760585,0
4,990.5121459960938,-8.673370030010119E-5,-2.2678392997477204E-4,5.8694713516160846E-5,2.820920705795288,19.9036922454834,-13.788545608520508,-0.16699910163879395,0.07511274516582489,0.06012439727783203,0.05422759,-0.15135741,9.770055,0
4,990.5499877929688,-3.53306153556332E-4,3.9573569665662944E-5,-3.4088914981111884E-4,2.8303511142730713,20.544666290283203,-13.827508926391602,-0.1700696349143982,0.08890310674905777,0.04593467712402344,0.04708451,-0.17042437,9.760589,0
4,990.5121459960938,5.78542472794652E-4,-9.354257781524211E-5,-2.078413381241262E-4,2.8710312843322754,20.26668930053711,-13.817506790161133,-0.18803060054779053,0.07392039895057678,0.04120635986328125,0.06145057,-0.15850857,9.77953,0
4,990.5499877929688,-7.535505574196577E-4,-9.345922444481403E-5,3.2457037013955414E-4,2.8164925575256348,20.005191802978516,-14.255708694458008,-0.1635739505290985,0.07314558327198029,0.04120445251464844,0.059087336,-0.15612599,9.767695,0
4,990.5499877929688,-7.535505574196577E-4,-9.345922444481403E-5,3.2457037013955414E-4,2.8164925575256348,20.005191802978516,-14.255708694458008,-0.17202138900756836,0.08723452687263489,0.04603099822998047,0.05569747,-0.16563454,9.76287,0
4,990.527099609375,-7.489455165341496E-4,0.0019031623378396034,-3.39245714712888E-4,3.1941943168640137,20.622360229492188,-14.503995895385742,-0.16641604900360107,0.06772094964981079,0.06497478485107422,0.050903738,-0.15610108,9.7534,0
4,990.539794921875,4.543743852991611E-4,5.707877571694553E-4,1.9548521959222853E-4,3.7445895671844482,20.400299072265625,-14.652803421020508,-0.16036519408226013,0.08153348416090012,0.05078411102294922,0.043720096,-0.15371743,9.758133,0
4,990.52197265625,-2.1114651462994516E-4,-9.504567424301058E-5,-2.038732054643333E-4,3.5428175926208496,20.68532371520996,-14.407434463500977,-0.16840696334838867,0.08112141489982605,0.05080127716064453,0.048485935,-0.15133381,9.765233,0
4,990.5193481445312,1.8846176681108773E-4,1.7124840815085918E-4,6.250024307519197E-5,4.035492420196533,20.09290313720703,-14.140748977661133,-0.14845627546310425,0.06620969623327255,0.04133892059326172,0.048471987,-0.15848336,9.755763,0
5,990.5193481445312,1.8846176681108773E-4,1.7124840815085918E-4,6.250024307519197E-5,4.035492420196533,20.09290313720703,-14.140748977661133,-0.17155036330223083,0.08013167232275009,0.055548667907714844,0.06040752,-0.16324958,9.767597,0
5,990.50927734375,-8.766672108322382E-4,-0.001027194783091545,5.9518963098526E-4,3.576568365097046,20.13760757446289,-14.611539840698242,-0.15143951773643494,0.07485508918762207,0.0555572509765625,0.046054125,-0.16086593,9.75576,0
5,990.52197265625,3.22023086482659E-4,1.711829099804163E-4,6.267311982810497E-5,3.5984420776367188,20.210241317749023,-13.772329330444336,-0.1645621657371521,0.06504730880260468,0.046100616455078125,0.04365033,-0.14894918,9.769962,0
5,990.52197265625,3.22023086482659E-4,1.711829099804163E-4,6.267311982810497E-5,3.5984420776367188,20.210241317749023,-13.772329330444336,-0.18782228231430054,0.08377926051616669,0.04137229919433594,0.06753537,-0.16324854,9.767593,0
5,990.542236328125,5.597623385256156E-5,-0.0016930720303207636,3.291042521595955E-4,3.2368321418762207,21.083908081054688,-14.845510482788086,-0.1666429340839386,0.07834821939468384,0.01771831512451172,0.06274164,-0.16563147,9.7865305,0
5,990.542236328125,5.597623385256156E-5,-0.0016930720303207636,3.291042521595955E-4,3.2368321418762207,21.083908081054688,-14.845510482788086,-0.1566387265920639,0.0590699166059494,0.05559825897216797,0.057947874,-0.15133145,9.772326,0
5,990.526611328125,-6.096790311858058E-4,3.795948578044772E-5,1.9600396626628935E-4,3.6666781902313232,20.48499870300293,-14.029874801635742,-0.1656423807144165,0.0726182609796524,0.03666114807128906,0.06510359,-0.16563076,9.772325,0
5,990.5321044921875,-7.427023956552148E-4,0.0015026750043034554,6.290368037298322E-5,3.9031808376312256,20.022016525268555,-14.655107498168945,-0.16486266255378723,0.057991787791252136,0.060339927673339844,0.050750256,-0.13703105,9.746284,0
5,990.5296020507812,4.558534419629723E-4,5.705475923605263E-4,6.296121864579618E-5,3.3949873447418213,19.967575073242188,-14.573606491088867,-0.1830221712589264,0.06264741718769073,0.04141426086425781,0.065075696,-0.14894715,9.767587,0
5,990.4939575195312,5.664864875143394E-5,7.036618771962821E-4,-7.008138345554471E-5,3.3677291870117188,20.046977996826172,-13.881196975708008,-0.17260092496871948,0.07147631049156189,0.04615306854248047,0.055502176,-0.16086319,9.760484,0
5,990.4939575195312,5.664864875143394E-5,7.036618771962821E-4,-7.008138345554471E-5,3.082914113998413,20.360267639160156,-14.702463150024414,-0.1570359468460083,0.056897684931755066,0.03196144104003906,0.05309829,-0.15132973,9.762851,0
5,990.5219116210938,-3.4269082243554294E-4,3.785033186431974E-5,-2.031816984526813E-4,3.418519973754883,20.147602081298828,-14.510782241821289,-0.1564854234457016,0.08515751361846924,0.055637359619140625,0.05547422,-0.16562906,9.751013,0
5,990.4989624023438,-3.4255601349286735E-4,-0.0011605932377278805,1.9634977797977626E-4,3.3747963905334473,20.422632217407227,-14.366167068481445,-0.1603405922651291,0.0562334880232811,0.027237892150878906,0.055460274,-0.14894578,9.76995,0
5,990.5572509765625,1.995111961150542E-4,2.8516535530798137E-4,1.1450971942394972E-4,3.4154763221740723,20.1446533203125,-14.356172561645508,-0.1495448350906372,0.06025303900241852,0.0509185791015625,0.055446357,-0.15132871,9.762847,0
5,990.5219116210938,-4.6614394523203373E-4,1.882758442661725E-5,1.1456737411208451E-4,3.2398457527160645,19.874595642089844,-13.928384780883789,-0.15824678540229797,0.07401975244283676,0.046189308166503906,0.06499201,-0.16086146,9.765212,0
5,990.5344848632812,-6.653564923908561E-5,9.509113733656704E-4,1.1462499969638884E-4,3.0390524864196777,20.529380798339844,-13.858774185180664,-0.1578206717967987,0.06901353597640991,0.07459831237792969,0.060198247,-0.15847781,9.748641,0
5,990.516845703125,-5.990330828353763E-4,-5.138478591106832E-4,-4.179490788374096E-4,3.5816774368286133,19.773733139038086,-14.745000839233398,-0.15614162385463715,0.049556173384189606,0.04620647430419922,0.04823476,-0.1441778,9.767577,0
5,990.5193481445312,3.33207193762064E-4,-3.807116881944239E-4,-1.8417718820273876E-5,2.930816411972046,20.270233154296875,-14.211851119995117,-0.1605934351682663,0.06833261251449585,0.04620838165283203,0.055390507,-0.16086048,9.760474,0
5,990.5294799804688,-4.656061064451933E-4,2.8505618683993816E-4,-2.8467588708736E-4,2.6754848957061768,20.66352081298828,-14.580442428588867,-0.16389326751232147,0.05364382266998291,0.06989383697509766,0.060156375,-0.15132698,9.753371,0
5,990.5090942382812,7.329497020691633E-4,-2.475974033586681E-4,-1.8302438547834754E-5,2.8531806468963623,20.566761016845703,-14.987085342407227,-0.1586303859949112,0.05830657482147217,0.06516265869140625,0.05775237,-0.16324303,9.758105,0
5,990.5419311523438,6.729470624122769E-5,-2.4761923123151064E-4,-4.177185765001923E-4,2.9068779945373535,20.564414978027344,-15.072206497192383,-0.1572604477405548,0.06727730482816696,0.06990814208984375,0.06251809,-0.15609285,9.753368,0
5,990.5549926757812,-7.315162802115083E-4,-0.0015792208723723888,-4.176599613856524E-4,2.462898015975952,20.412015914916992,-14.917886734008789,-0.14639410376548767,0.05754600465297699,0.05098152160644531,0.05533439,-0.14417616,9.7604685,0
5,990.5321655273438,6.00198283791542E-4,-3.8082132232375443E-4,-1.8128339434042573E-5,2.3581111431121826,19.681604385375977,-14.628046035766602,-0.1502397358417511,0.05226163566112518,0.05098724365234375,0.052930564,-0.14655906,9.7581005,0
5,990.5216064453125,-4.6493089757859707E-4,-1.1452723992988467E-4,-9.501761524006724E-4,2.2923755645751953,19.778087615966797,-14.623559951782227,-0.16385206580162048,0.07084205746650696,0.02731800079345703,0.057696402,-0.16324165,9.772302,0
5,990.5139770507812,-3.316380316391587E-4,2.849247248377651E-4,-1.8013030057772994E-5,2.4647185802459717,21.045623779296875,-14.570322036743164,-0.14797064661979675,0.05568969249725342,0.04152965545654297,0.06485215,-0.15370819,9.760466,0
6,990.511474609375,-5.978195695206523E-4,-2.4772892356850207E-4,1.1520262341946363E-4,2.7215723991394043,20.65380859375,-14.27903938293457,-0.1285625398159027,0.060349926352500916,0.03679847717285156,0.05527854,-0.15132454,9.7723,0
6,990.5243530273438,-3.313689958304167E-4,1.856516973930411E-5,5.147341289557517E-4,2.7342910766601562,20.29730224609375,-14.799028396606445,-0.15176045894622803,0.05979282408952713,0.041534423828125,0.0576545,-0.15370753,9.765197,0
6,990.5341796875,-4.643925931304693E-4,2.848591248039156E-4,-5.504715954884887E-4,2.8974480628967285,19.923439025878906,-15.033243179321289,-0.13607776165008545,0.04074060171842575,0.05575084686279297,0.055250645,-0.14894062,9.748626,0
6,990.5244750976562,0.0010004795622080564,-0.0015793738421052694,-4.172561166342348E-4,2.351374387741089,21.150344848632812,-14.789934158325195,-0.1635793149471283,0.05467188358306885,0.03682136535644531,0.07196599,-0.1584734,9.767562,0
6,990.5369262695312,-6.464948819484562E-5,-2.478162932675332E-4,2.4859129916876554E-4,2.3439011573791504,21.248897552490234,-15.102487564086914,-0.14867478609085083,0.06849522888660431,0.051026344299316406,0.060002536,-0.1632396,9.76756,0
6,990.5243530273438,-4.6398863196372986E-4,8.174253744073212E-4,-6.834565429016948E-4,1.9204108715057373,21.273574829101562,-14.730733871459961,-0.14311379194259644,0.06365734338760376,0.04629993438720703,0.055208713,-0.15370616,9.765192,0
6,990.5092163085938,7.345672929659486E-4,2.847717551048845E-4,3.8186460733413696E-4,2.2966973781585693,20.782930374145508,-14.529058456420898,-0.1230207085609436,0.058555275201797485,0.051041603088378906,0.04802507,-0.1560891,9.769925,0
6,990.5369262695312,-6.424564344342798E-5,-9.136715671047568E-4,6.482381722889841E-4,2.917829990386963,21.206863403320312,-15.188470840454102,-0.14586886763572693,0.06316037476062775,0.01790904998779297,0.057570726,-0.16323858,9.777025,0
6,990.5243530273438,7.348364451900125E-4,-1.147457369370386E-4,-1.7493875930085778E-5,2.7437212467193604,20.938278198242188,-14.837984085083008,-0.13593721389770508,0.057739511132240295,0.05578136444091797,0.052776963,-0.15370509,9.748618,0
6,990.5167846679688,-8.629241492599249E-4,0.001083653885871172,-4.169099556747824E-4,2.4478166103363037,20.50320053100586,-14.843915939331055,-0.149708092212677,0.0479419082403183,0.046317100524902344,0.064712524,-0.14893821,9.769921,0
6,990.5370483398438,6.93157926434651E-5,1.836852970882319E-5,-2.8369438950903714E-4,2.4928174018859863,21.23006820678711,-14.739412307739258,-0.13889560103416443,0.0522744357585907,0.03685474395751953,0.05991873,-0.16085431,9.76992,0
6,990.5116577148438,-4.631810588762164E-4,-9.13758936803788E-4,-2.836367639247328E-4,2.2490875720977783,20.79117202758789,-14.753156661987305,-0.14766448736190796,0.056492581963539124,0.05106067657470703,0.059904754,-0.14893755,9.765185,0
6,990.5167846679688,-4.630465991795063E-4,6.841144640929997E-4,0.001048000412993133,2.434691905975342,21.33391571044922,-15.121454238891602,-0.14244979619979858,0.051430098712444305,0.03212547302246094,0.052721083,-0.15370375,9.7651825,0
6,990.5218505859375,-6.343818677123636E-5,8.172505185939372E-4,-1.7205544281750917E-5,2.60768461227417,21.126819610595703,-14.597101211547852,-0.14612650871276855,0.05584944784641266,0.05580425262451172,0.05987686,-0.15846995,9.750978,0
6,990.5266723632812,2.0314684661570936E-4,-9.1384636471048E-4,3.8238370325416327E-4,2.243436098098755,21.523330688476562,-14.718141555786133,-0.1254553496837616,0.060083478689193726,0.032141685485839844,0.05269319,-0.16085294,9.769914,0
6,990.5266723632812,2.0314684661570936E-4,-9.1384636471048E-4,3.8238370325416327E-4,2.243436098098755,21.523330688476562,-14.718141555786133,-0.11071806401014328,0.0599774569272995,0.055815696716308594,0.050289333,-0.15131947,9.753343,0
6,990.5343627929688,-0.0013944790698587894,-2.4810028844513E-4,-1.501327205915004E-4,2.399121046066284,21.248023986816406,-15.264917373657227,-0.22440814971923828,0.06397131085395813,-0.23298168182373047,0.06939456,-0.13940272,9.767546,0
6,990.5343627929688,-0.0013944790698587894,-2.4810028844513E-4,-1.501327205915004E-4,2.399121046066284,21.248023986816406,-15.264917373657227,-0.07593753933906555,0.06379953771829605,0.11736583709716797,0.04787147,-0.15846857,9.743872,0
6,990.5294799804688,-3.2908120192587376E-4,0.0012166152009740472,2.493988140486181E-4,2.481322765350342,20.955909729003906,-14.721597671508789,-0.12801498174667358,0.025586970150470734,-0.0057239532470703125,0.047857523,-0.1513184,9.784113,0
6,990.5393676757812,7.363170152530074E-4,1.51329833897762E-4,-1.6859383322298527E-5,2.4713492393493652,20.683223724365234,-14.781087875366211,-0.13140398263931274,0.07234599441289902,0.03689384460449219,0.059729934,-0.1560831,9.762801,0
6,990.511474609375,-9.943769546225667E-4,-3.813602670561522E-4,-6.824949523434043E-4,2.389009952545166,20.86941909790039,-14.625329971313477,-0.12612754106521606,0.05329868942499161,0.0511016845703125,0.059713483,-0.15608263,9.769901,0
6,990.5218505859375,3.3582490868866444E-4,-1.1384160461602733E-4,-2.8186754207126796E-4,3.0371251106262207,21.002117156982422,-14.578996658325195,-0.12037389725446701,0.048164062201976776,0.017966270446777344,0.057307094,-0.15131572,9.777001,0
6,990.5167846679688,3.359838156029582E-4,-7.796571590006351E-4,5.171481752768159E-4,2.4806418418884277,21.218284606933594,-14.120973587036133,-0.13297319412231445,0.047800980508327484,0.07005596160888672,0.05968049,-0.15846515,9.746226,0
6,990.5344848632812,4.693006630986929E-4,-7.796828867867589E-4,1.1774245649576187E-4,2.6498866081237793,20.85031509399414,-14.664407730102539,-0.13267070055007935,0.05264190584421158,0.05112171173095703,0.057274133,-0.15846473,9.765162,0
7,990.526611328125,3.363015130162239E-4,-1.1391899170121178E-4,1.1781050125136971E-4,2.2731640338897705,20.6029052734375,-14.591882705688477,-0.1507008969783783,0.05668231099843979,0.03218650817871094,0.076376885,-0.15369782,9.767529,0
7,990.5520629882812,-7.288031047210097E-4,5.51844947040081E-4,2.5103657389990985E-4,2.3950979709625244,20.87531280517578,-14.934549331665039,-0.135710209608078,0.06154435873031616,0.051131248474121094,0.050071478,-0.16561374,9.758058,0
7,990.53662109375,4.697770345956087E-4,1.9187435100320727E-5,-2.815272018779069E-4,2.4930620193481445,20.229644775390625,-15.065832138061523,-0.1395302414894104,0.056416794657707214,0.041667938232421875,0.05722469,-0.15608028,9.760423,0
7,990.5343627929688,7.046200335025787E-5,-0.0014455757336691022,-1.5143246855586767E-5,2.601978302001953,20.226417541503906,-15.313379287719727,-0.12422984838485718,0.06537220627069473,0.06060791015625,0.061987996,-0.16084641,9.755687,0
7,990.5244750976562,7.062102667987347E-5,2.854516787920147E-4,1.1808279668912292E-4,2.805976390838623,20.10079574584961,-14.413652420043945,-0.13748088479042053,0.04153648018836975,0.046413421630859375,0.073921084,-0.15607944,9.762788,0
7,990.5218505859375,3.3709558192640543E-4,-5.135216633789241E-4,-2.813230094034225E-4,2.680891752243042,20.931785583496094,-14.289033889770508,-0.13188280165195465,0.050749100744724274,0.046416282653808594,0.064345,-0.15607908,9.755685,0
7,990.5218505859375,-1.953772734850645E-4,1.5224222443066537E-4,-4.1441296343691647E-4,2.6514086723327637,20.85178565979004,-14.741716384887695,-0.13589420914649963,0.05055262893438339,0.03695201873779297,0.05715877,-0.15369532,9.767519,0
7,990.5216064453125,7.109751459211111E-5,-7.798891165293753E-4,-1.487092231400311E-5,2.474691390991211,21.318309783935547,-14.510831832885742,-0.12588834762573242,0.05992579460144043,0.027486801147460938,0.06431201,-0.15607825,9.769885,0
7,990.5393676757812,6.038878345862031E-4,-3.8044110988266766E-4,-0.001213224371895194,2.5621397495269775,20.76824188232422,-14.800054550170898,-0.11525431275367737,0.05979469418525696,0.03696250915527344,0.057125837,-0.16084442,9.774617,0
7,990.5244140625,6.040468579158187E-4,-2.4730898439884186E-4,-5.473664496093988E-4,2.611814498901367,20.393184661865234,-14.554811477661133,-0.1339050531387329,0.031117506325244904,0.04643440246582031,0.057109326,-0.14654431,9.774615,0
7,990.53173828125,7.157400250434875E-5,9.510867530480027E-4,-9.467722848057747E-4,2.6819777488708496,20.195209503173828,-14.092130661010742,-0.13745227456092834,0.045435406267642975,0.0322418212890625,0.06187269,-0.15846029,9.765145,0
7,990.5243530273438,7.375222630798817E-4,-2.4736052728258073E-4,-2.809146244544536E-4,2.631760597229004,20.938552856445312,-14.435831069946289,-0.11319874972105026,0.04980608820915222,0.051177024841308594,0.06424612,-0.14892676,9.755675,0
7,990.5340576171875,-3.2758223824203014E-4,-7.800180464982986E-4,-4.1400434565730393E-4,2.660403251647949,20.75470733642578,-14.506471633911133,-0.11225451529026031,0.04018828272819519,0.051184654235839844,0.054669976,-0.15607622,9.746205,0
7,990.5116577148438,4.7152419574558735E-4,-6.468858919106424E-4,3.8501128437928855E-4,2.615837812423706,20.765892028808594,-14.885175704956055,-0.1260378360748291,0.049857914447784424,0.046456336975097656,0.05943334,-0.15369251,9.769876,0
7,990.5296020507812,0.001137472689151764,6.846677279099822E-4,1.18763477075845E-4,2.0799803733825684,21.265058517456055,-14.908796310424805,-0.12523680925369263,0.04026758670806885,0.05119609832763672,0.064196676,-0.15130886,9.76514,0
7,990.5216064453125,-3.271058667451143E-4,-5.137795233167708E-4,2.5198949151672423E-4,2.3468070030212402,21.14592742919922,-14.558019638061523,-0.12011731415987015,0.04003491252660751,0.0654001235961914,0.061790287,-0.15130845,9.758037,0
7,990.5216064453125,7.38316448405385E-4,0.0013504057424142957,-5.46890078112483E-4,2.546078681945801,20.489665985107422,-14.550325393676758,-0.10982783138751984,0.05871284753084183,0.03226184844970703,0.054604113,-0.16084114,9.765136,0
7,990.5372314453125,-5.931040504947305E-4,-2.4751524324528873E-4,-1.4190271031111479E-5,2.016716241836548,20.52051544189453,-14.085634231567383,-0.11387936770915985,0.03424232453107834,0.041728973388671875,0.054587603,-0.1441578,9.755667,0
7,990.5266723632812,-7.261029677465558E-4,1.877485919976607E-5,-4.1359601891599596E-4,2.1838955879211426,20.519363403320312,-14.65022087097168,-0.13218173384666443,0.04831795394420624,0.032263755798339844,0.06413075,-0.15845707,9.774602,0
7,990.5092163085938,-0.0016578910872340202,-6.47066393867135E-4,5.186457419767976E-4,2.101012706756592,21.0738468170166,-14.592912673950195,-0.12209613621234894,0.04253033548593521,0.03217792510986328,0.071754456,-0.1513184,9.767543,0
7,990.5344848632812,1.9962573423981667E-4,9.519156301394105E-4,-2.8317098622210324E-4,2.4892306327819824,21.595413208007812,-14.683252334594727,-0.13139986991882324,0.05651569366455078,0.022704124450683594,0.06745714,-0.16801316,9.769954,0
7,990.5344848632812,1.9962573423981667E-4,9.519156301394105E-4,-2.8317098622210324E-4,2.4892306327819824,21.595413208007812,-14.683252334594727,-0.11210580170154572,0.06106444448232651,0.051108360290527344,0.069868565,-0.16563043,9.751019,0
7,990.5419311523438,-6.91364984959364E-5,-1.129507363657467E-4,-5.50535274669528E-4,2.797961711883545,20.567636489868164,-14.824655532836914,-0.12105415761470795,0.04164823889732361,0.03216838836669922,0.06272042,-0.15371454,9.7675905,0
7,990.5193481445312,-6.955221761018038E-5,-3.79199133021757E-4,7.808659574948251E-4,2.592846632003784,20.217578887939453,-14.849550247192383,-0.10564200580120087,0.03645719587802887,0.04163646697998047,0.060352147,-0.14894852,9.7746935,0
7,990.5142822265625,-6.976013537496328E-5,5.529401823878288E-4,3.813030489254743E-4,2.7056493759155273,20.48114776611328,-14.728387832641602,-0.11944879591464996,0.050532303750514984,0.02743244171142578,0.06276357,-0.15371561,9.772328,0
8,990.5294799804688,-0.0010020736372098327,4.1981597314588726E-4,-1.514177129138261E-4,2.5319759845733643,20.95061683654785,-14.652109146118164,-0.12855537235736847,0.035903312265872955,0.041632652282714844,0.067564964,-0.14418295,9.75576,0
8,990.5194091796875,7.287719054147601E-4,-1.1278205056441948E-4,-4.178227682132274E-4,2.669534683227539,20.763545989990234,-14.970300674438477,-0.12801238894462585,0.03599665313959122,0.07477569580078125,0.06519663,-0.14418355,9.73209,0
8,990.5194091796875,7.287719054147601E-4,-1.1278205056441948E-4,-4.178227682132274E-4,2.669534683227539,20.763545989990234,-14.970300674438477,-0.11815766245126724,0.04065898060798645,0.03216552734375,0.060438335,-0.15371713,9.772334,0
8,990.5244140625,4.6224810648709536E-4,8.193572284653783E-4,2.478779060766101E-4,2.5772223472595215,20.67705535888672,-14.874025344848633,-0.12251720577478409,0.04545297473669052,0.032164573669433594,0.055680156,-0.15848431,9.777072,0
8,990.5067138671875,8.61514126881957E-4,2.8675925568677485E-4,-6.843166192993522E-4,2.501811981201172,21.13298797607422,-14.504167556762695,-0.10260438174009323,0.04061001539230347,0.04163551330566406,0.055701733,-0.14895165,9.774706,0
8,990.5244750976562,3.286745632067323E-4,-6.453125970438123E-4,-1.8616148736327887E-5,2.283679962158203,20.507301330566406,-14.433938980102539,-0.12114164233207703,0.04479777812957764,0.05109882354736328,0.072452605,-0.15133551,9.76524,0
8,990.544677734375,-7.36796879209578E-4,1.5366877778433263E-4,1.1445273412391543E-4,2.3163444995880127,20.696165084838867,-14.834943771362305,-0.10108190774917603,0.039519309997558594,0.041626930236816406,0.055744827,-0.14895272,9.767608,0
8,990.5369262695312,-7.370047969743609E-4,-6.452451925724745E-4,-0.0013503736117854714,2.7673611640930176,20.011959075927734,-14.402505874633789,-0.11014777421951294,0.03457745909690857,0.02742290496826172,0.055766374,-0.14895323,9.769978,0
8,990.4761962890625,1.9489310216158628E-4,1.537362695671618E-4,2.474325301591307E-4,2.4933605194091797,20.861778259277344,-14.640962600708008,-0.11429280042648315,0.0394064337015152,0.03689289093017578,0.06534755,-0.15610364,9.7699795,0
8,990.527099609375,8.604747708886862E-4,2.0612038497347385E-5,-1.8972466932609677E-5,2.42458176612854,20.955312728881836,-14.481870651245117,-0.09444835782051086,0.04852303862571716,0.05582904815673828,0.05341965,-0.15848747,9.772349,0
8,990.5015258789062,-7.376282010227442E-4,-5.119859124533832E-4,1.1409641592763364E-4,2.6138792037963867,20.0263671875,-14.533666610717773,-0.1267317235469818,0.038438647985458374,0.03215217590332031,0.07017052,-0.16563782,9.767616,0
8,990.5520629882812,-4.7152023762464523E-4,-1.124784248531796E-4,-5.517823155969381E-4,2.350257396697998,20.674665451049805,-13.915102005004883,-0.10739971697330475,0.04288087785243988,0.04161834716796875,0.05585265,-0.14895537,9.760516,0
8,990.5244140625,-7.225433364510536E-5,2.0713232515845448E-5,-1.9239698303863406E-5,2.5885801315307617,20.84529685974121,-14.19276237487793,-0.10674163699150085,0.042593248188495636,0.04635047912597656,0.0558742,-0.15610576,9.762885,0
8,990.4937744140625,-2.0562007557600737E-4,-6.450426881201565E-4,6.464609177783132E-4,2.3283839225769043,20.60202980041504,-14.754308700561523,-0.1203334778547287,0.042582444846630096,0.032149314880371094,0.07023519,-0.15610623,9.767622,0
8,990.5321044921875,3.2680376898497343E-4,-3.786930756177753E-4,-2.857337531168014E-4,2.46069598197937,20.672914505004883,-14.239953994750977,-0.11464421451091766,0.042502984404563904,0.02267932891845703,0.07025677,-0.1465737,9.777093,0
8,990.5269775390625,4.3214685865677893E-4,8.769137639319524E-5,2.638070727698505E-4,2.0544896125793457,20.34550666809082,-14.620107650756836,-0.1094052791595459,0.05172641575336456,0.046349525451660156,0.05593893,-0.15134075,9.765259,0
8,990.5393676757812,1.656230742810294E-4,3.5404099617153406E-4,5.300338962115347E-4,2.34735107421875,20.77763557434082,-14.459569931030273,-0.0904003456234932,0.046830423176288605,0.051079750061035156,0.05118069,-0.15849116,9.751058,0
8,990.52197265625,-2.3405866522807628E-4,0.0011530224001035094,1.304709876421839E-4,2.3609111309051514,20.684974670410156,-14.456239700317383,-0.09934049844741821,0.046850524842739105,0.046347618103027344,0.053592086,-0.15849164,9.755794,0
8,990.5065307617188,9.641550132073462E-4,-7.111550658009946E-4,-1.359339221380651E-4,2.516458034515381,20.303749084472656,-14.303930282592773,-0.08905085921287537,0.03715436905622482,0.036876678466796875,0.053613693,-0.14895913,9.765265,0
8,990.4963989257812,-2.3447438434232026E-4,-4.5331566070672125E-5,5.29766664840281E-4,2.5606179237365723,20.766769409179688,-14.722749710083008,-0.09801769256591797,0.012709327042102814,0.041663169860839844,0.055362284,-0.15609321,9.767573,0
8,990.49951171875,-0.0010328394128009677,0.0010198373347520828,-4.020891501568258E-4,2.3358559608459473,20.50347900390625,-14.441755294799805,-0.0925116315484047,0.04554428905248642,0.06533145904541016,0.055357248,-0.1632429,9.755737,0
8,990.5498046875,-2.2842090402264148E-4,-3.126302035525441E-4,-1.3342872262001038E-4,2.4478158950805664,20.50320053100586,-14.843915939331055,-0.08759467303752899,0.04538952559232712,0.0558624267578125,0.052962244,-0.16324279,9.755736,0
8,990.542236328125,3.0425985460169613E-4,7.526254048570991E-4,7.98697816208005E-4,2.549558639526367,21.230667114257812,-14.979143142700195,-0.11070513725280762,0.044971078634262085,0.022721290588378906,0.055347115,-0.15847611,9.774673,0
8,990.5321655273438,3.0435752705670893E-4,-8.452857146039605E-4,1.3295002281665802E-4,2.4818661212921143,20.58761978149414,-14.623147964477539,-0.0952063500881195,0.025500290095806122,0.055861473083496094,0.060121804,-0.15132615,9.765204,0
9,990.5321655273438,3.0435752705670893E-4,-8.452857146039605E-4,1.3295002281665802E-4,2.4818661212921143,20.58761978149414,-14.623147964477539,-0.10948826372623444,0.0350988432765007,0.04165935516357422,0.07684606,-0.15609261,9.767571,0
9,990.5472412109375,-3.613341541495174E-4,6.194356828927994E-4,-6.659556529484689E-4,2.48933744430542,20.48906898498535,-14.31059455871582,-0.10371160507202148,0.053591422736644745,0.041657447814941406,0.067281365,-0.16085896,9.772305,0
9,990.5472412109375,-3.613341541495174E-4,6.194356828927994E-4,-6.659556529484689E-4,2.48933744430542,20.48906898498535,-14.31059455871582,-0.09376780688762665,0.04393951594829559,0.03692340850830078,0.057716668,-0.16324213,9.76757,0
9,990.5343627929688,3.818845652858727E-5,-5.789937567897141E-4,7.988025899976492E-4,2.80336856842041,20.83590316772461,-14.53325080871582,-0.09351512044668198,0.048441193997859955,0.017984390258789062,0.0577116,-0.16085875,9.777038,0
9,990.5422973632812,-9.492058597970754E-5,7.525777327828109E-4,2.661918115336448E-4,2.2263965606689453,20.87499237060547,-14.292657852172852,-0.0880751982331276,0.048204220831394196,0.051125526428222656,0.05292678,-0.1632419,9.7581005,0
9,990.5194091796875,-9.487169154454023E-5,-1.7953579663299024E-4,-1.0308576747775078E-7,2.3087358474731445,20.688796997070312,-14.448419570922852,-0.10188321769237518,0.038657888770103455,0.06059741973876953,0.0672611,-0.15132537,9.767569,0
9,990.5447998046875,3.838426709990017E-5,8.676414290675893E-5,1.3309679343365133E-4,2.2611258029937744,20.697036743164062,-14.672517776489258,-0.09616148471832275,0.03862506151199341,0.051131248474121094,0.06008625,-0.15847513,9.762834,0
9,990.5447998046875,3.838426709990017E-5,8.676414290675893E-5,1.3309679343365133E-4,2.2611258029937744,20.697036743164062,-14.672517776489258,-0.09571680426597595,0.03376840054988861,0.032195091247558594,0.06247112,-0.14894184,9.767568,0
9,990.516845703125,5.710647092200816E-4,-7.121913367882371E-4,-4.022149369120598E-8,2.27522873878479,20.23609161376953,-14.570737838745117,-0.10466864705085754,0.033601924777030945,0.04639911651611328,0.06485593,-0.1441752,9.765201,0
9,990.519287109375,3.047978098038584E-4,-3.127255185972899E-4,3.994545841123909E-4,2.383059501647949,20.969444274902344,-15.01518440246582,-0.10397099703550339,0.024115420877933502,0.05113697052001953,0.07202059,-0.15609148,9.769934,0
9,990.5372314453125,3.0484682065434754E-4,-1.7957549425773323E-4,1.3315965770743787E-4,2.2279179096221924,20.87646484375,-14.369966506958008,-0.09846620261669159,0.03351978957653046,0.055871009826660156,0.06723571,-0.14894149,9.765199,0
9,990.527099609375,3.857984484056942E-5,8.673247793922201E-5,-0.0010652407072484493,2.2871601581573486,21.24829864501953,-14.862756729125977,-0.09341886639595032,0.03324931114912033,0.046402931213378906,0.06006092,-0.1417915,9.755729,0
9,990.4893188476562,3.8628739275736734E-5,3.530403773766011E-4,4.3655745685100555E-8,2.5670039653778076,21.40479850769043,-14.607099533081055,-0.07867112010717392,0.037772588431835175,0.046401023864746094,0.05049622,-0.14894122,9.748628,0
9,990.4893188476562,-2.27638243813999E-4,8.671655814396217E-5,3.995384613517672E-4,2.6504297256469727,20.482023239135742,-14.565961837768555,-0.09252344071865082,0.03290905803442001,0.0464019775390625,0.05527094,-0.16085753,9.760463,0
9,990.52197265625,3.872652814607136E-5,-1.7960727564059198E-4,-2.6623025769367814E-4,2.7888295650482178,20.558799743652344,-14.36082649230957,-0.09205637872219086,0.032838374376297,0.05113697052001953,0.064825475,-0.15609083,9.76283,0
9,990.5147094726562,4.3824923341162503E-4,6.193324807099998E-4,0.0010653701610863209,2.4240386486053467,21.32360076904297,-14.580316543579102,-0.11057671904563904,0.022528313100337982,0.03219318389892578,0.07199013,-0.15370741,9.772298,0
9,990.52197265625,-0.0010264391312375665,2.1985071361996233E-4,1.3328553177416325E-4,2.4973835945129395,21.234487533569336,-14.97132682800293,-0.09599899500608444,0.041317448019981384,0.046393394470214844,0.062425435,-0.16085714,9.762829,0
9,990.5325317382812,-3.606005047913641E-4,3.530006797518581E-4,-1.3300933642312884E-4,2.6281731128692627,21.30389976501465,-14.379667282104492,-0.08135982602834702,0.05065779387950897,0.046393394470214844,0.057640553,-0.16085705,9.758094,0
9,990.5067138671875,3.892222230206244E-5,6.193087319843471E-4,-5.324623198248446E-4,2.274548053741455,20.498462677001953,-13.970109939575195,-0.11435645073652267,0.021812759339809418,0.02745342254638672,0.07675472,-0.1489405,9.779399,0
9,990.51416015625,-9.41869366215542E-5,8.666895882925019E-5,5.328222177922726E-4,2.6785287857055664,20.666465759277344,-14.735052108764648,-0.08523362874984741,0.03591952472925186,0.060593605041503906,0.060020328,-0.16324008,9.753359,0
9,990.5625610351562,-2.2729574993718415E-4,4.8613481339998543E-4,6.660011131316423E-4,2.617359161376953,20.76736831665039,-14.962480545043945,-0.08989357948303223,0.035599201917648315,0.02268505096435547,0.06514788,-0.1560987,9.779429,0
9,990.5172119140625,3.037138667423278E-4,0.001152187935076654,-5.331156426109374E-4,2.5682284832000732,20.774133682250977,-15.109277725219727,-0.08015203475952148,0.02599634975194931,0.060558319091796875,0.060377,-0.15371567,9.755759,0
9,990.4994506835938,-2.3064094420988113E-4,-7.117435452528298E-4,1.3193566701374948E-4,2.8005690574645996,19.832530975341797,-14.705060958862305,-0.09859157353639603,0.026030555367469788,0.032154083251953125,0.060385883,-0.15133262,9.769963,0
9,990.539794921875,8.345367969013751E-4,2.203758922405541E-4,2.65056878561154E-4,2.726138114929199,20.658226013183594,-14.510950088500977,-0.10729306936264038,0.04952637851238251,0.03688526153564453,0.069954336,-0.16801581,9.769963,0
9,990.5296630859375,-3.639701462816447E-4,-7.11715838406235E-4,3.981781774200499E-4,2.54097056388855,20.85353660583496,-14.416864395141602,-0.09736108034849167,0.03485000133514404,0.046349525451660156,0.0651834,-0.14894983,9.762862,0
10,990.5198974609375,3.541800469974987E-5,4.867195093538612E-4,-1.3323151506483555E-6,2.5345840454101562,20.215511322021484,-14.532510757446289,-0.10160428285598755,0.044141173362731934,0.04634666442871094,0.06519231,-0.15609977,9.751027,0
10,990.5147094726562,-2.3098343808669597E-4,-4.589831951307133E-5,-2.676849835552275E-4,2.5546681880950928,20.86679458618164,-15.112607955932617,-0.07747882604598999,0.029709145426750183,0.03687763214111328,0.050861776,-0.1561,9.777068,0
10,990.5606079101562,-9.791106276679784E-5,2.20431451452896E-4,-2.677215379662812E-4,2.785242795944214,20.924144744873047,-14.304666519165039,-0.08666864037513733,0.02480504661798477,0.06528091430664062,0.06282014,-0.15610024,9.758131,0
10,990.5147094726562,3.0147729557938874E-4,0.0011525509180501103,2.6487349532544613E-4,2.8000264167785645,20.200820922851562,-14.803510665893555,-0.09581059962511063,0.04866021126508713,0.0416107177734375,0.06043917,-0.17278346,9.760499,0
10,990.517333984375,5.527951288968325E-4,-7.371287210844457E-4,-4.7012424329295754E-4,2.9849495887756348,21.005939483642578,-14.57118034362793,-0.09053384512662888,0.029150106012821198,0.055808067321777344,0.06522781,-0.15371743,9.760499,0
10,990.52490234375,-7.788698421791196E-4,6.183281220728531E-5,1.9562870147638023E-4,2.742199182510376,20.936803817749023,-14.760683059692383,-0.08067931979894638,0.05728122591972351,0.06053638458251953,0.06284678,-0.17755046,9.7534,0
10,990.5223999023438,-3.7948149838484824E-4,5.944785079918802E-4,6.243409006856382E-5,2.6629037857055664,21.12594223022461,-14.759531021118164,-0.0806029886007309,0.023873046040534973,0.046332359313964844,0.060465783,-0.15133458,9.760501,0
10,990.5067749023438,2.8613695758394897E-4,4.613482451532036E-4,-3.3711304422467947E-4,2.76725435256958,21.118301391601562,-14.77515983581543,-0.08498305827379227,0.03314262628555298,0.06526565551757812,0.060474694,-0.15133476,9.767604,0
10,990.5067749023438,2.8613695758394897E-4,4.613482451532036E-4,-3.3711304422467947E-4,2.76725435256958,21.118301391601562,-14.77515983581543,-0.1040317639708519,0.03289090096950531,0.051059722900390625,0.06765324,-0.16086814,9.758136,0
10,990.5375366210938,-5.128962220624089E-4,9.93993948213756E-4,4.6179784112609923E-4,2.5108063220977783,21.03590965270996,-14.268915176391602,-0.08007968217134476,0.023333556950092316,0.06052970886230469,0.060492396,-0.14895195,9.758136,0
10,990.54736328125,4.191236512269825E-4,7.276920368894935E-4,-7.08705629222095E-5,2.2780282497406006,21.23946189880371,-14.398927688598633,-0.08905518054962158,0.02778524160385132,0.05579185485839844,0.06528112,-0.15371874,9.765239,0
10,990.5274658203125,2.857946965377778E-4,-3.375437227077782E-4,1.9537194748409092E-4,2.7020621299743652,20.84649085998535,-14.67222785949707,-0.09318051487207413,0.01346675306558609,0.06525897979736328,0.055730343,-0.14895242,9.762873,0
10,990.5274658203125,2.857946965377778E-4,-3.375437227077782E-4,1.9537194748409092E-4,2.7020621299743652,20.84649085998535,-14.67222785949707,-0.08361203968524933,0.018184438347816467,0.027383804321289062,0.055739284,-0.1489526,9.777077,0
10,990.5427856445312,5.520249251276255E-4,0.0011272075353190303,-7.098057540133595E-5,2.6814351081848145,20.563495635986328,-14.190584182739258,-0.09738723933696747,0.027656376361846924,0.041586875915527344,0.06291786,-0.14895278,9.77471,0
10,990.504638671875,1.5246550901792943E-4,-4.706739273387939E-4,-2.0417518680915236E-4,2.6260552406311035,20.03815269470215,-15.152109146118164,-0.09677140414714813,0.03253423422574997,0.041588783264160156,0.07248628,-0.16086942,9.772344,0
10,990.5023193359375,5.518537946045399E-4,-4.7066001570783556E-4,-8.700015605427325E-4,2.8796205520629883,20.643817901611328,-14.379793167114258,-0.07694011926651001,0.05155067890882492,0.036853790283203125,0.060545683,-0.16086966,9.769978,0
10,990.5198364257812,6.849262863397598E-4,-4.7064610407687724E-4,1.9522526417858899E-4,2.300283908843994,20.417587280273438,-14.585214614868164,-0.0765082836151123,0.027629509568214417,0.06525897979736328,0.060554564,-0.15610334,9.743939,0
10,990.5223388671875,1.9050647097174078E-5,-7.115842163329944E-5,1.951885933522135E-4,2.559096336364746,20.765296936035156,-14.645444869995117,-0.07555226981639862,0.031884655356407166,0.03684806823730469,0.0557836,-0.151337,9.762877,0
10,990.5299682617188,-5.136664258316159E-4,-0.0011364080710336566,5.946257151663303E-4,2.7393999099731445,19.933429718017578,-14.932489395141602,-0.07960513234138489,0.036592692136764526,0.046317100524902344,0.05818242,-0.15372047,9.7699795,0
10,990.5074462890625,-3.806798777077347E-4,-2.0427466370165348E-4,-8.701849146746099E-4,2.5394480228424072,20.852066040039062,-14.339555740356445,-0.07833162695169449,0.050444282591342926,0.03688335418701172,0.060359716,-0.16324836,9.762858,0
10,990.5074462890625,-3.806798777077347E-4,-2.0427466370165348E-4,-8.701849146746099E-4,2.5394480228424072,20.852066040039062,-14.339555740356445,-0.07345496118068695,0.031184978783130646,0.05108356475830078,0.055354,-0.156093,9.765205,0
10,990.5123291015625,-1.1069492757087573E-4,3.277615469414741E-4,-3.359808470122516E-4,2.477597713470459,21.21533966064453,-13.966360092163086,-0.06728091835975647,0.03724852204322815,0.046370506286621094,0.055345148,-0.15847608,9.7723055,0
10,990.5352172851562,0.004816759843379259,-0.003134444123134017,-6.940303137525916E-5,2.4686038494110107,21.312416076660156,-14.201608657836914,-0.10024876892566681,0.027918413281440735,0.03217124938964844,0.069675654,-0.15132597,9.765203,0
10,990.5121459960938,-0.002906228881329298,0.001526055857539177,3.301441902294755E-4,2.708555221557617,20.378177642822266,-14.183919906616211,-0.062121134251356125,0.030886784195899963,0.027414321899414062,0.06249708,-0.15847561,9.7699375,0
10,990.4384155273438,-3.761428233701736E-4,3.2762056798674166E-4,-4.687668406404555E-4,2.8515207767486572,20.459373474121094,-14.210699081420898,-0.06676889955997467,0.030854269862174988,0.041617393493652344,0.06248817,-0.14894223,9.769937,0
11,990.4384155273438,-3.761428233701736E-4,3.2762056798674166E-4,-4.687668406404555E-4,3.0753042697906494,20.352901458740234,-14.315938949584961,-0.056591469794511795,0.03558315336704254,0.0652914047241211,0.055309623,-0.15847525,9.762834,0
11,990.4972534179688,9.555221768096089E-4,-0.0010039727203547955,-2.0241417223587632E-4,2.9598944187164307,20.824440002441406,-14.556699752807617,-0.08416195958852768,0.03581954538822174,0.055828094482421875,0.06008053,-0.16085827,9.74863,0
11,990.5430297851562,5.561342695727944E-4,-0.0010039866901934147,-7.350091473199427E-4,2.5909423828125,21.110618591308594,-13.746747970581055,-0.06918513774871826,0.04016885161399841,0.041622161865234375,0.060071617,-0.1632413,9.769935,0
11,990.514892578125,2.899038081523031E-4,-2.0505290012806654E-4,3.302909608464688E-4,2.676326036453247,20.9273681640625,-14.057119369506836,-0.06899431347846985,0.020992517471313477,0.03688621520996094,0.05528289,-0.15847453,9.7723,0
11,990.4791870117188,-5.089582409709692E-4,6.124910578364506E-5,-6.914610275998712E-5,2.704831123352051,20.637603759765625,-13.428682327270508,-0.06840793043375015,0.03977005183696747,0.051087379455566406,0.05288419,-0.1680074,9.767565,0
11,990.4822387695312,-2.4255670723505318E-4,-6.04554486926645E-4,4.6352233039215207E-4,2.814427614212036,20.372007369995117,-14.276857376098633,-0.05845806002616882,0.039112210273742676,0.051079750061035156,0.050485373,-0.16085732,9.76283,0
11,990.517333984375,-7.751026423648E-4,-2.050946350209415E-4,-0.0010011782869696617,2.586078643798828,20.47406005859375,-13.939702987670898,-0.0674862340092659,0.043621599674224854,0.055812835693359375,0.055256248,-0.16324049,9.758095,0
11,990.5477294921875,-2.4238546029664576E-4,6.120738544268534E-5,-3.353519132360816E-4,2.46458101272583,20.939708709716797,-13.871244430541992,-0.07680599391460419,0.019549936056137085,0.017935752868652344,0.05285749,-0.14417401,9.772298,0
11,990.56298828125,1.5717404312454164E-4,5.938253016211092E-4,-2.0215718541294336E-4,2.736654281616211,20.562620162963867,-14.353010177612305,-0.06670968979597092,0.024316102266311646,0.055812835693359375,0.06001833,-0.15609017,9.760461,0
11,990.5020141601562,-1.0905614908551797E-4,-7.377680158242583E-4,3.3051116042770445E-4,2.792416572570801,20.193458557128906,-14.416986465454102,-0.07060959935188293,0.009686440229415894,0.05107593536376953,0.07195896,-0.14179024,9.765195,0
11,990.494873046875,-2.4212864809669554E-4,-0.0012704137479886413,4.637058009393513E-4,3.012613296508789,20.452327728271484,-14.466062545776367,-0.060940153896808624,0.028780847787857056,0.03687286376953125,0.055220723,-0.1537064,9.760459,1
11,990.504638671875,4.2374685290269554E-4,9.932572720572352E-4,-6.888917414471507E-5,3.2472105026245117,20.88238525390625,-13.988489151000977,-0.05521403253078461,0.014481887221336365,0.04634571075439453,0.050432056,-0.15370616,9.774661,1
11,990.5325317382812,5.569905042648315E-4,-6.046518101356924E-4,-2.020104438997805E-4,3.082937240600586,20.780567169189453,-12.879434585571289,-0.07857591658830643,0.028755351901054382,0.04634571075439453,0.059982777,-0.16323918,9.760457,1
11,990.5176391601562,2.4444285372737795E-5,-0.0010041395435109735,3.306579601485282E-4,3.2699027061462402,20.798564910888672,-14.44898796081543,-0.08259250223636627,0.014509066939353943,0.04634857177734375,0.06475371,-0.1441727,9.769925,1
11,990.5452880859375,6.903195753693581E-4,-7.378375739790499E-4,-3.3509504282847047E-4,2.785785436630249,20.55585479736328,-14.206216812133789,-0.05835920572280884,0.009560555219650269,0.05108165740966797,0.057575107,-0.14893901,9.762822,1
11,990.5328369140625,-3.7485818029381335E-4,-2.0521972328424454E-4,-4.682161961682141E-4,2.4862940311431885,20.486122131347656,-14.155984878540039,-0.08654112368822098,0.009698823094367981,0.0368804931640625,0.06712586,-0.14893878,9.767556,1
11,990.5375366210938,6.904909387230873E-4,-7.207567250588909E-5,4.639260296244174E-4,2.4184937477111816,20.949420928955078,-14.172647476196289,-0.06232554093003273,0.03308139741420746,0.04634571075439453,0.05277753,-0.16562152,9.772289,1
11,990.4972534179688,-5.780101637355983E-4,2.2628299484495074E-4,-2.2593379253521562E-4,2.4725966453552246,20.47286605834961,-13.460237503051758,-0.05731625854969025,0.023312494158744812,0.017935752868652344,0.0503788,-0.15132159,9.777023,1
11,990.5377197265625,-3.116083680652082E-4,9.311115718446672E-5,3.0673478613607585E-4,2.455449104309082,20.930870056152344,-13.407411575317383,-0.07581856101751328,0.027646154165267944,0.051072120666503906,0.06709921,-0.15608796,9.779389,1
11,990.5226440429688,-7.109966245479882E-4,-4.3953454587608576E-4,4.045566311106086E-5,2.444389820098877,21.394765853881836,-13.663808822631836,-0.05204608291387558,0.017770782113075256,0.046260833740234375,0.06074822,-0.14657494,9.772363,1
11,990.5430297851562,-8.470159373246133E-4,-7.053858134895563E-4,1.7238740110769868E-4,2.3819429874420166,20.493764877319336,-14.140352249145508,-0.06592123955488205,0.03185223042964935,0.04625511169433594,0.065552115,-0.15372539,9.772365,1
11,990.5226440429688,-8.522917632944882E-4,0.0010265238815918565,-9.618955664336681E-5,2.0505199432373047,21.605361938476562,-13.538450241088867,-0.04638172686100006,0.016958236694335938,0.05097770690917969,0.05123681,-0.14419284,9.777102,1
11,990.5226440429688,-8.522917632944882E-4,0.0010265238815918565,-9.618955664336681E-5,2.0505199432373047,21.605361938476562,-13.538450241088867,-0.07500925660133362,0.04061001539230347,0.03203773498535156,0.067990184,-0.16325971,9.777103,1
11,990.5150756835938,-5.862081306986511E-4,-1.7185999604407698E-4,-3.6260514752939343E-4,2.6262154579162598,20.56437110900879,-14.028154373168945,-0.05505983158946037,0.017579972743988037,0.05571746826171875,0.06084457,-0.15372717,9.767638,1
12,990.5150756835938,0.0016772450180724263,-0.0012370857875794172,-8.953364449553192E-4,2.5128707885742188,20.66909408569336,-14.247770309448242,-0.054692428559064865,0.021851450204849243,0.05097484588623047,0.0059009194,-0.08937922,9.772374,1
12,990.5074462890625,-3.203567466698587E-4,-4.3810042552649975E-4,-0.0022270153276622295,2.35123610496521,21.0444278717041,-14.090856552124023,0.5888515114784241,-0.416354775428772,0.003631591796875,0.046553344,-0.1918608,9.770009,1
12,990.530029296875,-0.005247432738542557,0.004222465213388205,-0.23378875851631165,2.1815857887268066,21.886606216430664,-14.344949722290039,-0.1472102403640747,0.028090491890907288,0.012845993041992188,-0.037069127,-0.16802862,9.848128,1
12,990.4459838867188,-0.16317321360111237,-0.013886937871575356,-0.2154131978750229,2.429116725921631,19.74747085571289,-13.642045974731445,-0.328823983669281,0.5526160597801208,-0.6472740173339844,0.11112881,-0.5231377,10.335774,1
12,990.4459838867188,-0.16317321360111237,-0.013886937871575356,-0.2154131978750229,2.429116725921631,19.74747085571289,-13.642045974731445,-0.08994325250387192,0.44556212425231934,0.20364761352539062,0.022726595,-0.33485928,9.65639,1
12,990.49951171875,-0.17502449452877045,0.2811911106109619,-0.0716027021408081,2.9521474838256836,20.711156845092773,-13.471094131469727,-0.0865984559059143,-1.1350284814834595,0.13852977752685547,-0.29988605,0.3372247,9.263436,1
12,990.4998168945312,-0.18700894713401794,0.27479955554008484,-0.029524890705943108,2.8592915534973145,20.992956161499023,-13.473276138305664,-0.5329398512840271,0.6874938607215881,-0.17119693756103516,0.5652825,-1.1189592,10.252929,1
12,990.4896850585938,-0.7482701539993286,-0.18725845217704773,0.11428549140691757,2.028562307357788,23.05937385559082,-12.927289962768555,0.08111812174320221,-0.12912452220916748,0.02356243133544922,-0.05367802,-0.7733842,9.900219,1
12,990.4896850585938,-0.7482701539993286,-0.18725845217704773,0.11428549140691757,2.028562307357788,23.05937385559082,-12.927289962768555,0.04340013116598129,-0.4241142272949219,-0.1508808135986328,0.13753825,-0.6089387,9.864713,1
12,990.4990844726562,-0.7570587992668152,-0.037988338619470596,0.038385361433029175,1.32098388671875,23.975574493408203,-10.331380844116211,0.7404692769050598,-0.3205859661102295,-0.07939434051513672,-0.6534952,-1.6218326,10.018582,1
12,990.5447998046875,-0.8464081287384033,0.05162699148058891,-0.19131219387054443,1.489441156387329,24.976318359375,-10.646852493286133,-0.7966291904449463,0.5641870498657227,-0.07249832153320312,0.36223716,-2.2319527,9.043298,1
12,990.4939575195312,-0.20019274950027466,0.8018388748168945,-0.5664182305335999,2.1441869735717773,24.74661636352539,-10.811288833618164,-0.3762023150920868,0.6460046768188477,0.8929071426391602,-0.20175554,-2.1247053,8.62904,1
12,990.517333984375,-0.19300244748592377,0.3732035458087921,-0.11421392858028412,1.919722557067871,25.115463256835938,-10.10542106628418,0.18698175251483917,-0.266398549079895,0.7607746124267578,-0.55304706,-1.3477573,9.263452,1
12,990.5549926757812,-0.42576271295547485,-0.5229493975639343,0.13505762815475464,1.2648701667785645,26.451507568359375,-10.313642501831055,0.09222018718719482,0.3578677177429199,-1.1598396301269531,-0.23277608,-2.365418,10.252945,1
12,990.5676879882812,-0.1972639560699463,-0.4956520199775696,-0.2514999806880951,0.3276405334472656,26.047561645507812,-9.452722549438477,0.4363599717617035,-0.13276410102844238,-0.2545194625854492,0.17831108,-1.8601632,10.136954,1
12,990.5752563476562,-0.01630255952477455,0.08438403159379959,-0.7464481592178345,-0.010466575622558594,25.888996124267578,-9.39134407043457,-1.1803556680679321,0.008627653121948242,-0.11951255798339844,0.86662686,-2.2724712,9.426795,1
12,990.5676879882812,-0.6049940586090088,0.17652937769889832,-0.5696145296096802,-0.34979677200317383,26.361083984375,-8.827787399291992,0.3007698655128479,-0.09288954734802246,-0.18837928771972656,-0.15622696,-2.4416847,9.658784,1
12,990.557373046875,-0.6778317093849182,-0.026536453515291214,0.11175459623336792,-0.36968994140625,27.448280334472656,-8.195478439331055,-0.10109606385231018,-0.06262683868408203,-0.1212472915649414,0.08995706,-2.792027,9.523855,1
12,990.54736328125,-0.8647856712341309,0.003823594655841589,-0.011150289326906204,-0.04291725158691406,27.858917236328125,-7.115095138549805,-0.09186650067567825,-0.07041096687316895,0.04710865020751953,0.073251784,-3.211485,9.062253,1
12,990.511474609375,-1.053071141242981,0.009549424052238464,-0.023933548480272293,-0.8964757919311523,29.903236389160156,-5.40953254699707,0.04116741567850113,-0.007931232452392578,0.42597007751464844,0.05573085,-3.5641904,8.844398,1
12,990.5291748046875,-0.8935482501983643,0.022465780377388,-0.05562523752450943,-0.7822890281677246,30.062355041503906,-4.666595458984375,-0.13812170922756195,-0.05233883857727051,-0.13961219787597656,0.17199498,-3.8287134,8.995822,1
12,990.5216064453125,-0.6919354796409607,0.03151862695813179,-0.07692550867795944,-1.0398240089416504,30.716552734375,-4.35725212097168,-0.019029837101697922,0.07426595687866211,0.521240234375,0.07157722,-4.1194725,8.550784,1
12,990.4783325195312,-0.6270832419395447,0.0015573977725580335,7.073985179886222E-4,-0.8740048408508301,31.240142822265625,-3.720582962036133,-0.22807104885578156,0.0494847297668457,4.177093505859375E-4,0.3296448,-4.2457857,8.823009,1
12,990.5065307617188,-0.3591690957546234,-0.01522056758403778,0.031067581847310066,-1.0357780456542969,31.509559631347656,-2.864591598510742,-0.3217763304710388,0.06322765350341797,0.12823486328125,0.17664918,-4.3363485,8.749621,1
12,990.4884643554688,-0.3549076020717621,-0.14425069093704224,0.30244362354278564,-0.7124547958374023,32.39145278930664,-2.4271278381347656,0.20877766609191895,-0.44838905334472656,0.15383338928222656,-0.3682903,-3.642814,8.569711,1
13,990.5416259765625,-0.3137614130973816,-0.23053710162639618,0.4611680805683136,-0.2204298973083496,33.27366638183594,-2.631551742553711,-0.10726217925548553,-0.8034648895263672,0.7894697189331055,0.0021026134,-3.5975304,8.122305,1
13,990.6713256835938,0.33591657876968384,-0.25157609581947327,0.5356035232543945,0.45254945755004883,31.849380493164062,-2.65191650390625,-0.16633722186088562,0.8370120525360107,-1.2351655960083008,0.23149139,-4.5222416,9.296433,1
13,990.788330078125,0.9769397377967834,-0.9048492312431335,0.1406574249267578,-0.04781198501586914,30.381568908691406,-5.106389999389648,0.7219635248184204,0.4061741828918457,-0.8651342391967773,-0.04338923,-4.0503516,11.02212,1
13,990.6409301757812,0.16960352659225464,0.6112871766090393,0.09391917288303375,0.7299532890319824,29.68769073486328,-5.416593551635742,0.6511252522468567,-0.7080409526824951,0.20794296264648438,-0.47600338,-2.6489825,9.069175,1
13,990.5056762695312,0.8340620994567871,-0.34292271733283997,0.09604986757040024,-0.26969099044799805,29.595001220703125,-6.10395622253418,-0.5858715772628784,-0.032799482345581055,1.812791347503662,0.6806674,-3.166153,7.708029,1
13,990.5056762695312,0.8340620994567871,-0.34292271733283997,0.09604986757040024,-0.26969099044799805,29.595001220703125,-6.10395622253418,-0.7030014991760254,-1.1363164186477661,0.3391294479370117,1.5887882,-1.7004359,9.736718,1
13,990.53369140625,0.7632223963737488,-1.1509251594543457,0.11988531798124313,-1.1638989448547363,28.75809097290039,-6.610050201416016,-0.7419582605361938,-0.333298921585083,-2.54412841796875,1.4859805,-2.6561294,11.561828,1
13,990.5994873046875,0.19410620629787445,0.546305775642395,-0.2943686544895172,-2.0056872367858887,26.91693115234375,-7.450380325317383,0.16903334856033325,-0.20138072967529297,-1.552133560180664,0.68054175,-2.541731,10.844562,1
13,990.546142578125,0.3460398316383362,0.5568252205848694,-0.08544372022151947,-1.3488450050354004,27.532669067382812,-8.665407180786133,-0.4398483633995056,-0.6730954647064209,-1.2931337356567383,0.8979809,-1.9625936,10.804315,1
13,990.546142578125,0.3460398316383362,0.5568252205848694,-0.08544372022151947,-1.3488450050354004,27.532669067382812,-8.665407180786133,-0.2928108274936676,-0.919878363609314,-1.244065284729004,0.71630657,-1.3906054,10.809045,1
13,990.5302734375,0.5002370476722717,0.4589540660381317,-0.08504406362771988,-1.2396836280822754,26.52901840209961,-9.239374160766602,-0.1468629539012909,-0.3784562349319458,-1.2368316650390625,0.44381583,-1.5431342,10.678845,1
13,990.471923828125,0.7610938549041748,0.21447603404521942,-0.12765443325042725,-1.9927458763122559,25.139694213867188,-10.119813919067383,0.217386394739151,-0.44898831844329834,-0.9182043075561523,0.25975156,-0.9544635,10.356902,1
13,990.5302734375,0.7545695900917053,0.02525852993130684,-0.09543003886938095,-1.8437457084655762,23.594221115112305,-11.207113265991211,-0.22280043363571167,-1.3271842002868652,-0.08153343200683594,0.4341725,-0.20134643,9.360307,1
13,990.428466796875,-0.4779394567012787,0.6118191480636597,-0.6046256422996521,-1.4909939765930176,22.92354965209961,-11.068254470825195,0.6224057674407959,-0.16195690631866455,-0.9699039459228516,-0.25894088,-1.1761063,9.838477,1
13,990.428466796875,-0.4779394567012787,0.6118191480636597,-0.6046256422996521,-1.4909939765930176,22.92354965209961,-11.068254470825195,0.4726009964942932,0.7527109384536743,-2.5560617446899414,0.1735895,-2.5274243,12.037604,1
13,990.5224609375,0.522875964641571,-1.144134521484375,-0.707956075668335,-2.969102382659912,21.855989456176758,-11.547861099243164,0.9136371612548828,1.358639121055603,-0.7325420379638672,-0.2422953,-2.0340843,11.097821,1
13,990.608642578125,1.1427266597747803,-0.7573109865188599,-0.5998316407203674,-4.827820301055908,20.274227142333984,-12.323648452758789,0.6847819089889526,1.0880672931671143,-3.619321823120117,0.46268392,-1.7480901,13.199893,1
13,990.5252075195312,0.6662878394126892,-0.2545066773891449,-0.20248815417289734,-6.210031032562256,18.927812576293945,-12.955682754516602,0.7755154967308044,0.9430662989616394,-1.9648208618164062,-0.20892042,-1.4334964,11.38898,1
13,990.598388671875,0.9532435536384583,0.7068936228752136,-0.18637587130069733,-4.582889080047607,15.290685653686523,-15.765031814575195,1.0119556188583374,1.469846487045288,-1.0688419342041016,-0.6224153,-1.3238645,10.674081,1
13,990.4716186523438,0.91822350025177,0.889319896697998,-0.12325884401798248,-4.319129467010498,14.748306274414062,-17.082674026489258,0.7899804711341858,1.2400271892547607,-0.8688364028930664,-0.79692,-1.0164205,10.728522,1
13,990.4535522460938,0.9981186985969543,0.634189248085022,0.04225664958357811,-3.1436619758605957,12.47806167602539,-17.90081214904785,0.9349355101585388,1.6838946342468262,-0.516901969909668,-0.9977137,-0.7065933,9.885795,1
13,990.4637451171875,0.9935916066169739,0.6596223711967468,0.17488214373588562,-1.8834624290466309,11.499200820922852,-19.500429153442383,0.5095284581184387,1.1974828243255615,-1.414778709411621,-1.0025353,-0.17750439,10.058597,1
13,990.450439453125,0.6132930517196655,0.5787954330444336,0.28646865487098694,-1.09199857711792,10.818580627441406,-20.506376266479492,0.13613063097000122,1.3059500455856323,-2.623218536376953,-0.7205688,-0.19418633,11.663556,1
13,990.4300537109375,0.6094318628311157,0.47812801599502563,0.2217540740966797,-0.28048229217529297,9.576988220214844,-21.02068519592285,0.11923229694366455,2.287937641143799,0.6294689178466797,-1.0886555,-0.26568365,8.865518,1
13,990.5089721679688,1.6153074502944946,0.47067102789878845,0.09059368073940277,-0.3285813331604004,7.214609146118164,-21.721864700317383,0.7749969959259033,2.1642751693725586,0.3856925964355469,-1.463912,0.32060388,8.856046,1
14,990.4275512695312,1.585879921913147,0.12472667545080185,0.20457705855369568,0.6221230030059814,4.6810760498046875,-22.25901222229004,0.3631706237792969,2.0669448375701904,0.6215486526489258,-1.1293675,1.1190032,9.312913,1
14,990.4276123046875,0.9877346158027649,0.29863086342811584,0.44692468643188477,0.8361778259277344,3.301492691040039,-22.75016212463379,0.3996480703353882,1.8389979600906372,-0.9314804077148438,-1.6862565,0.90450907,9.689294,1
14,990.4577026367188,0.6954535245895386,0.530059278011322,0.5519863963127136,2.398232936859131,2.6576881408691406,-23.95399284362793,0.8323419094085693,2.104444742202759,-0.4082221984863281,-2.126579,1.1928414,9.272831,1
14,990.4830322265625,0.8275421261787415,0.627265214920044,0.8237599730491638,3.5896239280700684,0.5601015090942383,-24.322778701782227,0.34194397926330566,1.8148367404937744,-0.6566314697265625,-1.2518604,2.3105986,9.74864,1
14,990.46533203125,0.9874516129493713,0.5581584572792053,1.1245582103729248,4.418723106384277,-0.4014430046081543,-25.16411781311035,-0.327450156211853,1.0981552600860596,-0.9519424438476562,-0.986567,3.0827806,9.37699,1
14,990.4624633789062,1.3264716863632202,0.5712079405784607,0.9732906818389893,5.408884048461914,-2.5822958946228027,-25.1890926361084,0.2093183994293213,1.5631189346313477,-0.14510154724121094,-1.4812623,3.3258748,8.617121,1
14,990.4701538085938,1.2051646709442139,0.8268711566925049,0.8166969418525696,6.8993611335754395,-4.1359381675720215,-26.405637741088867,-0.04492068290710449,1.3002707958221436,0.5464334487915039,-1.1777303,4.2434363,7.7081156,1
14,990.4269409179688,0.9851875901222229,0.981334388256073,0.853981077671051,8.40121841430664,-5.101043701171875,-25.11789894104004,-0.9404960870742798,0.7544918060302734,-0.33917951583862305,-0.7284143,4.619994,8.198129,1
14,990.3909301757812,0.709017813205719,0.9846633076667786,0.8041800260543823,10.039632797241211,-7.043281555175781,-25.795610427856445,-0.7256085872650146,1.1578645706176758,0.31270742416381836,-1.0486467,4.7463074,7.1541924,1
14,990.4141235351562,0.9472372531890869,0.9869270920753479,0.7262824773788452,11.919816970825195,-9.286148071289062,-26.10807228088379,-1.0958755016326904,0.7881131172180176,0.9943790435791016,-0.72360563,5.551855,6.3256736,1
14,990.4212036132812,0.7138112187385559,1.144586205482483,0.8264171481132507,13.645999908447266,-10.726011276245117,-24.827116012573242,-1.0744045972824097,0.5732836723327637,1.040952205657959,-1.0032097,5.785416,6.1812754,1
14,990.4082641601562,0.640973687171936,0.8697481155395508,0.7944592833518982,14.883232116699219,-11.832881927490234,-24.568078994750977,-0.7002018690109253,0.7094845771789551,0.47666263580322266,-1.12986,5.902196,6.673655,1
14,990.4060668945312,0.6786572337150574,0.3678759038448334,0.7688928842544556,15.129816055297852,-13.129518508911133,-24.761159896850586,-0.8230766654014587,0.6930794715881348,-0.17040109634399414,-0.76180077,6.340719,7.109222,1
14,990.4415283203125,0.4289860129356384,0.45855647325515747,0.8987217545509338,15.786052703857422,-14.570009231567383,-23.931169509887695,-1.2813730239868164,0.1788930892944336,-0.7723827362060547,-0.4702183,6.729193,7.400389,1
14,990.4613647460938,0.27399006485939026,0.7674829363822937,0.9278833270072937,16.67621421813965,-14.52610969543457,-24.917734146118164,-0.8535819053649902,0.5247964859008789,-0.26265954971313477,-0.7904507,6.6124125,6.6452527,1
14,990.4461669921875,0.5669373273849487,0.8139550089836121,0.844393253326416,17.380359649658203,-15.342706680297852,-23.43876838684082,-0.9465991258621216,0.7739272117614746,-0.019575119018554688,-0.577735,6.700593,6.1173673,1
14,990.4127197265625,0.8343183398246765,0.5945107936859131,0.8173621892929077,17.50791358947754,-17.014719009399414,-22.744714736938477,-1.0181750059127808,0.5770764350891113,0.30213212966918945,-0.41520724,7.208231,5.5018964,1
14,990.430419921875,0.619401216506958,0.8239420056343079,0.8312104940414429,18.391521453857422,-18.927026748657227,-22.076120376586914,-1.0603758096694946,0.32326555252075195,0.7128558158874512,-0.47733027,7.508524,5.071067,1
14,990.42529296875,0.4948985278606415,0.8456467390060425,0.7081724405288696,19.510164260864258,-19.671222686767578,-21.20415687561035,-0.6940112113952637,0.5398716926574707,-0.027115345001220703,-0.9313972,7.2344465,5.693642,1
14,990.4276123046875,0.44682836532592773,0.7650862336158752,0.5585029125213623,20.561386108398438,-20.846630096435547,-21.374353408813477,-0.35640764236450195,0.8987154960632324,0.3989372253417969,-1.024589,7.351227,4.6591763,1
14,990.4251098632812,0.4311155676841736,1.0777411460876465,0.6253480911254883,20.980716705322266,-21.34993553161621,-20.71666145324707,-0.60093092918396,0.4048004150390625,0.8997478485107422,-0.9672169,7.746851,4.4484963,1
14,990.4097900390625,0.3678653836250305,0.9528388977050781,0.6518464684486389,22.105850219726562,-22.562442779541016,-19.35638999938965,-0.27902841567993164,0.7245798110961914,0.2664346694946289,-1.27072,7.5037556,4.76807,1
14,990.4195556640625,0.21526627242565155,0.8371247053146362,0.6449222564697266,23.043048858642578,-23.370752334594727,-19.14557456970215,-0.2194591760635376,0.7163186073303223,0.46378469467163086,-0.77121603,7.882697,4.673383,1
14,990.4225463867188,0.1870366632938385,0.7965115904808044,0.7897979617118835,23.347373962402344,-23.87672996520996,-17.931116104125977,-1.1358460187911987,0.13885498046875,-0.5649800300598145,-0.20001508,8.199672,5.4592957,1
15,990.4251098632812,0.12352016568183899,0.6320614814758301,0.7915290594100952,23.956575393676758,-24.46500587463379,-18.29850196838379,-0.6507694721221924,0.45684051513671875,-0.30127382278442383,-0.35056445,8.063825,4.929044,1
15,990.4447631835938,0.2529495358467102,0.7437810301780701,0.7017804384231567,24.113510131835938,-24.95067596435547,-17.524423599243164,-0.9073069095611572,0.3786888122558594,0.17725658416748047,-0.099610314,8.192521,4.424831,1
15,990.4069213867188,0.09702145308256149,0.9122257828712463,0.737999439239502,24.35041618347168,-25.887861251831055,-17.352121353149414,-0.8756455779075623,0.4711885452270508,0.25296878814697266,0.033715963,8.11627,4.2851195,1
15,990.43701171875,0.151222825050354,0.5265994668006897,0.744659960269928,25.346580505371094,-26.536174774169922,-16.235944747924805,-0.9608084559440613,0.3534412384033203,0.34606075286865234,0.21002877,8.23068,4.0270452,1
15,990.43701171875,0.151222825050354,0.5265994668006897,0.744659960269928,24.94923210144043,-27.066577911376953,-15.681772232055664,-1.005204677581787,0.43007469177246094,-0.4068937301635742,0.3581748,8.066235,5.130159,1
15,990.4368286132812,0.14110682904720306,0.16347713768482208,0.6621037125587463,24.657752990722656,-27.603147506713867,-15.220537185668945,-0.6546497941017151,1.176525592803955,-0.91485595703125,0.5708482,7.7778587,5.326634,1
15,990.4470825195312,0.22459712624549866,0.31514400243759155,0.6108380556106567,24.7198486328125,-28.96685218811035,-15.920156478881836,-1.5040603876113892,0.26163673400878906,-0.5136451721191406,1.259112,8.418962,4.5809627,1
15,990.4342651367188,0.2525605857372284,0.7014350891113281,0.6505191922187805,24.964527130126953,-29.370452880859375,-15.010431289672852,-1.0928114652633667,0.5787515640258789,0.9533672332763672,0.946007,8.116286,3.537024,1
15,990.4111328125,0.16893765330314636,0.9652209877967834,0.5041787028312683,25.211162567138672,-29.034521102905273,-14.452219009399414,-1.3420981168746948,0.1828632354736328,1.0076210498809814,1.3976706,8.542893,3.3239732,1
15,990.4237670898438,0.052557870745658875,0.6813281774520874,0.5874025821685791,25.429264068603516,-29.6210994720459,-13.450708389282227,-2.0048599243164062,0.18942546844482422,0.5318493843078613,2.0692048,8.735939,3.80688,1
15,990.3906860351562,0.0236628707498312,0.199695885181427,0.4121668338775635,25.25735855102539,-30.15057945251465,-13.778154373168945,-1.7241308689117432,0.2791719436645508,0.3701629638671875,1.5935866,8.554811,3.7524319,1
15,990.4234619140625,-0.21349114179611206,0.44004592299461365,0.15490582585334778,26.01729393005371,-30.124080657958984,-13.434907913208008,-1.311619758605957,-0.036426544189453125,1.036428451538086,1.1227483,8.914687,3.645905,1
15,990.4158935546875,-0.40137672424316406,0.6240701675415039,0.14638382196426392,26.384479522705078,-29.411306381225586,-13.841131210327148,-0.9729040265083313,-0.477142333984375,-0.23584365844726562,0.98649585,9.164931,4.992841,1
15,990.4208984375,-0.34012383222579956,0.2191368192434311,0.12321445345878601,26.321788787841797,-29.311878204345703,-13.99125862121582,-0.740126371383667,-0.3585205078125,-0.12201833724975586,0.49414814,8.9289875,4.498093,1
15,990.4336547851562,-0.25876402854919434,0.43911370635032654,0.0754108652472496,27.252248764038086,-28.651447296142578,-13.942331314086914,-0.656972348690033,-0.30920886993408203,0.3612174987792969,0.88128436,9.00287,5.0046716,1
15,990.4158935546875,-0.33812591433525085,0.5475042462348938,0.17940732836723328,28.23154067993164,-28.629920959472656,-14.171480178833008,-1.5365720987319946,-0.737884521484375,-1.2644195556640625,0.91232526,9.193533,5.740869,1
15,990.48876953125,-0.19631241261959076,0.46001940965652466,0.09285478293895721,28.394996643066406,-28.37164306640625,-13.980829238891602,0.2914120852947235,-0.29851531982421875,0.8485794067382812,-0.4738458,9.095819,2.92863,1
15,990.4585571289062,0.16281481087207794,0.6464404463768005,-0.18531204760074615,28.877452850341797,-28.236324310302734,-13.447214126586914,-0.29471373558044434,0.16148853302001953,0.7670047283172607,-0.062810555,8.428502,5.262689,1
15,990.6264038085938,0.054823968559503555,-0.6696926355361938,-0.20461982488632202,28.212871551513672,-28.173389434814453,-14.041345596313477,-0.5253022909164429,-0.06026935577392578,-2.5033206939697266,0.09967488,8.395137,6.718516,1
15,990.5221557617188,-0.628275990486145,-0.06688671559095383,-0.09596282243728638,28.382308959960938,-26.802879333496094,-14.532575607299805,-0.04071998596191406,-0.15346240997314453,0.4904017448425293,-0.3831132,8.480935,4.91944,1
15,990.366943359375,-0.48313355445861816,0.22632703185081482,-0.11353955417871475,28.839168548583984,-26.480770111083984,-14.08293342590332,-0.17077195644378662,-0.1392993927001953,-0.9468274116516113,-0.12503171,8.34509,6.3657975,1
15,990.389404296875,-0.333863228559494,-0.3466516137123108,-0.09210101515054703,28.76329803466797,-27.18319320678711,-15.26188850402832,-0.5331844091415405,-0.068817138671875,-1.1844978332519531,0.13304985,8.318873,6.417874,1
15,990.4149169921875,-0.21348819136619568,-0.11016316711902618,-0.054284047335386276,28.51573944091797,-26.256315231323242,-14.89305305480957,-0.18287776410579681,0.10300922393798828,-0.41788816452026367,-0.32344934,8.013815,5.556209,1
15,990.4022827148438,0.02699531428515911,0.05228947475552559,-0.0823802575469017,28.522804260253906,-25.880661010742188,-15.378030776977539,-0.1082451343536377,0.1632862091064453,0.15659713745117188,-0.039078936,8.249761,5.1632514,1
15,990.4097900390625,0.17240405082702637,-0.09698061645030975,0.021483054384589195,28.625091552734375,-25.521488189697266,-15.414804458618164,-0.6225433349609375,0.08155059814453125,-0.3525390625,0.27875018,8.218779,5.5491023,1
16,990.4298095703125,0.12673115730285645,-0.13293331861495972,0.03985896334052086,28.89604949951172,-26.374252319335938,-15.021745681762695,-0.7071176767349243,-0.24715042114257812,0.1395726203918457,0.41255677,8.483322,4.9501977,1
16,990.4525756835938,0.15030038356781006,3.577466122806072E-4,0.020950650796294212,28.45608901977539,-26.153945922851562,-15.197786331176758,-0.5665451288223267,0.03060626983642578,0.24422883987426758,0.15680933,8.306961,4.959664,1
16,990.4422607421875,0.03578481450676918,0.014605602249503136,-0.05454978719353676,28.577587127685547,-26.619586944580078,-15.266244888305664,-0.45117494463920593,0.1387939453125,0.08823108673095703,0.22124511,8.249764,5.130094,1
16,990.4752197265625,-0.027333883568644524,-0.0691489651799202,-0.015665829181671143,28.506309509277344,-26.89729118347168,-14.854089736938477,-0.8417186737060547,0.05191612243652344,-0.22106599807739258,0.5773101,8.3546295,5.381015,1
16,990.4752197265625,-0.027333883568644524,-0.0691489651799202,-0.015665829181671143,28.506309509277344,-26.89729118347168,-14.854089736938477,-0.5137003064155579,0.21917343139648438,-0.016664505004882812,0.041941583,8.05672,5.236613,1
16,990.475341796875,-0.03718727454543114,0.03964102268218994,-0.09249783307313919,28.62603759765625,-26.363983154296875,-14.518827438354492,-0.18445158004760742,0.1829547882080078,0.02439737319946289,-0.11343253,8.2164,5.061437,1
16,990.4522094726562,-0.00589457293972373,-0.026804883033037186,0.04864983633160591,28.849279403686523,-26.102169036865234,-14.72252082824707,-0.4824043810367584,-0.02082347869873047,-0.012897491455078125,0.10640797,8.326032,5.118247,0
16,990.4522094726562,-0.00589457293972373,-0.026804883033037186,0.04864983633160591,28.849279403686523,-26.102169036865234,-14.72252082824707,-0.5172841548919678,-0.16201400756835938,-0.024433612823486328,0.17807463,8.48333,5.220034,0
16,990.4523315429688,0.004625197499990463,-0.02227756194770336,0.05424259230494499,28.94601821899414,-26.117172241210938,-14.351625442504883,-0.21167199313640594,0.015158653259277344,0.00806427001953125,-0.20911996,8.254535,5.122976,0
16,990.421630859375,-0.04743926599621773,0.05388873070478439,0.005773228593170643,28.801128387451172,-25.72563934326172,-15.045068740844727,-0.08349427580833435,0.07925796508789062,0.31665706634521484,-0.20437062,8.2116375,5.130075,0
16,990.4241333007812,-0.09071500599384308,-0.024141917005181313,0.09112772345542908,28.369321823120117,-25.866249084472656,-15.509187698364258,-0.4629884660243988,-0.017233848571777344,-0.346956729888916,0.14452457,8.297437,5.6768956,0
16,990.4241333007812,-0.09071500599384308,-0.024141917005181313,0.09112772345542908,28.369321823120117,-25.866249084472656,-15.509187698364258,-0.27059459686279297,0.1700725555419922,-0.24696826934814453,-0.113615245,8.018593,5.5703692,0
16,990.4287109375,-0.031725749373435974,0.03458068519830704,0.032937824726104736,28.60500717163086,-26.172775268554688,-14.834711074829102,0.05604422092437744,0.2124614715576172,-0.2480907440185547,-0.26420957,8.152058,5.4141307,0
16,990.4593505859375,0.03605194017291069,-0.0036356893833726645,0.055574800819158554,28.123390197753906,-26.044246673583984,-14.845003128051758,-0.18184293806552887,-0.16453075408935547,0.16453838348388672,-0.03480944,8.476184,5.1418996,0
16,990.4287109375,0.07413541525602341,-0.02813679724931717,0.07994283735752106,28.6245174407959,-26.36545753479004,-14.441522598266602,-0.07208660244941711,-0.04595375061035156,0.045119285583496094,-0.1901835,8.314122,5.170304,0
16,990.4440307617188,-0.038782235234975815,0.044966861605644226,0.011899249628186226,28.254018783569336,-26.501052856445312,-15.377290725708008,0.053949058055877686,0.048229217529296875,0.038324832916259766,-0.35750708,8.102012,5.326536,0
16,990.43115234375,-0.10349670052528381,0.02446049265563488,-0.018726950511336327,28.725120544433594,-26.533973693847656,-15.524946212768555,0.2452605813741684,0.24966096878051758,-0.0772542953491211,-0.37904668,7.968548,5.4732995,0
16,990.4386596679688,-0.1519659012556076,-0.014022198505699635,0.03986266627907753,28.53150177001953,-26.609878540039062,-15.567651748657227,-0.1418711096048355,0.0852060317993164,-0.5619049072265625,-0.030151471,8.078179,5.859151,0
16,990.4639282226562,-0.18445613980293274,-0.050507523119449615,0.12841282784938812,28.141111373901367,-25.658279418945312,-15.871114730834961,-0.052331820130348206,0.33748865127563477,-0.5304417610168457,-0.20942456,7.8398523,5.7620926,0
16,990.4766845703125,-0.13651899993419647,0.0557524636387825,0.08819925785064697,28.04977798461914,-25.37500762939453,-15.950601577758789,0.17064963281154633,0.2443699836730957,0.05391263961791992,-0.3050511,7.949484,5.402275,0
16,990.4508056640625,-0.06035235524177551,0.02699030376970768,0.08407148718833923,28.274402618408203,-25.217632293701172,-15.532514572143555,0.272902250289917,0.1876373291015625,-0.23563337326049805,-0.3791685,7.9089694,5.8946505,0
16,990.4508056640625,-0.1495678871870041,-0.08233241736888885,0.04199369624257088,27.670448303222656,-24.887310028076172,-15.99766731262207,0.32482248544692993,0.13805818557739258,-0.3349771499633789,-0.34813026,8.02575,5.8307333,0
16,990.4381713867188,-0.09856809675693512,-0.08486246317625046,0.027479611337184906,27.825153350830078,-25.532379150390625,-16.368684768676758,0.19306625425815582,-0.08852481842041016,-0.2919888496398926,-0.2501747,8.185431,5.9443564,0
16,990.4584350585938,-0.12093833088874817,-0.0762072429060936,-0.006076065823435783,27.86528778076172,-25.442066192626953,-16.457136154174805,0.30498385429382324,-0.09848690032958984,-0.1749897003173828,-0.52026415,8.044818,5.783384,0
17,990.4354248046875,-0.1233348697423935,-0.03945570066571236,-0.09049807488918304,28.206876754760742,-24.542503356933594,-16.947336196899414,0.7762396931648254,0.0667123794555664,-0.32958555221557617,-0.8238121,7.8517733,6.041406,0
17,990.4378051757812,-0.1503656506538391,-0.058364175260066986,-0.09928636997938156,27.826324462890625,-23.424137115478516,-16.49222755432129,0.6785154938697815,0.05270528793334961,-0.16216802597045898,-0.7378061,7.9780884,5.9277773,0
17,990.450439453125,-0.1117495596408844,-0.08832476288080215,-0.01100253313779831,27.57109832763672,-24.13719367980957,-16.488157272338867,0.6552523374557495,0.06500816345214844,-0.8046736717224121,-0.66135967,7.9185066,6.4698644,0
17,990.4678344726562,-0.15515875816345215,-0.18925851583480835,0.011101809330284595,27.46123504638672,-23.291473388671875,-17.1365909576416,0.6416738033294678,0.18637323379516602,-0.9410929679870605,-0.58934045,7.6706376,6.919662,0
17,990.470458984375,-0.17739750444889069,-0.1439846158027649,0.029077542945742607,27.302345275878906,-23.54532814025879,-17.55915641784668,0.5109593868255615,0.28527021408081055,-1.387430191040039,-0.44835275,7.575307,7.0972004,0
17,990.4729614257812,-0.04743683338165283,-0.05183906480669975,0.08966377377510071,27.117420196533203,-24.350444793701172,-17.79149055480957,0.44506898522377014,0.10731029510498047,-0.016514301300048828,-0.37189236,7.816019,6.010653,0
17,990.4549560546875,0.20582972466945648,0.060013581067323685,0.10937122255563736,27.068695068359375,-24.81788444519043,-17.140748977661133,0.3891146183013916,0.09131574630737305,-0.11452054977416992,-0.22851476,7.906583,5.8425803,0
17,990.4448852539062,0.3107583224773407,-0.05357017368078232,0.08433759212493896,26.357749938964844,-24.95706558227539,-16.638132095336914,0.28144046664237976,0.03425121307373047,0.07259130477905273,-0.23570092,8.035281,5.314693,0
17,990.4295654296875,0.262555330991745,0.05761668086051941,0.03174027428030968,26.63607406616211,-24.80204200744629,-16.3051700592041,0.33216357231140137,-0.0018396377563476562,0.8440704345703125,-0.18313959,8.137762,4.715789,0
17,990.4216918945312,-0.05475972592830658,-0.03559393063187599,-0.07571804523468018,26.935808181762695,-25.732738494873047,-16.681821823120117,0.15861466526985168,0.20403099060058594,-0.07878255844116211,-0.049321562,7.9757004,5.4401517,0
17,990.4216918945312,-0.05475972592830658,-0.03559393063187599,-0.07571804523468018,26.935808181762695,-25.732738494873047,-16.681821823120117,0.3169633448123932,0.2416682243347168,-0.12846708297729492,-0.29071817,7.8136377,5.7194796,0
17,990.4549560546875,-0.14291012287139893,0.014340275898575783,-0.10381431132555008,26.75672721862793,-25.53153419494629,-16.89695167541504,0.2617960274219513,0.2058711051940918,0.26117944717407227,-0.27400532,7.894669,5.283913,0
17,990.4547119140625,0.021540092304348946,-0.04464872181415558,-0.057075802236795425,27.076168060302734,-24.91643524169922,-16.82819938659668,0.23696289956569672,0.13709163665771484,0.11676311492919922,-0.16408633,7.8851366,5.660297,0
17,990.4671020507812,-0.07087136059999466,-0.04451558366417885,-0.027514668181538582,26.820697784423828,-24.629060745239258,-16.497713088989258,-0.005364870652556419,-0.044922828674316406,-0.13422489166259766,0.03425902,8.066266,5.7833896,0
17,990.4644775390625,-0.07819488644599915,-0.03306403011083603,-0.021256176754832268,27.132770538330078,-25.02175521850586,-16.368852615356445,-0.02677917666733265,-0.02282094955444336,-0.09821510314941406,0.027072847,8.001919,5.9064827,0
17,990.4669189453125,-0.12293579429388046,-0.017617736011743546,-0.06999191641807556,26.57131576538086,-24.335796356201172,-16.476442337036133,-0.13925941288471222,0.08627843856811523,-0.5728707313537598,0.05573517,7.7898064,6.420164,0
17,990.45947265625,-0.18085932731628418,-0.04291777312755585,-0.10221607238054276,27.050025939941406,-24.361351013183594,-17.010622024536133,0.1243448480963707,0.28804874420166016,-0.6070394515991211,-0.24540898,7.7111588,6.105325,0
17,990.4517822265625,-0.08285494148731232,0.019799595698714256,-0.08716915547847748,27.20655059814453,-24.372817993164062,-17.034067153930664,-0.008626170456409454,-0.24065542221069336,0.5469365119934082,0.09633052,8.209265,5.397529,0
17,990.45166015625,0.05802632495760918,-0.010560440830886364,0.00244620768353343,26.911083221435547,-24.069839477539062,-17.3142032623291,-0.29886260628700256,-0.29244327545166016,-0.4456300735473633,0.19191012,8.1187,6.3254714,0
17,990.4591674804688,-0.09164304286241531,-0.08592785894870758,-0.05148268863558769,26.862791061401367,-23.799224853515625,-16.93767738342285,-0.19650068879127502,-0.03963470458984375,-0.45213985443115234,0.1440956,7.973321,6.2284145,0
17,990.448974609375,-0.01654180698096752,-0.02281102165579796,-0.10554474592208862,27.217365264892578,-23.836284637451172,-16.45125389099121,-0.28477752208709717,-0.14097881317138672,-0.23678255081176758,0.12734973,7.978088,6.005896,0
17,990.4537963867188,0.035523105412721634,0.010744752362370491,-0.1196594163775444,27.290306091308594,-23.451194763183594,-17.63979148864746,-0.10729281604290009,-0.013791084289550781,-0.15580177307128906,-0.12599632,7.901823,5.9325113,0
17,990.4584350585938,0.05323342978954315,-0.005633726716041565,-0.13590455055236816,27.764312744140625,-23.587085723876953,-17.242982864379883,-0.07634575664997101,0.16229915618896484,-0.13689327239990234,-0.111673415,7.7945757,5.8922677,0
17,990.4584350585938,0.05323342978954315,-0.005633726716041565,-0.13590455055236816,27.682514190673828,-23.76917839050293,-16.9887638092041,-0.19480931758880615,0.09681844711303711,-0.02228832244873047,-0.12841922,7.825559,5.693421,0
17,990.4508056640625,0.07054412364959717,0.0154052022844553,-0.09356025606393814,27.3904972076416,-23.937463760375977,-16.6259822845459,-0.0648953914642334,0.07353782653808594,0.2259979248046875,-0.15472463,7.849392,5.5939965,0
18,990.443115234375,0.06295427680015564,-0.009495358914136887,-0.06919228285551071,27.59781265258789,-23.848304748535156,-17.279016494750977,-0.2726942002773285,0.09107160568237305,-0.380584716796875,-0.042415738,7.882758,6.0555997,0
18,990.4278564453125,0.012620736844837666,-0.03319749981164932,-0.05108274519443512,28.13657569885254,-24.450439453125,-16.7109317779541,-0.3276098370552063,0.03038644790649414,-0.1670856475830078,0.03882444,8.001923,5.8023076,0
18,990.43798828125,0.04218195751309395,0.0347130261361599,-0.05148214474320412,27.83667755126953,-24.04596519470215,-17.45823097229004,-0.4143700897693634,0.018833637237548828,-0.38188791275024414,0.088412106,7.9757214,5.975058,0
18,990.450439453125,0.05536475032567978,-0.03173281252384186,-0.08876629918813705,27.864639282226562,-23.967437744140625,-16.928247451782227,-0.4577082097530365,-0.016559123992919922,-0.3128089904785156,0.14274433,8.052002,5.9016166,0
18,990.4580078125,0.06575722247362137,0.012476555071771145,-0.08290128409862518,27.85162353515625,-24.243070602416992,-16.8331241607666,-0.5798507332801819,-0.1983957290649414,0.024566173553466797,0.19047898,8.173551,5.5631013,0
18,990.4330444335938,0.13207188248634338,0.01647097058594227,-0.09781412035226822,27.921241760253906,-24.072757720947266,-16.468896865844727,-0.45402416586875916,-0.06406879425048828,-0.10831165313720703,0.04702142,8.061538,5.591502,0
18,990.4296264648438,0.10863668471574783,-0.006831768900156021,-0.16332755982875824,28.163015365600586,-24.373384475708008,-16.103639602661133,-0.32416248321533203,0.034157752990722656,-0.18195152282714844,-0.2780686,7.9662085,5.5962305,0
18,990.4100341796875,0.04831674322485924,0.03458024933934212,-0.19355416297912598,28.904666900634766,-24.784862518310547,-16.655759811401367,-0.07950055599212646,0.16930627822875977,0.5608949661254883,-0.41913623,7.9066286,5.049401,0
18,990.4119873046875,0.08440316468477249,0.005152248777449131,-0.16319388151168823,28.715368270874023,-23.85592269897461,-16.603960037231445,-0.3133639693260193,-0.012286186218261719,-0.02073383331298828,-0.2758055,8.028176,5.804533,0
18,990.4221801757812,-0.01107046939432621,-0.14664790034294128,-0.09288623929023743,28.722976684570312,-23.848552703857422,-16.9904842376709,-0.1177164614200592,0.09989023208618164,-0.2937788963317871,-0.44794184,8.063927,5.617518,0
18,990.4600219726562,-0.00787406601011753,-0.05423639342188835,-0.00460225623100996,28.127338409423828,-23.35293197631836,-16.61976432800293,-0.12060993909835815,-0.3078145980834961,0.5829758644104004,-0.33806974,8.414271,4.9831023,0
18,990.4065551757812,0.09985131025314331,-0.1172201931476593,0.12109910696744919,28.60699462890625,-24.220989227294922,-16.257959365844727,-0.2250734567642212,-0.3153038024902344,0.08867406845092773,-0.14694095,8.390441,5.705093,0
18,990.3965454101562,-0.005209687165915966,-0.19525083899497986,0.17356359958648682,27.88385009765625,-24.79225730895996,-16.959924697875977,-0.1405039131641388,-0.1389150619506836,-0.5407528877258301,-0.2019721,8.144963,5.8755255,0
18,990.43408203125,0.009571455419063568,-0.08060196042060852,0.16823752224445343,27.369569778442383,-24.85259437561035,-16.5692081451416,0.07492461800575256,-0.032807350158691406,0.38877201080322266,-0.24744362,8.192631,4.9736156,0
18,990.44677734375,0.12848210334777832,0.02459271065890789,0.1795562207698822,27.080596923828125,-25.017934799194336,-16.361040115356445,-0.2555813193321228,-0.2339038848876953,0.4258127212524414,0.041671097,8.309413,5.207963,0
18,990.43408203125,0.04299531877040863,-0.013756874948740005,0.1441364735364914,27.23809814453125,-24.659631729125977,-16.560243606567383,-0.005952358245849609,0.1402273178100586,0.0569148063659668,-0.22606128,7.918557,5.3925986,0
18,990.4337158203125,-0.13050886988639832,0.145233616232872,0.035213541239500046,27.479873657226562,-24.960262298583984,-16.19498634338379,-0.11771632730960846,0.19478797912597656,0.13735437393188477,-0.058831543,7.8518267,5.5511956,0
18,990.436279296875,-0.11586087942123413,0.13058613240718842,0.03348274528980255,27.47530746459961,-24.964683532714844,-15.963068008422852,-0.2650545835494995,0.2796611785888672,-0.08541393280029297,0.03909102,7.751731,5.591432,0
18,990.4768676757812,-0.07764395326375961,0.12992024421691895,0.024428270757198334,27.873741149902344,-25.170862197875977,-16.320337295532227,-0.376899391412735,0.3863186836242676,0.2106952667236328,0.13940352,7.611119,5.3215656,0
18,990.436279296875,-0.0586017407476902,0.1564185917377472,0.02349642664194107,27.807600021362305,-24.600170135498047,-17.11338233947754,-0.4813338816165924,0.4745926856994629,0.5038661956787109,0.19908768,7.587288,5.0990424,0
18,990.4413452148438,-0.07764272391796112,0.08730950951576233,0.03681248053908348,28.339189529418945,-24.471616744995117,-16.432981491088867,-0.4933663010597229,0.2726755142211914,0.43111228942871094,0.14166665,7.766035,5.3215537,0
18,990.4261474609375,-0.17964108288288116,0.021396225318312645,0.03987537696957588,27.86409568786621,-23.599143981933594,-17.026697158813477,-0.12494899332523346,0.1963939666748047,0.39884471893310547,-0.20971234,7.7374377,5.4990883,0
18,990.430908203125,-0.2745821177959442,0.042168766260147095,0.017371946945786476,28.228483200073242,-23.889741897583008,-17.6047306060791,-0.1553463488817215,-0.06405305862426758,-0.2290201187133789,0.045943767,8.023432,6.154797,0
18,990.4482421875,-0.2964194118976593,-0.04624820873141289,0.09127486497163773,27.943828582763672,-23.050233840942383,-17.30205726623535,-0.4559059739112854,-0.38222169876098633,-0.27012205123901367,0.20600381,8.171197,6.251847,0
18,990.4435424804688,-0.25300928950309753,-0.010029344819486141,0.07849196344614029,27.822467803955078,-22.478675842285156,-17.93267250061035,-0.28856754302978516,-0.326993465423584,-0.4169578552246094,0.07927561,8.073484,6.429382,0
19,990.4482421875,-0.21625709533691406,-0.001773651922121644,-3.372740466147661E-4,27.58786964416504,-22.908729553222656,-18.410242080688477,-0.27195248007774353,-0.25307321548461914,-0.2746419906616211,-0.021163642,7.8875895,6.384398,0
19,990.4607543945312,-0.18150223791599274,0.04176889359951019,-0.05333387479186058,27.784969329833984,-22.091829299926758,-18.796358108520508,-0.14179594814777374,-0.07919454574584961,-0.31014537811279297,-0.12399283,7.7445946,6.337049,0
19,990.4104614257812,-0.14448373019695282,0.05881301313638687,-0.07104361802339554,28.165576934814453,-21.57762908935547,-18.50016975402832,-0.11773297190666199,-0.06907129287719727,0.2725858688354492,-0.19655633,7.677826,5.9039903,0
19,990.4376220703125,-0.03423212096095085,0.015004564076662064,-0.0759718120098114,28.14136505126953,-21.495283126831055,-17.962366104125977,-0.09860280156135559,-0.013107776641845703,-0.31391000747680664,-0.21806546,7.594411,6.6899014,0
19,990.4178466796875,-0.16580326855182648,-0.014421538449823856,-0.06878604739904404,28.172508239746094,-21.307891845703125,-18.286073684692383,-0.12664705514907837,0.16182756423950195,-0.6758246421813965,-0.14875829,7.4394975,6.786957,0
19,990.4454956054688,-0.06606797128915787,-0.07434261590242386,-0.05080972611904144,28.095821380615234,-21.853858947753906,-18.16532325744629,-0.2054053544998169,0.05951881408691406,-0.29014062881469727,-0.10335016,7.5324454,6.3419228,0
19,990.4524536132812,-0.048091642558574677,-0.002836798084899783,-0.04561656713485718,28.356290817260742,-21.398757934570312,-19.001935958862305,-0.11135658621788025,0.02993297576904297,0.1908731460571289,-0.24196447,7.513379,6.017616,0
19,990.4524536132812,-0.048091642558574677,-0.002836798084899783,-0.04561656713485718,28.356290817260742,-21.398757934570312,-19.001935958862305,0.03716111183166504,0.1997838020324707,0.219146728515625,-0.33517063,7.4013653,6.105202,0
19,990.4246826171875,-0.05980953946709633,-0.06582050025463104,-0.09528446942567825,28.095413208007812,-21.37965202331543,-18.962854385375977,0.009094953536987305,0.09891843795776367,-0.0825190544128418,-0.41881722,7.3846827,6.365595,0
19,990.4146728515625,-0.11693429946899414,-0.055301032960414886,-0.11765500158071518,28.64374351501465,-21.234893798828125,-19.132802963256836,0.16150763630867004,0.1308121681213379,-0.1372213363647461,-0.5024638,7.3942156,6.554971,0
19,990.4371337890625,-0.12558956444263458,-0.041053131222724915,-0.11845395714044571,28.35172462463379,-21.40317726135254,-18.770017623901367,0.14674252271652222,-0.021094799041748047,-0.320465087890625,-0.5096335,7.460947,6.746714,0
19,990.4473266601562,-0.11387167125940323,-0.0703478753566742,-0.09701553732156754,28.21278190612793,-21.11166000366211,-19.0736026763916,0.20660299062728882,-0.10698223114013672,-0.11636543273925781,-0.66736704,7.503846,6.351392,0
19,990.4267578125,-0.03797164186835289,-0.05729839205741882,-0.09488499909639359,28.318950653076172,-20.485692977905273,-18.741666793823242,0.4909899830818176,0.08730649948120117,0.2933526039123535,-0.9398158,7.377532,6.1170382,0
19,990.4393310546875,-0.04156690463423729,-0.08432945609092712,-0.07384604215621948,28.011585235595703,-19.982669830322266,-19.801523208618164,0.5278525948524475,0.028661727905273438,0.05824708938598633,-0.8418299,7.3942156,6.353759,0
19,990.4317626953125,-0.06353796273469925,-0.14691369235515594,0.021361881867051125,28.047698974609375,-20.265066146850586,-19.55961036682129,0.3984944820404053,-0.10779809951782227,0.13335466384887695,-0.6745367,7.563428,6.299313,0
19,990.4267578125,-0.07259270548820496,-0.125608429312706,0.0923350602388382,27.683448791503906,-19.868555068969727,-19.68065071105957,0.3860272169113159,-0.16148948669433594,0.01199197769165039,-0.62434876,7.5276794,6.488689,0
19,990.4540405273438,-0.06287217885255814,-0.15437054634094238,0.0882071703672409,27.010414123535156,-20.076828002929688,-20.411577224731445,0.3286803960800171,-0.14736366271972656,-0.23507356643676758,-0.48812437,7.5467453,6.692269,0
19,990.4589233398438,-0.03877058997750282,-0.15703369677066803,0.08581031858921051,26.7534236907959,-19.79092788696289,-20.003782272338867,0.3840590715408325,-0.14116382598876953,-0.22836637496948242,-0.5550416,7.47048,6.6567607,0
19,990.43603515625,-0.07219323515892029,-0.04691208526492119,0.053852420300245285,26.832717895507812,-19.980070114135742,-20.00493049621582,0.4880577325820923,-0.13391542434692383,-0.15225839614868164,-0.58850026,7.5252953,6.685167,0
19,990.4485473632812,-0.05435006693005562,-0.038656286895275116,0.061708737164735794,26.597442626953125,-20.147756576538086,-19.88188362121582,0.4115959703922272,-0.3216867446899414,-0.11352920532226562,-0.4498859,7.6778255,6.554971,0
19,990.438720703125,0.05670364946126938,-0.08033471554517746,0.10352032631635666,26.695405960083008,-20.793424606323242,-20.013166427612305,0.3246513605117798,-0.2014317512512207,0.047846317291259766,-0.30649182,7.5658116,6.4105716,0
19,990.4435424804688,0.0922568216919899,-0.08126682788133621,0.12562455236911774,25.889543533325195,-20.28399658203125,-19.533876419067383,0.17498672008514404,-0.09567499160766602,-0.08406209945678711,-0.09140064,7.501463,6.545502,0
19,990.3983154296875,0.07294891774654388,-0.09205262362957001,0.1229613870382309,26.29917335510254,-20.848154067993164,-20.333826065063477,0.10919594019651413,-0.011854171752929688,-0.09956502914428711,0.011365145,7.4037485,6.533666,0
19,990.4613037109375,0.06695681065320969,-0.07966893166303635,0.09087032079696655,25.84109115600586,-20.539600372314453,-20.28129768371582,5.489364266395569E-4,0.1042022705078125,-0.2456951141357422,0.13802993,7.317951,6.630721,0
20,990.4309692382812,0.04232259839773178,-0.07274471968412399,0.04186820238828659,25.829458236694336,-20.919673919677734,-19.564401626586914,-0.02225053310394287,0.12766456604003906,-0.1666245460510254,0.14519966,7.303651,6.531299,0
20,990.4434814453125,0.04112417250871658,-0.04211839288473129,-0.007799707353115082,25.446243286132812,-20.69877052307129,-19.980180740356445,-0.00940653681755066,0.11829853057861328,-0.060305118560791016,0.11652082,7.3465495,6.332454,0
20,990.4203491210938,0.05856786295771599,-0.03892260044813156,-0.06532393395900726,25.99816131591797,-20.919353485107422,-20.2062931060791,0.11448284238576889,0.2032299041748047,0.2606635093688965,-0.08028127,7.2536225,6.1785097,0
20,990.4353637695312,0.042455755174160004,-0.030400492250919342,-0.14149028062820435,25.712228775024414,-21.08174705505371,-20.152727127075195,0.27724921703338623,0.2545356750488281,-0.09638738632202148,-0.2269459,7.210746,6.5003686,0
20,990.447998046875,-0.028910083696246147,-0.05583314225077629,-0.17317606508731842,25.83318328857422,-21.17910385131836,-20.319639205932617,0.18407347798347473,0.21855497360229492,-0.21450376510620117,-0.1314171,7.246496,6.6873717,0
20,990.447998046875,-0.044749289751052856,-0.06435631960630417,-0.16465112566947937,25.4342041015625,-20.604631423950195,-20.060823440551758,0.10704342275857925,0.16652870178222656,-0.4720625877380371,-0.16255307,7.2298145,6.914617,0
20,990.465576171875,-0.06991549581289291,-0.07354432344436646,-0.18116243183612823,26.028484344482422,-20.57550811767578,-19.230287551879883,0.15908275544643402,0.2539634704589844,-0.541283130645752,-0.2175881,7.136868,6.9785247,0
20,990.44775390625,-0.07098010927438736,-0.05863073468208313,-0.18728742003440857,26.34197235107422,-19.860382080078125,-19.5513973236084,0.14284217357635498,0.21610403060913086,-0.5640316009521484,-0.19853616,7.2107515,6.973785,0
20,990.4503784179688,-0.02211049571633339,-0.10190717875957489,-0.16571557521820068,25.687908172607422,-19.89305305480957,-19.987585067749023,-0.028278008103370667,0.1832599639892578,-0.43084144592285156,-0.021750659,7.217903,6.888559,0
20,990.4397583007812,-0.027436163276433945,-0.08552885055541992,-0.13122738897800446,25.669376373291016,-19.330608367919922,-20.556528091430664,-0.21058078110218048,0.1796875,-0.5160541534423828,0.13830549,7.167856,6.9619365,0
20,990.4804077148438,-0.01944603957235813,-0.12174791097640991,-0.1260339468717575,25.43714141845703,-19.495349884033203,-20.58808708190918,-0.35794758796691895,0.30495405197143555,-0.498629093170166,0.2601232,7.0963593,7.014008,0
20,990.4447631835938,0.02036883309483528,-0.13772697746753693,-0.11964208632707596,26.011070251464844,-19.53738021850586,-20.6740665435791,-0.4697498381137848,0.2221388816833496,-0.5374441146850586,0.35804194,7.1702423,6.77018,0
20,990.4447631835938,0.08947844803333282,-0.11056286096572876,-0.12257127463817596,25.422060012817383,-19.404163360595703,-20.514116287231445,-0.3375636339187622,0.34882593154907227,0.18628168106079102,0.1596128,7.1058955,6.1973114,0
20,990.4140014648438,0.1519308239221573,-0.1125604435801506,-0.14014758169651031,25.20629119873047,-19.764530181884766,-19.997873306274414,-0.40238088369369507,0.043714046478271484,0.07599544525146484,0.21690315,7.346608,6.2493834,0
20,990.4217529296875,0.1332893669605255,-0.10776686668395996,-0.14520730078220367,25.237136840820312,-20.209278106689453,-20.74644660949707,-0.17527899146080017,-0.204620361328125,0.051184654235839844,0.06627211,7.7255516,6.2209706,0
20,990.4217529296875,0.1332893669605255,-0.10776686668395996,-0.14520730078220367,25.237136840820312,-20.209278106689453,-20.74644660949707,0.04845423996448517,-0.13152599334716797,0.1421961784362793,-0.35441795,7.720786,6.007917,0
20,990.4344482421875,0.0627162978053093,-0.04851168394088745,-0.186086505651474,25.53746795654297,-19.875696182250977,-20.27335548400879,0.09516982734203339,-0.31673097610473633,0.47842836380004883,-0.15851328,7.8614016,5.8942847,0
20,990.4293212890625,-0.05605993792414665,-0.06928442418575287,-0.13774989545345306,25.315208435058594,-19.76775360107422,-20.245424270629883,0.13513770699501038,0.09228849411010742,-0.7035703659057617,-0.24939677,7.513444,6.8340573,0
