Timestamp,P,Gx,Gy,Gz,Mx,My,Mz,LiAx,LiAy,LiAz,Ax,Ay,Az,earthAx,earthAy,earthAz,Value,Type
0,987.9801025390625,-6.220589275471866E-4,0.0018524890765547752,6.62809528876096E-4,-1.5160102844238281,20.46135902404785,-37.71315383911133,-0.00445164367556572,0.0070047527551651,0.05762195587158203,0.05629629,-0.15545873,9.765933,4.2145195,-1.4923995,8.683972,0
0,987.9801025390625,0.0012972980039194226,0.0010629973839968443,-2.3604172747582197E-4,-4.676394462585449,21.505151748657227,-36.671348571777344,-4.887431859970093E-4,0.3003377616405487,0.047631263732910156,0.05871409,-0.15307604,9.761202,-0.05377901,-0.290011,9.758123,0
0,987.9434204101562,2.31765559874475E-4,-2.685384242795408E-4,5.627906648442149E-4,-4.891183853149414,21.514543533325195,-36.33086395263672,7.618218660354614E-6,0.28440719842910767,0.04765033721923828,0.051572293,-0.1483102,9.763571,-0.05772715,-0.2826594,9.76057,0
0,987.955810546875,-4.34292946010828E-4,-8.011265890672803E-4,-1.0311423102393746E-4,-4.785853862762451,21.876665115356445,-36.522254943847656,2.4569034576416016E-4,0.282720148563385,0.05713939666748047,0.056380033,-0.14354436,9.754105,-0.053599454,-0.27681512,9.751248,0
0,987.9662475585938,2.3122760467231274E-4,-5.347669357433915E-4,-1.0322954040020704E-4,-4.759032249450684,21.0592098236084,-36.940460205078125,-0.004519481211900711,0.28597962856292725,0.05242347717285156,0.06357765,-0.14831163,9.7588415,-0.047542587,-0.28151447,9.756,0
0,987.9736328125,8.967482717707753E-4,2.642243343871087E-4,4.292869125492871E-4,-4.769685745239258,21.048898696899414,-36.39932632446289,-0.014113590121269226,0.27020636200904846,0.05717658996582031,0.06121564,-0.1435457,9.751741,-0.046654142,-0.275159,9.748996,0
0,987.9335327148438,-1.6878428868949413E-4,5.305837839841843E-4,5.623295437544584E-4,-4.770771503448486,21.785478591918945,-36.59622573852539,-0.009475309401750565,0.301999568939209,0.042992591857910156,0.061243594,-0.16499586,9.765948,-0.053736877,-0.29429072,9.762953,0
0,987.9713745117188,3.63578787073493E-4,1.3115370529703796E-4,8.285301737487316E-4,-5.058768272399902,21.989900588989258,-36.563812255859375,-1.2283772230148315E-4,0.28636103868484497,0.057213783264160156,0.04932192,-0.14593033,9.765951,-0.060301065,-0.27200466,9.763192,0
0,987.9892578125,2.301516942679882E-4,2.64355301624164E-4,4.289410717319697E-4,-4.970341682434082,21.809606552124023,-37.02879333496094,0.004341401159763336,0.28467467427253723,0.05249977111816406,0.046959937,-0.14831434,9.761219,-0.06119073,-0.27248582,9.758463,0
0,987.9818725585938,-3.0274910386651754E-4,9.301886893808842E-4,1.6250991029664874E-4,-4.738542556762695,21.23628807067871,-36.72303009033203,-0.005295313894748688,0.2734251618385315,0.04778480529785156,0.056547463,-0.15069832,9.763589,-0.05158692,-0.27521127,9.760899,0
0,987.9669189453125,-1.6986008267849684E-4,1.3128473074175417E-4,-6.365529843606055E-4,-4.755009174346924,21.431921005249023,-37.27082824707031,-0.009581733494997025,0.28107786178588867,0.038336753845214844,0.05418545,-0.15308218,9.763592,-0.054276206,-0.2751723,9.760913,0
0,987.9592895507812,-9.690765291452408E-4,-0.001866040751338005,1.622794079594314E-4,-4.654681205749512,21.05156898498535,-36.956092834472656,-0.009383592754602432,0.2794860005378723,0.047821998596191406,0.06138307,-0.15308289,9.768329,-0.04902533,-0.27476487,9.765734,0
0,987.96435546875,2.2907578386366367E-4,1.3137204223312438E-4,-5.036256625317037E-4,-4.809685707092285,21.064504623413086,-37.00994873046875,7.020682096481323E-5,0.278114914894104,0.033634185791015625,0.0542413,-0.15308361,9.773066,-0.054719787,-0.2721996,9.770472,0
0,987.9566650390625,2.2880674805492163E-4,-2.6805815286934376E-4,2.889090683311224E-5,-4.684303283691406,20.865652084350586,-36.709693908691406,-2.6173144578933716E-4,0.28108084201812744,0.04785919189453125,0.056659102,-0.15070106,9.756497,-0.04529637,-0.26952136,9.753999,0
0,987.9694213867188,-3.040940500795841E-4,9.304070845246315E-4,2.950914786197245E-4,-4.285568714141846,21.291608810424805,-36.64209747314453,0.004138171672821045,0.2794730067253113,0.052613258361816406,0.049517274,-0.15785153,9.7565,-0.062646896,-0.2716736,9.753919,0
0,987.927001953125,2.282689092680812E-4,0.0014630825025960803,-1.0449759429320693E-4,-5.124802589416504,21.454248428344727,-36.984195709228516,-0.00977012887597084,0.27825653553009033,0.04315471649169922,0.066274464,-0.14831908,9.763604,-0.040939666,-0.2654147,9.761264,0
0,987.927001953125,2.282689092680812E-4,0.0014630825025960803,-1.0449759429320693E-4,-4.832920074462891,21.516618728637695,-36.64790344238281,-0.004260845482349396,0.26722589135169983,0.04790019989013672,0.059132695,-0.1578529,9.76124,-0.051475685,-0.27140683,9.758786,0
0,987.9393310546875,7.606317522004247E-4,-0.0021321382373571396,4.280188586562872E-4,-4.935749053955078,21.525728225708008,-36.70957565307617,0.010259479284286499,0.2563086748123169,0.04317951202392578,0.04721111,-0.14355399,9.773077,-0.05798594,-0.25414658,9.77077,0
0,987.960205078125,-1.7174298409372568E-4,-0.0013331470545381308,-2.3788615362718701E-4,-4.857540130615234,22.07317543029785,-36.907630920410156,-0.014050822705030441,0.26422685384750366,0.03846263885498047,0.061578453,-0.15070446,9.765979,-0.03780829,-0.2635536,9.763705,0
0,987.9551391601562,-4.385968204587698E-4,0.001196941128000617,2.8199225198477507E-5,-4.479623794555664,20.4776554107666,-36.41059494018555,-0.009104758501052856,0.2673622667789459,0.033743858337402344,0.056826532,-0.15308835,9.765982,-0.049118705,-0.26232117,9.7637,0
0,987.9501342773438,4.932398442178965E-4,-0.0011998580303043127,-0.0011703376658260822,-4.869172096252441,21.69309425354004,-36.190738677978516,-0.013715092092752457,0.2657904624938965,0.038494110107421875,0.059244394,-0.1507058,9.773086,-0.04780306,-0.2586821,9.770887,0
0,987.9677124023438,-7.054506568238139E-4,2.649229427333921E-4,2.7968722861260176E-5,-4.702428340911865,20.953889846801758,-36.48111343383789,-0.01271645724773407,0.24520441889762878,0.03387451171875,0.058162272,-0.14591272,9.76115,-0.047273777,-0.25223327,9.759042,0
0,987.9680786132812,-3.595813177525997E-5,-1.9940489437431097E-6,-6.362340063787997E-4,-4.432558059692383,20.837705612182617,-36.284950256347656,0.0012581348419189453,0.26270079612731934,0.05756855010986328,0.053366005,-0.15067883,9.756414,-0.049445957,-0.25496423,9.754266,0
0,987.98291015625,-4.525778931565583E-4,0.0013559868093580008,-2.590654185041785E-4,-4.908330917358398,21.972551345825195,-36.278038024902344,-0.008316230028867722,0.24183404445648193,0.033916473388671875,0.055739373,-0.13876207,9.7658825,-0.04707695,-0.24159366,9.763926,0
0,987.94775390625,-0.00111820874735713,-2.4193446733988822E-4,-2.5899731554090977E-4,-4.492205619812012,20.94007682800293,-36.58968734741211,0.0059601664543151855,0.2401592880487442,0.052875518798828125,0.055722922,-0.1363784,9.7564125,-0.043979608,-0.23795724,9.754522,0
1,987.9783325195312,-5.2786257583647966E-5,-1.0880235640797764E-4,4.0686046122573316E-4,-4.453887939453125,20.39677619934082,-37.02570724487305,0.006045129150152206,0.25788968801498413,0.015015602111816406,0.041366994,-0.1530609,9.780082,-0.062117573,-0.25018698,9.77797,0
1,987.9732666015625,-5.26273506693542E-5,5.569616332650185E-4,6.732444744557142E-4,-4.935749053955078,21.525732040405273,-36.709571838378906,-0.00370020791888237,0.25662848353385925,0.05764198303222656,0.05807984,-0.14114417,9.761143,-0.04544188,-0.24000847,9.759279,0
1,987.9680786132812,4.801634349860251E-4,4.237778193783015E-4,-1.2563506606966257E-4,-5.038034915924072,21.16655921936035,-36.672794342041016,0.010481372475624084,0.25507068634033203,0.062394142150878906,0.04611382,-0.1506768,9.756407,-0.06059614,-0.24479285,9.754419,0
1,987.9884643554688,-3.1862518517300487E-4,2.905940928030759E-4,-6.581987254321575E-4,-5.122439384460449,21.719568252563477,-36.538177490234375,9.240582585334778E-4,0.24417315423488617,0.043473243713378906,0.05565694,-0.15544303,9.763507,-0.051665526,-0.25036332,9.761556,0
1,987.9738159179688,-5.2150513511151075E-5,-1.0890552948694676E-4,1.408170210197568E-4,-5.081621170043945,21.547510147094727,-37.22726058959961,-0.023091323673725128,0.23795709013938904,0.03875446319580078,0.06758997,-0.14590947,9.754037,-0.037368204,-0.2422067,9.752285,0
1,987.9613647460938,-5.199149018153548E-5,8.231742540374398E-4,-3.917465219274163E-4,-4.870992660522461,21.05948829650879,-36.538299560546875,-0.01372355967760086,0.23148304224014282,0.043509483337402344,0.06279367,-0.13875924,9.761137,-0.0389956,-0.2327999,9.759472,0
1,987.9686279296875,-7.176222861744463E-4,1.5735873603262007E-4,1.4095334336161613E-4,-4.956238746643066,21.348649978637695,-36.92700958251953,-0.018049094825983047,0.25410836935043335,0.048254966735839844,0.06277719,-0.15544172,9.763503,-0.042960048,-0.24781275,9.761703,0
1,987.9432983398438,4.809582023881376E-4,-2.4214090080931783E-4,-3.9161043241620064E-4,-4.448183059692383,21.297182083129883,-36.30942916870117,-0.008657153695821762,0.22890381515026093,0.024598121643066406,0.060370773,-0.14352496,9.775337,-0.03727181,-0.23532689,9.773673,0
1,987.9893188476562,-5.841462989337742E-4,9.562547784298658E-4,4.074054304510355E-4,-4.64041805267334,21.116838455200195,-35.73036193847656,-0.00896986573934555,0.22743386030197144,0.05302238464355469,0.05318457,-0.1435246,9.756397,-0.0460198,-0.23193885,9.754734,0
1,987.9537963867188,-1.8451368669047952E-4,5.567551124840975E-4,-1.2515822891145945E-4,-4.973821640014648,21.068601608276367,-36.5999755859375,-0.013664573431015015,0.2402837574481964,0.0388336181640625,0.060337782,-0.14829077,9.758764,-0.04334037,-0.23602661,9.757128,0
1,987.9710693359375,7.477509207092226E-4,-3.7537625757977366E-4,1.4122575521469116E-4,-5.148335933685303,21.27422523498535,-37.047019958496094,-0.0040737539529800415,0.24397732317447662,0.057784080505371094,0.055541515,-0.15305685,9.756395,-0.05014852,-0.2382944,9.754714,0
1,987.9913940429688,3.4843600587919354E-4,-1.0908614785876125E-4,-1.250219065696001E-4,-4.948224067687988,20.881811141967773,-36.51600646972656,6.701089441776276E-4,0.24300417304039001,0.05779552459716797,0.057914913,-0.15305643,9.761127,-0.046478808,-0.23815186,9.759484,0
1,987.973876953125,3.4859502920880914E-4,5.566776962950826E-4,-6.57585565932095E-4,-4.492748260498047,21.30837059020996,-36.68813705444336,0.01014084741473198,0.2320028841495514,0.03887176513671875,0.055508494,-0.1411397,9.772963,-0.045419436,-0.22478019,9.771449,0
1,987.9791870117188,-4.5019370736554265E-4,-1.0913773439824581E-4,-1.248857588507235E-4,-4.990287780761719,21.26423454284668,-37.14777374267578,3.193095326423645E-4,0.2398783415555954,0.05309295654296875,0.055492043,-0.1578222,9.754023,-0.051067438,-0.23879112,9.7524,0
1,987.9566040039062,-5.831927410326898E-4,9.56099946051836E-4,-7.906073005869985E-4,-5.386221885681152,21.841646194458008,-37.04356384277344,3.587454557418823E-5,0.24798451364040375,0.019967079162597656,0.05786544,-0.14590539,9.77296,-0.040480502,-0.22751774,9.771487,0
1,987.9613647460938,4.822298069484532E-4,9.560742182657123E-4,1.4156638644635677E-4,-4.735498905181885,21.23923683166504,-36.87763977050781,-0.009767051786184311,0.25146549940109253,0.05785655975341797,0.062628746,-0.15782143,9.765856,-0.04281358,-0.23804706,9.764336,0
1,987.98681640625,-3.165590460412204E-4,8.228904334828258E-4,-5.241553299129009E-4,-5.349266052246094,21.823091506958008,-36.27833557128906,-0.005239319056272507,0.25007933378219604,0.04366874694824219,0.05783242,-0.16497083,9.765855,-0.04517512,-0.24328509,9.764284,0
1,987.9541015625,-4.4955784687772393E-4,0.0010891803540289402,4.080185608472675E-4,-5.079938888549805,22.075197219848633,-36.18061828613281,-0.005292888730764389,0.23450735211372375,0.06261825561523438,0.05542606,-0.15305401,9.763486,-0.04807561,-0.22919433,9.762033,0
1,987.9722290039062,2.1639064652845263E-4,-2.4242469226010144E-4,1.4177069533616304E-4,-5.308586597442627,21.545114517211914,-36.268333435058594,-0.005149077624082565,0.22830507159233093,0.05789661407470703,0.060189366,-0.15305369,9.765852,-0.03731507,-0.22992057,9.764459,0
1,987.9642944335938,-4.9766211304813623E-5,1.5702328528277576E-4,1.4183891471475363E-4,-4.611638069152832,21.038908004760742,-36.50007629394531,-0.015040978789329529,0.21292346715927124,0.024766921997070312,0.06495267,-0.14352007,9.768218,-0.030668087,-0.2205176,9.766952,0
1,987.9823608398438,6.161825149320066E-4,0.0012222611112520099,-5.238828016445041E-4,-4.6441650390625,20.955961227416992,-36.79814910888672,-0.015584316104650497,0.2258024513721466,0.034252166748046875,0.053815305,-0.14592339,9.765924,-0.0410463,-0.21932903,9.764613,0
1,987.9769287109375,-4.4892210280522704E-4,0.0013553930912166834,-5.238144658505917E-4,-4.683323860168457,21.235414505004883,-36.88545227050781,-0.0029893219470977783,0.21980604529380798,0.057781219482421875,0.054677844,-0.14832772,9.754168,-0.03992783,-0.2206234,9.7528715,0
1,987.9693603515625,7.619336247444153E-5,-1.1111010098829865E-4,4.0031110984273255E-4,-4.570820331573486,20.866846084594727,-37.18916320800781,-0.022082753479480743,0.23293299973011017,0.048316001892089844,0.069067985,-0.16024543,9.766008,-0.028377395,-0.23410657,9.76472,0
1,987.9641723632812,2.0489923190325499E-4,-2.435453061480075E-4,-4.005446098744869E-4,-4.617725849151611,21.03301429748535,-36.190860748291016,-0.0031770840287208557,0.21262142062187195,0.05779075622558594,0.05477932,-0.14594693,9.75181,-0.04039087,-0.21565935,9.750588,0
2,987.9671020507812,3.375683445483446E-4,0.001487587345764041,-1.2802775017917156E-6,-4.769685745239258,21.048898696899414,-36.399322509765625,-0.022691000252962112,0.22566792368888855,0.034125328063964844,0.06916946,-0.15309806,9.768385,-0.028399453,-0.22450092,9.767209,0
2,987.9671020507812,3.375683445483446E-4,0.001487587345764041,-1.2802775017917156E-6,-4.983358383178711,21.533971786499023,-36.93367385864258,-0.013049006462097168,0.2194053828716278,0.04360008239746094,0.059660614,-0.14118291,9.763655,-0.028819282,-0.21023172,9.762551,0
2,987.9896850585938,-1.955527113750577E-4,1.5608739340677857E-4,-1.4899997040629387E-6,-4.262876987457275,21.207788467407227,-37.102596282958984,-0.008492279797792435,0.22779323160648346,0.04833793640136719,0.06449115,-0.15786712,9.761293,-0.031210858,-0.22585355,9.76012,0
2,987.9616088867188,-6.288348231464624E-5,9.551141993142664E-4,-1.6994890756905079E-6,-4.626039505004883,20.86772346496582,-37.0267333984375,-0.022603999823331833,0.21687114238739014,0.04834175109863281,0.066931784,-0.14356868,9.766031,-0.024749909,-0.21111804,9.765002,0
2,987.964599609375,-1.970196608453989E-4,-5.0946424016729E-4,-5.347504047676921E-4,-4.741586685180664,21.233339309692383,-36.56841278076172,-0.0039199404418468475,0.20170658826828003,0.057814598083496094,0.055033028,-0.14356996,9.758934,-0.03735128,-0.20765536,9.757865,0
2,987.9722290039062,0.0015335442731156945,0.001088510500267148,-2.6864418759942055E-4,-4.8884382247924805,20.88535499572754,-36.91034698486328,-0.023063328117132187,0.2336026132106781,0.02941417694091797,0.052693844,-0.16025408,9.76604,-0.045070805,-0.2216564,9.764878,0
2,987.964599609375,-9.969454258680344E-4,5.559580167755485E-4,-5.351697327569127E-4,-4.855910301208496,20.96830177307129,-36.612274169921875,-0.013566970825195312,0.20383262634277344,0.03888511657714844,0.06469411,-0.14118917,9.768412,-0.028522234,-0.20459437,9.767464,0
2,987.9696655273438,-1.984869595617056E-4,1.5656359028071165E-4,-4.0222122333943844E-4,-4.651637554168701,21.054513931274414,-37.11070251464844,-0.02783413603901863,0.21674314141273499,0.03415393829345703,0.071914524,-0.15787329,9.768417,-0.022641655,-0.22130388,9.767425,0
2,987.9442749023438,-1.989757874980569E-4,-3.7598871858790517E-4,1.3020093319937587E-4,-4.349239349365234,21.021272659301758,-36.6164665222168,-0.008858047425746918,0.2107136845588684,0.048361778259277344,0.060015798,-0.14595826,9.758953,-0.028723598,-0.20633298,9.758006,0
2,987.9671020507812,-1.9946484826505184E-4,8.225121418945491E-4,-5.357983754947782E-4,-4.57843017578125,20.85948371887207,-36.802635192871094,-0.013672474771738052,0.2142637073993683,0.04836463928222656,0.057676613,-0.15310921,9.761325,-0.034702905,-0.21132356,9.760347,0
2,987.9649658203125,-6.679596845060587E-5,1.5680183423683047E-4,-3.3762771636247635E-6,-4.950287818908691,21.248628616333008,-36.537147521972656,-0.013627223670482635,0.2272331565618515,0.038898468017578125,0.06250715,-0.15072729,9.76133,-0.032030743,-0.20826101,9.76042,0
2,987.9722290039062,-6.728467997163534E-5,-3.7575062015093863E-4,-2.6990147307515144E-4,-5.04300594329834,21.6363468170166,-37.23841094970703,-0.008907441049814224,0.19730006158351898,0.0625753402709961,0.062557876,-0.14357866,9.761333,-0.030163534,-0.19999452,9.760494,0
2,987.9442138671875,-0.0014688032679259777,3.209843998774886E-4,1.3172946637496352E-4,-4.854632377624512,21.970197677612305,-36.363162994384766,-0.013563498854637146,0.21496060490608215,0.029438018798828125,0.06499851,-0.15549631,9.780275,-0.028017394,-0.21116294,9.7794075,0
2,987.9295043945312,1.2860307469964027E-4,-7.441998459398746E-4,1.315198023803532E-4,-4.811750411987305,21.43132209777832,-37.031097412109375,-0.008513394743204117,0.2041982114315033,0.053109169006347656,0.05309975,-0.14834769,9.763711,-0.03873288,-0.20026085,9.762853,0
2,987.964599609375,2.6127195451408625E-4,-7.833068957552314E-5,-4.0132139110937715E-4,-4.717372894287109,21.1509952545166,-37.10621643066406,-0.01317146047949791,0.18413589894771576,0.05784416198730469,0.0603202,-0.1364326,9.756614,-0.028804239,-0.1891256,9.755878,0
2,987.9619750976562,-2.718487521633506E-4,-0.0010103569366037846,-1.352151739411056E-4,-4.74655818939209,21.7031307220459,-37.134033203125,-0.012823347002267838,0.2060476541519165,0.03890800476074219,0.06515074,-0.14835016,9.770821,-0.02597791,-0.20045792,9.770073,0
2,987.9750366210938,-4.0549563709646463E-4,-3.4448783844709396E-4,-1.3542466331273317E-4,-4.94626522064209,21.621335983276367,-36.867515563964844,-0.007924653589725494,0.19616958498954773,0.043641090393066406,0.060421646,-0.14835139,9.763725,-0.032438736,-0.19832969,9.762973,0
2,987.96240234375,5.261207697913051E-4,-7.809256203472614E-5,-2.687923260964453E-4,-5.275378227233887,21.365686416625977,-36.57088851928711,-0.012702833861112595,0.2091846764087677,0.03417396545410156,0.05808246,-0.15311922,9.777933,-0.039040968,-0.20064715,9.777169,0
2,987.967529296875,-5.396314663812518E-4,-3.443290770519525E-4,-2.6858760975301266E-6,-4.57356595993042,21.496034622192383,-36.60968017578125,-0.0031033456325531006,0.2076232135295868,0.04364299774169922,0.060523152,-0.15312047,9.763735,-0.029754978,-0.20092916,9.763008,0
2,987.980224609375,2.588266506791115E-4,1.8838216783478856E-4,-2.895540092140436E-6,-4.356168746948242,20.751535415649414,-36.83056640625,0.0019281022250652313,0.19277390837669373,0.03890800476074219,0.048624396,-0.15312172,9.766106,-0.041100547,-0.19786948,9.765338,0
2,987.95947265625,7.909697014838457E-4,-6.104861386120319E-4,6.626846734434366E-4,-4.797348976135254,21.602510452270508,-36.50444030761719,-0.012716729193925858,0.19189006090164185,0.048377037048339844,0.05823469,-0.1483564,9.756641,-0.032622095,-0.19383945,9.755963,0
2,987.9573974609375,-8.46723560243845E-6,4.548566648736596E-4,-2.696306328289211E-4,-4.950831413269043,21.61692237854004,-36.63560104370117,-0.017615236341953278,0.2001221776008606,0.02944183349609375,0.06768626,-0.14597048,9.780304,-0.02396129,-0.1921409,9.779711,0
2,987.9903564453125,1.245788298547268E-4,-7.775682024657726E-5,-3.3627147786319256E-6,-4.774656772613525,21.518686294555664,-36.96493911743164,-0.021658699959516525,0.19923512637615204,0.034203529357910156,0.072348475,-0.15073408,9.78266,-0.01931325,-0.1969836,9.782085,0
2,987.9598388671875,7.813796401023865E-7,-8.41761939227581E-5,1.2620881898328662E-4,-4.632127285003662,20.86182975769043,-36.71751403808594,-0.0073471516370773315,0.17895320057868958,0.043674468994140625,0.055657208,-0.13881867,9.773195,-0.035837702,-0.18009202,9.7726145,0
2,987.9598388671875,4.146713763475418E-7,-8.411664748564363E-5,-2.7342222165316343E-4,-4.979228973388672,20.80034065246582,-36.891380310058594,-0.007217098027467728,0.19676829874515533,0.038941383361816406,0.067644805,-0.1578858,9.768464,-0.024633985,-0.20055887,9.767884,0
3,987.98486328125,-2.66268034465611E-4,-4.835309227928519E-4,-2.735793823376298E-4,-4.536228179931641,20.582979202270508,-36.86994171142578,-0.021688312292099,0.19071538746356964,0.048412322998046875,0.07963234,-0.14120384,9.763733,-0.008672554,-0.18545878,9.763314,0
3,987.9573974609375,-3.997927997261286E-4,7.1495003066957E-4,1.257371623069048E-4,-4.588808059692383,21.061002731323242,-37.65965270996094,-0.012153919786214828,0.19437646865844727,0.034210205078125,0.062941074,-0.15312113,9.775573,-0.027821343,-0.19262423,9.775038,0
3,988.0001831054688,-2.670016838237643E-4,4.9219990614801645E-5,-7.577822543680668E-6,-4.716531753540039,21.41484260559082,-36.58290100097656,-0.021302584558725357,0.18366330862045288,0.06735038757324219,0.06775898,-0.14597233,9.7590065,-0.022574399,-0.18522523,9.758551,0
3,987.9473876953125,-6.668425630778074E-4,-7.496681064367294E-4,-7.735216058790684E-6,-4.820882797241211,21.422483444213867,-36.56726837158203,-0.007020559161901474,0.19179996848106384,0.053150177001953125,0.06301725,-0.15312304,9.763742,-0.029520638,-0.18971288,9.76326,0
3,988.0205688476562,-1.3457750901579857E-4,-3.5013488377444446E-4,-4.07366082072258E-4,-5.015044689178467,21.714872360229492,-36.70841979980469,-0.015963036566972733,0.19050435721874237,0.02474212646484375,0.065445185,-0.15550728,9.77795,-0.028058317,-0.19120757,9.777496,0
3,987.9750366210938,-4.012602148577571E-4,-0.0011490228353068233,-0.0010733131784945726,-5.048252582550049,21.894296646118164,-36.40586853027344,-0.020391467958688736,0.18460547924041748,0.04841136932373047,0.06548321,-0.1483583,9.749548,-0.026301533,-0.18299906,9.749144,0
3,987.9827880859375,-6.679429206997156E-4,-0.0014152792282402515,-4.076806362718344E-4,-4.855772972106934,21.074220657348633,-37.31135559082031,-0.015449672937393188,0.19306674599647522,0.043677330017089844,0.060741514,-0.15074252,9.766121,-0.030883186,-0.18337245,9.765702,0
3,987.9727783203125,1.3063789810985327E-4,7.153074257075787E-4,-5.409958539530635E-4,-4.733434200286865,20.872419357299805,-36.85649108886719,-0.010744541883468628,0.17764592170715332,0.07208442687988281,0.06555933,-0.14121036,9.742453,-0.024680797,-0.17380479,9.742114,0
3,987.98291015625,-6.68676570057869E-4,3.1589309219270945E-4,2.577946288511157E-4,-4.956238746643066,21.34865379333496,-36.927005767822266,-0.0249173641204834,0.18604961037635803,0.07681846618652344,0.07515705,-0.15551092,9.7519245,-0.019521348,-0.18861215,9.75161,0
3,987.9574584960938,3.962201299145818E-4,-6.161528872326016E-4,1.2447952758520842E-4,-5.135318279266357,21.549856185913086,-37.14214324951172,-0.010176580399274826,0.17558149993419647,0.029471397399902344,0.06802538,-0.14597882,9.770866,-0.023432571,-0.17693889,9.770563,0
3,987.9700317382812,5.29011245816946E-4,-0.00114872504491359,-8.835690096020699E-6,-4.974226951599121,21.542810440063477,-37.397499084472656,-0.0192580409348011,0.19828566908836365,0.0247344970703125,0.070453346,-0.15312959,9.775603,-0.024306633,-0.1830615,9.775312,0
3,987.9700317382812,5.29011245816946E-4,-0.00114872504491359,-8.835690096020699E-6,-4.923328399658203,20.53708839416504,-37.65443420410156,-0.02372017502784729,0.17860032618045807,0.04366779327392578,0.07288128,-0.15789707,9.761404,-0.02437424,-0.18738483,9.761123,0
3,987.9573974609375,-4.034610465168953E-4,-6.160337943583727E-4,-5.416247295215726E-4,-5.28285026550293,21.464242935180664,-36.883445739746094,7.444731891155243E-4,0.18719537556171417,0.05786705017089844,0.06096989,-0.15789796,9.770877,-0.03536598,-0.18382567,9.770549,0
3,987.97021484375,7.945932447910309E-4,-0.00128176377620548,2.571657532826066E-4,-5.088688850402832,21.17185401916504,-36.74228286743164,-0.027979128062725067,0.1670692414045334,0.053132057189941406,0.075347334,-0.15789889,9.763779,-0.018953964,-0.1862308,9.763553,0
3,987.9853515625,-5.087931640446186E-6,-8.821709197945893E-4,-1.426223898306489E-4,-5.065154552459717,21.351877212524414,-36.67945861816406,-0.02272835001349449,0.19458326697349548,0.029458045959472656,0.06821567,-0.15789981,9.768517,-0.027775459,-0.18332902,9.768271,0
3,987.9727783203125,2.60861124843359E-4,1.8315203487873077E-4,-9.621726348996162E-6,-5.504973888397217,21.678102493286133,-37.554588317871094,-0.017996765673160553,0.2076863795518875,0.019988059997558594,0.07542345,-0.17220043,9.770887,-0.026753757,-0.19731456,9.770667,0
3,987.9548950195312,-2.721374621614814E-4,-2.1626224042847753E-4,-1.4293694403022528E-4,-5.084665298461914,21.5445613861084,-37.07265090942383,-0.008246704936027527,0.17788371443748474,0.05312633514404297,0.06829178,-0.15551843,9.761421,-0.026616745,-0.17866394,9.761228,0
3,987.9874877929688,-2.7250428684055805E-4,-2.1620263578370214E-4,-4.094099858775735E-4,-5.074148654937744,21.44895362854004,-36.914710998535156,-0.0033043362200260162,0.18641816079616547,0.02945423126220703,0.063550055,-0.15790264,9.777995,-0.03193844,-0.17893472,9.777785,0
3,987.96240234375,-6.723448168486357E-4,-3.4930105903185904E-4,5.225384375080466E-4,-4.5472869873046875,21.046873092651367,-37.126338958740234,-0.01766606792807579,0.180474653840065,0.048389434814453125,0.07075781,-0.14837052,9.756695,-0.019076187,-0.17046484,9.756573,0
3,987.9603881835938,2.593938261270523E-4,1.833903370425105E-4,-1.434085424989462E-4,-4.889524459838867,21.62193489074707,-37.10724639892578,-0.00778564065694809,0.16529615223407745,0.03891754150390625,0.06362617,-0.15075473,9.766167,-0.028452676,-0.17017478,9.766014,0
3,987.97021484375,1.2586917728185654E-4,-0.001281287521123886,-1.4356570318341255E-4,-5.2005109786987305,21.278047561645508,-37.03920364379883,-0.016749128699302673,0.16426298022270203,0.02944469451904297,0.07083395,-0.14598908,9.763802,-0.02362487,-0.16551341,9.763719,0
3,987.9725952148438,-2.7397170197218657E-4,-0.0012812279164791107,2.5575084146112204E-4,-5.030968189239502,21.54221534729004,-37.157772064208984,-0.015079818665981293,0.17755161225795746,0.034264564514160156,0.06745911,-0.15311475,9.777916,-0.02731327,-0.17086959,9.777816,0
3,987.917236328125,1.300043659284711E-4,-0.001281958888284862,-6.744252750650048E-4,-4.925531387329102,20.797990798950195,-36.97650146484375,0.00413382425904274,0.14308851957321167,0.053206443786621094,0.065066695,-0.14834808,9.766079,-0.028857328,-0.16452168,9.765994,0
3,987.9649047851562,-7.973058382049203E-4,-2.1747377468273044E-4,-6.5802596509456635E-6,-4.7739763259887695,21.256315231323242,-37.56556701660156,-0.019562754780054092,0.16104921698570251,0.04847145080566406,0.06984389,-0.138815,9.768446,-0.020269189,-0.1554027,9.768425,0
3,987.9498901367188,2.679823664948344E-4,-2.1747779101133347E-4,-6.569782271981239E-6,-5.342497825622559,21.566614151000977,-37.18817901611328,-0.009810097515583038,0.16034424304962158,0.0200653076171875,0.060281754,-0.15311451,9.770813,-0.036350906,-0.16589889,9.770724,0
4,987.9451293945312,3.5758985904976726E-4,-2.213575062341988E-4,2.2583879763260484E-4,-5.054500579833984,21.3621883392334,-37.22059631347656,-1.1840090155601501E-4,0.15941587090492249,0.03900337219238281,0.057889342,-0.14358144,9.763712,-0.034702595,-0.15551691,9.7636385,0
4,987.9725952148438,-4.185963189229369E-5,-6.208353443071246E-4,-4.3994042789563537E-4,-4.9808573722839355,21.905210494995117,-37.186737060546875,-0.009557828307151794,0.1585460752248764,0.029537200927734375,0.060276687,-0.13881476,9.780281,-0.030069144,-0.15078677,9.780245,0
4,987.962646484375,2.2448092931881547E-4,1.781084283720702E-4,3.5901780938729644E-4,-5.328937530517578,21.473955154418945,-37.184844970703125,-1.8420442938804626E-4,0.15311528742313385,0.04374217987060547,0.06266409,-0.14834781,9.768446,-0.03248411,-0.15939486,9.76842,0
4,987.962646484375,9.134731953963637E-5,1.7810435383580625E-4,-4.0445534978061914E-5,-5.160373687744141,21.36836051940918,-37.12765884399414,-0.004830390214920044,0.16595739126205444,0.06268119812011719,0.0722211,-0.14596446,9.751875,-0.021332044,-0.15798008,9.751933,0
4,987.9706420898438,-9.738916414789855E-4,4.494245513342321E-5,-5.730667035095394E-4,-4.98640251159668,21.53102684020996,-36.77906036376953,-0.009740974754095078,0.15072739124298096,0.039010047912597656,0.060269058,-0.14834769,9.768446,-0.0318368,-0.15704018,9.768445,0
4,987.9880981445312,-4.176161019131541E-5,3.1125437817536294E-4,-1.73582520801574E-4,-5.264724254608154,21.376001358032227,-37.112022399902344,-0.019219599664211273,0.15962454676628113,0.0437469482421875,0.06743628,-0.15073086,9.761343,-0.027458053,-0.15991686,9.761392,0
4,987.9605102539062,8.903683046810329E-4,-2.2138131316751242E-4,-4.041421925649047E-5,-5.469402313232422,21.763994216918945,-37.41112518310547,-0.0046683624386787415,0.154039204120636,0.03427696228027344,0.048314482,-0.14596428,9.775546,-0.043485526,-0.15051635,9.775501,0
4,987.9674682617188,-3.0802859691902995E-4,4.4930551666766405E-5,3.5907019628211856E-4,-5.089093208312988,21.646059036254883,-37.53981018066406,-0.0048427097499370575,0.16734102368354797,0.06268692016601562,0.0650413,-0.16264714,9.747139,-0.032305423,-0.16915774,9.747191,0
4,987.9752807617188,-4.168838495388627E-5,4.492656444199383E-5,-1.7355108866468072E-4,-5.342497825622559,21.566614151000977,-37.18817901611328,0.009219251573085785,0.147491455078125,0.04848480224609375,0.05308926,-0.13881435,9.761343,-0.03881584,-0.14230826,9.76136,0
4,987.9548950195312,4.909678245894611E-4,5.775544559583068E-4,7.585649145767093E-4,-5.5532636642456055,21.94871711730957,-37.17805480957031,-7.745213806629181E-4,0.15624640882015228,0.08162975311279297,0.053086698,-0.14119755,9.756607,-0.03495504,-0.14494413,9.756635,0
4,987.9146728515625,9.15185664780438E-5,0.0011101821437478065,-7.061618962325156E-4,-4.860744476318359,21.544008255004883,-37.87696838378906,0.003954038023948669,0.17915070056915283,0.015349388122558594,0.05786401,-0.16741355,9.780279,-0.037907198,-0.17019553,9.780331,0
4,987.9547119140625,9.154301369562745E-5,4.443885700311512E-4,-4.036171594634652E-5,-5.0900726318359375,21.27629280090332,-37.36405944824219,0.013318423181772232,0.16869120299816132,0.048491477966308594,0.048301816,-0.14834724,9.756607,-0.041444026,-0.14891858,9.756631,0
4,987.9498901367188,9.156746091321111E-5,-8.824732503853738E-5,-3.066670033149421E-4,-5.062516212463379,21.82903480529785,-37.63159942626953,0.008807294070720673,0.1681676208972931,0.05322456359863281,0.055468976,-0.15788023,9.770811,-0.039032828,-0.15865418,9.770877,0
4,987.9375610351562,0.0012900135479867458,-4.877250175923109E-4,-8.392884046770632E-4,-5.372661590576172,21.748987197875977,-37.04022979736328,0.0039639659225940704,0.1627875566482544,0.029555320739746094,0.053076565,-0.15073042,9.782646,-0.041109607,-0.15014446,9.782714,0
4,987.9756469726562,7.574306218884885E-4,-3.545749932527542E-4,-4.397936281748116E-4,-5.645576477050781,21.862226486206055,-37.081787109375,-7.384419441223145E-4,0.14775656163692474,0.048492431640625,0.057853818,-0.13404734,9.766075,-0.032462973,-0.13448243,9.766186,0
4,987.9756469726562,7.574306218884885E-4,-3.545749932527542E-4,-4.397936281748116E-4,-5.645576477050781,21.862226486206055,-37.081787109375,0.00868329405784607,0.15691214799880981,0.05322742462158203,0.043511868,-0.1507303,9.766075,-0.04676524,-0.1478561,9.766104,0
4,987.9527587890625,3.579811309464276E-4,4.4436860480345786E-4,9.284861152991652E-5,-5.141949653625488,21.912256240844727,-36.93136978149414,0.0039850808680057526,0.14175869524478912,0.029555320739746094,0.050679028,-0.13881381,9.775544,-0.038073115,-0.13667916,9.775633,0
4,987.957763671875,-4.1468359995633364E-5,-8.826705743558705E-5,4.923329106532037E-4,-5.379155158996582,22.217302322387695,-37.528541564941406,-7.779188454151154E-4,0.14114902913570404,0.05322837829589844,0.062626004,-0.1411971,9.763708,-0.026012795,-0.14126442,9.763872,0
4,987.957763671875,3.580301417969167E-4,-7.540608057752252E-4,-3.066042554564774E-4,-5.01824951171875,21.18570899963379,-37.677764892578125,-8.130893111228943E-4,0.15938085317611694,0.05796337127685547,0.05067396,-0.15311332,9.756605,-0.04003274,-0.14945573,9.756712,0
4,987.9776000976562,3.580789198167622E-4,5.775106837972999E-4,7.586802821606398E-4,-5.614869117736816,21.31156349182129,-37.131282806396484,-0.006029445677995682,0.139156311750412,0.043763160705566406,0.055451214,-0.1459635,9.754238,-0.03681214,-0.14177193,9.754387,0
4,987.9776000976562,3.580789198167622E-4,5.775106837972999E-4,7.586802821606398E-4,-5.614869117736816,21.31156349182129,-37.131282806396484,-0.001253236085176468,0.14353255927562714,0.03429412841796875,0.057917386,-0.13643225,9.770816,-0.02844574,-0.13339451,9.770988,0
4,987.9776000976562,3.580789198167622E-4,5.775106837972999E-4,7.586802821606398E-4,-5.090615749359131,21.64458656311035,-37.46250915527344,-0.0016314126551151276,0.13799183070659637,0.048483848571777344,0.062778234,-0.14835055,9.761354,-0.028065685,-0.14498925,9.761566,0
4,987.9757690429688,9.178771870210767E-5,4.487507976591587E-5,-3.0657282331958413E-4,-5.367553234100342,21.38511848449707,-37.17369842529297,0.002886556088924408,0.1321168690919876,0.06268882751464844,0.05083251,-0.14596741,9.761354,-0.038897954,-0.13878134,9.761515,0
4,987.9906005859375,-5.755449528805912E-4,0.001509862719103694,9.223987581208348E-5,-4.823107719421387,21.26308250427246,-37.71236038208008,-0.0019298158586025238,0.1358776092529297,0.03428077697753906,0.062785864,-0.14358427,9.766089,-0.02300013,-0.13893852,9.766332,0
5,987.9752807617188,-1.761079183779657E-4,-3.5434248275123537E-4,-3.0724977841600776E-4,-5.229015350341797,21.567811965942383,-37.667640686035156,0.0026403069496154785,0.13460120558738708,0.0390167236328125,0.06517953,-0.14596759,9.7708235,-0.022844516,-0.14023924,9.771099,0
5,987.968017578125,-4.424603539519012E-4,-8.802060619927943E-5,-4.0949496906250715E-5,-4.9998250007629395,21.729604721069336,-37.481475830078125,-0.007069014012813568,0.14379604160785675,0.020078659057617188,0.058013648,-0.14596774,9.775559,-0.028022658,-0.138647,9.775799,0
5,987.968017578125,2.2329279454424977E-4,0.0012435645330697298,-4.0965096559375525E-5,-5.397281646728516,22.305543899536133,-37.299957275390625,0.011883322149515152,0.15723423659801483,0.0390167236328125,0.05084777,-0.1555009,9.770824,-0.038396884,-0.14518148,9.771042,0
5,987.97021484375,-1.7621793085709214E-4,-2.2116664331406355E-4,-8.399286889471114E-4,-4.944605827331543,21.728723526000977,-37.643898010253906,0.007228683680295944,0.13729971647262573,0.048483848571777344,0.05563134,-0.14596792,9.770824,-0.0295931,-0.1365379,9.771075,0
5,987.9757690429688,-1.7625460168346763E-4,1.7831314471550286E-4,-4.099658690392971E-5,-4.745333671569824,21.072465896606445,-37.636207580566406,-0.007301937788724899,0.1457306444644928,0.057951927185058594,0.06758466,-0.15073456,9.758989,-0.018096186,-0.14277598,9.759328,0
5,987.9757690429688,-1.7629115609452128E-4,4.516117041930556E-5,-5.736442399211228E-4,-5.354536056518555,21.660749435424805,-37.26881408691406,-0.006980005651712418,0.1444636583328247,0.024808883666992188,0.06280866,-0.15073462,9.785029,-0.025943574,-0.1398951,9.7853565,0
5,987.977783203125,-4.317000275477767E-5,-2.2114874445833266E-4,2.2528780391439795E-4,-5.40587043762207,21.928415298461914,-36.73767852783203,-0.007235206663608551,0.14882254600524902,0.03901386260986328,0.0604226,-0.15788455,9.758989,-0.029389944,-0.14602989,9.759318,0
5,987.9680786132812,-4.3206673581153154E-5,3.114889550488442E-4,9.211414726451039E-5,-5.326031684875488,21.37098503112793,-36.640380859375,0.0019865110516548157,0.12905143201351166,0.043747901916503906,0.0556466,-0.15311809,9.777928,-0.03288969,-0.13956085,9.778233,0
5,987.9454956054688,-4.4271693332120776E-4,0.0013767584459856153,9.209837298840284E-5,-5.149857521057129,21.272748947143555,-36.9697151184082,-0.007775895297527313,0.14226898550987244,0.03427886962890625,0.06759989,-0.15073492,9.775561,-0.019306406,-0.13917027,9.775948,0
5,987.9581909179688,-5.759117775596678E-4,4.446588282007724E-4,-3.073913394473493E-4,-4.861861228942871,21.068323135375977,-37.002132415771484,-0.01725778356194496,0.12196777015924454,0.04374504089355469,0.06760371,-0.14596842,9.766093,-0.016525604,-0.1335222,9.766491,0
5,987.9479370117188,-0.001108580268919468,-4.8744084779173136E-4,9.206688264384866E-5,-4.931183338165283,21.530153274536133,-36.94148635864258,-0.017155122011899948,0.1497054100036621,0.03900909423828125,0.0604378,-0.1507351,9.770827,-0.024300497,-0.13578995,9.771203,0
5,987.9581909179688,6.224364624358714E-4,4.4467070256359875E-4,4.915250465273857E-4,-5.278964996337891,21.73103141784668,-36.51472854614258,-0.01259126141667366,0.14922314882278442,0.020071029663085938,0.07239109,-0.16026826,9.76846,-0.016333602,-0.14704292,9.768923,0
5,987.9655151367188,7.555573829449713E-4,1.7836075858213007E-4,-4.112249007448554E-5,-5.4800567626953125,21.75368309020996,-36.86998748779297,-0.017331741750240326,0.14393387734889984,0.03900718688964844,0.07239488,-0.15311857,9.766094,-0.015792921,-0.13944304,9.766555,0
5,987.9600219726562,2.2288929903879762E-4,7.109984289854765E-4,-3.074539708904922E-4,-5.092818260192871,21.905485153198242,-36.784576416015625,0.0017177797853946686,0.1287442445755005,0.05320930480957031,0.048499703,-0.15311868,9.756625,-0.036245428,-0.13366956,9.756964,0
5,987.9557495117188,-4.986674175597727E-4,2.2827624343335629E-4,-1.002700300887227E-4,-5.339591979980469,21.463647842407227,-36.643707275390625,-0.01276356726884842,0.1277579516172409,0.03900623321533203,0.060452998,-0.15311874,9.770828,-0.026387595,-0.13492057,9.771249,0
5,987.9833374023438,1.6708538169041276E-4,-3.803364234045148E-5,3.2872194424271584E-5,-4.953193664550781,21.351598739624023,-37.08161544799805,0.0018437132239341736,0.1558772176504135,0.048470497131347656,0.05328715,-0.16026868,9.758993,-0.032853406,-0.14025727,9.759393,0
5,987.9683227539062,6.996805896051228E-4,-4.375014977995306E-4,5.654882406815886E-4,-4.824087142944336,20.8933162689209,-37.53660583496094,-0.02622261270880699,0.1220104843378067,0.03426361083984375,0.072410166,-0.14120252,9.76136,-0.012179118,-0.12503195,9.76184,0
5,987.9757690429688,3.385421587154269E-5,-0.0020353905856609344,1.6599870286881924E-4,-5.276762962341309,21.47013282775879,-37.19266128540039,-0.01181718334555626,0.14940768480300903,0.048462867736816406,0.07241395,-0.16265212,9.77083,-0.019417092,-0.14438671,9.771366,0
5,987.9658203125,-8.982881554402411E-4,3.6145804915577173E-4,0.0012312465114519,-5.619436264038086,21.307146072387695,-36.89936828613281,-0.006890799850225449,0.12007951736450195,0.05792999267578125,0.07002783,-0.1388195,9.758995,-0.014739633,-0.12012922,9.759482,0
5,987.9683227539062,3.000967553816736E-4,-4.3748365715146065E-4,-1.0034861043095589E-4,-5.497502326965332,21.579553604125977,-37.242034912109375,-0.011616785079240799,0.1197272539138794,0.05319499969482422,0.06525183,-0.14120282,9.763729,-0.019755095,-0.12096545,9.764199,0
5,987.9632568359375,6.995340227149427E-4,2.2831204114481807E-4,-4.998380318284035E-4,-5.416684150695801,21.391881942749023,-37.32048797607422,-0.006732385605573654,0.13319896161556244,0.03898906707763672,0.06525564,-0.1459695,9.766097,-0.022752266,-0.12442225,9.766586,0
5,987.9808349609375,4.331812378950417E-4,-1.71155872521922E-4,1.659358968026936E-4,-5.900365352630615,21.887224197387695,-37.351924896240234,0.003316197544336319,0.1281580626964569,0.034267425537109375,0.055509627,-0.14358167,9.763712,-0.028873138,-0.12006502,9.764146,0
5,987.9658813476562,1.6750936629250646E-4,2.2821343736723065E-4,0.0012314753839746118,-5.288663864135742,21.670183181762695,-37.97237777709961,0.0029084235429763794,0.12730777263641357,0.053208351135253906,0.062675476,-0.15311463,9.77318,-0.025363214,-0.12987702,9.7736845,0
5,987.9658813476562,-9.765796130523086E-5,-3.046047640964389E-4,1.6670406330376863E-4,-5.589676856994629,21.59897804260254,-37.84484100341797,0.008049622178077698,0.13153672218322754,0.034267425537109375,0.055501997,-0.15549777,9.780283,-0.030799061,-0.13039866,9.780759,0
5,987.9886474609375,3.0185264768078923E-4,-3.046107303816825E-4,-2.3275392595678568E-4,-5.172274112701416,21.56840705871582,-37.907371520996094,0.0032456815242767334,0.11653032898902893,0.03899955749511719,0.050718367,-0.14119811,9.775547,-0.030618656,-0.11511292,9.775972,0
6,987.950927734375,7.013629074208438E-4,9.485718328505754E-5,-3.658962668851018E-4,-4.842755317687988,21.3498477935791,-37.406471252441406,0.003392837941646576,0.1253741830587387,0.038997650146484375,0.06266409,-0.14834781,9.770813,-0.022193052,-0.12365186,9.771334,0
6,987.9909057617188,1.6876793233677745E-4,2.2800907026976347E-4,3.359327092766762E-5,-5.161896228790283,21.366884231567383,-37.05035400390625,-0.006718922406435013,0.1342851221561432,0.04373455047607422,0.053100675,-0.15788083,9.77318,-0.033612616,-0.13012761,9.773675,0
6,987.966064453125,-4.969849833287299E-4,0.0010269507765769958,-9.954895358532667E-5,-5.399781703948975,21.93430519104004,-37.046897888183594,-0.0018422678112983704,0.12888728082180023,0.057936668395996094,0.060266554,-0.15311413,9.754242,-0.023460463,-0.1269547,9.754775,0
6,987.9683227539062,5.683150957338512E-4,-7.041083881631494E-4,1.6678264364600182E-4,-4.840690612792969,20.983034133911133,-37.38532257080078,-0.006510742008686066,0.12330880761146545,0.053198814392089844,0.06743249,-0.14596422,9.766077,-0.015565947,-0.12058489,9.766644,0
6,987.9710693359375,1.688779448159039E-4,6.274650804698467E-4,-4.98991459608078E-4,-5.048413276672363,21.36808204650879,-37.529815673828125,-0.006691768765449524,0.11317896842956543,0.029526710510253906,0.06503871,-0.13404776,9.766077,-0.0155407265,-0.10781211,9.766606,0
6,987.9912109375,3.021092270500958E-4,9.482144378125668E-5,-9.948608931154013E-5,-5.25917911529541,21.750181198120117,-37.519691467285156,-0.0017177760601043701,0.11256392300128937,0.04372882843017578,0.065034956,-0.14119752,9.768444,-0.016993076,-0.11423074,9.768999,0
6,987.9912109375,3.021092270500958E-4,9.482144378125668E-5,-9.948608931154013E-5,-5.25917911529541,21.750181198120117,-37.519691467285156,-0.011314108967781067,0.1170562207698822,0.043727874755859375,0.0626412,-0.15073054,9.763709,-0.021827038,-0.122587755,9.76428,0
6,987.9912109375,3.021092270500958E-4,9.482144378125668E-5,-9.948608931154013E-5,-5.32491397857666,21.84665870666504,-37.51521301269531,-0.011309072375297546,0.10680372267961502,0.034256935119628906,0.07219708,-0.13881405,9.773178,-0.008996073,-0.112495124,9.773778,0
6,987.9708251953125,3.583013312891126E-5,9.481544839218259E-5,1.6684550791978836E-4,-5.177520751953125,21.826364517211914,-37.074832916259766,-0.0018761046230793,0.12049366533756256,0.05319404602050781,0.05546394,-0.15549691,9.75424,-0.027192034,-0.12487452,9.754801,0
6,987.9708862304688,-9.72544657997787E-5,6.27435278147459E-4,-9.943882469087839E-5,-4.786694526672363,21.612817764282227,-37.04557800292969,-0.01599784940481186,0.10985079407691956,0.0389862060546875,0.057850003,-0.14596368,9.766075,-0.022505479,-0.11496245,9.766635,0
6,987.9635009765625,-8.961655548773706E-4,-3.836036194115877E-5,-2.3258104920387268E-4,-5.585493087768555,22.49791145324707,-37.05126190185547,-0.00675201416015625,0.10465753078460693,0.03898811340332031,0.062626034,-0.13881381,9.770809,-0.018790375,-0.108141705,9.77138,0
6,987.9608764648438,5.686086951754987E-4,-3.836635733023286E-5,-2.3256544955074787E-4,-5.201352119445801,21.01420021057129,-37.56252670288086,-0.01108887791633606,0.11371368169784546,0.05318737030029297,0.067402005,-0.14358024,9.758973,-0.015352968,-0.113400295,9.759592,0
6,987.950927734375,3.0232936842367053E-4,-5.710040568374097E-4,-8.983395528048277E-4,-4.776476860046387,20.88507652282715,-37.31250762939453,0.007954120635986328,0.1272331327199936,0.04845142364501953,0.05544871,-0.1554965,9.766075,-0.02734043,-0.121960014,9.76667,0
6,987.9589233398438,-3.6342378007248044E-4,4.942535888403654E-4,-4.988498985767365E-4,-5.437013149261475,21.74102210998535,-36.413978576660156,-0.0014558956027030945,0.09817680716514587,0.06265449523925781,0.057834774,-0.13881351,9.754237,-0.023625199,-0.10528183,9.754797,0
6,987.9635009765625,8.350347052328289E-4,-3.0470005003735423E-4,-6.319921230897307E-4,-4.9777069091796875,20.80181312561035,-36.96868896484375,0.0033381469547748566,0.12144502997398376,0.04844856262207031,0.062610805,-0.15549631,9.76844,-0.021537822,-0.122246295,9.769091,0
6,987.9686279296875,-9.703444084152579E-5,-3.0470601632259786E-4,6.996030570007861E-4,-5.136297225952148,21.18009376525879,-36.96638488769531,-0.015195593237876892,0.11600060760974884,0.02950572967529297,0.069776714,-0.14596315,9.763705,-0.0131623335,-0.113757975,9.764375,0
6,987.946044921875,-2.3015582701191306E-4,-0.001236817566677928,8.327767136506736E-4,-5.581662178039551,21.13213539123535,-37.433837890625,-0.005622990429401398,0.12006466090679169,0.04844093322753906,0.062603205,-0.14357974,9.763705,-0.02167999,-0.10870169,9.764331,0
6,987.9559326171875,-2.301188069395721E-4,2.2791378432884812E-4,5.664766067638993E-4,-5.305404186248779,21.65397834777832,-37.12202453613281,0.004172880202531815,0.10492396354675293,0.057906150817871094,0.05064988,-0.14119639,9.754236,-0.030804187,-0.103179395,9.754796,0
6,987.9686889648438,-3.63240425940603E-4,-3.047238278668374E-4,3.001763252541423E-4,-5.29641056060791,21.556901931762695,-36.886775970458984,-8.212476968765259E-4,0.09957225620746613,0.053170204162597656,0.055425882,-0.14834614,9.768439,-0.027605712,-0.11063203,9.769057,0
6,987.9613647460938,3.0258618062362075E-4,4.942178493365645E-4,3.0019215773791075E-4,-5.385679244995117,21.473356246948242,-36.94511413574219,-0.01510956883430481,0.09904210269451141,0.03896617889404297,0.060201883,-0.1411962,9.763704,-0.021713581,-0.1041718,9.764331,0
6,987.9864501953125,-9.685097029432654E-5,2.2789603099226952E-4,6.996816955506802E-4,-5.185131072998047,21.818994522094727,-36.68830490112305,0.01792290061712265,0.10272785276174545,0.04843330383300781,0.05101362,-0.13643874,9.756637,-0.027636308,-0.096820824,9.757204,0
6,987.9613647460938,-6.294461782090366E-4,8.936796803027391E-4,-4.987241700291634E-4,-5.225971221923828,21.570756912231445,-37.8222541809082,-0.006682492792606354,0.11185000836849213,0.057830810546875,0.06335735,-0.14121498,9.756673,-0.01705572,-0.10373735,9.757336,0
6,987.9563598632812,3.3623946364969015E-5,-1.7321849009022117E-4,2.9694964177906513E-4,-5.447254180908203,22.048463821411133,-37.97007369995117,0.007432807236909866,0.10191929340362549,0.019952774047851562,0.06099412,-0.14359893,9.787449,-0.020263735,-0.10493174,9.788109,0
6,987.9589233398438,9.636784088797867E-4,-3.0604348285123706E-4,2.9607053147628903E-4,-5.231217861175537,21.828706741333008,-36.989707946777344,-0.0018192008137702942,0.11082980036735535,0.05782127380371094,0.06580058,-0.14836614,9.759045,-0.01597257,-0.110259995,9.759759,0
7,987.9334106445312,3.131601260975003E-5,-3.968586679548025E-5,-3.698293585330248E-4,-4.912078380584717,21.811677932739258,-37.3458251953125,-0.011151280254125595,0.11987309157848358,0.0578155517578125,0.072996914,-0.15551658,9.7590475,-0.0090576485,-0.118453756,9.759836,0
7,987.9563598632812,4.305330221541226E-4,-4.39118011854589E-4,8.284822106361389E-4,-4.994715690612793,21.365732192993164,-37.61493682861328,-0.01112322136759758,0.10020408034324646,0.029404640197753906,0.06346393,-0.1436009,9.770885,-0.016667958,-0.104001194,9.771579,0
7,987.9639282226562,3.080262104049325E-5,-3.9602513425052166E-5,-6.363651482388377E-4,-5.013821601867676,21.08420753479004,-37.21059799194336,0.003234080970287323,0.09958043694496155,0.06254005432128906,0.06110066,-0.14360155,9.766153,-0.01993195,-0.10268842,9.766841,0
7,987.9512939453125,-4.765233024954796E-4,-2.4368887534365058E-4,-3.2018014462664723E-4,-5.1839070320129395,21.18833351135254,-37.19048309326172,-0.01568344235420227,0.1085151880979538,0.04833030700683594,0.07068691,-0.15313528,9.761422,-0.011988185,-0.11365642,9.76221,0
7,987.9864501953125,1.890099374577403E-4,-3.7680513923987746E-4,2.1234172163531184E-4,-5.203119277954102,22.013154983520508,-37.15879821777344,-0.010557945817708969,0.1220962405204773,0.05305767059326172,0.065933764,-0.16028573,9.770893,-0.02152304,-0.11822356,9.771691,0
7,987.9894409179688,-3.4387875348329544E-4,-3.767634625546634E-4,-5.867159343324602E-4,-5.599787712097168,21.22037696838379,-37.20525360107422,-0.02007715031504631,0.10200260579586029,0.053050994873046875,0.07074022,-0.13407035,9.747223,-0.007960778,-0.0933411,9.7479515,0
7,987.9640502929688,-8.767673280090094E-4,-6.430376088246703E-4,-4.536681226454675E-4,-5.100726127624512,21.2659854888916,-36.82292175292969,0.0040049441158771515,0.10128556191921234,0.03410530090332031,0.051647604,-0.1459874,9.763796,-0.027754836,-0.10027612,9.764469,0
7,987.9715576171875,-7.807626388967037E-5,-5.098379915580153E-4,7.885356899350882E-5,-4.861424922943115,21.80637550354004,-37.27634048461914,-0.005280114710330963,0.10045169293880463,0.048300743103027344,0.061233878,-0.14598812,9.770901,-0.019649394,-0.10116169,9.771639,0
7,987.974365234375,-4.7780689783394337E-4,-3.7663840339519083E-4,-4.538881476037204E-4,-5.117735862731934,21.829904556274414,-37.46916961669922,-3.196448087692261E-4,0.10474526882171631,0.062499046325683594,0.06126052,-0.14837201,9.763802,-0.021523241,-0.10276136,9.764556,0
7,987.9893188476562,-7.858988828957081E-5,-7.760705193504691E-4,3.4494936699047685E-4,-5.344019889831543,21.565141677856445,-37.110870361328125,0.004427548497915268,0.10401293635368347,0.029351234436035156,0.049337626,-0.15313925,9.77564,-0.031524446,-0.10465914,9.776353,0
7,987.991943359375,-7.88465840741992E-5,2.2918800823390484E-5,-7.20424170140177E-4,-4.703675270080566,21.164247512817383,-37.801963806152344,-0.004716336727142334,0.10346629470586777,0.043547630310058594,0.066093564,-0.15075655,9.754337,-0.016031511,-0.10514776,9.755147,0
7,987.9817504882812,5.405454430729151E-5,-0.001175460871309042,7.841346086934209E-5,-5.032489776611328,21.540742874145508,-37.080467224121094,-0.004603322595357895,0.10261937975883484,0.04827404022216797,0.058950484,-0.14122419,9.759074,-0.021235809,-0.09331925,9.759806,0
7,987.97412109375,-0.0010114657925441861,-1.101557572837919E-4,-5.485466681420803E-5,-5.013820648193359,21.08420753479004,-37.21059799194336,-0.018620934337377548,0.10188256204128265,0.043532371520996094,0.07092664,-0.15075786,9.768545,-0.010088813,-0.10462825,9.7694,0
7,987.97412109375,-3.459327854216099E-4,-2.4327196297235787E-4,7.439830806106329E-4,-4.528617858886719,20.590341567993164,-37.2564697265625,0.014773167669773102,0.11081250011920929,0.07666873931884766,0.044664383,-0.1555251,9.742508,-0.03831577,-0.10278572,9.743235,0
7,987.9515380859375,3.1960010528564453E-4,-5.09546254761517E-4,4.775571287609637E-4,-5.1307525634765625,21.55427360534668,-37.374053955078125,4.6195462346076965E-4,0.081801638007164,0.043521881103515625,0.06381023,-0.14599259,9.761449,-0.017398074,-0.09728156,9.762249,0
7,987.9641723632812,5.302741192281246E-5,-2.4318869691342115E-4,7.797323632985353E-5,-5.177382946014404,21.932279586791992,-37.77391052246094,-0.004206612706184387,0.10016778856515884,0.04351520538330078,0.0542773,-0.14837663,9.756717,-0.028368738,-0.096468106,9.757479,0
7,987.9693603515625,5.27708325535059E-5,-2.431470202282071E-4,-7.210843614302576E-4,-5.321465492248535,21.375402450561523,-36.872291564941406,-0.009037815034389496,0.10912152379751205,0.048244476318359375,0.06864333,-0.1483772,9.747251,-0.014261536,-0.09932247,9.748104,0
7,987.9693603515625,5.27708325535059E-5,-2.431470202282071E-4,-7.210843614302576E-4,-5.426359176635742,21.7513370513916,-36.955108642578125,0.005754604935646057,0.10883704572916031,0.043503761291503906,0.059110343,-0.15552773,9.7709255,-0.025482561,-0.103559956,9.771761,0
7,987.946533203125,3.188297851011157E-4,2.3210595827549696E-5,6.103849736973643E-4,-5.202873706817627,21.012723922729492,-37.48522186279297,0.0011607259511947632,0.08913317322731018,0.067169189453125,0.06869659,-0.1388454,9.749622,-0.012000155,-0.089060895,9.750439,0
7,987.9817504882812,1.8515833653509617E-4,-7.756536942906678E-4,7.753312820568681E-5,-5.420271396636963,21.757226943969727,-37.26432800292969,0.001597180962562561,0.0933452844619751,0.0245513916015625,0.054383814,-0.14361267,9.775663,-0.02786747,-0.08948241,9.77642,0
7,987.9690551757812,-3.477301215752959E-4,-6.424541352316737E-4,-1.8889288185164332E-4,-5.056023120880127,21.3607120513916,-37.143287658691406,-0.008111052215099335,0.10714592784643173,0.0292816162109375,0.06158018,-0.15552963,9.775667,-0.022198025,-0.10256928,9.776536,0
7,987.9896850585938,-8.167105261236429E-5,2.896931837312877E-4,-5.584495374932885E-5,-5.005369663238525,21.35542106628418,-37.07379913330078,0.0014457926154136658,0.09658892452716827,0.02927398681640625,0.05881977,-0.15075402,9.763796,-0.023357082,-0.0964271,9.764632,0
7,987.98974609375,-2.1414307411760092E-4,-5.093658110126853E-4,-3.218668862245977E-4,-5.026838302612305,20.808576583862305,-37.115478515625,-0.007376216351985931,0.08160892128944397,0.03407573699951172,0.06320524,-0.14359452,9.768496,-0.01793747,-0.08962785,9.769326,0
7,987.9619140625,-0.001139734755270183,4.2168237268924713E-4,-5.2759365644305944E-5,-5.234560012817383,21.193628311157227,-37.259971618652344,0.016258060932159424,0.08100748062133789,0.043544769287109375,0.04886076,-0.14597766,9.78033,-0.032579962,-0.08792256,9.781093,0
7,987.9771728515625,-7.442233618348837E-5,1.5535857528448105E-4,-5.853701732121408E-4,-5.36396598815918,21.0197696685791,-37.2298583984375,0.0015729926526546478,0.12327723205089569,0.03880882263183594,0.058415323,-0.16504376,9.775596,-0.0280483,-0.1079703,9.776526,0
8,987.9848022460938,4.5825832057744265E-4,8.211402455344796E-4,4.7991436440497637E-4,-5.081920146942139,20.915372848510742,-37.65213394165039,0.006592649966478348,0.09404310584068298,0.02460193634033203,0.05363041,-0.1412109,9.768494,-0.026044596,-0.0833774,9.76927,0
8,987.969970703125,-4.737982526421547E-4,-6.436050171032548E-4,-4.521700902841985E-4,-5.346925735473633,21.66811180114746,-37.65534210205078,0.006658431142568588,0.10302253812551498,0.034066200256347656,0.05840516,-0.14836057,9.766127,-0.02330508,-0.09080235,9.766978,0
8,987.9721069335938,1.9204022828489542E-4,-1.1098122922703624E-4,-5.2675430197268724E-5,-5.274399757385254,21.73545265197754,-36.74664306640625,0.006804097443819046,0.09749311953783035,0.048264503479003906,0.05123037,-0.15789355,9.773228,-0.0321271,-0.09771066,9.7740965,0
8,987.9541625976562,-7.400163449347019E-4,-7.767788483761251E-4,2.1366140572354198E-4,-4.957079887390137,21.084806442260742,-37.45033264160156,0.007012210786342621,0.09260185062885284,0.052997589111328125,0.053615212,-0.1555102,9.756657,-0.028614335,-0.09610523,9.757527,0
8,987.9644775390625,7.247697794809937E-4,1.5531876124441624E-4,7.463140645995736E-4,-4.9697980880737305,21.441312789916992,-36.93034362792969,-0.002773735672235489,0.09205365180969238,0.052997589111328125,0.06077984,-0.14836021,9.756656,-0.019443478,-0.09028921,9.757536,0
8,987.9719848632812,4.5850290916860104E-4,2.8846878558397293E-4,8.054543286561966E-5,-5.877811431884766,21.69748878479004,-37.113346099853516,-0.026286788284778595,0.09139123558998108,0.04352283477783203,0.07272428,-0.1578932,9.766124,-0.01391197,-0.10095567,9.767139,0
8,987.9771728515625,-2.0723789930343628E-4,-7.768026553094387E-4,-3.189074923284352E-4,-5.720306396484375,22.055788040161133,-37.31254577636719,0.006984170526266098,0.08613798767328262,0.04825592041015625,0.048820168,-0.13882686,9.754288,-0.030996725,-0.07644418,9.75505,0
8,987.9573364257812,-2.0718900486826897E-4,-1.1102092685177922E-4,-3.1888653757050633E-4,-5.080099582672119,21.548982620239258,-37.3045654296875,-0.0027226433157920837,0.08553797006607056,0.03878498077392578,0.067934304,-0.14835982,9.780327,-0.012572806,-0.08992697,9.781265,0
8,987.994873046875,-6.066140485927463E-4,5.547608016058803E-4,-5.2549701649695635E-5,-5.680604934692383,21.408044815063477,-37.126800537109375,0.006900113075971603,0.07992112636566162,0.048248291015625,0.04403022,-0.13644333,9.770857,-0.035091292,-0.07127341,9.771586,0
8,987.9750366210938,-0.001006038743071258,2.212118124589324E-5,6.132609560154378E-4,-5.500408172607422,21.682523727416992,-37.786502838134766,0.00712146982550621,0.09856639802455902,0.043511390686035156,0.05836457,-0.16742583,9.75902,-0.027815148,-0.1047941,9.760028,0
8,987.9746704101562,0.0012576950248330832,-9.099923190660775E-4,8.065014844760299E-5,-5.019771575927734,21.184236526489258,-37.60045623779297,-0.002480562776327133,0.09786403179168701,0.034038543701171875,0.058359474,-0.15074275,9.76849,-0.022254858,-0.08822369,9.769403,0
8,987.9924926757812,-2.0699342712759972E-4,1.552632311359048E-4,4.801449249498546E-4,-4.617886543273926,20.50679588317871,-37.31480407714844,0.026153653860092163,0.08817978203296661,0.0387725830078125,0.046404928,-0.1531259,9.763754,-0.0345281,-0.08770867,9.764612,0
8,987.9474487304688,4.5884528663009405E-4,2.2097374312579632E-5,2.138499985449016E-4,-5.088551044464111,21.277769088745117,-37.44136047363281,-0.011529766023159027,0.09712379425764084,0.057704925537109375,0.07268873,-0.1602756,9.759018,-0.011487875,-0.09985975,9.760088,0
8,987.9826049804688,-2.0689540542662144E-4,-0.0013094899477437139,8.071307092905045E-5,-5.1930389404296875,21.17949104309082,-36.72665023803711,0.002356991171836853,0.07767195254564285,0.06717300415039062,0.060734153,-0.13882603,9.756652,-0.01615044,-0.076311156,9.757518,0
8,988.0051879882812,3.257850185036659E-4,0.0010873450664803386,-5.850557354278862E-4,-4.780064582824707,21.25042152404785,-37.25634765625,-0.011942751705646515,0.07271073758602142,0.043501853942871094,0.06789878,-0.14597566,9.759018,-0.011488952,-0.0844923,9.759972,0
8,987.9700317382812,4.58991969935596E-4,2.2073567379266024E-5,2.1391292102634907E-4,-5.1056976318359375,21.73577308654785,-37.38853454589844,-0.011458784341812134,0.0960998386144638,0.04822826385498047,0.07506341,-0.1507421,9.763752,-0.005002558,-0.09021022,9.764788,0
8,987.9650268554688,2.872153418138623E-4,-0.0012011579237878323,-2.8774444945156574E-4,-4.895336151123047,21.8278751373291,-38.19618225097656,-0.0068177878856658936,0.10500023514032364,0.029290199279785156,0.06310886,-0.15550853,9.770853,-0.01773056,-0.09165708,9.77185,0
8,987.962646484375,1.541062956675887E-4,7.962032686918974E-4,1.117503852583468E-4,-4.832239627838135,21.254243850708008,-37.24852752685547,-0.006904087960720062,0.07595769315958023,0.048224449157714844,0.063103795,-0.1459753,9.77322,-0.018473327,-0.08129954,9.774158,0
8,987.9905395507812,-1.1216092389076948E-4,2.63563561020419E-4,-1.5454459935426712E-4,-5.575711250305176,21.032106399536133,-37.04397964477539,0.007360130548477173,0.08515465259552002,0.057694435119628906,0.055929005,-0.15074174,9.756649,-0.024144717,-0.084622875,9.757577,0
8,987.9676513671875,1.542039681226015E-4,-2.690762048587203E-4,2.4495029356330633E-4,-5.045507431030273,21.265108108520508,-36.985347747802734,-0.0068528056144714355,0.0799613669514656,0.057689666748046875,0.06787342,-0.1435918,9.761383,-0.011804793,-0.07972079,9.762343,0
8,987.9599609375,6.868848577141762E-4,-1.3592619507107884E-4,-2.8766063041985035E-4,-5.178797721862793,20.824464797973633,-37.323944091796875,-0.0068023428320884705,0.08949777483940125,0.03401756286621094,0.06786832,-0.14835824,9.76375,-0.011974022,-0.084476925,9.76474,0
8,987.9548950195312,8.200915763154626E-4,-2.7761852834373713E-6,-0.0010865872027352452,-5.065016746520996,21.457792282104492,-37.378536224365234,-0.0027386993169784546,0.06542939692735672,0.04815483093261719,0.06856647,-0.13407572,9.75908,-0.007842265,-0.07052287,9.759985,0
8,987.9524536132812,2.0064355339854956E-5,2.627302601467818E-4,6.423349259421229E-4,-5.027924060821533,21.5451602935791,-37.312381744384766,-0.007852230221033096,0.08409999310970306,0.033949851989746094,0.07097924,-0.15075918,9.778019,-0.008539252,-0.086896285,9.77905,0
8,987.960205078125,8.155123214237392E-4,1.3014048454351723E-4,-2.4954730179160833E-5,-4.719193458557129,20.517385482788086,-37.45378494262695,-0.002835087478160858,0.07901975512504578,0.0576171875,0.059052527,-0.15790956,9.754349,-0.02225047,-0.0910146,9.755356,0
8,987.95751953125,2.826605341397226E-4,-2.9817165341228247E-6,-8.239966700784862E-4,-4.825065612792969,20.5235538482666,-37.36084747314453,0.0020046383142471313,0.07357898354530334,0.057610511779785156,0.059075385,-0.1412272,9.759085,-0.017824374,-0.07420465,9.759988,0
9,987.977783203125,-5.165071343071759E-4,3.965277865063399E-4,3.743304987438023E-4,-4.804278373718262,21.332765579223633,-36.718544006347656,0.0017098858952522278,0.09189970046281815,0.03393268585205078,0.059098244,-0.14837761,9.763823,-0.019454584,-0.0803638,9.764779,0
9,987.977783203125,-5.165071343071759E-4,3.965277865063399E-4,3.743304987438023E-4,-4.936590194702148,21.26188850402832,-37.23289489746094,0.001625608652830124,0.08155650645494461,0.048127174377441406,0.06151095,-0.15076144,9.756723,-0.01857324,-0.08223378,9.757717,0
9,987.9780883789062,-7.830431568436325E-4,1.3024761574342847E-4,-1.5839567640796304E-4,-5.204396724700928,21.011255264282227,-37.40791320800781,-0.002944488078355789,0.09544598311185837,0.05759143829345703,0.06153378,-0.15314527,9.756725,-0.019778382,-0.08398019,9.75774,0
9,987.9677734375,-5.169474170543253E-4,1.3028332614339888E-4,3.741419059224427E-4,-5.509540557861328,21.67368507385254,-37.322669982910156,-0.003491312265396118,0.06601981073617935,0.03864860534667969,0.05916673,-0.14122947,9.766195,-0.018407278,-0.071133,9.767119,0
9,987.9727783203125,-2.5107170222327113E-4,0.0010624604765325785,-5.581525037996471E-4,-4.6499786376953125,21.16190528869629,-37.8870849609375,-0.008176766335964203,0.07527381926774979,0.0291748046875,0.073528945,-0.15076308,9.768564,-0.004170116,-0.08365222,9.769645,0
9,987.970458984375,1.5024037566035986E-5,-8.017150685191154E-4,-2.9193080263212323E-4,-4.672967910766602,20.613588333129883,-37.85145568847656,-0.022158127278089523,0.07924378663301468,0.03863334655761719,0.07594168,-0.14838041,9.773302,-0.0020713136,-0.08091409,9.774388,0
9,987.957763671875,-5.178277497179806E-4,1.304262550547719E-4,-2.9202509904280305E-4,-4.779521942138672,20.88213539123535,-37.15789794921875,0.0014738552272319794,0.07895544916391373,0.043366432189941406,0.059235215,-0.1436144,9.768569,-0.01723346,-0.07246628,9.769521,0
9,987.9602661132812,1.477419282309711E-4,3.9677784661762416E-4,3.7367019103839993E-4,-5.102110862731934,21.370431900024414,-37.44469451904297,0.0061599016189575195,0.0785914808511734,0.043361663818359375,0.056868196,-0.15076481,9.775673,-0.02172748,-0.078334406,9.776663,0
9,987.9780883789062,1.4752178685739636E-4,5.299715558066964E-4,-9.580035111866891E-4,-5.225428581237793,21.202463150024414,-37.72380065917969,-0.013366352766752243,0.07803071290254593,0.06702899932861328,0.07362029,-0.15076531,9.752003,-0.0054055974,-0.08180295,9.753102,0
9,987.9733276367188,-5.18488057423383E-4,7.96323292888701E-4,-9.580979240126908E-4,-5.108198165893555,21.364538192749023,-37.135475158691406,-0.013628337532281876,0.07725775241851807,0.04808521270751953,0.07364315,-0.14599933,9.759108,-0.0033771917,-0.07644416,9.760179,0
9,987.9805908203125,-3.85550141800195E-4,0.0010626747971400619,5.065451841801405E-4,-5.037758827209473,21.378389358520508,-38.070953369140625,-0.013730265200138092,0.09114492684602737,0.03861236572265625,0.06888616,-0.15314974,9.773313,-0.009231225,-0.08186766,9.774408,0
9,987.97021484375,1.3703538570553064E-5,2.637628640513867E-4,6.396087701432407E-4,-5.226950168609619,21.200990676879883,-37.6464958190918,0.0050472356379032135,0.07183010131120682,0.04334545135498047,0.05695951,-0.14123397,9.7567425,-0.018490512,-0.06737946,9.757681,0
9,987.9784545898438,4.129572189413011E-4,0.0010627463925629854,3.73198592569679E-4,-5.3946733474731445,21.570436477661133,-37.18035888671875,8.663162589073181E-5,0.08553514629602432,0.05754280090332031,0.06893182,-0.16030069,9.763847,-0.0113378465,-0.08806372,9.765002,0
9,987.960693359375,-1.1989445192739367E-4,1.306763442698866E-4,2.3994635557755828E-4,-5.028903007507324,21.17539405822754,-37.136627197265625,-0.004592709243297577,0.06158912926912308,0.06700706481933594,0.059395015,-0.13885175,9.75438,-0.014803575,-0.065099955,9.755321,0
9,987.9353637695312,1.4620117144659162E-4,-5.350775900296867E-4,2.3985194275155663E-4,-5.582204818725586,21.500429153442383,-37.53228759765625,-0.004562348127365112,0.06591345369815826,0.04333019256591797,0.06419772,-0.1412356,9.756749,-0.012062948,-0.06779625,9.757739,0
9,987.9729614257812,8.117708493955433E-4,-1.3556802878156304E-4,2.3975770454853773E-4,-5.611527442932129,21.9466495513916,-36.86102294921875,-0.023884307593107224,0.06563322246074677,0.03859233856201172,0.07378015,-0.1460027,9.766221,-0.0034774132,-0.07446501,9.767306,0
9,987.9658813476562,-2.5371258379891515E-4,9.297312935814261E-4,-4.2612635297700763E-4,-4.919443607330322,20.80388069152832,-37.28572082519531,0.004772063344717026,0.07467369735240936,0.02911853790283203,0.054683745,-0.14600326,9.773324,-0.020608705,-0.06972113,9.774296,0
9,987.9507446289062,-2.5393295800313354E-4,1.308193022850901E-4,7.7220075763762E-4,-5.155807971954346,21.372774124145508,-37.35957336425781,-0.004809364676475525,0.06940615922212601,0.03384685516357422,0.05709651,-0.14123727,9.780428,-0.017425153,-0.064980894,9.7813835,0
9,987.9658203125,-1.2099504237994552E-4,2.640130405779928E-4,-2.6841124054044485E-5,-5.029308319091797,21.649599075317383,-37.93415451049805,0.004107803106307983,0.055034488439559937,0.033847808837890625,0.05711934,-0.13885458,9.775696,-0.015688658,-0.06291316,9.776634,0
9,987.9633178710938,0.0010772065725177526,0.0013293122174218297,3.7253834307193756E-4,-5.065017223358154,21.457796096801758,-37.3785400390625,0.008577853441238403,0.07362847775220871,0.02910900115966797,0.052362353,-0.14600499,9.773331,-0.021760091,-0.068389595,9.774298,0
9,987.9484252929688,-3.87751089874655E-4,6.635582540184259E-4,2.392860478721559E-4,-5.0203142166137695,21.552522659301758,-37.69890594482422,-0.010966211557388306,0.08251939713954926,0.024369239807128906,0.06626761,-0.14837755,9.770924,-0.007975776,-0.07331159,9.771998,0
9,987.981201171875,-6.542869959957898E-4,6.635939935222268E-4,-2.7124129701405764E-5,-5.067518711090088,21.086557388305664,-37.1254768371582,0.01869024708867073,0.07247243076562881,0.04812145233154297,0.044296622,-0.16028263,9.76378,-0.032140363,-0.07958708,9.764819,0
9,987.9633178710938,-5.124722956679761E-4,-3.6011042539030313E-6,6.423756713047624E-4,-5.072489261627197,21.556344985961914,-37.69109344482422,-0.014789190143346786,0.08599036186933517,0.05285072326660156,0.07057163,-0.15074922,9.768513,-0.0056557283,-0.07524542,9.769639,0
9,987.9662475585938,-9.118117741309106E-4,1.2953506666235626E-4,1.0980141814798117E-4,-5.365488529205322,21.01829719543457,-37.152549743652344,-0.005486596375703812,0.06170392036437988,0.04811573028564453,0.058608145,-0.1388325,9.766145,-0.0141389,-0.060418077,9.76711,0
10,987.9940185546875,2.0428502466529608E-5,9.284609695896506E-4,2.4301704252138734E-4,-5.530029296875,21.496606826782227,-37.54010772705078,0.003856424242258072,0.05174729973077774,0.03864574432373047,0.060984075,-0.1531318,9.761409,-0.014023192,-0.07473858,9.762504,0
10,987.9611206054688,2.8687884332612157E-4,2.6264929329045117E-4,-6.89030799549073E-4,-5.194423198699951,21.283937454223633,-37.34842300415039,-0.015330608934164047,0.07994485646486282,0.043379783630371094,0.07052976,-0.15313144,9.756672,-0.003243778,-0.07667863,9.757828,0
10,987.97607421875,-2.4561857571825385E-4,2.6262752362526953E-4,-1.5634152805432677E-4,-4.872920036315918,21.5322208404541,-37.25852584838867,-0.0011528022587299347,0.07006900012493134,0.038643836975097656,0.06334612,-0.14836453,9.766141,-0.008933537,-0.07011676,9.767217,0
10,987.963623046875,2.871478791348636E-4,7.952374871820211E-4,5.095058586448431E-4,-4.940720558166504,21.99552345275879,-37.275184631347656,-0.015137899667024612,0.07432059943675995,0.057578086853027344,0.07528168,-0.15313075,9.768507,5.581714E-4,-0.07672959,9.769697,0
10,987.9580688476562,-2.4534965632483363E-4,-9.358376264572144E-4,7.758793653920293E-4,-5.157873153686523,21.739595413208008,-37.380714416503906,-0.004819687455892563,0.06451219320297241,0.043369293212890625,0.0657081,-0.13883077,9.768505,-0.005738493,-0.060261413,9.769525,0
10,987.97607421875,7.155822240747511E-4,-0.0014584169257432222,7.8907934948802E-5,-4.857156753540039,21.178659439086914,-37.933128356933594,0.009373512119054794,0.05478791147470474,0.03863525390625,0.04657492,-0.13883041,9.768504,-0.02531727,-0.0554792,9.769411,0
10,987.9688110351562,1.8308492144569755E-4,0.0010715618263930082,7.896556053310633E-5,-5.520599365234375,22.137575149536133,-37.579063415527344,-0.005242608487606049,0.0594300776720047,0.043372154235839844,0.058510482,-0.14121331,9.775604,-0.014347445,-0.060408667,9.776603,0
10,987.9534912109375,1.833539572544396E-4,-1.2690311996266246E-4,8.780284551903605E-4,-5.327553749084473,21.369508743286133,-36.563072204589844,-0.004972480237483978,0.07803396135568619,0.04810333251953125,0.06327629,-0.16027923,9.763767,-0.013928175,-0.080081016,9.764949,0
10,987.9534912109375,1.833539572544396E-4,-1.2690311996266246E-4,8.780284551903605E-4,-5.327553749084473,21.369508743286133,-36.563072204589844,-2.6397407054901123E-4,0.0731198638677597,0.0575714111328125,0.058482587,-0.15074576,9.7685,-0.016306255,-0.069174446,9.769581,0
10,987.968505859375,-8.282758062705398E-5,-1.26924947835505E-4,-1.8717744387686253E-4,-5.142683982849121,20.54206657409668,-37.08203125,0.00446450337767601,0.0726298913359642,0.033896446228027344,0.056078732,-0.15789522,9.766132,-0.018184163,-0.07561528,9.767261,0
10,987.9789428710938,5.0464936066418886E-5,-1.2694671750068665E-4,-5.3961819503456354E-5,-4.700768947601318,21.061281204223633,-37.25749588012695,0.004838526248931885,0.058371879160404205,0.03389549255371094,0.0608446,-0.1459785,9.7708645,-0.011820801,-0.064816765,9.771923,0
10,987.9789428710938,5.0464936066418886E-5,-1.2694671750068665E-4,-5.3961819503456354E-5,-5.034554481506348,21.907556533813477,-37.10161590576172,1.499578356742859E-4,0.08663855493068695,0.033893585205078125,0.06800032,-0.15789457,9.770864,-0.007917743,-0.07761508,9.772063,0
10,987.9534912109375,0.0013821788597851992,-1.269686035811901E-4,-8.528518956154585E-4,-5.052979469299316,21.36366081237793,-37.29789733886719,-0.0095820352435112,0.08151635527610779,0.0291595458984375,0.05603686,-0.15312769,9.773229,-0.018698625,-0.069853485,9.7743225,0
10,987.9716186523438,1.838916796259582E-4,-6.596221937797964E-4,3.456271952018142E-4,-5.084963798522949,20.912424087524414,-37.497520446777344,-0.005082875490188599,0.08101517707109451,0.06229972839355469,0.07036233,-0.15074404,9.754291,-0.0040957406,-0.07056404,9.755454,0
10,987.9539794921875,-8.228939259424806E-5,8.050932665355504E-4,4.7884287778288126E-4,-5.348585605621338,21.56072425842285,-36.87895965576172,-0.019458714872598648,0.05692633241415024,0.038626670837402344,0.06556857,-0.15551026,9.766126,-0.008924659,-0.07383699,9.7673,0
10,987.964111328125,4.5061117270961404E-4,4.0557573083788157E-4,2.1264224778860807E-4,-4.523615837097168,21.33281135559082,-37.76258850097656,0.004690892994403839,0.06629359722137451,0.03862476348876953,0.055994987,-0.15312661,9.766125,-0.016318861,-0.06956113,9.767224,0
10,987.9490966796875,4.5074563240632415E-4,-9.260253864340484E-4,2.126998733729124E-4,-5.265161037445068,20.637948989868164,-36.83781814575195,2.948157489299774E-4,0.061153195798397064,0.038620948791503906,0.060760826,-0.14120997,9.766123,-0.011961371,-0.057957307,9.767154,0
10,987.9788818359375,3.1772226793691516E-4,6.058311555534601E-6,2.1275749895721674E-4,-5.571389675140381,22.036954879760742,-36.94947814941406,2.1053850650787354E-4,0.08454374223947525,0.052822113037109375,0.06074691,-0.16027577,9.766122,-0.016232256,-0.07608304,9.767317,0
10,987.9539794921875,-3.4793297527357936E-4,-2.602793392725289E-4,0.0010117627680301666,-5.385679244995117,21.473356246948242,-36.94511413574219,0.005053255707025528,0.06505539268255234,0.04335212707519531,0.06551278,-0.14120923,9.775589,-0.0069064572,-0.058213472,9.776653,0
10,987.9585571289062,4.511490114964545E-4,-2.603011962492019E-4,6.123466300778091E-4,-4.742427825927734,20.969499588012695,-37.09173583984375,-0.008979007601737976,0.06956799328327179,0.043349266052246094,0.058329105,-0.15312524,9.75665,-0.015009597,-0.06858206,9.757773,0
10,987.9843139648438,1.849678228609264E-4,5.99282793700695E-6,4.792463150806725E-4,-5.625087738037109,22.039308547973633,-36.864349365234375,0.005272962152957916,0.08342646062374115,0.03387737274169922,0.05592525,-0.16980784,9.768486,-0.023362365,-0.08297169,9.769741,0
10,987.9540405273438,-3.4752959618344903E-4,-1.271868823096156E-4,2.129881177097559E-4,-5.429945945739746,22.11667823791504,-36.89895248413086,0.009459678083658218,0.08275663107633591,0.03381538391113281,0.05176562,-0.15314014,9.768541,-0.0226265,-0.06533855,9.769633,0
10,987.9517822265625,-6.159801851026714E-4,-2.599983708932996E-4,2.120731514878571E-4,-5.543291091918945,22.221403121948242,-37.118568420410156,-6.530508399009705E-4,0.0631597638130188,0.04328155517578125,0.05894679,-0.15075715,9.768543,-0.014690347,-0.06424388,9.769662,0
10,987.9515380859375,-7.529537542723119E-4,0.0013385163620114326,-5.5878073908388615E-5,-5.302360534667969,21.656923294067383,-37.276634216308594,0.01353127509355545,0.053296491503715515,0.048012733459472656,0.054178357,-0.13645776,9.766176,-0.015496384,-0.049032636,9.767145,0
10,987.9844970703125,1.790418173186481E-4,6.954825948923826E-6,-5.592516390606761E-5,-5.226652145385742,21.833127975463867,-37.22162628173828,-0.0197596438229084,0.06258310377597809,0.03854084014892578,0.0709191,-0.15075774,9.766178,-0.0022958405,-0.066553615,9.767372,0
11,987.9566650390625,4.452476860024035E-4,-3.925011260434985E-4,-4.554460756480694E-4,-5.070424556732178,21.189523696899414,-37.669944763183594,-0.01488003134727478,0.057687774300575256,0.052741050720214844,0.07093051,-0.15314128,9.759077,-0.0028500445,-0.0687987,9.760294,0
11,987.9795532226562,7.114533218555152E-4,6.990623660385609E-6,-5.88651280850172E-4,-5.490029811859131,21.48099708557129,-36.929481506347656,-0.005078107118606567,0.06207340210676193,0.033797264099121094,0.058992445,-0.14837496,9.768547,-0.014558759,-0.060712032,9.769653,0
11,987.9820556640625,-8.760421769693494E-5,-2.593074459582567E-4,3.4340721322223544E-4,-5.192358016967773,20.9171199798584,-37.32727813720703,-0.0048249587416648865,0.05676952004432678,0.062195777893066406,0.063783646,-0.14360876,9.749611,-0.008398976,-0.056914665,9.750709,0
11,987.9566650390625,-4.87188168335706E-4,-6.587633979506791E-4,3.4336006501689553E-4,-5.151379585266113,21.27128028869629,-36.89241027832031,-0.014607075601816177,0.08001353591680527,0.05272197723388672,0.07335466,-0.16267519,9.763815,-0.0028499477,-0.07704723,9.7651415,0
11,987.98974609375,-7.536139455623925E-4,1.4020217349752784E-4,7.699697744101286E-5,-5.0900726318359375,21.27629280090332,-37.36405944824219,-0.009612303227186203,0.04136573523283005,0.029043197631835938,0.063806534,-0.13645945,9.773285,-0.006131284,-0.048713848,9.7743225,0
11,987.9845581054688,-3.54250252712518E-4,7.062044460326433E-6,-3.225239925086498E-4,-5.207983016967773,21.376596450805664,-37.35175323486328,-0.004726134240627289,0.055151790380477905,0.03377056121826172,0.06142798,-0.14599289,9.773285,-0.010846671,-0.05689022,9.774397,0
11,987.9517822265625,-8.804438402876258E-5,-5.255518481135368E-4,3.4321844577789307E-4,-5.350948810577393,21.295400619506836,-37.324974060058594,-0.009705360978841782,0.04528046399354935,0.029033660888671875,0.059049517,-0.14360978,9.77092,-0.012738787,-0.05367005,9.771997,0
11,987.96435546875,-3.544703940860927E-4,6.728874868713319E-4,4.76329296361655E-4,-5.001102447509766,20.727705001831055,-37.7305908203125,0.004685889929533005,0.05940094590187073,0.03376483917236328,0.05906093,-0.14122684,9.763819,-0.010885071,-0.051526763,9.764876,0
11,987.9744262695312,3.112094127573073E-4,1.4027359429746866E-4,-5.6349614169448614E-5,-4.7544660568237305,21.063631057739258,-37.17237854003906,-0.004963364452123642,0.06397642195224762,0.04796600341796875,0.061462224,-0.15314348,9.770922,-0.012563091,-0.06314726,9.772102,0
11,987.9795532226562,-3.5469053545966744E-4,-2.591824159026146E-4,2.0991906058043242E-4,-5.467880725860596,21.765466690063477,-37.48843002319336,0.004305634647607803,0.05385834723711014,0.043227195739746094,0.061473668,-0.15314378,9.763821,-0.011203069,-0.062893026,9.765006,0
11,987.9871826171875,1.7783133080229163E-4,9.392569190822542E-4,-4.559177905321121E-4,-5.19550895690918,22.02052116394043,-37.545326232910156,-2.9582902789115906E-4,0.0679309293627739,0.04322338104248047,0.06148511,-0.15314414,9.76619,-0.010319952,-0.06278389,9.767376,0
11,987.952392578125,8.435110212303698E-4,2.7348508592695E-4,-5.6491000577807426E-5,-4.737563610076904,21.606050491333008,-36.898780822753906,-6.646290421485901E-4,0.05343160033226013,0.04322242736816406,0.05910659,-0.12931158,9.763823,-0.008335406,-0.038672417,9.764778,0
11,987.9674072265625,-2.2186251590028405E-4,5.398188368417323E-4,4.76093526231125E-4,-5.46537971496582,22.136701583862305,-37.741493225097656,0.008858110755681992,0.053383298218250275,0.02901744842529297,0.059118032,-0.15076132,9.780395,-0.013085876,-0.05937895,9.781546,0
11,987.9947509765625,3.1065900111570954E-4,-7.917426992207766E-4,-3.229012945666909E-4,-5.2440972328186035,21.658994674682617,-37.593666076660156,-0.005344867706298828,0.06720732897520065,0.04321479797363281,0.06629914,-0.16506131,9.7661915,-0.009504013,-0.0745764,9.767522,0
11,987.9622192382812,4.4233223889023066E-5,4.066965775564313E-4,3.428412601351738E-4,-5.177818775177002,21.194223403930664,-37.49970245361328,-0.005312476307153702,0.06669319421052933,0.038474082946777344,0.06153074,-0.15076192,9.770927,-0.01029494,-0.059091434,9.7720995,0
11,987.9922485351562,-3.55350726749748E-4,1.4039856614544988E-4,-3.2299570739269257E-4,-5.078577041625977,21.55045509338379,-37.381874084472656,-0.005045078694820404,0.07576882094144821,0.038466453552246094,0.06393209,-0.16029523,9.761459,-0.0107133575,-0.06843603,9.76274,0
11,987.9976196289062,4.401308251544833E-5,-0.0010580049129202962,7.643108256161213E-5,-5.069881916046143,20.821237564086914,-37.571495056152344,0.00434422492980957,0.05674678832292557,0.04320240020751953,0.054383904,-0.1436127,9.761461,-0.01606132,-0.050069533,9.7625265,0
11,987.9570922851562,0.0015086405910551548,6.730661843903363E-4,7.638393435627222E-5,-5.195944786071777,21.2824649810791,-37.2711181640625,-0.005336754024028778,0.05669692903757095,0.038466453552246094,0.06156501,-0.15314601,9.770931,-0.010810573,-0.060950562,9.772129,0
11,987.9800415039062,-4.421296762302518E-4,2.9211834771558642E-5,-0.0011324509978294373,-5.030425071716309,21.173921585083008,-37.05931854248047,-0.005497198551893234,0.04687563329935074,0.06213569641113281,0.05679664,-0.14837976,9.761463,-0.0142093375,-0.05506903,9.762591,0
11,987.9495239257812,3.567078383639455E-4,8.281773189082742E-4,-5.998663837090135E-4,-5.103631973266602,21.368959426879883,-37.367393493652344,-7.599592208862305E-4,0.06068918853998184,0.043193817138671875,0.06397772,-0.15076335,9.761463,-0.008132361,-0.058480397,9.762658,0
11,987.979736328125,-1.7603382002562284E-4,-1.0391042451374233E-4,-2.0043947733938694E-4,-5.260158538818359,21.38041877746582,-37.34394073486328,-0.01054418832063675,0.050730131566524506,0.04786109924316406,0.069081604,-0.14600475,9.775698,-0.0022998154,-0.054381847,9.77688,0
11,987.979736328125,-1.7603382002562284E-4,-1.0391042451374233E-4,-2.0043947733938694E-4,-5.260158538818359,21.38041877746582,-37.34394073486328,0.008713576942682266,0.06942789256572723,0.057323455810546875,0.059865028,-0.15316291,9.754423,-0.012629677,-0.059091777,9.755623,0
11,987.96728515625,3.564878134056926E-4,-5.033663474023342E-4,4.653029900509864E-4,-5.170889854431152,21.463960647583008,-37.28559875488281,-0.014893073588609695,0.05950893461704254,0.028908729553222656,0.06707156,-0.15078057,9.76863,-0.005053278,-0.057842344,9.769852,0
11,987.9727783203125,-7.09120649844408E-4,-0.0011725439690053463,-3.3806293504312634E-4,-4.928437232971191,20.900957107543945,-37.52096939086914,-2.7864426374435425E-4,0.0494982972741127,0.0667734146118164,0.05037898,-0.14601494,9.759165,-0.019771114,-0.049307585,9.7602415,0
12,987.9574584960938,4.870966076850891E-4,-5.063964053988457E-4,6.046640919521451E-5,-5.054501056671143,21.3621883392334,-37.22059631347656,0.00963113084435463,0.049289047718048096,0.038360595703125,0.062365294,-0.14124925,9.768637,-0.008081306,-0.046671018,9.769743,0
12,987.9601440429688,-3.1220540404319763E-4,-0.0015716024208813906,-2.0600151037797332E-4,-5.110562324523926,21.099214553833008,-37.58148956298828,-0.009254533797502518,0.049001701176166534,0.047820091247558594,0.057622254,-0.15554987,9.759172,-0.016378291,-0.059222728,9.760388,0
12,987.96728515625,0.0012853353982791305,-3.731233300641179E-4,6.016239058226347E-5,-5.04094123840332,21.2695255279541,-37.217262268066406,0.009909193962812424,0.05835093557834625,0.04781532287597656,0.050489336,-0.14840086,9.759174,-0.021472346,-0.05053954,9.760279,0
12,987.9652099609375,-4.460724303498864E-4,-3.7306579179130495E-4,-6.057791761122644E-4,-5.359102249145508,21.656328201293945,-37.03689956665039,0.014627553522586823,0.053589701652526855,0.05254650115966797,0.05291599,-0.1507851,9.759178,-0.02016465,-0.05321317,9.760321,0
12,987.9476928710938,3.525206120684743E-4,1.5962350880727172E-4,1.9301642896607518E-4,-5.4353532791137695,21.848413467407227,-37.19036102294922,0.005110766738653183,0.05293113738298416,0.0525360107421875,0.06012249,-0.14125295,9.754447,-0.010890644,-0.045015022,9.755547,0
12,987.9724731445312,-5.79939573071897E-4,1.5968107618391514E-4,-2.0660931477323174E-4,-5.835065841674805,21.052690505981445,-37.08220291137695,0.009670745581388474,0.043195940554142,0.03359413146972656,0.04581988,-0.14125378,9.766287,-0.025714997,-0.040688366,9.767297,0
12,987.9981689453125,-3.139781765639782E-4,2.6580702979117632E-5,1.9271258497610688E-4,-5.253826141357422,20.38588523864746,-37.97957992553711,0.0049890391528606415,0.04729822278022766,0.04305267333984375,0.055416286,-0.143638,9.754454,-0.01614118,-0.045268565,9.75555,0
12,987.988037109375,-4.801678005605936E-5,-5.059934919700027E-4,-7.375533459708095E-5,-5.318667411804199,22.3787784576416,-36.70048522949219,-0.004562560468912125,0.056831106543540955,0.03357887268066406,0.055453062,-0.15078871,9.773396,-0.016992416,-0.05231513,9.774562,0
12,987.9727783203125,3.5110244061797857E-4,-2.3962004343047738E-4,-6.06538902502507E-4,-5.188472747802734,21.18391227722168,-36.95856475830078,0.00981929525732994,0.04688800126314163,0.03357124328613281,0.055489838,-0.14840631,9.775766,-0.016740672,-0.049450085,9.776911,0
12,987.962646484375,-7.145156851038337E-4,1.599112874828279E-4,1.922567025758326E-4,-5.509976387023926,20.935632705688477,-37.048465728759766,0.019169572740793228,0.07508882135152817,0.05250358581542969,0.04835692,-0.16270693,9.763933,-0.027760737,-0.06101557,9.765179,0
12,987.9527587890625,3.503933548927307E-4,-2.3950496688485146E-4,4.584206617437303E-4,-5.027923583984375,21.5451602935791,-37.31238555908203,-0.004565335810184479,0.027216486632823944,0.03355884552001953,0.057953298,-0.13410844,9.775772,-0.01052314,-0.03563685,9.776795,0
12,987.9498901367188,8.372298907488585E-5,-2.3944739950820804E-4,1.919528003782034E-4,-5.748704433441162,21.239206314086914,-37.56833267211914,-0.009129785001277924,0.05059196054935455,0.01934528350830078,0.060379982,-0.1436425,9.78051,-0.012019649,-0.04451719,9.781642,0
12,987.9476928710938,8.3368388004601E-5,-0.001171495532616973,9.907485218718648E-4,-5.463750839233398,21.031831741333008,-37.446136474609375,0.019573569297790527,0.05067702382802963,0.04774951934814453,0.04607737,-0.14840995,9.771044,-0.026635692,-0.045923434,9.772135,0
12,987.9807739257812,2.1617161110043526E-4,1.6014155698940158E-4,3.2480686786584556E-4,-5.541226387023926,21.854585647583008,-37.09741973876953,0.015181049704551697,0.05025199055671692,0.03353404998779297,0.048504084,-0.1507941,9.768681,-0.024823707,-0.04871422,9.769813,0
12,987.98291015625,3.4897506702691317E-4,-0.0011713802814483643,-7.481890497729182E-5,-5.167004585266113,21.730756759643555,-36.91688919067383,-0.004055939614772797,0.05011507868766785,0.03826427459716797,0.058100462,-0.14602853,9.766317,-0.0136176795,-0.046387203,9.767463,0
12,987.9428100585938,2.1546264179050922E-4,-2.3921718820929527E-4,5.818705540150404E-5,-4.863925933837891,21.435144424438477,-37.023277282714844,6.203204393386841E-4,0.04029668867588043,0.042995452880859375,0.058137268,-0.15079589,9.759218,-0.013951078,-0.050905704,9.760414,0
12,987.9503784179688,-1.8436566460877657E-4,4.266301402822137E-4,-2.0828080596402287E-4,-5.615412712097168,21.679853439331055,-37.229736328125,0.01422339677810669,0.04964213818311691,0.03352546691894531,0.0533942,-0.14364703,9.766323,-0.01767765,-0.042263158,9.767418,0
12,987.97021484375,-5.156232509762049E-5,0.0017582671716809273,-7.410643738694489E-4,-5.3379316329956055,21.57103157043457,-37.42008972167969,-0.005031473934650421,0.04471740871667862,0.042990684509277344,0.055820942,-0.15318097,9.76396,-0.016939659,-0.05218932,9.765167,0
12,987.985595703125,2.143988385796547E-4,2.7271395083516836E-5,-2.0858464995399117E-4,-4.669626235961914,21.24867057800293,-37.581199645996094,0.004745185375213623,0.04443708062171936,0.05718517303466797,0.05585766,-0.15318187,9.756862,-0.01653289,-0.052117176,9.758071,0
12,987.9707641601562,-5.2271527238190174E-5,-6.384607404470444E-4,-7.55786313675344E-5,-5.15330696105957,21.7440128326416,-37.612632751464844,-0.009359452873468399,0.058261558413505554,0.038238525390625,0.058284402,-0.15318282,9.77817,-0.014266364,-0.051938273,9.779394,0
12,987.960205078125,-3.189417766407132E-4,-9.047191124409437E-4,-4.752043751068413E-4,-4.966073036193848,21.181886672973633,-37.685577392578125,0.005356904119253159,0.0338541641831398,0.04769420623779297,0.05593124,-0.14603384,9.756868,-0.016733713,-0.04346607,9.75801,0
12,987.963623046875,-3.1929637771099806E-4,-7.715036044828594E-4,-4.753562971018255E-4,-5.823432922363281,21.432764053344727,-37.799095153808594,-0.018497776240110397,0.05274026095867157,0.028751373291015625,0.06954506,-0.14839931,9.771006,-0.0031466,-0.048971742,9.772258,0
12,987.943115234375,2.1479057613760233E-4,1.6036577289924026E-4,-2.0841689547523856E-4,-5.322850227355957,21.47984504699707,-37.49406433105469,0.01631307229399681,0.03350416570901871,0.04782676696777344,0.044874728,-0.13408075,9.770935,-0.023600794,-0.029163808,9.771888,0
12,987.9605102539062,6.246581324376166E-4,-1.0566946002654731E-4,-8.673116681165993E-4,-5.545111656188965,21.587793350219727,-37.46613311767578,-0.0027449317276477814,0.04287942498922348,0.04309654235839844,0.061579943,-0.15314634,9.759096,-0.012297217,-0.051560484,9.760347,0
12,987.9605102539062,6.246581324376166E-4,-1.0566946002654731E-4,-8.673116681165993E-4,-5.545111656188965,21.587793350219727,-37.46613311767578,0.006670016795396805,0.04760603606700897,0.043097496032714844,0.049606323,-0.14599596,9.773296,-0.02107821,-0.041956715,9.7744,0
13,987.966064453125,-4.089920548722148E-5,0.0012258723145350814,6.489345105364919E-5,-4.859796047210693,20.701509475708008,-36.980987548828125,0.006512429565191269,0.028105854988098145,0.03362560272216797,0.05436206,-0.14837863,9.763826,-0.016811423,-0.045008026,9.764988,0
13,987.9611206054688,9.249098366126418E-5,-5.052186897955835E-4,6.499298615381122E-5,-4.979090690612793,20.906251907348633,-37.59046173095703,-0.007755111902952194,0.04704083502292633,0.03362751007080078,0.061507642,-0.14122827,9.7638235,-0.009027295,-0.03934522,9.764955,0
13,987.9483032226562,9.272334864363074E-5,5.600071744993329E-4,-4.6753924107179046E-4,-5.525601387023926,21.395109176635742,-37.07294464111328,0.015673115849494934,0.046954624354839325,0.02889728546142578,0.0423643,-0.15314408,9.773291,-0.028858963,-0.046895728,9.774426,0
13,987.9509887695312,3.592713619582355E-4,5.59969455935061E-4,6.519199814647436E-5,-5.080641746520996,21.917268753051758,-37.40301513671875,-0.008402552455663681,0.056200236082077026,0.04783439636230469,0.06384933,-0.15314348,9.766188,-0.007889196,-0.05142077,9.76746,0
13,987.9408569335938,4.926617839373648E-4,1.6045788652263582E-4,-0.0012662876397371292,-5.13974666595459,21.65135383605957,-37.60930252075195,0.006410699337720871,0.046330519020557404,0.04783058166503906,0.05187571,-0.15314288,9.773286,-0.020218976,-0.048103563,9.774486,0
13,987.9635009765625,-4.3921155156567693E-4,-0.001038001268170774,-6.776663940399885E-5,-5.204939365386963,21.379549026489258,-37.50636672973633,0.010911662131547928,0.04596434533596039,0.04783153533935547,0.049461722,-0.14360918,9.754347,-0.02032042,-0.03799609,9.755435,0
13,987.9635009765625,-4.3921155156567693E-4,-0.001038001268170774,-6.776663940399885E-5,-5.527666091918945,21.761926651000977,-37.094085693359375,0.005974840372800827,0.03175368905067444,0.028898239135742188,0.047047704,-0.13407548,9.773282,-0.02060029,-0.027839102,9.774252,0
13,987.9662475585938,-2.0576128736138344E-4,0.0011280847247689962,3.6258227191865444E-4,-5.627749443054199,21.141847610473633,-37.73524475097656,0.010721981525421143,0.04611845314502716,0.043105125427246094,0.054193318,-0.14122473,9.759076,-0.014737066,-0.037068836,9.760167,0
13,987.963623046875,5.936509696766734E-4,1.9590376177802682E-4,-7.024822407402098E-4,-5.683649063110352,21.405099868774414,-36.972190856933594,-0.0037312842905521393,0.04097650945186615,0.043105125427246094,0.058949023,-0.1531405,9.768543,-0.013731562,-0.049303196,9.769788,0
13,987.9483032226562,3.275674534961581E-4,-2.036077348748222E-4,-3.02908883895725E-4,-5.097139358520508,20.9006404876709,-36.87908172607422,0.015342801809310913,0.036195121705532074,0.052575111389160156,0.03980568,-0.14837332,9.766174,-0.029997367,-0.040338196,9.767254,0
13,987.9509887695312,-2.0483217667788267E-4,4.6214432222768664E-4,8.956122910603881E-4,-5.257114887237549,21.383363723754883,-37.49855041503906,7.13590532541275E-4,0.04535461962223053,0.024168968200683594,0.054121017,-0.14598949,9.7709055,-0.015227757,-0.040951066,9.772047,0
13,987.9560546875,-2.0459969528019428E-4,3.289486048743129E-4,6.293959449976683E-4,-5.1425461769104,20.647981643676758,-37.78111267089844,0.014821678400039673,0.040323883295059204,0.033638954162597656,0.04931709,-0.14360563,9.773271,-0.01915102,-0.03723514,9.77436,0
13,987.9610595703125,1.9510637503117323E-4,3.2891082810238004E-4,-3.6294281017035246E-5,-5.485869407653809,21.959627151489258,-37.95892333984375,-0.004300303757190704,0.04502648860216141,0.04310894012451172,0.06124252,-0.14837159,9.766167,-0.008669019,-0.04469648,9.767381,0
13,987.9509887695312,1.9533862359821796E-4,5.951890489086509E-4,-3.619462950155139E-5,-5.3167619705200195,21.485734939575195,-37.80328369140625,0.009788084775209427,0.044624440371990204,0.04784393310546875,0.05165881,-0.14360444,9.768532,-0.016607888,-0.037744574,9.769637,0
13,988.0012817382812,1.9557098858058453E-4,3.28835507389158E-4,-9.682007948867977E-4,-5.318284034729004,21.48426628112793,-37.725982666015625,0.014685425907373428,0.058687277138233185,0.03837299346923828,0.054024577,-0.16028674,9.780366,-0.0181056,-0.05386243,9.781664,0
13,987.9713134765625,-3.3682852517813444E-4,-2.0383398805279285E-4,-3.599555930122733E-5,-5.692643165588379,21.50217628479004,-37.207435607910156,4.107244312763214E-4,0.04391856491565704,0.043105125427246094,0.04922068,-0.15551962,9.766161,-0.022328502,-0.047441117,9.767382,0
13,987.9916381835938,-6.029120413586497E-4,6.24441890977323E-5,2.3041991516947746E-4,-5.262223243713379,21.747236251831055,-37.365081787109375,0.01438678428530693,0.06773056834936142,0.03364086151123047,0.05158651,-0.1602856,9.768525,-0.019711234,-0.053138487,9.769812,0
13,987.9610595703125,0.001527847140096128,3.2872235169634223E-4,-3.5796372685581446E-5,-5.311491966247559,21.64808464050293,-36.81280517578125,-0.00429559126496315,0.029004819691181183,0.038369178771972656,0.06112203,-0.1412188,9.770891,-0.0061159357,-0.036559008,9.772034,0
13,987.9613647460938,-7.356053683906794E-4,-7.078918861225247E-5,7.632507476955652E-4,-5.5571489334106445,21.681921005249023,-37.54676818847656,0.014941837638616562,0.0382535383105278,0.05730438232421875,0.046758473,-0.15075128,9.756685,-0.023042522,-0.041614003,9.757846,0
13,987.9381713867188,-0.001401162939146161,-7.36616610083729E-4,-5.682290648110211E-4,-5.182384490966797,21.18980598449707,-37.26778793334961,0.005022313445806503,0.03310465067625046,0.057305335998535156,0.053904116,-0.14598413,9.759049,-0.014062889,-0.038583398,9.760202,0
13,987.9436645507812,1.969647128134966E-4,3.2860919600352645E-4,-3.0181376496329904E-4,-5.23358154296875,21.563390731811523,-37.435726165771484,-0.004802372306585312,0.052067242562770844,0.03837013244628906,0.058659792,-0.15313338,9.7614155,-0.010722164,-0.046597205,9.762676,0
13,988.0067749023438,3.303551347926259E-4,0.001127519179135561,9.775959188118577E-5,-5.52918815612793,21.760454177856445,-37.01678466796875,0.004521351307630539,0.037567682564258575,0.038341522216796875,0.054175436,-0.1483741,9.763809,-0.014454082,-0.04053375,9.764993,0
13,987.9741821289062,3.2658956479281187E-4,-4.6835525427013636E-4,9.782804409042001E-5,-4.711422920227051,21.05097007751465,-36.71636199951172,-0.009602788835763931,0.03755831718444824,0.038341522216796875,0.061333716,-0.14360721,9.768542,-0.0054599456,-0.037696652,9.769716,0
13,987.9843139648438,4.58367052488029E-4,-6.86574203427881E-5,-5.6855333968997E-4,-5.409457206726074,22.293760299682617,-36.6815185546875,0.004533860832452774,0.042114175856113434,0.05254364013671875,0.046982884,-0.14837356,9.756705,-0.02092905,-0.03890326,9.757848,0
13,987.9741821289062,-4.7362828627228737E-4,7.302723242901266E-4,0.001029389095492661,-5.001920700073242,20.8841609954834,-36.430885314941406,0.004400309175252914,0.036876045167446136,0.043071746826171875,0.051751286,-0.15313978,9.76854,-0.017033037,-0.044132315,9.769763,0
14,987.9741821289062,-6.066763307899237E-4,-3.3500901190564036E-4,6.29962480161339E-4,-5.350949287414551,21.2954044342041,-37.324974060058594,-0.005237780511379242,0.03140256553888321,0.04306507110595703,0.061299473,-0.14360638,9.75907,-0.0057025105,-0.036406584,9.760251,0
14,987.99169921875,-4.7340826131403446E-4,-2.018689556280151E-4,-3.020958974957466E-4,-5.900908470153809,22.25551414489746,-37.450374603271484,0.004352904856204987,0.045475974678993225,0.03359413146972656,0.05889815,-0.15313922,9.7638035,-0.0108925495,-0.04466807,9.765073,0
14,987.9462280273438,-2.0698225125670433E-4,5.970607744529843E-4,-4.352065734565258E-4,-5.478534698486328,21.755159378051758,-36.947296142578125,0.004712071269750595,0.03578224033117294,0.06199932098388672,0.05410695,-0.14360587,9.759068,-0.012831412,-0.034275725,9.760206,0
14,987.9767456054688,1.9271159544587135E-4,-7.34554254449904E-4,2.3067730944603682E-4,-5.153444290161133,21.638093948364258,-36.91355895996094,3.6050379276275635E-4,0.03574453294277191,0.047794342041015625,0.056485415,-0.14360557,9.761435,-0.010551777,-0.034741223,9.762588,0
14,987.9767456054688,1.9271159544587135E-4,-7.34554254449904E-4,2.3067730944603682E-4,-5.153444290161133,21.638093948364258,-36.91355895996094,0.014441236853599548,0.03076731413602829,0.061997413635253906,0.049304277,-0.1436053,9.751965,-0.017523892,-0.03297794,9.753074,0
14,987.991943359375,-2.0665209740400314E-4,9.96480928733945E-4,-1.6874924767762423E-4,-5.20882511138916,21.112749099731445,-37.87507629394531,-0.009827185422182083,0.04003877192735672,0.02885723114013672,0.0612424,-0.14598824,9.78037,-0.006746864,-0.037474178,9.781578,0
14,987.9744873046875,7.25563382729888E-4,-6.880040746182203E-5,9.761366527527571E-5,-5.472202301025391,20.760622024536133,-37.58293533325195,-0.009723450988531113,0.049401529133319855,0.03832530975341797,0.061230958,-0.16267093,9.773268,-0.0104092285,-0.053631492,9.774661,0
14,987.9467163085938,5.9883808717131615E-5,3.3065566094592214E-4,4.971346934325993E-4,-5.3148345947265625,21.013002395629883,-37.08306121826172,0.004578288644552231,0.05893826484680176,0.033591270446777344,0.05404985,-0.1602874,9.780369,-0.016298257,-0.049685985,9.781692,0
14,987.971923828125,3.2630981877446175E-4,1.9747979240491986E-4,-3.54499788954854E-5,-5.385242938995361,22.21141242980957,-37.219322204589844,-0.004993993788957596,0.04451156407594681,0.02885723114013672,0.06359804,-0.15552048,9.770899,-0.005707372,-0.047259644,9.772226,0
14,987.956787109375,3.264198312535882E-4,1.9746192265301943E-4,3.640711074694991E-4,-5.2161359786987305,21.737524032592773,-37.063682556152344,0.009161345660686493,0.04891163855791092,0.04305839538574219,0.051637113,-0.15075372,9.766163,-0.015932284,-0.03965719,9.767369,0
14,987.9619140625,6.02139625698328E-5,9.963915217667818E-4,-4.348292713984847E-4,-4.953493118286133,20.719465255737305,-37.506492614746094,0.018696431070566177,0.05819995701313019,0.04779052734375,0.044455975,-0.1722029,9.754326,-0.028930873,-0.058219388,9.75573,0
14,987.9744873046875,-7.283384911715984E-5,-8.678372832946479E-4,-1.6846635844558477E-4,-5.426114082336426,20.75090980529785,-37.281532287597656,-0.004909012466669083,0.03879611939191818,0.043051719665527344,0.061173916,-0.15075313,9.763794,-0.007471923,-0.0411034,9.76506,0
14,987.9796752929688,1.9359192810952663E-4,-3.3522339072078466E-4,2.310546115040779E-4,-5.4115753173828125,21.02800941467285,-37.453956604003906,-0.0049078091979026794,0.053105972707271576,0.024115562438964844,0.06355235,-0.15075289,9.785097,-0.0041597933,-0.04155463,9.786376,0
14,987.9644775390625,3.2685999758541584E-4,-2.020833344431594E-4,-1.6837194561958313E-4,-4.951534271240234,21.458986282348633,-37.858001708984375,-0.004893679171800613,0.03852763772010803,0.04305076599121094,0.053981304,-0.14598604,9.77326,-0.012860186,-0.034495987,9.77443,0
14,987.9973754882812,-6.051354575902224E-4,4.6368851326406E-4,7.637807866558433E-4,-5.14170503616333,20.911828994750977,-37.257789611816406,0.01402035728096962,0.03812841325998306,0.04304981231689453,0.04441029,-0.15313555,9.768524,-0.023353431,-0.039035477,9.76972,0
14,987.97998046875,-7.23936827853322E-5,-2.0211905939504504E-4,0.001163301756605506,-5.176977634429932,21.458070755004883,-36.97637939453125,-0.00985417515039444,0.033203572034835815,0.038313865661621094,0.06351811,-0.14360224,9.76379,-0.0034816097,-0.033954732,9.764992,0
14,987.97998046875,-7.23936827853322E-5,-2.0211905939504504E-4,0.001163301756605506,-5.7683515548706055,21.32597541809082,-37.26244354248047,0.023577608168125153,0.03276977688074112,0.05724811553955078,0.041997552,-0.13883539,9.759054,-0.022745369,-0.023631074,9.7600765,0
14,987.9924926757812,3.2719015143811703E-4,-3.352948697283864E-4,6.307170842774212E-4,-5.496416091918945,20.842973709106445,-37.045135498046875,0.004299774765968323,0.047048360109329224,0.033577919006347656,0.058715433,-0.15313475,9.780357,-0.009498518,-0.041537717,9.781641,0
14,987.9796752929688,-3.384893061593175E-4,6.41611113678664E-5,2.312905271537602E-4,-5.396195411682129,21.5689640045166,-37.103057861328125,0.01398911327123642,0.041908442974090576,0.04304313659667969,0.051534325,-0.15075125,9.76852,-0.015122663,-0.037594467,9.769736,0
14,987.9649658203125,-1.1829542927443981E-4,-5.495327641256154E-4,8.987975888885558E-4,-5.633538246154785,21.768095016479492,-37.00115203857422,0.01878945901989937,0.036984317004680634,0.07618331909179688,0.04196328,-0.1364512,9.744847,-0.021869242,-0.021068595,9.745846,0
14,987.9367065429688,2.8128852136433125E-4,3.825549501925707E-4,-3.3260846976190805E-5,-5.492530822753906,21.109766006469727,-36.676422119140625,-8.799657225608826E-4,0.036685094237327576,0.024105072021484375,0.061228693,-0.14598794,9.773268,-0.0050540473,-0.034534194,9.7744875,0
14,987.9671020507812,1.5082652680575848E-5,5.156950210221112E-4,9.994424181059003E-5,-5.184450149536133,21.556623458862305,-37.28893280029297,0.009005110710859299,0.04130588471889496,0.024071693420410156,0.05182478,-0.15075828,9.778015,-0.015238199,-0.03676585,9.779235,0
14,987.9777221679688,-1.2065016198903322E-4,-8.154664537869394E-4,9.884074097499251E-5,-5.41929292678833,22.12699317932129,-37.440086364746094,0.003945708274841309,0.036493927240371704,0.01933765411376953,0.05182603,-0.14837508,9.778016,-0.014564242,-0.03440135,9.779209,0
14,987.9674682617188,-1.2103805784136057E-4,3.830179921351373E-4,-7.002732018008828E-4,-5.276762962341309,21.47013282775879,-37.19266128540039,0.013504933565855026,0.04547802358865738,0.05247211456298828,0.04226768,-0.15552492,9.763813,-0.025382394,-0.038755275,9.765034,0
15,987.9824829101562,-5.205239867791533E-4,-1.496117329224944E-4,-7.00278440490365E-4,-5.064038276672363,21.827558517456055,-37.554290771484375,0.004101276397705078,0.030657917261123657,0.05720043182373047,0.058998287,-0.15552495,9.759079,-0.008569859,-0.04229992,9.760401,0
15,987.97998046875,-6.536945002153516E-4,-4.1592560592107475E-4,9.866396430879831E-5,-5.200075626373291,22.01609992980957,-37.31340789794922,0.004161711782217026,0.04937434196472168,0.03825855255126953,0.051829815,-0.14599182,9.768547,-0.013600007,-0.030892678,9.769716,0
15,987.9828491210938,-1.2107472866773605E-4,-1.4960771659389138E-4,7.644484867341816E-4,-5.026945114135742,21.9149227142334,-37.488136291503906,0.003917030990123749,0.03994600474834442,0.057196617126464844,0.04944122,-0.16029163,9.759079,-0.018602666,-0.044688337,9.760401,0
15,987.95263671875,8.110187482088804E-4,2.4986802600324154E-4,2.3181142751127481E-4,-5.161757946014404,21.472803115844727,-37.74943161010742,0.013618558645248413,0.0444333553314209,0.028787612915039062,0.05900204,-0.14599197,9.77565,-0.0066228937,-0.032242194,9.776862,0
15,987.9879150390625,-1.2109940871596336E-4,-8.15393403172493E-4,-8.334573358297348E-4,-5.387499809265137,20.839746475219727,-37.29267883300781,0.013631854206323624,0.03442787379026413,0.038249969482421875,0.05183363,-0.15552507,9.773283,-0.016363192,-0.03917431,9.774565,0
15,987.9573364257812,-0.001053216983564198,6.493457476608455E-4,-1.6767287161201239E-4,-5.479376316070557,21.49131202697754,-37.470619201660156,0.01804974302649498,0.043538644909858704,0.05718421936035156,0.049445033,-0.15075852,9.763814,-0.016921872,-0.03382325,9.765031,0
15,987.9752197265625,-3.874393878504634E-4,5.161899025551975E-4,7.644275319762528E-4,-5.21599817276001,21.84343910217285,-37.762760162353516,0.02272215485572815,0.024268977344036102,0.042980194091796875,0.049446285,-0.14599209,9.763814,-0.015161689,-0.029267319,9.764975,0
15,987.9522094726562,6.778116803616285E-4,-2.827557909768075E-4,-3.0084128957241774E-4,-5.206460952758789,21.378068923950195,-37.42906188964844,-0.015078611671924591,0.03354421257972717,0.03350543975830078,0.061397076,-0.1555252,9.768549,-0.006253751,-0.040827915,9.769893,0
15,987.9527587890625,-6.537799490615726E-4,-4.1591166518628597E-4,-3.45306470990181E-5,-5.071946144104004,21.18805503845215,-37.5926399230957,0.02291528880596161,0.04281969368457794,0.03350353240966797,0.0351094,-0.15790845,9.778017,-0.031963475,-0.036875926,9.779233,0
15,987.9752197265625,1.1997879482805729E-5,-1.4959380496293306E-4,9.862205479294062E-5,-5.405625820159912,20.927988052368164,-37.0640983581543,-8.364208042621613E-4,0.04207419604063034,0.03822898864746094,0.056619793,-0.15552516,9.763813,-0.011115147,-0.0386786,9.765134,0
15,987.954833984375,-5.206464556977153E-4,-4.1590776527300477E-4,2.3177475668489933E-4,-5.257795333862305,21.645742416381836,-36.897926330566406,0.0038816891610622406,0.027563251554965973,0.04769420623779297,0.05184126,-0.13884239,9.763815,-0.011233775,-0.021312043,9.764911,0
15,987.934814453125,-7.86974560469389E-4,3.8304185727611184E-4,-3.454630495980382E-5,-4.8417768478393555,21.719614028930664,-37.58222579956055,0.003906723111867905,0.02257727086544037,0.03348827362060547,0.056622326,-0.13645913,9.763815,-0.00555961,-0.020009384,9.764912,0
15,987.957763671875,-2.543546725064516E-4,-1.642995630390942E-5,-1.6770942602306604E-4,-4.674191951751709,21.244253158569336,-37.349281311035156,0.0036955587565898895,0.04612390697002411,0.03348541259765625,0.051843762,-0.15790857,9.775651,-0.01611512,-0.038964733,9.776972,0
15,987.9424438476562,-3.8752518594264984E-4,5.162038723938167E-4,-7.003465434536338E-4,-5.641989707946777,21.49688148498535,-37.13794708251953,-0.0011018440127372742,0.03136537969112396,0.0476837158203125,0.05662483,-0.14837556,9.766182,-0.008623961,-0.030704215,9.767422,0
15,987.9476318359375,-6.538530578836799E-4,-1.642596907913685E-5,4.980697995051742E-4,-5.48905086517334,21.85076332092285,-37.1052360534668,0.013727013021707535,0.03721249848604202,0.04295921325683594,0.049456418,-0.15075888,9.778018,-0.016587947,-0.032253772,9.779239,0
15,988.067138671875,0.004006662871688604,-0.0022801088634878397,-5.671989638358355E-4,-5.055480003356934,20.9924259185791,-37.04484176635742,0.009289506822824478,0.036329567432403564,0.04768085479736328,0.054237485,-0.14837559,9.759081,-0.011323012,-0.03039053,9.760305,0
15,988.0316162109375,-0.003583352081477642,9.156835149042308E-4,-4.3404637835919857E-4,-5.084665298461914,21.5445613861084,-37.07264709472656,-0.005556181073188782,0.026010267436504364,0.06187915802001953,0.056628644,-0.15314217,9.75908,-0.00921108,-0.034972087,9.760378,0
15,987.8839721679688,-5.207319045439363E-4,2.498958492651582E-4,9.858026169240475E-5,-5.0421648025512695,21.90019416809082,-36.715087890625,-7.908791303634644E-4,0.030457600951194763,0.04293632507324219,0.06140971,-0.14360912,9.756713,-0.0033644754,-0.026335552,9.757928,0
15,987.9069213867188,-1.2126995716243982E-4,-4.1589190368540585E-4,-8.335305610671639E-4,-5.84237813949585,21.677465438842773,-36.27080535888672,0.004373662173748016,0.021706953644752502,0.03820991516113281,0.056631207,-0.14360918,9.761448,-0.008452633,-0.025742099,9.762632,0
15,988.0266723632812,0.001476612756960094,-6.822057766839862E-4,9.856978431344032E-5,-5.619573593139648,21.20122718811035,-36.200286865234375,0.004366617649793625,0.03496803343296051,0.06660270690917969,0.05663246,-0.1483757,9.761448,-0.008661771,-0.029577866,9.7626915,0
15,987.9174194335938,-0.0013197162188589573,1.1674384586513042E-4,-1.6775133553892374E-4,-4.983794689178467,20.79591941833496,-36.65946578979492,0.014213185757398605,0.044040828943252563,0.028720855712890625,0.04707411,-0.1602921,9.76855,-0.02060605,-0.03854531,9.769879,0
15,987.9348754882812,-5.207804497331381E-4,-8.15359759144485E-4,-4.340724553912878E-4,-4.975886344909668,21.4354190826416,-36.621116638183594,-0.021449469029903412,0.03898795694112778,0.019098281860351562,0.07504478,-0.15795015,9.775805,0.0075482447,-0.04218456,9.777276,0
15,987.9276123046875,-3.9364828262478113E-4,0.0014493032358586788,-4.3665478006005287E-4,-5.2168169021606445,21.99989128112793,-36.46305465698242,0.00745120644569397,0.04394165426492691,0.05223369598388672,0.0488244,-0.15556855,9.761608,-0.017214265,-0.03450863,9.762894,0
15,987.9781494140625,6.669933209195733E-4,-9.514041012153029E-4,-4.4446473475545645E-4,-4.791260719299316,21.608400344848633,-36.81365966796875,0.007021177560091019,0.03881995379924774,0.056960105895996094,0.05367276,-0.16272004,9.752146,-0.014260067,-0.042134,9.753549,0
15,987.9453735351562,5.430774763226509E-7,0.001578704104758799,-5.779057973995805E-4,-5.115808486938477,21.3571720123291,-36.74894714355469,-0.0028600096702575684,0.03862154483795166,0.061687469482421875,0.06330097,-0.15795512,9.7592535,-0.004244892,-0.0393894,9.760657,0
16,987.96826171875,3.9935624226927757E-4,-1.9084021914750338E-5,8.760089986026287E-5,-5.567941188812256,21.565698623657227,-36.306556701660156,0.0016109757125377655,0.019440777599811554,0.03327369689941406,0.060979545,-0.14842369,9.773463,-0.0035161786,-0.029391706,9.774736,0
16,987.96826171875,3.9935624226927757E-4,-1.9084021914750338E-5,8.760089986026287E-5,-5.2669267654418945,21.636899948120117,-36.4340934753418,-0.008117910474538803,0.024187006056308746,0.04273700714111328,0.06104812,-0.14365895,9.764001,-0.0019890834,-0.024918959,9.765217,0
16,987.9374389648438,-7.783528417348862E-7,9.131288388743997E-4,-4.584027919918299E-5,-5.021973609924316,21.445131301879883,-36.922523498535156,-0.008683603256940842,0.0334482342004776,0.042731285095214844,0.073066175,-0.14604385,9.766374,0.009630404,-0.029770061,9.767688,0
16,987.95556640625,1.3171916361898184E-4,7.800781168043613E-4,-4.4559722300618887E-4,-5.312578201293945,22.384668350219727,-37.00970458984375,-0.00849251076579094,0.042591191828250885,0.042717933654785156,0.065965,-0.15319534,9.768747,6.0917996E-4,-0.03466539,9.77011,1
16,987.986083984375,-2.690762048587203E-4,-0.0012170764384791255,-5.793215241283178E-4,-5.307065010070801,21.54659080505371,-36.345638275146484,-0.017768967896699905,0.023600362241268158,0.06164836883544922,0.06603354,-0.15081371,9.761652,9.1797113E-4,-0.032449514,9.762986,1
16,987.9481201171875,-3.4209806472063065E-6,-2.8486366500146687E-4,-3.132887650281191E-4,-4.600823402404785,21.575437545776367,-35.917266845703125,9.693801403045654E-4,0.027752943336963654,0.06637096405029297,0.058932394,-0.15319867,9.759291,-0.005045641,-0.03278908,9.760614,1
16,987.986083984375,-2.703974023461342E-4,0.0015794547507539392,-5.79887768253684E-4,-4.953577041625977,22.246110916137695,-36.056121826171875,-0.0037419237196445465,0.013358943164348602,0.03795433044433594,0.05900094,-0.13890074,9.752195,-0.0023365058,-0.018756852,9.7533455,1
16,987.9511108398438,2.6157358661293983E-4,-6.841229624114931E-4,-4.470129497349262E-4,-4.836645126342773,21.77604103088379,-35.892662048339844,-0.0035800933837890625,0.03725026547908783,0.037947654724121094,0.06623921,-0.14605226,9.782976,0.0029019173,-0.026878133,9.784253,1
16,987.9555053710938,1.4682323671877384E-4,-4.2380247032269835E-4,1.3424304779618979E-4,-4.918440818786621,21.593950271606445,-35.63845443725586,0.0060542672872543335,0.018101602792739868,0.0474090576171875,0.05913803,-0.14843722,9.766412,-0.004765149,-0.027786836,9.767677,1
16,987.9580688476562,1.46162579767406E-4,-4.236951353959739E-4,-0.0011976195964962244,-5.201871871948242,21.802793502807617,-35.83795166015625,8.348897099494934E-4,0.01783016324043274,0.03793048858642578,0.056816697,-0.15082215,9.766418,-0.0074735396,-0.029339567,9.7677,1
16,987.9559936523438,-1.2081395834684372E-4,6.416755495592952E-4,1.3367668725550175E-4,-4.764822006225586,21.685457229614258,-36.20636749267578,-0.004121869802474976,0.03673948347568512,0.03792572021484375,0.05927515,-0.15320708,9.771158,-0.0048719496,-0.032132044,9.772485,1
16,987.9379272460938,1.1683208867907524E-5,2.4230900453403592E-4,2.6655144756659865E-4,-4.978089332580566,21.696321487426758,-35.94318771362305,-0.008242245763540268,0.027057766914367676,0.028444290161132812,0.071293175,-0.14844222,9.773532,0.0069134943,-0.029727757,9.774872,1
16,987.9912109375,-1.2213550508022308E-4,-0.0017549527110531926,-0.0018642586655914783,-5.025997161865234,21.07242774963379,-36.59215545654297,-0.0180731862783432,0.03519628942012787,0.04262542724609375,0.066581964,-0.13652755,9.773538,0.005287949,-0.01580502,9.774703,1
16,987.97119140625,-0.004250692203640938,0.001707260962575674,6.654590833932161E-4,-5.110400676727295,21.625436782836914,-36.457542419433594,0.1561131477355957,-0.17455168068408966,-0.1806783676147461,0.009292841,-0.05549778,9.962921,-0.044303853,0.12587094,9.962186,1
16,987.92041015625,-0.15405401587486267,-0.05861317738890648,-0.06005484238266945,-5.139342308044434,21.177148818969727,-36.81177520751953,-0.06146804988384247,0.0376298725605011,-0.06398582458496094,0.22684252,-0.38915843,9.882442,0.10738033,-0.1725483,9.890615,1
16,987.8695678710938,-0.22622628509998322,-0.0022872628178447485,-0.08721935749053955,-5.513945579528809,22.195486068725586,-35.96680450439453,-0.13250067830085754,-0.07609790563583374,-0.12998008728027344,0.12414527,-0.3057453,9.970036,0.054397315,0.07152918,9.975089,1
16,987.8771362304688,-0.3880138397216797,-0.018665581941604614,0.050066206604242325,-5.390191555023193,23.101503372192383,-35.96190643310547,-0.1535927951335907,-0.7235645055770874,-0.18947792053222656,0.14094308,-0.52024204,9.896658,-0.017016698,0.09249097,9.910878,1
16,987.8870239257812,-0.6143829822540283,-0.21427448093891144,-0.0045288363471627235,-5.6517486572265625,23.38298225402832,-35.32219696044922,0.5673666596412659,0.38319116830825806,-0.05616474151611328,-0.16728571,-1.0755476,9.830381,-0.34598807,-0.08176726,9.8840685,1
16,987.9225463867188,-0.7972095012664795,0.09491836279630661,-0.21664969623088837,-6.119208335876465,24.683122634887695,-34.47941589355469,-0.05761893093585968,-0.15109515190124512,0.009546279907226562,0.19126815,-1.1708806,9.662317,0.1234449,0.045045376,9.7339945,1
16,987.9384155273438,-0.9044023752212524,0.1990479826927185,-0.35300374031066895,-6.238885879516602,25.782377243041992,-34.063392639160156,0.035624705255031586,-0.6085060834884644,-0.33682918548583984,0.17938715,-1.5688897,9.882474,0.117661774,0.04769814,10.007035,1
16,987.9708862304688,-0.9711151123046875,0.056968558579683304,-0.30573293566703796,-6.260736465454102,26.13004493713379,-33.079566955566406,-0.28498685359954834,0.3630671501159668,0.45805835723876953,0.2835011,-2.4173112,9.103569,0.06154722,-0.4901433,9.410351,1
16,987.973876953125,-1.109067440032959,0.02394549362361431,-0.0767015740275383,-6.515311241149902,28.31382942199707,-31.47446632385254,-0.17242766916751862,0.2216510772705078,0.0872488021850586,0.14377731,-2.4077506,9.517728,0.06327164,-0.030769825,9.818356,1
16,987.9229125976562,-0.8062474131584167,-0.02399633638560772,0.1211773231625557,-6.635125160217285,29.30716896057129,-30.35936164855957,0.3730747103691101,-0.1546630859375,0.22165489196777344,-0.16215168,-2.679444,9.20999,-0.23548156,0.03352523,9.590258,1
16,988.0037841796875,-0.7841376662254333,-0.02466301992535591,0.08376231044530869,-6.716868877410889,30.757638931274414,-29.35386085510254,0.1539960503578186,-0.015106201171875,-0.1065359115600586,-0.19802178,-2.98212,9.444342,-0.26184726,0.08183074,9.902149,1
17,987.9937744140625,-0.682671070098877,0.024871699512004852,-0.09347080439329147,-6.154274940490723,30.967660903930664,-28.29807472229004,0.3478505313396454,-0.1259009838104248,0.10844612121582031,-0.17414431,-3.2752628,8.9259205,-0.2727003,-0.05059433,9.505409,1
17,988.0089721679688,-0.7752156853675842,0.15549960732460022,-0.449535071849823,-6.825325965881348,31.919214248657227,-27.5574893951416,-0.05010326951742172,0.022704362869262695,0.19441986083984375,0.3611722,-3.4826074,9.370953,0.28616643,-0.040295362,9.999511,1
17,988.0396728515625,-0.5275416374206543,0.24378329515457153,-0.6796318888664246,-7.694862365722656,32.15831756591797,-27.052568435668945,-0.5023300647735596,-0.06543183326721191,-0.2833070755004883,0.3563708,-3.7852836,9.063215,0.24701363,-0.1320777,9.824398,1
17,988.0115356445312,-0.8630995154380798,0.12926742434501648,-0.31491222977638245,-7.932044982910156,32.8836669921875,-25.826711654663086,0.5027390718460083,0.004653453826904297,0.4657249450683594,-0.39407998,-4.130858,8.537693,-0.5093602,-0.017782211,9.479016,1
17,987.98876953125,-0.8421934843063354,0.0926489531993866,-0.1936052143573761,-8.017427444458008,33.066917419433594,-25.51634407043457,0.12295813113451004,-0.06964254379272461,-0.2570228576660156,0.14123648,-4.3382025,8.914078,0.06874573,-0.010464191,9.914429,1
17,988.0090942382812,-0.6477826833724976,0.2954484820365906,-0.6094573736190796,-8.684595108032227,34.285255432128906,-24.407041549682617,-0.1774907410144806,0.030607223510742188,0.2990083694458008,0.19857252,-4.669478,8.353048,0.018065095,-0.27609134,9.567671,1
17,987.9655151367188,-0.6985155940055847,0.2769394516944885,-0.5327582955360413,-8.67878246307373,34.079322814941406,-23.318105697631836,-0.04839220643043518,0.04833507537841797,0.17429542541503906,0.09339532,-4.826773,8.445367,-0.035995245,-0.12790227,9.726924,1
17,987.9735107421875,-0.4847969710826874,0.2244752198457718,-0.4103860557079315,-9.142111778259277,34.64582061767578,-22.43303108215332,-0.09020917117595673,0.048348426818847656,-0.08438301086425781,0.22242844,-4.9769197,8.547155,0.11543572,-0.10025525,9.891901,1
17,987.99365234375,-0.4500425457954407,0.21675202250480652,-0.3868170380592346,-9.085508346557617,34.540504455566406,-21.973684310913086,-0.3516286015510559,0.019269466400146484,0.2551107406616211,0.35146165,-5.024585,8.180237,0.21582854,-0.17454839,9.602564,1
17,987.9756469726562,-0.5318012833595276,0.043779827654361725,-0.17642739415168762,-9.973031997680664,34.9737548828125,-21.93925666809082,-0.5964382290840149,-0.5389304161071777,-0.6683883666992188,0.3681693,-4.92687,8.608699,0.46670914,0.22764325,9.912098,1
17,988.0060424804688,-0.31315574049949646,0.09531191736459732,0.1800365000963211,-10.077359199523926,35.401702880859375,-20.100595474243164,0.026378318667411804,-1.0035219192504883,-0.7027730941772461,-0.07159418,-4.404931,8.469031,0.36466777,0.6164448,9.519457,1
17,988.1688842773438,0.312287300825119,0.5300725102424622,0.16645447909832,-9.482803344726562,35.642662048339844,-20.668222427368164,-0.4625402092933655,0.8438210487365723,1.198267936706543,0.17215425,-5.718117,7.538719,-0.07366991,-1.2029068,9.386499,1
17,988.1688842773438,0.312287300825119,0.5300725102424622,0.16645447909832,-8.795255661010742,35.707740783691406,-21.9327449798584,-1.0641707181930542,0.7066020965576172,-0.3631553649902344,0.46609056,-5.491705,9.314117,0.7359499,-0.5584874,10.783104,1
17,988.227294921875,0.558896005153656,0.05389972776174545,0.7166631817817688,-7.339890480041504,35.2265625,-21.743932723999023,1.0652409791946411,0.34980297088623047,-1.9381275177001953,-1.8258469,-4.762421,10.46221,-0.8953054,1.1619704,11.546449,1
17,988.1409912109375,0.7196180820465088,-0.0024261558428406715,0.4649948477745056,-5.439207553863525,33.952728271484375,-24.73371696472168,0.5378074049949646,-0.16439294815063477,0.5034933090209961,-0.9965725,-3.7733603,7.8748565,-0.3729769,0.024960041,8.780948,1
17,988.1154174804688,1.4096426963806152,0.5563045144081116,0.44914913177490234,-5.1762895584106445,33.14649963378906,-26.574682235717773,-0.10299873352050781,-0.13306093215942383,1.3510961532592773,-0.83169085,-3.62083,7.941136,-0.119607806,-0.26219988,8.762461,1
17,988.0162963867188,0.8138943314552307,0.2821322977542877,0.2592659890651703,-4.503715991973877,32.19641876220703,-27.3925724029541,-0.03297901153564453,0.11398839950561523,-0.039485931396484375,-0.8699509,-3.4825993,9.678659,0.10671675,0.21723938,10.320038,1
17,988.0031127929688,0.5923197269439697,-0.43119484186172485,0.1209149956703186,-5.093024730682373,31.6975040435791,-27.65749168395996,0.3452317714691162,0.20374655723571777,-2.2842273712158203,-0.8867017,-3.5064316,11.515607,0.0058586597,0.5984731,12.055385,1
17,988.0595092773438,0.6626273393630981,-0.7074976563453674,-0.07509341090917587,-6.008264541625977,31.05180549621582,-28.47947120666504,0.42321252822875977,-0.13293695449829102,-1.5404014587402344,-0.9679799,-2.7533152,10.793608,-0.11336875,0.8215463,11.15042,1
17,988.0670776367188,0.6331996321678162,0.03539053723216057,-0.132084921002388,-5.827035903930664,28.95713996887207,-29.693559646606445,0.4751541018486023,0.14712238311767578,-1.4868097305297852,-0.9703914,-2.8534122,10.885927,-0.20291758,0.44467378,11.284863,1
17,988.023193359375,0.7984488606452942,0.12127737700939178,-0.1504606306552887,-6.6214280128479,29.3204288482666,-31.05510902404785,0.3222314119338989,-0.005412101745605469,-1.5317211151123047,-0.9393442,-2.2838082,11.241007,0.010453701,0.6018747,11.493303,1
17,987.997802734375,0.926280677318573,0.22434160113334656,-0.04246944561600685,-6.5637617111206055,28.0582218170166,-32.22188949584961,0.18045032024383545,0.09602975845336914,-2.1422624588012695,-1.0013286,-2.0764666,11.799679,0.058841825,0.43763232,12.01465,1
17,987.9853515625,1.0059088468551636,0.32514217495918274,-0.08055270463228226,-5.899692535400391,25.20436668395996,-33.92786407470703,0.778677225112915,0.38501667976379395,-1.9020118713378906,-1.85436,-2.0550213,11.517998,-0.82966185,0.21233428,11.814931,1
