Timestamp,P,Gx,Gy,Gz,Mx,My,Mz,LiAx,LiAy,LiAz,Ax,Ay,Az,earthAx,earthAy,earthAz,Value,Type
0,987.650268554688,-0.00054421951063,0.00062521971995,-0.000800460635219,-14.688533782959,17.7740268707275,-35.8008842468262,-0.003102235496044,0.012731701135635,0.032770156860352,0.10327816,-0.1591705,9.775623,0.0027537812,-0.013576642,9.777455,0,
0,987.673034667969,0.00078720098827,-4.05443133786321E-05,-0.000534212740604,-14.6061944961548,17.5878314971924,-35.9566459655762,-0.012843877077103,0.003103226423264,0.023299217224121,0.098514855,-0.15678759,9.768524,0.0006733518,-0.008678138,9.770275,0,
0,987.680541992187,-0.000411379151046,-0.000173676293343,0.000264666683506,-14.8157367706299,17.3392658233643,-36.4487037658691,-0.003483012318611,-0.006413295865059,0.032770156860352,0.09136158,-0.15440471,9.777994,-0.0031054132,-0.0020602643,9.77964,0,
0,987.700744628906,-0.000145222176798,0.000625297019724,0.000397756492021,-14.7573137283325,17.8675594329834,-35.641788482666,-0.008098669350147,0.012784689664841,0.028033256530762,0.09615791,-0.15917169,9.777996,-0.0026556328,-0.008830786,9.77976,0,
0,987.675720214844,0.001053040032275,-0.000173624779563,-0.000268101284746,-15.0637340545654,17.5280895233154,-35.8056602478027,0.015333794057369,-0.00110174715519,0.028041839599609,0.08422488,-0.14487247,9.773264,-0.002422899,0.00915356,9.774696,0,
0,987.708435058594,0.001052881125361,0.001024822471663,-0.000534485385288,-14.4650497436523,17.0354137420654,-36.3309898376465,-0.009178176522255,0.003992259502411,0.037520408630371,0.09858078,-0.14487286,9.773264,0.008661915,-0.00083756447,9.77483,0,
0,987.708435058594,0.000253774807788,0.001291164197028,0.000530710094608,-14.3656692504883,17.4975643157959,-36.912239074707,0.005108810961246,0.018382146954537,0.02805233001709,0.09620738,-0.15917291,9.775634,-0.0024235956,-0.010208681,9.777398,0,
0,987.660522460937,0.000120457843877,0.000492242339533,-0.000800937472377,-14.8381538391113,17.6349201202393,-37.3863563537598,5.44413924217224E-05,0.003958657383919,0.065927505493164,0.08427435,-0.15202351,9.749595,-0.006663369,0.0024989098,9.7511425,0,
0,987.698486328125,0.000120298936963,0.0012912156526,-0.000135215756018,-14.8082637786865,17.2407169342041,-36.1361503601074,0.013891682028771,-0.005510732531548,0.013851165771484,0.091460586,-0.14010753,9.768535,0.007125072,0.006581202,9.769963,0,
0,987.695922851563,-1.30180269479752E-05,0.000225978146773,0.000131031963974,-15.3754253387451,17.0262699127197,-36.960018157959,-0.004748821258545,0.004146844148636,0.05645751953125,0.093866944,-0.14249118,9.761435,0.006638445,0.0036700666,9.762923,0,
0,987.673034667969,0.000386296887882,-0.000972417590674,0.000530437682755,-14.7139949798584,18.0667362213135,-36.5839347839355,-0.004785671830177,0.004500925540924,0.032790184020996,0.093883425,-0.15440796,9.773272,-0.001100827,-0.0056217015,9.77494,0,
0,987.693237304688,0.000652453862131,0.000226029660553,-0.000268578121904,-15.0201177597046,18.3593997955322,-36.3229331970215,0.004818066954613,0.004680171608925,0.042258262634277,0.093899906,-0.1496418,9.766172,0.0017053708,-0.0022285134,9.767771,0,
0,987.723510742188,0.000385979074053,-0.000306576315779,-0.00053496210603,-14.827094078064,17.1710262298584,-37.1299667358398,0.005045101046562,-0.004938662052155,0.023316383361817,0.084356844,-0.15202554,9.775642,-0.007153809,0.0026324093,9.777185,0,
0,987.685668945313,-0.000146811711602,-0.000439708441263,0.00039707540418,-14.9661750793457,17.3566226959229,-36.7344703674316,0.004796542227268,0.004600018262863,0.046989440917969,0.08915311,-0.1496426,9.763808,-0.0018489342,0.0008893162,9.765362,0,
0,987.700988769531,-0.000146970618516,9.29490197449923E-05,-0.000668256252538,-14.6848087310791,17.5145969390869,-36.5561180114746,-0.004480496048927,-5.23179769515991E-05,0.028047561645508,0.08916959,-0.14964308,9.768543,-0.0021070037,0.0011015385,9.770097,0,
0,987.6982421875,0.000385502236895,-0.000572814780753,-0.00053516641492,-14.5883665084839,16.8674564361572,-36.6101036071777,0.000377424061298,-0.000114396214485,0.037514686584473,0.086796165,-0.15202673,9.76381,-0.0055294,0.0007401854,9.765379,0,
0,987.695922851563,-0.000413604197092,-0.000572788994759,0.000130555243231,-14.6407871246338,17.8716983795166,-36.2758598327637,0.010609112679958,-0.000368744134903,0.065999031066895,0.08352882,-0.1567717,9.761364,-0.010777378,-0.0008317232,9.762974,0,
0,987.690673828125,-0.000276350532658,0.000358651566785,-0.000666637148242,-14.6316547393799,17.8805408477783,-36.7396965026855,-0.003539070487022,-0.0049017816782,0.051798820495606,0.093069345,-0.14485492,9.756626,0.0038855355,0.002111122,9.758143,0,
0,987.693237304688,0.000793265528046,-0.000307844486088,-0.0001321399468,-14.6521444320679,17.703462600708,-36.9571266174316,-0.003660306334496,-0.0094253718853,0.02340030670166,0.09305033,-0.14247121,9.777929,0.0054311436,0.0040201694,9.7794075,0,
0,987.690734863281,0.000793448998593,0.000890547235031,0.000933202158194,-14.5087738037109,17.3104496002197,-36.1863784790039,0.005547024309635,-0.009390622377396,0.037609100341797,0.09064144,-0.14723729,9.766092,0.000732569,0.001466617,9.767622,0,
0,987.690734863281,0.000793448998593,0.000890547235031,0.000933202158194,-15.1200399398804,18.2655467987061,-35.8401336669922,0.000756822526455,0.019235908985138,0.051815032958984,0.090622365,-0.16630302,9.761356,-0.0116166435,-0.013182849,9.763179,0,
0,987.685668945313,-0.00013847311493,0.000890517316293,1.17521267384291E-06,-14.48912525177,17.2236804962158,-36.4922676086426,-0.003874100744724,0.009573087096214,0.032875061035156,0.09538317,-0.1591527,9.78266,-0.0034835134,-0.010200053,9.784412,0,
1,987.68310546875,-0.000138289760798,-0.000307933951262,0.001066517317668,-14.5717620849609,16.7777423858643,-36.7613792419434,0.005878858268261,0.01437272131443,0.056547164916992,0.083414584,-0.15200241,9.761353,-0.007951461,0.002865374,9.762889,0,
1,987.685668945313,0.000128393061459,-0.000840625260025,-0.000398062809836,-14.9927520751953,17.1736545562744,-36.6426887512207,0.006025642156601,0.000145778059959,0.037612915039063,0.088175416,-0.1496187,9.751883,-0.0029998552,0.0013018548,9.753428,0,
1,987.690734863281,0.000261734356172,-4.17073606513441E-05,0.000267805531621,-14.4815158843994,17.2310428619385,-36.878791809082,0.010547488927841,0.004997044801712,0.047086715698242,0.085766435,-0.1496182,9.770819,-0.004654212,0.0028936714,9.772339,0,
1,987.675720214844,0.00026191782672,9.14207776077092E-05,1.56828900799155E-06,-14.4940967559814,17.6934680938721,-37.0578804016113,0.000914119184017,-0.004673331975937,0.042351722717285,0.08574742,-0.1424679,9.76845,-2.4400651E-07,0.008361176,9.76986,0,
1,987.678039550781,-0.000270530465059,0.000624022737611,-0.000530984892976,-14.6295900344849,17.5137195587158,-36.7185478210449,0.009925492107868,-0.004426762461662,0.066035270690918,0.08333847,-0.14246745,9.747142,-0.0015439484,0.008985981,9.748535,0,
1,987.693420410156,0.000262284651399,0.001023466931656,-0.000131432374474,-14.8965539932251,17.5269336700439,-36.370246887207,0.014949500560761,-0.013795554637909,0.047100067138672,0.08092952,-0.1472335,9.761344,-0.0066334885,0.007221326,9.762786,0,
1,987.678161621094,-3.84775921702385E-06,-0.000707616156433,0.000268119911198,-14.7091836929321,17.0707225799561,-37.1422653198242,-0.009061627089977,0.019426867365837,0.032896995544434,0.09286001,-0.15914942,9.773178,-0.0051771253,-0.009319857,9.774909,0,
1,987.700744628906,0.000528967357241,0.000757091387641,0.00053451443091,-15.4036312103271,17.9481716156006,-37.1635818481445,0.000623293220997,0.005211994051933,0.028163909912109,0.09045106,-0.1519991,9.777911,-0.0024165232,-0.0022628456,9.77951,0,
1,987.683227539062,0.00026283506304,-0.000707675819285,-0.000264354574028,-15.2988748550415,17.4663219451904,-36.3816871643066,-0.008978165686131,0.014964118599892,0.028170585632324,0.09760174,-0.15199862,9.777909,0.002816951,-0.007178813,9.779575,0,
1,987.710876464844,0.000129860476591,0.000890189607162,-0.000264275993686,-14.7130451202393,17.2242374420166,-35.6879539489746,0.009556762874126,0.010237723588944,0.013976097106934,0.078463554,-0.15438141,9.773172,-0.012842355,0.003169626,9.774696,0,
1,987.690673828125,0.000263201771304,0.001023317920044,-0.000264197413344,-15.0140600204468,17.1530323028564,-35.5604133605957,0.009336233139038,-0.008700206875801,0.042387962341309,0.08800405,-0.14723112,9.770803,-0.0007187426,0.0019423068,9.772309,0,
1,987.680603027344,0.000529701123014,0.000623814354185,0.000135355163366,-14.8252735137939,17.8046360015869,-36.782398223877,0.004381060600281,-0.008803755044937,0.037655830383301,0.080815375,-0.14484747,9.7637005,-0.004543703,0.008201361,9.765104,0,
1,987.695739746094,-2.74716876447201E-06,0.000490626727697,0.000801223446615,-15.0439491271973,17.5472393035889,-36.8106269836426,-0.000559948384762,0.020205348730087,0.047134399414063,0.09274581,-0.16152994,9.758965,-0.006465487,-0.012659311,9.760732,0,
1,987.685607910156,0.000530068064108,0.000357438868377,2.35444167628884E-06,-14.7926397323608,16.7812404632568,-36.1116714477539,0.013841703534126,0.000922679901123,0.032928466796875,0.07360762,-0.15199639,9.766065,-0.0144598335,0.00759314,9.767512,0,
1,987.680603027344,-0.000160498486366,-0.000776139844675,-0.000119050324429,-15.1318330764771,17.3592548370361,-36.2471961975098,0.009630836546421,-0.003441825509071,0.05660343170166,0.090317845,-0.1448461,9.761328,0.0020723585,0.0018115342,9.762821,0,
1,987.690673828125,0.001038106391206,-0.001841433113441,0.000147344137076,-15.0234603881836,17.7243213653564,-36.5931968688965,0.014409966766834,0.010982006788254,0.028201103210449,0.08790892,-0.1543787,9.768429,-0.0060259923,-0.0038196295,9.7700405,0,
1,987.703308105469,0.000505657924805,0.001088012009859,-0.000385209044907,-14.6827440261841,17.1477794647217,-36.5349769592285,-0.004550606012344,0.006231188774109,0.03293514251709,0.092669666,-0.15437819,9.768427,-0.0025597196,-0.006821841,9.770084,0,
1,987.710876464844,0.000106367690023,-0.000643071194645,-0.00038513034815,-14.7592935562134,16.707727432251,-37.1133041381836,0.009773649275303,-0.008076727390289,0.03767204284668,0.08309108,-0.13769482,9.758955,0.0010109637,0.011887491,9.760275,0,
1,987.705688476563,-0.000292922777589,2.26887641474605E-05,-0.000251893827226,-15.1012325286865,17.9149341583252,-36.6693458557129,0.005086414515972,-0.017642542719841,0.051876068115234,0.083323985,-0.1400838,9.77318,-0.00026662648,0.010240287,9.774534,0,
1,987.68310546875,-0.000559055188205,-0.000509972858708,-0.000251815130468,-15.4708890914917,18.0431804656982,-37.0817947387695,9.39816236495972E-05,-0.003341034054756,0.066031455993652,0.09074181,-0.14485641,9.754266,0.0019676834,0.0016295016,9.755764,0,
1,987.682922363281,0.000102625519503,-0.000376147858333,0.000412213557865,-15.0522613525391,17.3819446563721,-37.6465034484863,-0.009499214589596,-0.017648592591286,0.028154373168945,0.09791279,-0.13770668,9.770837,0.012096716,0.0028095692,9.772291,0,
1,987.690490722656,-3.11455805785954E-05,-0.000242890382651,-0.000120681070257,-14.8222303390503,17.8075885772705,-36.9370079040527,-0.008995354175568,0.001404702663422,0.03288459777832,0.08596456,-0.14962308,9.768469,-0.005081607,0.0017113388,9.769992,0,
1,987.720825195312,-3.11578041873872E-05,-0.000376046315068,0.000411945482483,-14.3198795318604,16.8557071685791,-37.0357055664063,-0.004372730851173,-0.008175790309906,0.013947486877441,0.09074563,-0.14485653,9.780306,0.0018350556,0.002356708,9.781799,0,
1,987.713256835938,-0.000164327968378,-0.00024288642453,-0.000253849488217,-14.6902160644531,17.2463321685791,-36.8475303649902,-0.009149894118309,0.006191492080688,0.051824569702149,0.0979166,-0.1520064,9.773203,0.0025788099,-0.007900357,9.774873,0,
1,987.685363769531,-3.11822514049709E-05,-0.000109726504888,0.000545092974789,-14.9712839126587,17.7204990386963,-36.6010055541992,0.01010324805975,-0.003510236740112,0.05655574798584,0.09074819,-0.14247335,9.759001,0.0032420903,0.0039957017,9.760461,0,
2,987.672790527344,-0.000297510356177,-0.000242882408202,-0.000253859965596,-14.8864431381226,17.9055423736572,-37.0098304748535,0.000239200890064,0.001152470707893,0.037619590759277,0.08596963,-0.15438975,9.766102,-0.0077994037,-0.0018971413,9.767696,0,
2,987.700500488281,0.00023510918254,0.000689225213137,0.000811398378573,-15.0183506011963,17.360445022583,-36.7266578674316,0.019581511616707,0.001048162579536,0.037615776062012,0.07163149,-0.14009006,9.768469,-0.009242291,0.018589646,9.769714,0,
2,987.68017578125,-0.00029753491981,-0.000509194331244,0.000145603436977,-15.0047912597656,17.267786026001,-36.7233238220215,0.005267277359962,0.001239165663719,0.023414611816406,0.08836204,-0.14962326,9.777938,-0.003071839,0.0004259944,9.779481,0,
2,987.677612304688,-0.000164389086422,-0.000908666173927,0.000545072020032,-14.9480485916138,17.2683811187744,-36.9630546569824,0.015459403395653,-0.003696650266647,0.047076225280762,0.081193626,-0.14724006,9.766103,-0.0072751176,0.007297009,9.767546,0,
2,987.71533203125,0.000368218228687,-0.000242872454692,0.000145587662701,-15.1027555465698,17.9134616851807,-36.592041015625,0.005843587219715,0.0106071382761,0.042342185974121,0.074025184,-0.15200658,9.756635,-0.015900005,0.008176327,9.758083,0,
2,987.71533203125,0.000368218228687,-0.000242872454692,0.000145587662701,-15.1027555465698,17.9134616851807,-36.592041015625,0.010877974331379,0.01051452755928,0.042338371276856,0.08119616,-0.15438987,9.756635,-0.012139559,0.0018144101,9.758185,0,
2,987.71533203125,0.000368218228687,-0.000242872454692,0.000145587662701,-14.7589950561523,17.339864730835,-36.6884346008301,0.006257586181164,-0.013138473033905,0.032871246337891,0.08597726,-0.14009024,9.768471,0.0006199032,0.0097211,9.769849,0,
2,987.705444335938,0.000501363945659,-0.000242870475631,0.000145582424011,-14.9963388442993,17.5389957427979,-36.5865287780762,0.00652951002121,0.010657399892807,0.042336463928223,0.08597854,-0.1520067,9.763737,-0.0073585752,0.00081430376,9.765295,0,
2,987.675109863281,0.000101865560282,-0.000376024487196,0.000145571946632,-14.9531574249268,17.6322574615479,-36.8295936584473,0.006006993353367,-0.003638580441475,0.042342185974121,0.0812,-0.1400903,9.773205,-0.0028279256,0.012776777,9.774537,0,
2,987.705444335938,-0.000563936249819,0.001221872866154,0.000145566707943,-14.7656269073486,17.7022647857666,-36.4776649475098,0.015310116112232,0.001041531562805,0.037609100341797,0.08359116,-0.15677325,9.763735,-0.011618106,-0.0018158108,9.765346,0,
2,987.705261230469,0.000368156877812,0.000422927259933,0.000278719468042,-15.0350923538208,17.3442401885986,-35.8763008117676,0.010860241949558,-0.008474260568619,0.042339324951172,0.08120254,-0.14247371,9.766104,-0.0042860843,0.010989085,9.767473,0,
2,987.722778320313,-3.13289347104728E-05,-0.001174966106191,-0.000387075648177,-14.9610662460327,16.9927539825439,-36.8679389953613,0.006451770663261,0.015153095126152,0.047067642211914,0.085983574,-0.14724024,9.754269,-0.0039688703,0.0044766515,9.755757,0,
2,987.71044921875,-0.000697131094057,-0.000775490363594,-0.000653396651614,-15.0876731872559,17.8222751617432,-36.6660118103027,0.016463190317154,0.000672683119774,0.037591934204102,0.07403535,-0.14962356,9.773205,-0.014868451,0.011105135,9.774612,0,
2,987.710144042969,-0.000430827436503,-0.000908646266907,0.000411861605244,-14.8548946380615,17.6187229156494,-36.536003112793,0.001995615661144,-0.008747741580009,0.047062873840332,0.09076589,-0.14962353,9.768471,-0.0021337382,-1.2502074E-05,9.770038,0,
2,987.717651367188,0.000234950275626,-0.000109696760774,0.000145540514495,-14.7288312911987,17.15749168396,-36.8363800048828,0.002140186727047,0.009921029210091,0.032852172851563,0.0883773,-0.15439023,9.775573,-0.00690642,-0.0014737248,9.777188,0,
2,987.707397460938,-0.000697167764883,-0.000376010546461,-0.000653412484098,-14.8461990356445,16.8895092010498,-36.7256278991699,0.00241981446743,0.005289614200592,0.042320251464844,0.08837858,-0.15677346,9.756636,-0.008845134,-0.0034597665,9.758289,0,
2,987.6923828125,0.000634399417322,-0.000376008596504,0.000411845889175,-15.0478343963623,17.2804431915283,-37.1793365478516,0.002599395811558,0.009930744767189,0.032848358154297,0.083600014,-0.15200694,9.768471,-0.009288594,0.0036535114,9.770005,0,
2,987.705139160156,-0.00056403427152,-0.000642322469503,-0.000653422845062,-15.5135259628296,17.5816287994385,-36.7402763366699,0.007572621107101,-0.004644647240639,0.051779747009277,0.085991204,-0.1496237,9.763737,-0.005730534,0.0038265884,9.765261,0,
2,987.689819335938,-0.000297730613966,-0.000242846668698,-0.000253954262007,-15.2536287307739,17.1927585601807,-36.6036033630371,-0.001664213836193,-0.009396359324455,0.047061920166016,0.09297213,-0.14485253,9.766087,0.0024184957,0.0031826943,9.767604,0,
2,987.715026855469,-0.000829694385175,-0.000908744812477,-0.00065314193489,-14.9556589126587,17.2610187530518,-36.576530456543,-0.005890145897865,-0.009247168898582,0.032856941223145,0.09535569,-0.13770254,9.761353,0.008612929,0.007411808,9.762782,0,
2,987.706970214844,0.000369401881471,-0.001309931278229,0.000148526509292,-14.7007331848145,17.3419361114502,-37.0054664611816,0.003947578370571,6.50137662887573E-05,0.023381233215332,0.08339983,-0.15200199,9.775555,-0.010126952,0.004777834,9.777086,0,
2,987.712219238281,0.000236305058934,-0.000777309469413,0.000281710643321,-14.7830715179443,17.5281314849854,-36.8497085571289,-0.010464541614056,0.00468510389328,0.013912200927734,0.10251272,-0.15200187,9.780289,0.0045868605,-0.0074847937,9.782003,0,
2,987.722290039063,-0.000695739407092,0.00042110204231,-0.000117737043183,-14.8196220397949,17.0724773406982,-36.8174171447754,0.008432894945145,-0.004850372672081,0.042320251464844,0.083387196,-0.14723517,9.763718,-0.006642252,0.008192062,9.765178,0,
2,987.739868164062,-0.000163046643138,-0.0002446975559,0.000281763030216,-15.3172988891602,16.9224262237549,-36.5779762268066,0.022242896258831,-0.004748329520226,0.042327880859375,0.076211125,-0.14723505,9.773186,-0.011405136,0.012907535,9.774576,0,
2,987.7197265625,-2.98274680972099E-05,0.001619503716938,0.000281789223664,-14.9548168182373,17.524866104126,-36.0532073974609,-0.00147819519043,0.009400859475136,0.061261177062988,0.09532398,-0.15915121,9.751881,-0.005325569,-0.009001315,9.753641,0,
3,987.709594726563,-2.97664664685726E-05,-0.000777349167038,0.000548131298274,-15.0881090164185,17.0842189788818,-36.3918037414551,-0.006080336868763,-0.014541745185852,0.051791191101074,0.09770757,-0.14723472,9.76845,0.0043733083,-0.0012304783,9.770047,0,
3,987.727294921875,0.000103452592157,2.15885229408741E-05,0.000414999463828,-14.8176956176758,16.5997409820557,-36.0971908569336,0.003135651350021,0.014005765318871,0.037590980529785,0.092921376,-0.15676768,9.763715,-0.0052311756,-0.005437091,9.765412,0,
3,987.714599609375,-0.000210577738471,0.000782901770435,0.000239434535615,-15.1121845245361,17.2724857330322,-36.5530776977539,-0.006334580481052,-0.005027532577515,0.032855987548828,0.097694874,-0.15438421,9.770817,-0.00020771101,-0.006652713,9.772523,0,
3,987.752258300781,-0.000343674211763,-0.0004155295901,-0.000559486798011,-15.3595018386841,17.1989307403564,-36.5106658935547,0.003240585327148,-0.009996131062508,0.051792144775391,0.09290868,-0.14008446,9.763714,0.0059173573,0.007201642,9.765157,0,
3,987.704406738281,-7.72360945120454E-05,0.000383398117265,-2.68026487901807E-05,-15.0418834686279,17.1804218292236,-36.789478302002,0.003382869064808,0.004470333456993,0.037590980529785,0.09529227,-0.14008422,9.766081,0.0077258777,0.005703002,9.767546,0,
3,987.704406738281,-7.72360945120454E-05,0.000383398117265,-2.68026487901807E-05,-15.0418834686279,17.1804218292236,-36.789478302002,0.017467997968197,0.009113639593124,0.05179500579834,0.08572632,-0.156767,9.763713,-0.010513077,-0.000663653,9.765343,0,
3,987.724670410156,0.000189140788279,-0.000149243540363,-0.000293092452921,-14.8392705917358,17.1592426300049,-36.5115280151367,-0.001894019544125,0.018546581268311,0.018655776977539,0.09766948,-0.16630001,9.77318,-0.007447835,-0.015644073,9.775067,0,
3,987.724426269531,5.6043965741992E-05,0.000516536296345,0.000639039382804,-14.9812564849854,17.4478130340576,-36.6605033874512,0.008098550140858,-0.000276282429695,0.042326927185059,0.08810353,-0.14723362,9.766079,-0.0027084593,0.004985541,9.767584,0,
3,987.71435546875,0.000721894786693,-0.000815053004771,-2.67241848632693E-05,-14.8769063949585,17.4401683807373,-36.6761322021484,0.012953214347363,-0.004571944475174,0.032865524291992,0.088097215,-0.14485018,9.775547,-0.0014364403,0.0066652894,9.777017,0,
3,987.709350585937,-7.69306207075715E-05,0.000383348582545,-0.00015982973855,-15.1738977432251,17.7416744232178,-36.878963470459,-0.001693844795227,0.009478941559792,0.037600517272949,0.090480745,-0.15438314,9.76371,-0.005536476,-0.0023474097,9.765348,0,
3,987.709350585937,-7.69306207075715E-05,0.000383348582545,-0.00015982973855,-15.1738977432251,17.7416744232178,-36.878963470459,-0.001892350614071,-0.00965504348278,0.028132438659668,0.08808452,-0.14961644,9.770811,-0.0039922595,0.0029122531,9.772353,0,
3,987.716674804688,5.62883215025067E-05,0.000782812363468,-0.000159803545102,-15.237566947937,17.4713382720947,-36.8533325195312,0.012659639120102,8.38041305541992E-05,0.037603378295899,0.083298415,-0.14961626,9.766077,-0.0079205,0.005929306,9.767572,0,
3,987.716674804688,5.62883215025067E-05,0.000782812363468,-0.000159803545102,-15.1482992172241,17.5548801422119,-36.794994354248,0.007901750504971,-0.009510770440102,0.042336463928223,0.08807185,-0.1519994,9.766076,-0.0058691557,0.0009847134,9.767653,0,
3,987.721923828125,0.000588981201872,-0.000815092702396,-0.000692409113981,-14.8533725738525,17.6201953887939,-36.6133117675781,0.012865327298641,0.004807457327843,0.04707145690918,0.08089584,-0.16391559,9.758974,-0.019213537,-0.003505662,9.760667,0,
3,987.688903808594,0.000189629499801,-0.000282480788883,-0.000426040845923,-14.8461990356445,16.8895092010498,-36.7256278991699,-0.006283335387707,-0.009494110941887,0.061275482177734,0.10000867,-0.14246602,9.742403,0.00918572,5.5179E-05,9.743953,0,
3,987.706604003906,0.000456006615423,-0.000282490684185,-0.00029285682831,-14.9014186859131,16.8903789520264,-36.5631980895996,0.007934801280499,0.000101953744888,0.028136253356934,0.08805284,-0.1448491,9.77791,-0.0011300668,0.0066307336,9.779376,0,
3,987.698791503906,0.00032290967647,0.000782762886956,-0.000159672577865,-14.469913482666,16.3988590240479,-36.5239486694336,0.007707543671131,0.00030691921711,0.04234504699707,0.08565661,-0.1519988,9.758972,-0.007694198,0.0022465736,9.7605295,0,
3,987.696472167969,0.000322970794514,0.000250121258432,-2.64885602518916E-05,-14.9395980834961,17.5395984649658,-36.8262596130371,0.0126051902771,0.009921655058861,0.051815986633301,0.08796209,-0.15199669,9.7708,-0.0060893185,0.00082561374,9.772376,0,
3,987.711547851563,-0.000609073671512,-0.000415678368881,-0.000425936072133,-14.8167161941528,16.9695072174072,-36.2729454040527,-0.011253595352173,0.023570939898491,0.018681526184082,0.095042646,-0.15914436,9.770792,-0.005015252,-0.0088490695,9.772546,0,
3,987.716430664062,-0.001140783540905,0.000515741296113,0.000242877926212,-15.2617816925049,17.5536861419678,-36.3155288696289,-0.006268702447414,-4.22447919845581E-05,0.042356491088867,0.09741986,-0.15199418,9.763689,0.0012445543,-0.0051134974,9.765357,0,
3,987.708862304688,0.000857081264257,-0.000815918669105,-0.000422699376941,-15.2817287445068,17.0083179473877,-36.434513092041,-0.011323474347591,-0.000137612223625,0.032889366149902,0.09740716,-0.15437718,9.773157,-0.00015173107,-0.0068398416,9.774858,0,
3,987.693725585937,-7.4902200140059E-05,0.001447746530175,0.000109984655865,-14.5753498077393,17.1430835723877,-36.7052192687988,-0.001850001513958,0.01865665614605,0.042356491088867,0.099784374,-0.1591434,9.766054,-0.001028128,-0.011990875,9.767854,0,
3,987.696228027344,-0.000474253785796,0.000116147217341,-0.000688910600729,-15.2163982391357,17.3860416412354,-37.2365226745605,0.011926546692848,0.004471272230148,0.042365074157715,0.0878222,-0.14960994,9.761318,-0.0035144947,0.0025397837,9.762857,0,
3,987.701293945313,-7.46578443795443E-05,0.001714022830129,0.000243247428443,-14.7789421081543,16.7944965362549,-36.8074150085449,-0.007407672703266,-0.005490332841873,0.047096252441406,0.09975904,-0.14722647,9.770786,0.007479431,-0.0032647103,9.772403,0,
4,987.708557128906,-0.00087348325178,0.000915055163205,-0.000156174006406,-14.697826385498,17.2389659881592,-36.4610023498535,-0.002967283129692,-0.000755250453949,0.042366027832031,0.09735644,-0.15199263,9.758949,0.0028675478,-0.0055320114,9.760615,0,
4,987.7138671875,0.000191902508959,0.00038240372669,0.000110194203444,-15.024299621582,17.460470199585,-37.116512298584,0.001869022846222,0.008549749851227,0.037628173828125,0.09017405,-0.16152544,9.761314,-0.008724587,-0.007858917,9.763061,0,
4,987.708618164062,-0.000473764841445,-0.000150248000864,0.000509720528498,-15.1733541488647,17.373384475708,-36.7805137634277,-0.003049224615097,0.003645941615105,0.018691062927246,0.09016138,-0.1543753,9.7778845,-0.0038079657,-0.0021274686,9.779517,0,
4,987.703430175781,-0.000207326607779,0.000515521969646,0.000376614974812,-15.2641448974609,17.288366317749,-36.761547088623,-0.007963217794895,0.003643482923508,0.047100067138672,0.0949285,-0.15199168,9.7755165,0.0014271811,-0.0036391169,9.777158,0,
4,987.70849609375,-0.000606678193435,0.000116028240882,0.000243509421125,-14.806604385376,17.348108291626,-36.9125328063965,0.006375961005688,-0.015777364373207,0.056565284729004,0.09013599,-0.14007501,9.758944,0.0058299117,0.008503988,9.76036,0,
4,987.703247070312,-0.000739714014344,0.000116008392069,-0.00015591213014,-14.6541023254395,16.9639339447021,-36.6056175231934,-0.00333334505558,-0.006014958024025,0.03763484954834,0.09490311,-0.13769145,9.763678,0.011171397,0.0069862753,9.7651,0,
4,987.693298339844,0.000591987627558,0.000648620305583,-2.27017444558442E-05,-14.4311599731445,16.5936145782471,-37.2341766357422,-0.003365449607372,0.00335930287838,0.042366981506348,0.09011066,-0.14960746,9.758942,-0.0003238786,0.0011069328,9.760505,0,
4,987.713562011719,-0.000206837896258,-0.000150347186718,-0.000288965180516,-14.8644323348999,18.0840930938721,-36.869701385498,0.006127871572971,-0.001418739557266,0.032899856567383,0.087708056,-0.14007415,9.766043,0.0040972214,0.01002264,9.767435,0,
4,987.718200683594,-0.000339873484336,0.000382264726795,-2.2596912458539E-05,-15.1041402816772,18.0179042816162,-37.2138137817383,0.001202307641506,0.003679603338242,0.047110557556152,0.08769536,-0.14722358,9.780245,-0.00046903268,0.0044844,9.781746,0,
4,987.665344238281,0.000725512509234,-0.00041670279461,0.000909561058506,-15.068323135376,17.103364944458,-37.3967704772949,0.011260233819485,0.003612771630287,0.04237174987793,0.09007263,-0.15675636,9.773142,-0.005269885,-0.004105374,9.774813,0,
4,987.693115234375,-7.33130145817995E-05,-0.000283564673737,0.000376981683075,-14.6771984100342,17.5219631195068,-36.9426460266113,-0.018013089895249,-0.001155108213425,0.051847457885742,0.102009416,-0.14245646,9.763672,0.0134840645,-0.0017035604,9.765233,0,
4,987.70556640625,-7.31907784938812E-05,0.001580626703799,0.000243876129389,-14.7523651123047,16.9774684906006,-36.8992042541504,-0.003791056573391,-0.015453234314919,0.037647247314453,0.08287755,-0.14483936,9.76367,-0.002413625,0.009029597,9.765091,0,
4,987.718200683594,6.0089398175478E-05,0.000249027449172,-0.000155545305461,-15.1022119522095,17.5451679229736,-36.4935874938965,0.014985799789429,-0.005787909030914,0.051856994628906,0.078085065,-0.14245583,9.7542,-0.0043285806,0.013469338,9.755541,0,
4,987.690368652344,-7.29464227333665E-05,0.000249007542152,0.000243980786763,-14.5573616027832,16.9489269256592,-36.2347221374512,0.005346544086933,-0.005989328026772,0.056590080261231,0.09002185,-0.15198861,9.768402,-0.001302084,-0.0012237877,9.7699995,0,
4,987.70556640625,-0.000871771830134,0.000382145750336,0.001042980933562,-14.6605958938599,17.4322490692139,-37.093921661377,0.005318753421307,-0.006238013505936,0.037650108337402,0.09478897,-0.1448385,9.770769,0.007173389,0.0012572259,9.772299,0,
4,987.697937011719,-0.000339017715305,0.000382125843316,0.000110927736387,-15.2109909057617,17.6543064117432,-36.9451179504395,-0.004238538444042,-0.016031116247177,0.047116279602051,0.09477627,-0.14007165,9.756564,0.010358376,0.004941553,9.758022,0,
4,987.692932128906,0.000125039368868,-0.000231624348089,-0.000835951883346,-15.1805286407471,18.1040744781494,-36.6681938171387,0.010245688259602,0.007896855473518,0.032914161682129,0.0828141,-0.1496044,9.75893,-0.004953511,0.0055678487,9.760425,0,
4,987.700500488281,-0.000540628214367,-0.000764276017435,-3.69518529623747E-05,-15.0986251831055,17.1798267364502,-36.549747467041,-0.003832057118416,0.022157520055771,0.032912254333496,0.09475094,-0.16390373,9.773132,-0.0054602753,-0.012680918,9.774956,0,
4,987.710388183594,0.000391599605791,0.000567283539567,-3.68995242752135E-05,-14.6675243377686,17.1625118255615,-37.3080253601074,0.000803492963314,-0.015678137540817,0.047122001647949,0.08720368,-0.13767846,9.76363,0.00574439,0.011661038,9.764982,0,
4,987.690185546875,0.000392587739043,-0.000364982406609,-0.000702265533619,-14.9296245574951,17.8122806549072,-36.7667655944824,0.015878662467003,-0.01578414440155,0.04245662689209,0.07963458,-0.14243518,9.770695,-0.0027139224,0.0131616,9.772047,0,
4,987.690185546875,-0.000533269718289,0.000296236714348,0.0002392490278,-15.1521844863892,17.2880878448486,-37.163703918457,0.011028632521629,-0.015792459249497,0.05193042755127,0.08437252,-0.1400509,9.77069,0.002414709,0.011754066,9.772051,0,
4,987.690185546875,-0.000533269718289,0.000296236714348,0.0002392490278,-14.8286170959473,17.1695537567139,-37.052661895752,0.001229308545589,-0.006279081106186,0.032998085021973,0.08194077,-0.15196626,9.761218,-0.007017605,0.0041107684,9.762744,0,
4,987.705261230469,0.000266081304289,2.98553495667875E-05,-2.68939766101539E-05,-14.8877220153809,16.9036350250244,-37.2589454650879,0.010801643133164,-0.006287887692451,0.042470932006836,0.07950902,-0.14243211,9.768316,-0.0026252363,0.012921751,9.76967,0,
4,987.677551269531,0.000133730238304,2.97244405373931E-05,-0.000692337809596,-14.9971809387207,17.2751522064209,-37.1098480224609,0.005900725722313,-0.010994911193848,0.047211647033692,0.093806565,-0.15434743,9.763578,0.00041744858,-0.0056802034,9.765248,0,
4,987.690124511719,-0.00066481390968,0.000695448601618,-2.63752299360931E-05,-15.3228130340576,17.7605075836182,-37.2420387268066,0.010720938444138,-0.015981212258339,0.03300952911377,0.08181518,-0.13528024,9.765941,0.0040768757,0.016774982,9.767205,0,
5,987.687622070312,0.000267695053481,-0.000902512168977,-0.000159360293765,-15.3262939453125,17.0195026397705,-36.8132209777832,0.00096021592617,-0.01568366587162,0.033019065856934,0.09133291,-0.14481224,9.76357,0.005030405,0.0028031021,9.765069,0,
5,987.697692871094,0.000401256373152,0.001627423102036,-2.60293600149453E-05,-15.3138189315796,17.663423538208,-37.0067901611328,0.005614057183266,0.012602627277374,0.051958084106445,0.09129107,-0.15911092,9.756464,-0.0041718595,-0.007826611,9.758185,0,
5,987.702758789063,-0.000663603539579,-0.000103695492726,-0.000558488362003,-15.0699825286865,16.9959774017334,-36.6203880310059,-0.003876656293869,-0.001546129584312,0.042494773864746,0.09124923,-0.1591099,9.768297,-0.004372254,-0.007635817,9.770015,0,
5,987.692687988281,0.000402063364163,-0.000236919004237,0.000107474334072,-14.8910102844238,17.9011211395264,-36.7779197692871,0.006119720637798,0.00315859913826,0.047228813171387,0.091207385,-0.15672554,9.763559,-0.0028958078,-0.005706325,9.765242,0,
5,987.692626953125,-0.000529638724402,-0.000636458280496,-0.000558142492082,-14.6781787872314,17.1522006988525,-36.7668914794922,-0.017676375806332,-0.006753832101822,0.03775691986084,0.10311502,-0.15434135,9.76829,0.0078034066,-0.011239722,9.770043,0,
5,987.667053222656,-0.00039607740473,-0.000370207999367,0.000640451908112,-14.7452974319458,17.353120803833,-37.3841819763184,0.001865670084953,0.007591262459755,0.047226905822754,0.09112364,-0.1495737,9.765918,0.001525119,0.0003850609,9.767488,0,
5,987.679992675781,0.000136957736686,-0.000370273424778,-0.000557796738576,-14.5797786712646,17.2445850372314,-37.1723823547363,0.001904532313347,0.007548376917839,0.04723072052002,0.08869189,-0.1567225,9.765913,-0.004938202,-0.0034373552,9.767572,0,
5,987.700073242188,-0.000262112589553,-0.000104022969026,-0.000158149923664,-15.0447902679443,17.2833881378174,-37.3339462280273,0.006638303399086,-0.001884460449219,0.047237396240234,0.08387023,-0.14957173,9.775379,-0.0038546436,0.0052220672,9.776882,0,
5,987.712341308594,0.000270922784694,2.90694297291338E-05,-2.48189899139106E-05,-14.8979387283325,17.6313800811768,-36.992015838623,0.011874482035637,-0.011063009500504,0.037774085998535,0.079048574,-0.1448041,9.768273,-0.0050733797,0.011790261,9.769657,0,
5,987.69482421875,0.000937115750276,-0.001036259578541,-2.46461713686585E-05,-15.1521844863892,17.2880878448486,-37.163703918457,-0.00738613307476,0.007879137992859,0.042512893676758,0.09095621,-0.15910272,9.761168,-0.005234711,-0.0068558156,9.762883,0,
5,987.687255859375,-0.000260902219452,0.00056157016661,0.000108684587758,-15.0393829345703,17.5516605377197,-37.0425453186035,0.006950400769711,-0.006375089287758,0.018844604492188,0.08613455,-0.14480208,9.773001,0.0006064046,0.007183656,9.774451,0,
5,987.684753417969,0.000405290978961,2.887292066589E-05,-0.000690090062562,-15.0370197296143,17.8169803619385,-36.5965270996094,0.00224781036377,0.008184313774109,0.037789344787598,0.08848259,-0.15671737,9.770629,-0.0055917036,-0.0036197752,9.7722845,0,
5,987.702209472656,0.000538852298632,2.88074370473623E-05,-0.000290443364065,-14.9098701477051,16.6191654205322,-36.7000007629395,-0.00250319391489,-0.001675397157669,0.028319358825684,0.090830624,-0.15194984,9.772993,-0.00052385405,-0.0012174845,9.774596,0,
5,987.682006835938,-0.001324955374002,2.87420116364956E-05,0.000242361391429,-15.2296600341797,18.1108417510986,-36.8149871826172,0.002191320061684,-0.011027842760086,0.051999092102051,0.09078878,-0.14479901,9.765887,0.0040707495,0.0038977414,9.767383,0,
5,987.689575195313,0.000539659289643,-0.000104481470771,-2.37816129811108E-05,-14.7302160263062,17.2619380950928,-37.4581527709961,0.012013919651508,-0.011050239205361,0.033062934875488,0.09074694,-0.14956446,9.765883,0.00080458634,0.00044472516,9.767448,0,
5,987.646606445312,0.000140588846989,-0.000504020776134,0.00090849690605,-14.9815559387207,16.8156719207764,-37.0853691101074,0.002569392323494,0.003164157271385,0.033064842224121,0.09070504,-0.16147985,9.775349,-0.0070003886,-0.008253723,9.777096,0,
5,987.664428710938,0.000540466164239,2.85455025732517E-05,-0.000156593683641,-14.7227439880371,17.1633853912354,-37.1455955505371,-0.006557777523994,0.022489711642265,0.014130592346191,0.09544301,-0.16624539,9.784814,-0.0068499763,-0.014789611,9.786679,0,
5,987.666870117188,0.000407711719163,-0.001169941504486,-0.001221684506163,-15.0370197296143,17.8169803619385,-36.5965270996094,0.007479436695576,0.013264790177345,0.052019119262695,0.088231444,-0.15194465,9.775341,-0.0030338839,0.00013007224,9.776919,0,
5,987.674560546875,0.000408115214668,0.001226835884154,0.000642699713353,-14.8774490356445,17.8084583282471,-36.774585723877,-0.00295652449131,-0.005802318453789,0.042533874511719,0.08608642,-0.14718412,9.772996,-0.0010718014,0.004720032,9.774481,0,
5,987.651611328125,-0.000125538208522,0.001224733190611,0.000513398379553,-14.9841632843018,17.5507831573486,-37.2049674987793,0.016154944896698,-0.005786895751953,0.056741714477539,0.07649636,-0.14480014,9.768258,-0.006958032,0.012566462,9.769621,0,
5,987.714660644531,0.001071839593351,0.000559112697374,0.000379793083994,-14.770055770874,17.8037662506104,-36.9448280334473,0.001851640641689,-0.010191604495049,0.037811279296875,0.09080529,-0.13764955,9.763521,0.008357804,0.008503735,9.764907,0,
5,987.661682128906,0.000273185782135,-0.000506198499352,0.000513076898642,-14.7027969360352,17.7087497711182,-37.0266151428223,0.006697177886963,0.01364316046238,0.042548179626465,0.08360511,-0.1543317,9.768253,-0.007880127,0.0006018877,9.769828,0,
5,987.689514160156,0.000140321208164,2.63856491073966E-05,-0.000152587075718,-14.6449699401855,16.9727725982666,-37.0694465637207,0.016053907573223,-0.00518211722374,0.047290802001953,0.081184745,-0.14479788,9.7658825,-0.00345256,0.00899224,9.767289,0,
5,987.6689453125,-0.000258858897723,-0.000106819963548,0.000113854650408,-14.6539640426636,17.0698528289795,-37.3046951293945,-0.002776563167572,0.004034265875816,0.042551994323731,0.09071392,-0.14956369,9.770615,0.00064496696,-0.00036938488,9.772181,0,
6,987.67919921875,-0.000391723238863,2.62903049588203E-05,-1.91773287951946E-05,-14.7071189880371,16.7039089202881,-37.1211204528809,0.001749061048031,0.004089936614037,0.047293663024902,0.085903645,-0.15671273,9.758776,-0.0075040106,-0.0031033158,9.760407,0,
6,987.674194335938,0.000407518004067,0.000159400573466,0.000114106398541,-14.8306818008423,17.5363712310791,-37.0738067626953,0.001588992774487,0.013662680983543,0.037829399108887,0.088263094,-0.15909524,9.76114,-0.0071571823,-0.006531343,9.762831,0,
6,987.699279785156,0.000407811603509,0.000825142662507,-0.000285241636448,-14.616870880127,17.1572132110596,-37.2385368347168,-0.01253554224968,0.013400226831436,0.033091545104981,0.09301245,-0.1567113,9.770607,-0.001782937,-0.0073791593,9.772304,0,
6,987.669189453125,-0.001189790316857,-0.001172274118289,0.000247515970841,-14.515266418457,17.7787685394287,-36.674690246582,0.006987281143665,0.008291020989418,0.04255485534668,0.081032455,-0.16147704,9.775337,-0.0141742565,-0.0025650263,9.776995,0,
6,987.669189453125,-0.001189790316857,-0.001172274118289,0.000247515970841,-14.7529067993164,17.3457584381104,-36.9976539611816,0.011611856520176,0.00352543592453,0.037824630737305,0.08817172,-0.15670969,9.768234,-0.005579263,-0.0037836134,9.769886,0,
6,987.674011230469,-0.000541716697626,-0.000754122796934,5.19815366715193E-05,-14.8641872406006,17.0836658477783,-37.1961250305176,0.011458039283753,-0.010880306363106,0.037827491760254,0.08097154,-0.14479263,9.770597,-0.0028948262,0.0099187195,9.772,0,
6,987.6591796875,-0.000541129498743,0.000177887501195,0.000318548991345,-14.7293739318848,17.5257816314697,-36.9348258972168,-0.003198347985744,-0.006207093596458,0.033097267150879,0.08333099,-0.14717521,9.770596,-0.0024944767,0.006367877,9.772058,0,
6,987.691772460938,-0.000274520250969,0.000577313650865,5.23588969372213E-05,-15.1823482513428,17.4704608917236,-37.0157585144043,-0.012594006955624,-0.025310233235359,0.033098220825195,0.100029826,-0.13764127,9.772959,0.01638345,0.0027089417,9.774427,0,
6,987.691711425781,-0.000274226418696,0.00031095003942,0.000185642682482,-15.1257448196411,17.3651447296143,-36.5564155578613,-0.003145761787891,0.007817924022675,0.056771278381348,0.09760949,-0.14955695,9.76112,0.006919034,-0.00477767,9.762751,0,
6,987.674011230469,-0.00080656458158,-0.000354887335561,0.000318926409818,-14.9726676940918,17.8249378204346,-37.2227821350098,0.001839712262154,-0.001631170511246,0.047307014465332,0.08801937,-0.14478971,9.763485,0.002959758,0.0052134246,9.764953,0,
6,987.663879394531,0.000258992426097,0.000177696696483,5.27363736182451E-05,-14.8767681121826,17.5460872650146,-37.3752098083496,0.001896359026432,-0.0064607411623,0.02836799621582,0.08081925,-0.14002235,9.768217,0.00028858334,0.013717085,9.769545,0,
6,987.656188964844,-0.00014018767979,-0.000887614383828,-0.000346611486748,-15.1467771530151,17.5563526153564,-36.8722991943359,-0.012646317481995,-0.006560057401657,0.042574882507324,0.09273827,-0.14717145,9.765847,0.0049273632,0.00037378073,9.767396,0,
6,987.696838378906,-0.000273052137345,0.000710233289283,-0.000612801522948,-14.8081274032593,17.3466320037842,-36.8352279663086,0.001583091914654,-0.001932948827744,0.033110618591309,0.087928,-0.15193726,9.772945,-0.0015999656,6.1646104E-05,9.774522,0,
6,987.68408203125,-6.4425403252244E-06,0.000710185675416,5.31139085069299E-05,-14.6629581451416,17.1669254302979,-37.5399398803711,0.00150939822197,-0.006575539708138,0.028380393981934,0.092677355,-0.14716996,9.7753105,0.0050139427,0.00059081614,9.776856,0,
6,987.679016113281,-0.000272464822046,-0.000355125579517,-7.99181871116161E-05,-14.7905445098877,17.6266841888428,-37.1622619628906,0.011047579348087,0.01263815164566,0.047323226928711,0.083087295,-0.154319,9.763472,-0.0069304425,0.00089503825,9.765043,0,
6,987.699279785156,0.001059408066794,0.000843248271849,-0.000612424104474,-14.7015733718872,17.078088760376,-37.5287933349609,-0.002904735505581,0.003316730260849,0.042591094970703,0.09261644,-0.15431826,9.761102,-0.00014332682,-0.0052366853,9.76276,0,
6,987.67626953125,-0.000138719682582,-0.000887852685992,0.000319807324558,-14.9199504852295,17.4528293609619,-37.1321487426758,-0.002609848976135,-0.006321787834167,0.03785514831543,0.087806165,-0.14955099,9.763466,-0.0007718913,0.0018065125,9.765005,0,
6,987.673950195313,-0.000271584023722,-0.00035526859574,0.00071940687485,-14.9532957077026,17.5263385772705,-36.1305122375488,-0.007692292332649,-0.006479442119598,0.037859916687012,0.09255552,-0.14478363,9.76583,0.0062964913,0.002259776,9.767339,0,
6,987.658813476562,-4.97465953230858E-06,0.000310473435093,0.000320058956277,-14.9311466217041,17.8108081817627,-36.6894645690918,0.00192553550005,0.012881517410278,0.028397560119629,0.09013516,-0.15431602,9.780031,-0.0018985309,-0.0033516139,9.781662,0,
6,987.688903808594,0.000527950702235,-8.90480587258935E-05,-0.000212447019294,-14.5401840209961,17.7031879425049,-37.3592872619629,0.011368580162525,0.003350034356117,0.04733943939209,0.08532488,-0.15193202,9.763457,-0.0039810184,0.0011456311,9.765012,0,
6,987.651123046875,0.000261928653345,0.000177220150363,0.000320310646202,-15.0756349563599,17.7281436920166,-36.585376739502,-0.002937957644463,-0.006220385432243,0.042607307434082,0.094854,-0.14239816,9.75872,0.009487338,0.0021838099,9.760214,0,
6,987.686218261719,-4.09386120736599E-06,-8.91433446668088E-05,-0.000212195329368,-14.7133140563965,17.8043613433838,-37.1845588684082,0.006850138306618,-0.005808115005493,0.028410911560059,0.09482357,-0.14478068,9.765819,0.007510785,0.0004466772,9.767351,0,
6,987.6962890625,0.000129357795231,-8.9191016741097E-05,0.000320562277921,-15.2587375640869,17.5566310882568,-36.470142364502,0.001967512071133,0.003517150878906,0.04261589050293,0.0828436,-0.14954649,9.768183,-0.004383065,0.004688114,9.769677,0,
6,987.656005859375,0.000129651394673,0.000310235132929,0.000453846005257,-15.1262884140015,17.733434677124,-36.6548652648926,0.006917603313923,0.003932967782021,0.061561584472656,0.0875929,-0.15907882,9.761079,-0.0074523427,-0.0060178936,9.762763,0,
6,987.678588867188,0.000396260875277,-0.000888234004378,0.00045397185022,-15.2365894317627,17.8411045074463,-37.0290870666504,-0.00277241319418,-0.001299396157265,0.056824684143067,0.0971221,-0.15192823,9.746872,0.0047372095,-0.006884083,9.748537,0,
7,987.691223144531,-0.000535551225767,0.000975929491688,0.000587255577557,-14.9866647720337,17.1795444488525,-36.951904296875,0.006498657166958,-0.010714933276177,0.047362327575684,0.085142106,-0.13762785,9.753971,0.0052468088,0.011656538,9.755306,0,
7,987.688659667969,-0.000135783688165,0.000443250115495,0.000720539363101,-14.6795625686646,17.2566394805908,-37.3886642456055,-0.002943307161331,-0.010913819074631,0.028423309326172,0.09467128,-0.14239372,9.772907,0.009473253,0.0024312586,9.774398,0,
7,987.703735351563,-0.000534964026883,-0.000488903198857,0.000587507267483,-14.9772338867188,17.820520401001,-36.9908638000488,0.011611424386501,0.008300647139549,0.033160209655762,0.077911496,-0.1495427,9.768169,-0.008255623,0.0076684803,9.769618,0,
7,987.708740234375,0.000397435273044,-8.94770491868258E-05,0.000188159290701,-14.6717929840088,17.7902317047119,-36.6512413024902,0.002028226852417,-0.015727460384369,0.071037292480469,0.092220426,-0.14000888,9.751596,0.009125862,0.005392581,9.753032,0,
7,987.683410644531,-0.000401218654588,-0.000355840544216,-0.00021118868608,-15.1121845245361,17.2724857330322,-36.5530815124512,0.011488147079945,-0.001245573163033,0.042636871337891,0.08741018,-0.14715804,9.770531,0.00074787065,0.0033537894,9.77203,0,
7,987.716247558594,0.00026486441493,0.000309901486617,-7.7904958743602E-05,-15.0504426956177,18.0155582427979,-37.2989349365234,-0.011867314577103,0.003510728478432,0.028430938720703,0.096939325,-0.15669025,9.758692,0.0013504885,-0.009963289,9.7604265,0,
7,987.716247558594,0.00026486441493,0.000309901486617,-7.7904958743602E-05,-14.6690464019775,17.1610355377197,-37.2307205200195,0.002541542053223,-0.006028324365616,0.037903785705567,0.087349236,-0.1447732,9.763424,0.0018505454,0.005441442,9.764886,0,
7,987.696044921875,0.000265451613814,0.000309806142468,5.55047299712896E-05,-14.6334753036499,17.2469272613525,-37.0872611999512,0.002172484993935,0.008312880992889,0.042643547058106,0.08492887,-0.1519223,9.77289,-0.0043337084,0.0014716983,9.77444,0,
7,987.691223144531,-0.000400044373237,0.000842390290927,-0.000210685422644,-14.50657081604,17.0495471954346,-36.8643112182617,0.002423465251923,-0.010393291711807,0.047385215759277,0.08967823,-0.14715497,9.765785,0.0019634925,0.0017238557,9.767306,0,
7,987.68115234375,0.000665512634441,-0.000622394727543,0.000721545948181,-14.9585647583008,17.3639888763428,-37.1209983825684,0.007625743746758,-0.001033648848534,0.056851387023926,0.082478076,-0.14953752,9.763414,-0.005224807,0.0049938858,9.764906,0,
7,987.658386230469,0.000266625895165,0.000442773511168,0.00045548172784,-15.0017471313477,17.27073097229,-36.8779335021973,0.002826318144798,-0.010381102561951,0.023716926574707,0.0848375,-0.14238696,9.779983,0.001258675,0.008955285,9.781382,0,
7,987.658386230469,-0.000398870091885,-8.99059232324362E-05,0.000322449603118,-14.9942741394043,17.1721820831299,-36.5653800964355,-0.006879985332489,-0.010550260543823,0.02371883392334,0.09197676,-0.14238624,9.772879,0.006856203,0.0041131377,9.774344,0,
7,987.658386230469,-0.000398870091885,-8.99059232324362E-05,0.000322449603118,-14.9546794891357,17.6307811737061,-36.7522850036621,-0.001927956938744,-0.00586125254631,0.042654991149902,0.089556396,-0.15191852,9.768142,-0.0013163611,-0.0013832748,9.769733,0,
7,987.688720703125,-0.000265418668278,-0.000755743356422,-7.68984900787473E-05,-15.1462345123291,17.1880664825439,-36.7738456726074,0.003008909523487,0.003898769617081,0.033191680908203,0.08713603,-0.1519178,9.779975,-0.003355328,0.00037524104,9.781544,0,
7,987.670593261719,0.000533822691068,4.31567314080894E-05,-0.000343088409863,-15.0166912078857,17.4678363800049,-37.5030403137207,0.00756099075079,0.004044905304909,0.052138328552246,0.07993588,-0.15191709,9.761034,-0.008756116,0.0044425577,9.762539,0,
7,987.693298339844,0.000267800292931,0.000708898587618,-7.66467419452965E-05,-15.082426071167,17.5643177032471,-37.4985542297363,0.017002895474434,-0.001031264662743,0.047402381896973,0.07751554,-0.14714973,9.765766,-0.007134864,0.009842724,9.767175,0,
7,987.698669433594,-0.000131379929371,0.000975166854914,0.00045611083624,-14.6260032653809,17.1483783721924,-36.7747077941895,0.001717261970043,-0.000639021396637,0.033144950866699,0.08298886,-0.15193333,9.770563,-0.0061801244,0.0022571087,9.772096,0,
7,987.698669433594,0.000786105170846,-0.000249028031249,5.38310850970447E-05,-15.0182132720947,17.4663639068604,-37.4257354736328,-0.017474062740803,0.008900836110115,0.056818008422852,0.09253329,-0.15193291,9.758726,0.0010579266,-0.004246399,9.760348,0,
7,987.660522460937,-0.000282647321001,-0.000117728486657,-0.000210120982956,-14.7592935562134,16.707727432251,-37.1133041381836,0.011260122060776,0.004234999418259,0.033148765563965,0.08056849,-0.14954929,9.777662,-0.0063676275,0.005770296,9.779136,0,
7,987.660522460937,-1.6184407286346E-05,0.000681195349898,-0.000609531882219,-14.7082042694092,17.4404888153076,-37.3180236816406,-0.007842510938644,-0.005541175603867,0.042614936828613,0.09489262,-0.14954893,9.772927,0.004544027,-0.003567353,9.774529,0,
7,987.6982421875,-0.000149195431732,-0.000117776158731,-0.00060946890153,-14.8337249755859,17.53342628479,-36.9191932678223,-0.01235119253397,-0.010032445192337,0.028415679931641,0.0972673,-0.1376322,9.777659,0.013726519,0.00398241,9.779102,0,
7,987.695678710938,0.00038358324673,-0.000916747725569,5.63837820664048E-05,-14.7513866424561,17.3472309112549,-37.0749549865723,-0.002290040254593,-0.005430400371552,0.028409004211426,0.09486216,-0.14239834,9.770557,0.008524522,0.002213344,9.772052,0,
7,987.683044433594,-0.000148901599459,-0.001715719234198,-0.00047618499957,-14.4063491821289,17.7755374908447,-36.9222373962402,0.007648482918739,-0.00529108941555,0.03787899017334,0.08528733,-0.14716454,9.768188,-0.0023365524,0.0048691034,9.769669,0,
7,987.683044433594,-0.000415070680901,-0.000251005636528,0.000189667625818,-14.8406543731689,17.2636852264404,-37.1332969665527,-0.00682358443737,0.004223674535751,0.042614936828613,0.094831705,-0.14478089,9.772922,0.00671684,0.00047887862,9.774451,0,
7,987.675415039062,0.000384023878723,0.000681076140609,-0.000209743215237,-15.026801109314,17.0892314910889,-36.863452911377,0.002533204853535,-0.004997685551643,0.047358512878418,0.09242654,-0.14716376,9.763451,0.0032660477,-0.00032411516,9.764996,0,
8,987.675415039062,0.000916802557185,0.000148420513142,0.000189793645404,-14.3725986480713,17.2278232574463,-37.1263389587402,-0.002260282635689,-0.009533032774925,0.037894248962402,0.08763152,-0.135247,9.768185,0.0071686506,0.011853188,9.769504,0,
8,987.688354492187,0.000251159653999,0.000281554588582,-0.000742249074392,-14.8301391601563,17.1680774688721,-36.9753532409668,-0.00231559574604,0.000150844454765,0.033164024353027,0.09239608,-0.1519296,9.763449,-6.3555315E-05,-0.00421679,9.765068,0,
8,987.648010253906,0.000384464627132,-0.000117943098303,-7.63963907957077E-05,-14.9721240997314,17.4566478729248,-37.1243286132812,-0.002549834549427,0.009951859712601,0.042640686035156,0.08282119,-0.15192918,9.765814,-0.0072650835,0.0017284602,9.7673435,0,
8,987.680053710938,0.000251453486271,0.000414664798882,-0.000608965288848,-14.5663557052612,17.0459995269775,-36.469970703125,-0.002472177147865,-0.014314815402031,0.056839942932129,0.08758575,-0.13762917,9.765812,0.0059170704,0.00979352,9.767167,0,
8,987.681945800781,-0.001079979003407,0.000148325052578,-0.00034258631058,-15.3199071884155,17.6575336456299,-36.6975746154785,0.011769250035286,-0.004645824432373,0.052107810974121,0.080400825,-0.1400121,9.753975,-0.0010253266,0.012308463,9.755302,0,
8,987.679016113281,0.000518063316122,-0.000118014635518,0.000589582137764,-15.0280246734619,17.7198963165283,-36.3612785339355,-0.002518236637115,0.004956468939781,0.037907600402832,0.08516538,-0.1447782,9.761075,-0.0007337462,0.0056688935,9.76252,0,
8,987.699035644531,0.000118736294098,0.0009472250822,5.70133561268449E-05,-14.9281024932861,17.8137531280518,-36.8440742492676,0.006792761385441,-0.009124979376793,0.037914276123047,0.08037037,-0.14239462,9.768175,-0.0028159544,0.010362312,9.769539,0,
8,987.696044921875,0.000252041267231,-0.000118062307592,-0.000741871306673,-14.8130989074707,17.8164234161377,-37.4008445739746,-0.002625592052937,-0.004503771662712,0.042647361755371,0.09230462,-0.14239426,9.770542,0.00635631,0.0028674304,9.772013,0,
8,987.658142089844,-0.000679917400703,-0.000384402112104,0.000722929020412,-14.7634239196777,17.4413661956787,-37.1555976867676,-0.011976085603237,-0.014245226979256,0.042642593383789,0.09945911,-0.14477713,9.765806,0.010245541,-0.0033157468,9.767379,0,
8,987.663146972656,-0.000413454719819,-0.000517583917826,0.000456676032627,-15.0165309906006,17.9940586090088,-36.379093170166,0.002389751374722,-2.16513872146606E-05,0.05211353302002,0.08749431,-0.14716007,9.756335,-0.00043599308,0.0024641901,9.757837,0,
8,987.673034667969,0.000252481899224,0.000547655916307,-0.000475366599858,-14.8418788909912,17.8943538665771,-36.6311225891113,-0.002381213009357,0.000139057636261,0.033178329467774,0.087479085,-0.14954297,9.770537,-0.0020184945,0.000813514,9.772074,0,
8,987.657775878906,-0.000146845006384,-0.000650789472274,0.000323644082528,-15.0259599685669,17.3530826568604,-36.3401298522949,-0.002542778849602,0.000342339277267,0.018980979919434,0.087463826,-0.14239277,9.7800045,0.002683241,0.006111279,9.781429,0,
8,987.657958984375,0.000385933672078,0.000680766010191,-0.000208924757317,-14.837610244751,17.2666339874268,-37.2879066467285,-0.012233003973961,0.000320866703987,0.037921905517578,0.099398136,-0.1495422,9.777636,0.007096231,-0.007258475,9.77928,0,
8,987.662841796875,-1.33933499455452E-05,-0.000118205498438,-0.000208861834835,-14.8762264251709,17.1777973175049,-37.2767601013184,0.006900124251843,-0.009405791759491,0.047388076782227,0.09460306,-0.1400087,9.768167,0.009882119,0.0029907823,9.769623,0,
8,987.662841796875,-0.000279562082142,0.000414402398746,-0.00034195673652,-15.1521844863892,17.2880878448486,-37.1637077331543,-0.016676247119904,0.000304996967316,0.042655944824219,0.09936762,-0.14954148,9.761063,0.006749995,-0.0073634833,9.76271,0,
8,987.683227539062,0.000519532361068,-0.000517726992257,5.75800659134984E-05,-15.2731380462646,17.3854465484619,-36.9967918395996,0.007376328110695,0.005256876349449,0.037924766540527,0.09257546,-0.14955069,9.775301,0.0015035681,-0.0026493073,9.776882,0,
8,987.655212402344,0.000785995041952,-0.000251434976235,-0.000341830891557,-14.9556589126587,17.2610187530518,-36.5765342712402,-0.007486663758755,-0.008573472499847,0.033122062683106,0.097756594,-0.14717726,9.77297,0.006554557,-0.0043509305,9.774566,0,
8,987.652465820313,-0.00015363493003,-0.001447264337912,0.000185394892469,-14.9977235794067,17.6434421539307,-37.2083015441895,-0.007413014769554,0.00552336871624,0.042585372924805,0.10016304,-0.15671076,9.76587,0.0021708272,-0.01313065,9.767632,0,
8,987.652465820313,-0.00015363493003,-0.001447264337912,0.000185394892469,-14.9977235794067,17.6434421539307,-37.2083015441895,0.002471819519997,0.000714376568794,0.042580604553223,0.09539974,-0.14956142,9.772974,0.0030084793,-0.004220918,9.774583,0,
8,987.675598144531,-2.06364784389734E-05,-0.000115659087896,-0.000480463029817,-15.1964521408081,17.9314136505127,-37.1175422668457,-0.01160528510809,-0.008698597550392,0.056781768798828,0.097806185,-0.1447952,9.756405,0.0076351203,-0.0022476315,9.757967,0,
8,987.675598144531,-2.06364784389734E-05,-0.000115659087896,-0.000480463029817,-14.7941303253174,17.9920253753662,-37.1060981750488,-0.012011684477329,-0.008741080760956,0.028376579284668,0.09543282,-0.14241238,9.775343,0.007743329,0.0009315759,9.776844,0,
8,987.689331054687,0.000112203066237,0.000283866364043,0.000185190234333,-15.0859060287476,16.8233203887939,-37.0697364807129,0.007268384099007,0.005541384220123,0.042575836181641,0.088279605,-0.1543291,9.761142,-0.005720347,-0.0032615513,9.76276,0,
8,987.681274414063,-0.000287429895252,0.000150734325871,0.001117227482609,-15.059871673584,17.3745822906494,-37.2599754333496,-0.016340747475624,-0.004012376070023,0.037837028503418,0.100245655,-0.15432955,9.770612,0.0031538177,-0.010859162,9.77234,0,
8,987.681274414063,-0.000287589151412,-0.001047661295161,0.000185053679161,-14.9692192077637,17.3536777496338,-36.5798606872559,0.002600707113743,-0.003999412059784,0.042572021484375,0.09070253,-0.15671323,9.772981,-0.005460875,-0.006455004,9.774654,0,
9,987.670593261719,0.000644356943667,0.00041710207006,-0.000347646302544,-14.7464151382446,16.8774433135986,-36.5093421936035,0.00257682800293,0.000485599040985,0.033096313476563,0.09549892,-0.14718051,9.75878,0.004547674,-0.002489999,9.760356,0,
9,987.670593261719,-0.000554223777726,0.000550285738427,0.000184917182196,-15.0224800109863,18.0940799713135,-36.7689476013184,0.007241480052471,0.000694885849953,0.028366088867188,0.08356589,-0.14718099,9.777718,-0.004546687,0.0053996295,9.779179,0,
9,987.680419921875,0.000377722666599,-0.000115478178486,-8.14669765532017E-05,-15.1534080505371,17.9187564849854,-36.6615257263184,-0.001874543726444,0.005236446857452,0.047293663024902,0.08836222,-0.14718129,9.765884,-0.0010838676,0.0025889575,9.767392,0,
9,987.65478515625,-0.000288226176053,-0.000648083980195,-0.00034785119351,-14.7698097229004,16.8033313751221,-37.2712478637695,0.007777497172356,-0.004058435559273,0.023622512817383,0.08598882,-0.15194829,9.777721,-0.0061735865,0.0007252544,9.779279,0,
9,987.675048828125,0.000111088273115,-0.000648058252409,0.000184712349437,-14.5973606109619,16.9645290374756,-36.8453483581543,0.003220930695534,0.014974817633629,0.047290802001953,0.090785176,-0.16148178,9.772988,-0.008985503,-0.009584427,9.774736,0,
9,987.667846679688,0.000377244781703,-0.00064803235,0.000184644130059,-14.9306039810181,17.4425182342529,-36.5910110473633,0.017416931688786,-0.018234938383103,0.028354644775391,0.08363199,-0.13526617,9.770623,0.0027540252,0.0146586895,9.771907,0,
9,987.667846679688,0.000575417827349,0.000120436248835,-0.000404930557124,-14.8919887542725,17.5313587188721,-36.6021614074707,0.003329202532768,0.005831822752953,0.033089637756348,0.093208134,-0.15433277,9.770624,-0.0027944017,-0.0060388893,9.7722845,0,
9,987.667785644531,0.000442100863438,-0.000944801373407,-0.000271840835921,-15.2426767349243,17.8352069854736,-36.7198677062988,-0.000905930995941,0.015372484922409,0.052020072937012,0.09800446,-0.15909971,9.75879,-0.002752889,-0.0126205385,9.760571,0,
9,987.667785644531,-9.06901550479233E-05,-0.000678459706251,-0.000405067228712,-14.8298406600952,17.8002223968506,-36.5504875183105,0.013522565364838,0.010571926832199,0.056751251220703,0.07412195,-0.1448005,9.756424,-0.011745634,0.01370281,9.757764,0,
9,987.65771484375,-0.000224007468205,-0.000278959952993,-5.66156813874841E-06,-15.2646884918213,17.6566562652588,-36.8599967956543,-0.010684482753277,-0.008827894926071,0.052013397216797,0.093257725,-0.14956744,9.775363,0.00029100105,-0.0018559545,9.776952,0,
9,987.677062988281,-0.000756798719522,-0.000145776197314,-5.72972930967808E-06,-14.9926137924194,17.2795696258545,-37.3417663574219,0.008747659623623,-0.013516515493393,0.042540550231934,0.08610451,-0.14003475,9.765896,0.0008627381,0.010017097,9.767275,0,
9,987.683898925781,0.000441463605966,-0.000678382115439,-0.000138956005685,-14.5350751876831,17.3393115997314,-37.492748260498,-0.010258309543133,0.00080443918705,0.047273635864258,0.10046047,-0.15433483,9.765897,0.002261933,-0.01009737,9.767626,0,
9,987.670959472656,4.18306444771588E-05,0.000120591372252,0.000526765419636,-14.82763671875,17.5393161773682,-37.2284164428711,-0.000958852469921,0.005430981516838,0.03306770324707,0.08852747,-0.15433516,9.777735,-0.0065109134,-0.0021969974,9.77935,0,
9,987.6806640625,-0.000357802433427,0.000120617216453,0.00052669714205,-14.8407917022705,17.1577701568604,-36.4342231750488,0.018188148736954,-0.008885011076927,0.056737899780274,0.07898444,-0.13765271,9.756432,-0.002836382,0.016384706,9.757708,0,
9,987.6806640625,-0.000357961922418,0.000253801059444,-0.000272318837233,-14.7332592010498,17.2589893341064,-37.303539276123,0.008673496544361,-0.008862018585205,0.047267913818359,0.08856052,-0.14956947,9.763535,-0.0035090856,0.001237616,9.765081,0,
9,987.660217285156,0.000174510583747,-0.001210910384543,-0.000538702821359,-14.8572578430176,17.3533992767334,-36.9820213317871,0.00911595672369,0.019761338829994,0.051996231079102,0.086187124,-0.1662528,9.758802,-0.016483974,-0.0098012835,9.76058,0,
9,987.652465820313,0.000174351444002,-0.000811410776805,-6.13939482718706E-06,-14.6160297393799,17.4210605621338,-36.7152137756348,0.001072704792023,0.000476032495499,0.033163070678711,0.089749396,-0.13524033,9.765792,0.0061063524,0.012069061,9.767132,0,
9,987.652465820313,-8.91725649125874E-05,-0.00054554810049,-0.000271258642897,-14.9506568908691,18.0034961700439,-37.0826530456543,0.006020061671734,0.005377858877182,0.033166885375977,0.09449625,-0.14953919,9.763422,0.00037575327,-0.0019992888,9.765024,0,
9,987.667785644531,-0.000213894003537,-0.000415101239923,0.000135422975291,-14.8281803131104,17.9076061248779,-37.3268699645996,0.00135263800621,0.005335226655006,0.052106857299805,0.08968347,-0.1543049,9.772887,-0.006441558,-0.0021584183,9.774515,0,
9,987.684753417969,-8.04183655418456E-05,-0.00014883701806,0.000268717121799,-14.8717975616455,17.0762958526611,-36.8095970153809,-0.003290392458439,-0.004238501191139,0.052107810974121,0.09443027,-0.15192087,9.758681,-0.0014121104,-0.0036488324,9.76032,0,
9,987.651245117188,-0.000479574373458,-1.57306785695255E-05,0.000535169267096,-15.2807483673096,17.3780841827393,-36.6102714538574,-0.003135673701763,-5.97536563873291E-06,0.037898063659668,0.096787184,-0.15192004,9.7681465,0.00069036894,-0.0045603663,9.769807,0,
9,987.653076171875,-0.000612414383795,-0.000814729894046,0.000402147532441,-15.4542846679688,17.953462600708,-37.2330703735352,-0.002712726593018,-0.004659861326218,0.023696899414063,0.09197441,-0.14476942,9.775246,0.001352461,0.004302874,9.77675,0,
9,987.700927734375,0.000186851189937,-0.000681623525452,2.80997483059764E-06,-14.9545421600342,17.7367038726807,-37.4513664245605,0.002085819840431,8.62330198287964E-05,0.033167839050293,0.091941416,-0.15191843,9.775243,-0.0032871496,-0.0010938942,9.776855,0,
9,987.662780761719,-7.91468773968518E-05,0.000117272487842,-0.000529685697984,-14.7363033294678,17.2560443878174,-37.1489295959473,-0.011810578405857,0.019155949354172,0.042634963989258,0.09907818,-0.15430088,9.770506,0.00016651675,-0.0073793083,9.772223,0,
9,987.662780761719,0.000187486817595,-0.000814884668216,-0.000662707432639,-15.1257448196411,17.3651447296143,-36.5564155578613,0.012035414576531,-0.014125421643257,0.056844711303711,0.08709568,-0.14238371,9.758667,-0.0011406243,0.009131357,9.76009,0,
10,987.662414550781,0.000187804747839,-0.000681778416038,3.21870902553201E-06,-14.7830715179443,17.5281314849854,-36.8497085571289,-0.001623541116714,0.005105704069138,0.033171653747559,0.09423241,-0.15191604,9.763397,-0.0024769083,-0.0023631305,9.765033,0,
10,987.662414550781,0.000187804747839,-0.000681778416038,3.21870902553201E-06,-14.5157032012939,17.0407047271729,-36.4004783630371,0.003444142639637,-0.008993878960609,0.042643547058106,0.09180951,-0.13761552,9.75866,0.004747022,0.009953216,9.760055,0,
10,987.662780761719,0.000454756373074,-0.000948197382968,0.000536122941412,-14.9707412719727,17.3522052764893,-36.5025596618652,-0.001138001680374,-0.018469914793968,0.066317558288574,0.09416646,-0.12808158,9.74682,0.012575697,0.015457377,9.748096,0,
10,987.662780761719,0.000454756373074,-0.000948197382968,0.000536122941412,-14.9707412719727,17.3522052764893,-36.5025596618652,0.00848450511694,-0.013738438487053,0.052117347717285,0.08696374,-0.14476372,9.770491,-0.0037801377,0.008053765,9.771946,0,
10,987.699645996094,-0.000476713350508,-0.000415668851929,-0.000528868229594,-14.9365539550781,17.5425434112549,-36.9808692932129,0.00392297655344,-0.013643130660057,0.047385215759277,0.094100475,-0.14237966,9.770487,0.0029655155,0.005252704,9.771976,0,
10,987.655456542969,0.000189393933397,-0.000548878393602,0.000403373647714,-15.0811796188355,17.3539524078369,-36.1777076721191,0.004063323140144,-0.008621111512184,0.042655944824219,0.0892877,-0.13999562,9.761015,0.0006973613,0.009895906,9.762423,0,
10,987.655456542969,0.000456027861219,0.000383175502066,-0.000661753641907,-14.6938037872314,17.6116771697998,-36.7913665771484,-0.015304774045944,-0.004212692379951,0.047391891479492,0.10120422,-0.15667774,9.768114,-0.0006593913,-0.010307446,9.76989,0,
10,987.65478515625,-0.000608917849604,-1.63498916663229E-05,-0.000262143497821,-14.7981538772583,17.6193180084229,-36.7757377624512,0.003932110965252,0.015132650732994,0.037928581237793,0.089221716,-0.1566769,9.779947,-0.010056067,-0.0025114864,9.781605,0,
10,987.65478515625,0.000190347607713,-1.64014636538923E-05,0.000536940293387,-15.3158845901489,18.0302448272705,-37.0279350280762,0.013416543602944,0.000530228018761,0.056867599487305,0.08440894,-0.15190949,9.763373,-0.010389036,0.0041590035,9.764913,0,
10,987.68408203125,-7.5650226790458E-05,-1.64530938491225E-05,-0.000128713203594,-15.2235717773438,18.1167316436768,-37.1242065429688,0.008306987583637,-0.008974835276604,0.018998146057129,0.08915579,-0.13999234,9.777575,0.0012035184,0.010126188,9.778976,0,
10,987.6962890625,0.000324141408782,0.000915600860026,0.000270896882284,-14.9343519210815,17.2816410064697,-37.6588020324707,0.008266434073448,-0.008850231766701,0.052145004272461,0.084343016,-0.14952461,9.758633,-0.008619824,0.005607277,9.760137,0,
10,987.693298339844,-0.000341330480296,0.00011660164455,-0.000394756614696,-14.7915229797363,17.2569217681885,-36.9865036010742,0.003694728016853,-0.018446370959282,0.047410011291504,0.09147972,-0.13284089,9.758631,0.0075749215,0.013683617,9.759951,0,
10,987.677795410156,-0.000474170490634,-0.000149765808601,-0.000128304527607,-15.0310688018799,17.7169513702393,-36.2066688537598,0.007953263819218,0.014564886689186,0.042677879333496,0.084277034,-0.1519063,9.775198,-0.009672908,0.0041230023,9.776738,0,
10,987.677795410156,-0.000207536679227,0.000915446144063,-0.000394484202843,-14.6971454620361,16.9765949249268,-37.0616302490234,0.003012850880623,-0.00903645157814,0.066360473632813,0.093803674,-0.14713891,9.746788,0.0005968567,0.0007405579,9.74835,0,
10,987.662414550781,0.000325412896927,0.000382762693334,-0.00026118993992,-15.1352825164795,17.8305149078369,-36.8901100158691,-0.001821927726269,-0.004044011235237,0.047429084777832,0.091380775,-0.14952143,9.775192,-0.0028081108,0.0007890612,9.776763,0,
10,987.652099609375,0.000592046708334,0.000382711121347,0.000271578028332,-15.280068397522,17.1157054901123,-37.2108955383301,0.003074198961258,0.000672802329063,0.019023895263672,0.088957876,-0.14952062,9.7799225,-0.0046005454,0.0026597828,9.781468,0,
10,987.637084960937,-0.00020658300491,-0.000682603975292,0.000138556351885,-15.0283241271973,17.0877628326416,-36.7861480712891,0.007121130824089,0.010107040405274,0.018959045410156,0.087273896,-0.15430446,9.77762,-0.0089616105,0.00012110174,9.7792225,0,
10,987.659729003906,0.000321981438901,0.000117003859486,3.65526648238301E-06,-15.1347389221191,17.4622211456299,-36.7916603088379,-0.002598077058792,-0.004006773233414,0.047370910644531,0.09682971,-0.14000468,9.770518,0.007625852,0.0042214394,9.771997,0,
10,987.657165527344,-0.000213192135561,0.00078320625471,-0.000263750029262,-14.3505868911743,17.4063739776611,-36.9862098693848,-0.007928863167763,0.010375246405602,0.052111625671387,0.10160571,-0.1590708,9.758682,-0.0006495137,-0.013927981,9.760498,0,
10,987.6572265625,-7.2556606028229E-05,0.000995989423245,0.000225740193855,-14.9917736053467,17.5434169769287,-36.8184394836426,0.00671423971653,0.010179430246353,0.033167839050293,0.08726245,-0.1566874,9.76815,-0.010283174,-0.0022352785,9.769792,0,
10,987.672241210938,6.06377725489438E-05,-0.000202438066481,-0.000573191733565,-14.8737239837646,17.5490322113037,-37.5298194885254,-0.007856875658035,0.010205313563347,0.04263973236084,0.099208176,-0.14715426,9.770517,0.00516814,-0.0029236376,9.772127,0,
10,987.654174804688,0.000460148381535,0.000197029847186,0.000758403446525,-15.0716114044189,18.1008472442627,-36.9157409667969,0.006820321083069,-0.003707379102707,0.033173561096192,0.0920347,-0.1447709,9.772884,0.0007747263,0.0035117567,9.77439,0,
10,987.6572265625,0.000859658990521,-0.000601923791692,0.000225787458476,-15.1889791488647,17.8328609466553,-36.804988861084,-0.002528622746468,0.006053403019905,0.037911415100098,0.08486116,-0.1543039,9.775251,-0.011176949,0.0009512156,9.776831,0,
10,987.652099609375,0.000593379547354,-0.000735087727662,-0.000573144468945,-15.0038118362427,17.6375484466553,-36.8990821838379,0.011541366577149,-0.003305748105049,0.052120208740234,0.08007759,-0.14000417,9.768148,-0.0057522263,0.014354944,9.769468,0,
11,987.646606445312,0.000193942629267,0.000463327800389,-0.000173654931132,-14.7002964019775,18.0799922943115,-37.2796745300293,0.021345116198063,-0.012744665145874,0.03791618347168,0.077683866,-0.14238738,9.768148,-0.009134801,0.014252663,9.769481,0,
11,987.646789550781,0.000193979183678,-0.000735099602025,-0.000173639331479,-15.0368824005127,17.9228954315186,-37.2956047058105,0.011805914342404,0.001831278204918,0.0521240234375,0.08245987,-0.1495371,9.751577,-0.010354027,0.0051777363,9.753065,0,
11,987.636901855469,0.00099296332337,0.000197000044864,-4.04655584134162E-05,-14.8252735137939,17.8046360015869,-36.7824020385742,-0.00760767608881,0.00215907394886,0.037928581237793,0.09918538,-0.1447704,9.768148,0.005570136,-0.0020912737,9.769724,0,
11,987.636840820313,0.00059352646349,0.000596467929427,-0.000306765839923,-14.7217645645142,17.5331516265869,-37.3213539123535,0.006538949906826,-0.012066572904587,0.037931442260742,0.08962196,-0.1471536,9.772882,-0.0031731073,0.0021432787,9.774402,0,
11,987.666870117188,-7.22266850061715E-05,0.000330145994667,0.000625355576631,-14.396674156189,17.4160861968994,-37.2876167297363,0.011048331856728,0.002317890524864,0.047404289245606,0.08244845,-0.15430333,9.7776165,-0.01307142,0.001332432,9.779174,0,
11,987.639038085938,0.000194125866983,0.000862771936227,0.000625371292699,-15.0763378143311,17.5702075958252,-37.8077735900879,0.020071484148502,0.002191722393036,0.033205032348633,0.08244464,-0.15668656,9.7776165,-0.014145849,-0.00069764256,9.779208,0,
11,987.654418945312,0.000327320594806,0.000995923765004,0.000492229009978,-15.2079467773438,17.6572551727295,-37.0997276306152,-0.003946676850319,0.011875092983246,0.052145957946777,0.09678024,-0.15906967,9.7539425,-0.004879877,-0.012536183,9.755712,0,
11,987.65185546875,0.000327357149217,6.38123019598424E-05,9.2770962510258E-05,-14.7559509277344,17.3428134918213,-36.8430442810059,0.005908973515034,-0.007076442241669,0.028472900390625,0.087216824,-0.14000337,9.777615,0.000113889575,0.008675262,9.779003,0,
11,987.644287109375,-0.000338359212037,0.000596432189923,0.001291223801672,-15.0439491271973,17.5472354888916,-36.8106269836426,0.01040518283844,-0.002581715583801,0.033206939697266,0.091992855,-0.14715315,9.777615,-0.0005927235,0.00016248226,9.779155,0,
11,987.644287109375,-0.000338359212037,0.000596432189923,0.001291223801672,-15.1377830505371,17.4592761993408,-36.6370506286621,-0.00884684920311,-0.002668112516403,0.037940979003906,0.08959913,-0.1495363,9.77288,-0.0038165431,-0.00015950203,9.774434,0,
11,987.644287109375,-0.000338359212037,0.000596432189923,0.001291223801672,-15.1377830505371,17.4592761993408,-36.6370506286621,0.000275894999504,-0.007624834775925,0.033208847045899,0.09676501,-0.14476968,9.763411,0.0051570404,-0.001559034,9.764962,0,
11,987.633972167969,-0.000205127696972,0.001129051903263,0.00022599165095,-15.1393051147461,17.4578037261963,-36.5597496032715,0.009435400366783,0.006928935647011,0.028481483459473,0.08481169,-0.15191938,9.775247,-0.008390823,0.00063958764,9.776791,0,
11,987.656921386719,0.000993330264464,0.000596414378379,0.000891797128133,-14.4898281097412,17.0657482147217,-37.7146644592285,0.004403479397297,-0.011821046471596,0.042693138122559,0.08958769,-0.13523634,9.765778,0.006047804,0.0095402,9.7671175,0,
11,987.646606445312,-7.18965311534703E-05,0.00086272432236,-0.000439766503405,-15.0695457458496,17.7340297698975,-36.8945960998535,0.004281505942345,-0.002216503024101,0.028491973876953,0.09197378,-0.13761957,9.775246,0.006384125,0.006207153,9.776643,0,
11,987.661926269531,-7.18598603270948E-05,0.000330086564645,0.000359196856152,-15.4227361679077,17.6666431427002,-36.7592430114746,-0.000623039901257,-0.011763721704483,0.047430992126465,0.09674981,-0.14476933,9.765776,0.0054030307,-0.0026403517,9.767325,0,
11,987.644287109375,6.13347510807216E-05,-0.000202551236725,9.28966910578311E-05,-14.532169342041,17.2363376617432,-36.9482803344727,0.004520758986473,-0.002331435680389,0.02375602722168,0.08479649,-0.14000268,9.782347,-0.0007345993,0.009426609,9.783712,0,
11,987.656555175781,-0.00020494434284,-0.000602031010203,9.29125235415995E-05,-14.844241142273,17.6290302276611,-37.0771408081055,-0.014969184994698,0.002273231744766,0.056897163391113,0.10193378,-0.13524605,9.765814,0.01574626,0.0015510768,9.76727,0,
11,987.656555175781,-7.27272708900273E-05,0.001262333011255,-0.00057328044204,-15.0921020507813,17.9237689971924,-37.1331748962402,0.008168235421181,0.016692996025086,0.023679733276367,0.08802709,-0.14955635,9.768221,-0.0042315144,-0.0003389418,9.769762,0,
11,987.656555175781,-7.93534563854337E-05,-0.000733929220587,0.000619435799308,-14.8179626464844,17.1798648834229,-37.5937957763672,-0.001383893191814,0.016643300652504,0.047348976135254,0.09761587,-0.16147341,9.763489,-0.004837295,-0.015588939,9.765298,0,
11,987.659118652344,5.35233411937952E-05,0.000198222085601,-0.000179632392246,-14.5396404266357,17.3348903656006,-37.2608337402344,-0.000712893903255,-0.021179497241974,0.047343254089356,0.09286523,-0.13287483,9.77296,0.009521056,0.009623423,9.774296,0,
11,987.621032714844,0.000585874076933,-0.001665943418629,-0.000179752765689,-14.3211040496826,17.4863758087158,-36.5335311889648,0.008790098130703,-0.006756171584129,0.037875175476074,0.09050447,-0.14240868,9.768229,0.0014470499,0.0036937296,9.769686,0,
11,987.651611328125,0.000452434760518,0.000198313355213,-0.000446189253125,-15.0280256271362,17.7199001312256,-36.3612785339355,-0.010457754135132,-0.011370196938515,0.037877082824707,0.088143766,-0.14479263,9.76823,-0.001854904,0.0032109767,9.7697,0,
11,987.638977050781,5.26799121871591E-05,0.000331516930601,-0.000313151802402,-14.4815158843994,17.2310428619385,-36.878791809082,0.022182792425156,0.012158513069153,0.042607307434082,0.064273894,-0.15432651,9.7635,-0.0254689,0.011016056,9.764893,0,
11,987.668884277344,-0.00034707528539,0.000464720505988,8.62014130689204E-05,-14.2807216644287,16.5762577056885,-36.9484062194824,0.012454986572266,-0.006720319390297,0.047346115112305,0.07864252,-0.13764437,9.77297,-0.0035172645,0.014418602,9.774244,0,
11,987.669128417969,0.000185275333934,0.001263713813387,0.000618712801952,-14.3414554595947,17.4152164459229,-37.4500465393066,0.012065067887306,-0.0018450319767,0.047347068786621,0.076281786,-0.14956142,9.768239,-0.013079835,0.006280333,9.769672,0,
12,987.65380859375,0.000184994307347,0.000864285626449,-0.000180355331395,-14.5155649185181,17.1466236114502,-37.0995597839355,0.021304436028004,0.012310162186623,0.028407096862793,0.08109075,-0.15909524,9.772976,-0.015199453,-0.0039038062,9.774595,0,
12,987.64404296875,-8.16027168184519E-05,-0.000200932161533,-0.000579949759413,-14.8472862243652,17.6260852813721,-36.9225273132324,0.011456251144409,0.021818250417709,0.028406143188477,0.07873005,-0.15671273,9.770613,-0.01523811,-0.0007888973,9.772175,0,
12,987.659057617188,0.000317589729093,0.001130692893639,8.57194536365569E-05,-14.6863307952881,17.5131244659424,-36.478816986084,0.006623297929764,-0.002145498991013,0.037872314453125,0.0811491,-0.14718033,9.772982,-0.00712402,0.005017042,9.774423,0,
12,987.66650390625,-0.000747954822145,0.000198632798856,0.000351914844941,-14.9971809387207,17.2751483917236,-37.1098480224609,0.001607187092304,-0.016273930668831,0.052077293395996,0.09073788,-0.14003117,9.758781,0.004911052,0.0036591738,9.760206,0,
12,987.656677246094,0.000450185500085,-6.76373892929405E-05,0.000351794355083,-15.0910148620605,17.1871891021729,-36.9362754821777,0.001228146255016,0.002730816602707,0.047341346740723,0.093156934,-0.14479847,9.763518,0.0038738158,-0.0016148835,9.765037,0,
12,987.656677246094,5.04303025081754E-05,0.001397145679221,-0.000314115837682,-14.8948945999146,17.6343250274658,-37.1466255187988,0.010354250669479,-0.01620164513588,0.03314208984375,0.0812366,-0.1400326,9.770622,-0.0019429438,0.009559527,9.771959,0,
12,987.636474609375,0.000715938978828,0.000864559551701,0.000484711315949,-14.7102699279785,17.8073062896729,-37.339168548584,0.01004484295845,-0.006376594305038,0.037880897521973,0.0788759,-0.1447999,9.772992,-0.0066962987,0.007120937,9.774379,0,
12,987.663818359375,4.98680165037513E-05,0.000465131335659,-0.000314356933814,-14.7142925262451,17.4345951080322,-37.0088005065918,0.019622504711151,-0.001704871654511,0.018938064575195,0.07412526,-0.14718388,9.777729,-0.011788057,0.00861451,9.779108,0,
12,987.641296386719,-0.000248783442657,-0.000359367288183,0.000120011332911,-15.1737604141235,17.8475933074951,-37.5780372619629,0.009698934853077,-0.001703664660454,0.023674011230469,0.086103946,-0.14241804,9.782466,0.000639122,0.0042998046,9.783881,0,
12,987.651428222656,1.72511790879071E-05,0.000306467991322,-0.000545898859855,-14.8441038131714,17.7349491119385,-37.7762184143066,0.019120410084725,0.021453589200974,0.047334671020508,0.083743215,-0.15671839,9.763531,-0.0099628195,-0.004908666,9.7651415,0,
12,987.628723144531,-0.001314609777182,0.00043967156671,0.000119770353194,-15.3158845901489,18.0302448272705,-37.0279350280762,0.01433702558279,0.016596972942352,0.033125877380371,0.08138251,-0.147186,9.770636,-0.00542604,0.004156545,9.77208,0,
12,987.623474121094,-0.000249626988079,-9.29145608097315E-05,-1.35081936605275E-05,-15.4000434875488,17.5828266143799,-37.2197456359863,0.0047722235322,0.0022883862257,0.042591094970703,0.08858138,-0.15195324,9.761169,-0.0032139309,-0.0043392926,9.7627535,0,
12,987.628662109375,0.000282723398414,4.02890145778656E-05,0.000252687197644,-15.1408271789551,17.4563312530518,-36.4824409484863,-0.014386378228664,0.016755416989327,0.014184951782227,0.09578025,-0.14480413,9.787211,0.0069307573,-0.003305748,9.78875,0,
12,987.628662109375,0.000415600312408,-0.000225981202675,-0.000146906939335,-14.8443784713745,17.5231151580811,-36.3780632019043,0.014205366373062,0.002546325325966,0.052059173583984,0.079080105,-0.14957143,9.773011,-0.008954264,0.0034745336,9.774472,0,
12,987.651245117188,-0.000383628706913,0.00043985422235,0.000518762099091,-14.7624454498291,17.811128616333,-37.3313522338867,1.78813934326172E-05,-0.0069709867239,0.033119201660156,0.086278975,-0.15433867,9.770646,-0.0066322684,-0.0047528297,9.772243,0,
12,987.635925292969,-0.000117593968753,-0.000758521608077,0.000252325611655,-14.9196510314941,18.0849666595459,-36.7072792053223,-0.00941114872694,-0.007043898105621,0.042581558227539,0.08869806,-0.1495728,9.763548,-0.00180218,-0.0026129186,9.765098,0,
12,987.635925292969,-0.000117593968753,-0.000758521608077,0.000252325611655,-14.8869857788086,18.2738285064697,-37.108283996582,0.002083383500576,-0.002400308847427,0.038022994995117,0.07480222,-0.14714183,9.77994,-0.010866316,0.008494034,9.7813225,0,
12,987.635925292969,0.000148440769408,0.000173629669007,-0.000280426524114,-14.9089975357056,18.0952777862549,-37.2484092712402,0.002411060035229,-0.002407640218735,0.03802490234375,0.08431238,-0.14714058,9.770466,-0.0037064888,0.0025534779,9.771937,0,
12,987.613464355469,-0.000101240875665,-0.00023138220422,0.000131829758175,-14.5577669143677,17.423131942749,-37.0322494506836,0.011790797114372,-0.021466135978699,0.052234649658203,0.08187303,-0.13045646,9.76336,0.005271651,0.016510472,9.764561,0,
12,987.64111328125,0.000165551842656,0.000301172200125,0.000398350006435,-15.0925369262695,17.1857166290283,-36.8589668273926,0.007134199142456,-0.002295076847076,0.061707496643067,0.07943365,-0.14237167,9.749152,-0.004215965,0.008805096,9.75051,0,
12,987.64111328125,0.000432344560977,-0.00023153697839,-0.00093302509049,-15.0057392120361,18.1102848052979,-37.6193046569824,0.002562485635281,-0.002102494239807,0.042776107788086,0.08894378,-0.1376039,9.75625,0.0056540016,0.006312564,9.757623,0,
12,987.6806640625,0.000166505516972,-0.000231614394579,-7.15081114321947E-07,-15.1427545547485,17.9290637969971,-37.2026634216309,0.002283908426762,0.012006834149361,0.02857780456543,0.08889431,-0.14951898,9.77755,-0.0016209446,-0.0024775863,9.779097,0,
12,987.6396484375,-0.000232491467614,0.000300939835142,-0.000133668712806,-14.7999744415283,16.9857082366943,-37.1233024597168,0.002692140638828,-0.002151176333427,0.04278564453125,0.08406508,-0.14236797,9.763342,-0.0009663645,0.0059902817,9.76474,0,
12,987.6396484375,-9.88566898740828E-05,-0.001030716812238,0.000266009359621,-14.9841632843018,17.5507831573486,-37.2049674987793,0.003175467252731,-0.011676073074341,0.052254676818848,0.07206607,-0.14236678,9.768072,-0.010437844,0.014169648,9.769359,0,
13,987.646606445312,-0.00049785367446,-0.000764478347264,0.000133055902552,-14.7422542572021,17.3560657501221,-37.5387878417969,0.02212131023407,0.002563700079918,0.038057327270508,0.074406505,-0.14236562,9.765699,-0.008495394,0.012480363,9.76701,0,
13,987.646667480469,0.000434728746768,-0.000231924001127,0.000399576034397,-14.9223136901855,17.1875095367432,-37.5781631469727,0.012858830392361,-0.011818036437035,0.042792320251465,0.07913685,-0.14236431,9.770431,-0.0049168486,0.009761333,9.771782,0,
13,987.646667480469,-9.74261783994734E-05,-0.000232001388213,0.000266622460913,-15.1482992172241,17.5548801422119,-36.794994354248,-0.015816330909729,0.002634644508362,0.028595924377442,0.093426764,-0.1518962,9.768059,-0.00050870515,-0.007013127,9.769684,0,
13,987.656677246094,-9.69493412412703E-05,3.42371058650315E-05,-0.000265804992523,-14.8531284332275,16.6197643280029,-36.9397239685059,0.008234828710556,-0.007523149251938,0.028590202331543,0.08142778,-0.14951177,9.77989,-0.0075607784,0.0035437047,9.781368,0,
13,987.633544921875,-0.00142805185169,-0.001031103893183,7.15255737304688E-07,-15.1293315887451,17.7304859161377,-36.5002555847168,0.003935046494007,0.011382073163986,0.042790412902832,0.08376825,-0.1542771,9.770416,-0.009227641,-0.0015394092,9.771988,0,
13,987.656066894531,-0.000362311548088,-0.000498549488839,0.000400393415475,-15.3023242950439,17.9375858306885,-37.0246047973633,0.013571344316006,0.01129874587059,0.061732292175293,0.08371878,-0.15189259,9.760942,-0.007703578,0.00021345913,9.76248,0,
13,987.636169433594,0.000170797051396,-0.000232311023865,0.000533755635843,-14.7779626846313,17.1642589569092,-36.9831733703613,0.013408698141575,0.015878111124039,0.014392852783203,0.0741097,-0.14712478,9.77751,-0.011495445,0.010442153,9.778885,0,
13,987.646118164063,0.000171273888554,0.000167085323483,0.001066591823474,-14.6896724700928,16.8780384063721,-36.749080657959,0.008799530565739,0.002002239227295,0.052276611328125,0.08600974,-0.15665673,9.765669,-0.009200703,-0.0049527586,9.767299,0,
13,987.638549804688,0.000970698369201,-0.000765097560361,0.000401006429456,-14.851170539856,17.3592929840088,-37.2912406921387,0.023003101348877,0.006765246391296,0.038080215454102,0.07640064,-0.1566555,9.7775,-0.01625275,0.0013349205,9.77904,0,
13,987.638549804688,-0.000626720080618,0.000166930665728,0.000134894915391,-14.7688312530518,17.1730976104736,-37.4470024108887,0.008824571967125,0.015966817736626,0.042812347412109,0.0787411,-0.1471212,9.760925,-0.008146953,0.0070750266,9.762346,0,
13,987.628784179688,-0.000226769421715,0.000832642952446,-0.000264374597464,-14.586706161499,16.9748401641846,-37.3864822387695,0.017966166138649,-0.017392307519913,0.042821884155274,0.073911846,-0.13758685,9.7632885,-0.0051929373,0.017166793,9.764521,0,
13,987.631042480469,-9.31349932216108E-05,0.000433091598097,-0.000663644110318,-14.5711898803711,17.6217060089111,-37.7346611022949,0.008489683270454,0.001689344644547,0.038091659545899,0.07864219,-0.14473547,9.760916,-0.006517878,0.008511111,9.762299,0,
13,987.631042480469,-0.000358974037226,3.35404183715582E-05,0.000268665840849,-15.080605506897,18.1979274749756,-37.1509895324707,-0.010546416044235,0.006100058555603,0.038091659545899,0.0905422,-0.14473428,9.77038,0.002847368,0.0013444424,9.771872,0,
13,987.651245117188,-0.000891128845979,-0.000632326642517,-0.000130603613798,-14.7423915863037,17.2501544952393,-36.8397102355957,0.003743290901184,-0.013196796178818,0.047561645507813,0.08571294,-0.14711638,9.758539,-0.002135979,0.00256975,9.760024,0,
13,987.708312988281,-0.000491178652737,0.000566017406527,-0.000263557245489,-14.8120126724243,17.0798435211182,-37.2039375305176,0.003493748605251,-0.00863841176033,0.042832374572754,0.088053346,-0.14234854,9.768003,0.0031919256,0.0047115833,9.769434,0,
13,987.662414550781,-0.000757017813157,0.000699097930919,0.000402436824515,-14.7040748596191,16.7068538665771,-37.2757301330566,-0.001182697713375,-0.0137639939785,0.042830467224121,0.088003874,-0.14473058,9.760898,0.0017631277,0.0031334907,9.762367,0,
13,987.662414550781,-0.000623383151833,-0.000366242951714,-0.000396306568291,-15.233980178833,17.1059970855713,-36.9094924926758,0.008802436292171,0.000582739710808,0.042831420898438,0.07686886,-0.1495172,9.768074,-0.010197926,0.0070912987,9.769512,0,
13,987.679992675781,0.000176041328814,-0.00103211007081,0.000269687501714,-14.7158145904541,17.4331226348877,-36.9314956665039,0.016908310353756,0.005383029580116,0.023736000061035,0.08251542,-0.14953835,9.770519,-0.0060253777,0.0037496537,9.77201,0,
13,987.659057617188,3.00298561342061E-05,-0.000895053963177,0.000260569620878,-14.9088916778564,16.9889316558838,-36.8757514953613,0.007142469286919,-0.004012227058411,0.028470993041992,0.080145836,-0.14000587,9.784725,-0.0016458407,0.012441844,9.786046,0,
13,987.641235351563,2.77736107818782E-05,0.000570049625821,-0.000273029087111,-14.9145431518555,17.721097946167,-36.8407402038574,0.011347465217114,-0.008546620607376,0.052150726318359,0.075386316,-0.15192272,9.765789,-0.012767557,0.0055849403,9.767251,0,
13,987.6259765625,0.000427051854786,0.001102713053115,-0.000139954965562,-14.7724170684814,17.5384426116943,-37.3908424377441,0.025687947869301,-0.008657023310661,0.047411918640137,0.0730167,-0.13524027,9.761057,-0.0036445465,0.019856215,9.762247,0,
13,987.671508789063,0.000160540395882,-0.000628308334854,-0.000539512606338,-15.3560218811035,17.9399318695068,-36.9394798278809,0.016051545739174,0.000917330384254,0.047410011291504,0.08020669,-0.14477386,9.768161,-0.00441828,0.008031726,9.76956,0,
13,987.671508789063,0.000160540395882,-0.000628308334854,-0.000539512606338,-15.3560218811035,17.9399318695068,-36.9394798278809,-0.003308676183224,0.019932866096497,0.04267692565918,0.08739668,-0.16145723,9.765795,-0.009564053,-0.009487987,9.767512,0,
13,987.638305664063,-9.38221346586943E-05,0.000282079388853,-4.70122322440147E-05,-14.818642616272,17.4422397613525,-36.9931678771973,0.001582495868206,0.005717873573303,0.052144050598145,0.08263719,-0.15192474,9.758696,-0.007140411,0.0007802993,9.760224,0,
13,987.660888671875,3.91399953514337E-05,-0.000117362709716,-4.70960512757301E-05,-15.1989526748657,17.5601749420166,-36.8644828796387,0.015662215650082,-0.008599951863289,0.042675018310547,0.07548779,-0.14239211,9.763432,-0.006038269,0.012629226,9.764751,0,
14,987.636169433594,0.000305260298774,1.58270122483373E-05,8.59780702739954E-05,-14.9606304168701,17.730806350708,-37.1421432495117,0.010793596506119,-0.008659794926643,0.037939071655274,0.080287874,-0.14239259,9.7681675,-0.0024419762,0.00952138,9.76953,0,
14,987.658630371094,-0.000493882922456,1.58587354235351E-05,8.58940184116364E-05,-14.8095121383667,17.451078414917,-37.4570007324219,-0.008342266082764,-0.004016920924187,0.042669296264649,0.08747786,-0.14000978,9.758701,0.0046460126,0.006590441,9.760096,0,
14,987.640930175781,-0.00036092067603,1.58904585987329E-05,-0.000180505565368,-14.8059244155884,17.085729598999,-37.5131607055664,0.001375392079353,-0.003740772604942,0.047403335571289,0.080328465,-0.14477684,9.765804,-0.0040948037,0.007698834,9.767203,0,
14,987.640930175781,0.000437831273302,1.59222399815917E-05,-0.000180589384399,-14.7670106887817,17.8067111968994,-37.099437713623,0.010191917419434,-0.013217061758041,0.033205032348633,0.08034873,-0.13762756,9.787111,0.00091390684,0.012938827,9.788401,0,
14,987.658874511719,-0.000228154007345,0.000814901664853,0.000751432380639,-14.8216876983643,17.4392948150635,-36.8385581970215,-0.008573114871979,0.005551621317863,0.052134513854981,0.08753878,-0.15192772,9.77291,-0.0029161628,-0.0023828745,9.774482,0,
14,987.675537109375,-0.000361507525668,-0.000383488106309,0.000618190621026,-14.9043245315552,16.9933490753174,-37.1076698303223,0.01045311242342,0.000789001584053,0.033194541931152,0.08038935,-0.14477839,9.756342,-0.003563054,0.0074179024,9.757743,0,
14,987.65966796875,0.00043724454008,0.0009481231682,0.000884422683157,-15.1272668838501,17.3636722564697,-36.4791069030762,0.004821471869946,0.005837395787239,0.042673110961914,0.08518946,-0.14954539,9.768179,-0.0026618615,0.000103890896,9.769695,0,
14,987.65185546875,0.000969680724666,0.001214470714331,0.000884338864125,-15.2411546707153,17.8366794586182,-36.797176361084,0.009178839623928,0.006108507514,0.019006729125977,0.087599665,-0.14477928,9.772916,0.0024177637,0.0017263591,9.774382,0,
14,987.65185546875,0.000436853501014,0.000548712792806,8.53074016049504E-05,-14.6853523254395,17.8828907012939,-36.6545753479004,0.004124999046326,0.011154010891914,0.071090698242188,0.094789654,-0.15192972,9.756348,0.00332799,-0.008978426,9.757987,0,
14,987.676513671875,0.000702973688021,0.001214534160681,-0.000447408179753,-14.7927474975586,17.8875827789307,-36.4843292236328,-0.010577887296677,0.011406406760216,0.042688369750977,0.09003013,-0.16146328,9.765818,-0.006337816,-0.013506725,9.767556,0,
14,987.661376953125,0.000569620169699,0.001081408001482,0.001017245347612,-14.8782901763916,17.5446147918701,-37.297908782959,-0.001313097774982,-0.007672145962715,0.04742431640625,0.0900504,-0.15669723,9.768187,-0.0031721126,-0.009945855,9.769854,0,
14,987.668640136719,3.67928296327591E-05,0.001081439782865,-0.000580733758397,-15.2493076324463,18.1976070404053,-36.5091018676758,-0.00179373472929,0.011353567242622,0.014284133911133,0.08768079,-0.15669768,9.7823925,-0.0044998284,-0.008456811,9.784036,0,
14,987.6533203125,0.000569228781387,0.000149365980178,-0.000181343755685,-15.0705261230469,17.3642673492432,-36.7188415527344,-0.006629586219788,0.020923599600792,0.04742431640625,0.0924809,-0.1519316,9.770557,0.0020633452,-0.008210942,9.772172,0,
14,987.656066894531,-0.000363072380424,0.00054887146689,0.000484362069983,-14.9546794891357,17.6307849884033,-36.7522850036621,0.007573857903481,-0.017219185829163,0.047423362731934,0.0853315,-0.14001586,9.768192,0.0045705866,0.005404547,9.769567,0,
14,987.656066894531,-0.000230110017583,0.000282587425318,8.48043709993362E-05,-14.9472074508667,17.5322284698486,-36.4397315979004,0.002778351306915,-0.003118544816971,0.047418594360352,0.08774167,-0.14954938,9.758726,0.00028443336,-0.003410533,9.760266,0,
14,987.663269042969,-0.00036346365232,-0.000250012584729,0.000617352314293,-15.003267288208,17.2692584991455,-36.8006286621094,-0.011426597833634,-0.007870644330978,0.056884765625,0.092541814,-0.13763352,9.746891,0.011556733,0.0022591054,9.748293,0,
14,987.663269042969,0.000435288529843,-0.000516296713613,8.46367329359055E-05,-14.5812997817993,17.2431087493896,-37.0950736999512,-0.001109480857849,0.00147433578968,0.052210807800293,0.08227563,-0.14953254,9.770498,-0.0038692579,0.00061264634,9.771987,0,
14,987.656066894531,-0.00076159031596,0.000282400520518,8.52978555485606E-05,-14.7703523635864,17.1716251373291,-37.3696937561035,-0.015581861138344,0.010775312781334,0.028536796569824,0.10138601,-0.14714904,9.772865,0.012385897,-0.009973615,9.774487,0,
14,987.660766601563,-0.000490079633892,0.000148399267346,-0.000445107580163,-15.3434400558472,17.4775104522705,-36.7603950500488,-0.00118151307106,0.006158441305161,0.061680793762207,0.08703768,-0.15429868,9.758661,-0.003181018,-0.0063436627,9.760268,0,
14,987.660766601563,-0.000756310066208,-0.000384246377507,-4.55970875918865E-05,-14.8447847366333,17.9973239898682,-37.1755867004395,0.003798335790634,-0.017746224999428,0.056944847106934,0.08941871,-0.13761552,9.763394,0.009234127,0.0052149445,9.764769,0,
14,987.693664550781,0.000575355021283,0.000148371444084,0.00048707134556,-14.7360057830811,17.8881855010986,-36.7240600585937,0.01336195319891,0.005786389112473,0.042737007141113,0.07507044,-0.1542982,9.761026,-0.012239017,0.0019976944,9.7625265,0,
14,987.67529296875,-0.000622980762273,0.00014835759066,-0.000444997567683,-14.7915229797363,17.2569179534912,-36.9865036010742,-0.010377772152424,0.000790029764175,0.028531074523926,0.091790855,-0.14953147,9.7752285,0.0036734622,-0.004779756,9.776802,0,
14,987.6748046875,-0.000356579548679,-0.000251130113611,0.000753460626584,-14.7504062652588,17.7169971466064,-37.2507133483887,-0.00573804974556,-0.008921697735786,0.056936264038086,0.089392066,-0.14714791,9.758657,0.003485456,-0.0017872006,9.760176,0,
14,987.687072753906,-0.000755967572331,-0.000251143996138,0.001019813120365,-14.9649515151978,16.7259616851807,-37.2366523742676,0.004400983452797,0.000396683812141,0.042724609375,0.08699328,-0.1423812,9.78233,0.0046518184,0.0043718964,9.783751,0,
14,987.687072753906,-9.00924205780029E-05,-0.001050105667673,-0.000444887438789,-14.9299230575562,17.180139541626,-37.1916389465332,-0.00056779384613,0.005203947424889,0.042728424072266,0.086984396,-0.15191413,9.770493,-0.0015799738,-0.0031398088,9.772059,0,
15,987.67431640625,4.31512016803026E-05,0.000281459884718,-0.000311692827381,-15.22705078125,17.3757305145264,-36.6953887939453,-0.005275525152683,0.005148336291313,0.01905632019043,0.09414524,-0.15429713,9.77996,0.0023310594,-0.009399161,9.781625,0,
15,987.653747558594,-0.000223079114221,0.000281446089502,0.000220975547563,-15.1112060546875,17.6422481536865,-36.7288360595703,-0.005067408084869,0.010149851441383,0.042730331420899,0.09413636,-0.15668018,9.761023,0.000374794,-0.011569798,9.762727,0,
15,987.658874511719,0.000842270208523,-0.000384357583243,-0.000444777542725,-14.8436985015869,17.2607364654541,-36.978687286377,-8.39903950691223E-05,0.01504385471344,0.028528213500977,0.094127476,-0.15667997,9.779959,6.172806E-05,-0.011207402,9.781661,0,
15,987.672912597656,0.000709197483957,-0.000384371436667,-0.000444740755484,-14.9686756134033,16.9853916168213,-36.4814109802246,0.005091056227684,-0.004010215401649,0.042729377746582,0.08933884,-0.15191318,9.765755,-0.0006080251,-0.004472688,9.7673435,0,
15,987.672241210938,-0.000755454180762,-0.000517543230671,8.79276776686311E-05,-14.9380760192871,17.5410709381104,-36.9035606384277,-0.009242452681065,0.000473245978355,0.052195549011231,0.09649962,-0.14714648,9.765753,0.0081981495,-0.005189091,9.767333,0,
15,987.661743164063,-8.95787961781025E-05,1.50746200233698E-05,-4.51937085017562E-05,-15.0972099304199,18.2876415252686,-36.9997138977051,-0.009392321109772,-0.004253312945366,0.047463417053223,0.08454123,-0.14952953,9.753917,-0.0024438873,0.0003659129,9.755428,0,
15,987.674438476562,-8.94933473318815E-05,1.50606501847506E-05,-0.000710946740583,-15.1627006530762,17.3836917877197,-37.321647644043,0.014483079314232,-0.008994892239571,0.033261299133301,0.08214247,-0.14476277,9.763384,-0.0010214262,0.0056553185,9.764802,0,
15,987.658569335938,-0.000488881603815,1.50467967614532E-05,-0.000178278191015,-15.1109075546265,18.2743854522705,-36.3039665222168,0.010067187249661,0.004933655261993,0.03325366973877,0.08213359,-0.15191235,9.782321,-0.005771475,0.00097575784,9.783843,0,
15,987.665954589844,0.000443395227194,1.50190317071974E-05,-0.000577678787522,-15.1066398620605,17.6466693878174,-36.960750579834,0.005290679633617,0.009743750095367,0.042723655700684,0.08451462,-0.1542954,9.772852,-0.005566273,-0.0024823993,9.774433,0,
15,987.665954589844,0.000443395227194,1.50190317071974E-05,-0.000577678787522,-14.6385841369629,17.6107997894287,-36.9537925720215,0.019261099398136,0.009688034653664,0.04746150970459,0.08211583,-0.16382824,9.761015,-0.013206739,-0.008727625,9.762723,0,
15,987.665771484375,-0.000192323117517,0.000679171818774,-0.000110457651317,-14.8864431381226,17.9055347442627,-37.0098304748535,1.92821025848389E-05,0.018980324268341,0.033257484436035,0.08210695,-0.15191163,9.768116,-0.005276302,0.0006264597,9.769642,0,
15,987.665771484375,-0.000192237203009,0.000412842084188,-0.000643052742817,-14.8744049072266,17.8114032745361,-36.9291954040527,0.004609234631062,-0.004928141832352,0.037993431091309,0.08209807,-0.15667807,9.761013,-0.008176839,-0.0031918138,9.762612,0,
15,987.671203613281,-0.000458467751741,0.000545986054931,-0.000643016188405,-14.9130210876465,17.7225704193115,-36.918041229248,-0.005206577479839,0.013962551951408,0.052195549011231,0.0964286,-0.1662109,9.76338,-0.003124334,-0.019699648,9.765252,0,
15,987.671203613281,-0.000591540127061,0.000146498437971,-0.000376663520001,-15.2119693756104,17.2845439910889,-36.7693634033203,-0.004981823265553,-0.005008444190025,0.042727470397949,0.08447021,-0.14952774,9.775215,-0.001593113,0.0010621846,9.776723,0,
15,987.656005859375,0.000873282901011,-0.00038614726509,-0.00037662696559,-14.9746265411377,17.085412979126,-36.8712692260742,-0.00027459859848,-0.004875436425209,0.056934356689453,0.08685124,-0.1495275,9.753909,8.4251165E-05,-0.001041472,9.755442,0,
15,987.666137695313,0.000473894644529,0.000412786437664,-0.000110274297185,-14.6419258117676,16.9757175445557,-37.2240562438965,0.004448637366295,1.11907720565796E-05,0.028531074523926,0.08206254,-0.13999419,9.768112,0.0027692206,0.009402022,9.769456,0,
15,987.640808105469,0.000340822036378,-0.000253017118666,-0.000509711448103,-14.8928298950195,17.2675075531006,-37.1254844665527,-0.000384375452995,0.004952415823936,0.04273796081543,0.089223355,-0.14952703,9.765744,0.0018232912,-0.002699688,9.767297,0,
15,987.648010253906,0.000340908067301,1.32847926579416E-05,-0.00090914836619,-14.8542137145996,17.3563442230225,-37.1366310119629,0.009487241506577,-0.004581317305565,0.042736053466797,0.086824596,-0.13999383,9.772844,0.006052319,0.00640586,9.77423,0,
15,987.685852050781,-0.000990586006083,-0.000386202824302,2.2993772290647E-05,-14.8406543731689,17.2636852264404,-37.1332969665527,0.004623785614967,-0.004816547036171,0.042735099792481,0.0820359,-0.14714344,9.761007,-0.0020535588,0.0040492117,9.762459,0,
15,987.655578613281,-0.000324710621499,0.000412730907556,-0.000376443378627,-15.2150135040283,17.2815952301025,-36.6147537231445,0.014024339616299,-0.004834204912186,0.056940078735352,0.08202702,-0.14237662,9.763374,0.001303535,0.007581383,9.764754,0,
15,987.647888183594,0.000474322703667,0.000146401056554,0.000422540964792,-15.0825634002686,17.4583988189697,-36.7994804382324,-0.005270212888718,0.009598225355148,0.042740821838379,0.09157774,-0.14714293,9.758638,0.0053233467,-0.0025799572,9.760177,0,
15,987.647888183594,0.000474408385344,0.000812177022453,0.000156261725351,-15.192024230957,17.8299198150635,-36.6503791809082,-0.009419314563274,0.009794279932976,0.038004875183106,0.08678907,-0.15905906,9.7704735,-0.006619461,-0.007986605,9.772147,0,
15,987.650695800781,0.000208177836612,-0.001717837760225,-0.000110017484985,-14.789457321167,16.8901042938232,-36.9653587341309,0.004888817667961,0.009978666901588,0.038009643554688,0.08678019,-0.15667553,9.7704735,-0.0052501224,-0.006266564,9.772112,0,
15,987.670837402344,0.00034142145887,1.32014392875135E-05,-0.000243138638325,-14.9455480575562,17.6396198272705,-37.2161140441895,-0.009298495948315,0.000350743532181,0.038007736206055,0.09394097,-0.15190889,9.7681055,0.0031843819,-0.0073368996,9.769735,0,
16,987.665649414063,-0.000191124738194,-0.000253128266195,-0.000642575905658,-14.7608156204224,16.7062549591064,-37.0359992980957,0.000278875231743,-0.018704190850258,0.052211761474609,0.091542214,-0.13522573,9.7491665,0.012434393,0.006367311,9.7505245,0,
16,987.657958984375,0.000341592705809,0.000146331673022,0.000289566378342,-15.2381105422974,17.8396282196045,-36.9517822265625,-0.009166836738586,-0.004393368959427,0.047477722167969,0.089143455,-0.14714189,9.761002,0.002671264,-0.00060372055,9.762517,0,
16,987.675415039062,-0.000190953607671,-0.000253156060353,-0.000243028625846,-14.6366262435913,18.3503284454346,-37.305305480957,-0.004384942352772,0.005202323198318,0.033275604248047,0.089134544,-0.14714162,9.777572,0.0026929658,-0.00026986003,9.779085,0,
16,987.675659179688,7.54480715841055E-05,-0.000120012031402,-0.00024299195502,-15.0265045166016,17.7213764190674,-36.4385795593262,-0.013691477477551,-0.004320025444031,0.038008689880371,0.1010752,-0.15429123,9.772837,0.0069997814,-0.013426304,9.774566,0,
16,987.675659179688,-0.000190782477148,1.31319975480437E-05,0.000689150241669,-15.1207437515259,18.1076145172119,-37.0625343322754,-0.004023484885693,0.005180209875107,0.071148872375488,0.09389663,-0.15905751,9.753898,-0.0015398953,-0.012700066,9.755637,0,
16,987.663330078125,0.000341934966855,-0.00038635567762,0.000556029030122,-14.9467716217041,18.27028465271,-36.713939666748,0.010367095470429,-0.018564477562904,0.042744636535645,0.07715842,-0.13760795,9.770468,-0.00072010234,0.014746696,9.771729,0,
16,987.675659179688,-5.7453173212707E-05,-0.000253211677773,0.000422907789471,-14.7088851928711,17.7028675079346,-36.7173957824707,0.000624015927315,0.009729415178299,0.033272743225098,0.09148893,-0.15905719,9.768101,-0.0034464635,-0.010744736,9.769817,0,
16,987.650329589844,-0.000589999253862,0.000279406376649,-0.000242845155299,-14.8672313690186,17.0807132720947,-37.0415115356445,-0.013539083302021,0.005052715539932,0.042742729187012,0.08909017,-0.15429036,9.768099,-0.0021587815,-0.0055889636,9.769723,0,
16,987.650329589844,7.58756650611758E-05,1.30764092318714E-05,-0.000242808600888,-15.0073986053467,18.0028972625732,-36.8429222106934,-0.003988847136498,0.014399752020836,0.038007736206055,0.091471195,-0.15667345,9.768098,-0.0017126165,-0.008820057,9.769778,0,
16,987.663269042969,-0.00019035441801,1.3062555808574E-05,-0.000375929870643,-14.7594013214111,17.8140773773193,-37.4859657287598,0.010549388825893,0.000230476260185,0.052211761474609,0.08190268,-0.1471401,9.770464,-0.003067188,0.004751101,9.7719145,0,
16,987.715270996094,0.000475520850159,-0.000253267207881,-0.000109577202238,-15.0961236953735,17.5510578155518,-36.802806854248,-0.003775671124458,-0.009236052632332,0.052212715148926,0.09384331,-0.14237334,9.749159,0.008953784,0.00019989908,9.750646,0,
16,987.674438476562,0.000342448591255,0.000545666494872,-0.000242698588409,-14.7385063171387,17.5169467926025,-36.4709968566895,0.000505708158016,0.009895280003548,0.019078254699707,0.08427483,-0.15190624,9.775198,-0.0040826797,-0.0008212626,9.77674,0,
16,987.65380859375,-5.68540999665856E-05,0.000279322790448,-0.000375783187337,-14.9059534072876,18.0982227325439,-37.403018951416,-0.004164457321167,0.009906888008118,0.028547286987305,0.09143567,-0.15428932,9.770462,-0.00019488484,-0.007273242,9.772106,0,
16,987.65380859375,-5.68540999665856E-05,0.000279322790448,-0.000375783187337,-14.9059534072876,18.0982227325439,-37.403018951416,-0.0041274279356,-0.009103670716286,0.042752265930176,0.09142679,-0.144756,9.768094,0.005827315,-0.00013162196,9.769592,0,
16,987.65380859375,-5.68540999665856E-05,0.000279322790448,-0.000375783187337,-15.0946025848389,17.5525379180908,-36.8801155090332,0.005538679659367,0.005205258727074,0.056956291198731,0.084248185,-0.15428884,9.763359,-0.0059603117,-0.0025944412,9.764939,0,
16,987.66845703125,0.000875422614627,1.2979144230485E-05,0.00029007991543,-15.0278882980347,17.8258190155029,-37.0603523254395,-0.004114747047424,0.005412459373474,0.02855396270752,0.081849396,-0.1566719,9.772827,-0.009310335,-0.0030213892,9.774422,0,
16,987.66845703125,0.000875422614627,1.2979144230485E-05,0.00029007991543,-15.0278882980347,17.8258190155029,-37.0603523254395,-0.018754526972771,0.010464161634445,0.047499656677246,0.10330221,-0.15667053,9.753884,0.0069725513,-0.017687604,9.7556715,0,
16,987.680969238281,0.000209804158658,0.00081189913908,-0.000109320506454,-15.2602596282959,17.555154800415,-36.3928337097168,0.014858946204186,-0.004080563783646,0.038036346435547,0.08173394,-0.1423694,9.76098,0.00012352318,0.0075348765,9.762358,0,
16,987.688537597656,-5.60510088689625E-05,-0.000255798455328,-0.00037202774547,-15.233980178833,17.105993270874,-36.9094886779785,-0.013914972543717,0.010442823171616,0.056980133056641,0.0984506,-0.15190227,9.76808,0.0062125213,-0.01085192,9.769748,0,
16,987.650573730469,7.72291678003967E-05,0.000276813399978,-0.000105659419205,-15.1498212814331,17.5534114837646,-36.7176895141602,0.005046933889389,0.005613833665848,0.047512054443359,0.0793187,-0.15190192,9.763346,-0.007965777,0.0017507225,9.764846,0,
16,987.672912597656,-0.000322122417856,0.000276793609373,-0.000105607090518,-15.1744403839111,18.1099643707275,-36.9774131774902,0.005355283617973,-0.008753225207329,0.038042068481445,0.08408582,-0.14951833,9.75861,-0.0029204655,0.00045870245,9.760116,0,
16,987.678161621094,0.000210631464142,-0.000389015884139,-0.000371870584786,-15.0129432678223,17.6287097930908,-36.4352531433105,0.005404993891716,0.00552923977375,0.033307075500488,0.08885288,-0.15428455,9.772812,-0.0023830645,-0.0059561282,9.774431,0,
16,987.665100097656,0.000343911757227,-0.000122719851788,-0.000238660373725,-14.959789276123,17.9946537017822,-36.618824005127,0.005871817469597,0.005274161696434,0.03330135345459,0.08645034,-0.15666749,9.768076,-0.005666226,-0.0063359737,9.769711,0,
16,987.670593261719,-0.000650841626339,-0.000943110324442,0.000335333112162,-14.8853569030762,17.1689586639404,-36.812931060791,-0.018071718513966,0.00056029856205,0.042770385742188,0.09838718,-0.14713414,9.760973,0.009241205,-0.0066338032,9.762571,0,
16,987.675964355469,-0.000384403625503,-0.000410498469137,0.000335385557264,-14.6106224060059,17.6893329620361,-36.4238090515137,0.005994074046612,-0.013848498463631,0.052238464355469,0.08403507,-0.14475052,9.758605,-0.00015056878,0.004756376,9.760038,0,
17,987.668090820313,-0.000117965508252,0.000255271384958,0.000335437827744,-14.8176641464233,17.8120059967041,-37.1689262390137,-0.003536477684975,0.005192697048187,0.019099235534668,0.08880219,-0.15428327,9.775174,-0.002561666,-0.0052897334,9.7767935,0,
17,987.655456542969,0.00081426219549,-0.000144222285599,-0.000463457545266,-14.7791872024536,17.7949275970459,-36.4809989929199,-0.017807446420193,0.000677660107613,0.028571128845215,0.098349124,-0.15189977,9.772806,0.0060802232,-0.009796143,9.774474,0,
17,987.655456542969,0.000148594728671,-0.000410557957366,-0.000596562866122,-14.5455913543701,17.4349155426025,-37.650691986084,-0.012538358569145,0.000714465975761,0.052241325378418,0.091166735,-0.14951615,9.765703,0.0016913936,-0.0032071471,9.767272,0,
17,987.645690917969,0.000148716964759,-0.000943209626712,0.000202437047847,-14.8874216079712,17.5357761383057,-36.8340759277344,0.00200854241848,0.0009386241436,0.033305168151856,0.083984345,-0.1542824,9.777538,-0.007148279,-0.00200288,9.779113,0,
17,987.660522460937,1.56811438500881E-05,-0.001342703239061,0.000335647375323,-14.8226661682129,17.0695285797119,-36.6628036499023,0.002162784337997,-0.003868728876114,0.052243232727051,0.08636159,-0.13998245,9.763332,0.003767997,0.007218033,9.764715,0,
17,987.650329589844,0.000415277201682,0.000255172199104,-0.000596405938268,-15.0700902938843,18.1023197174072,-36.9930458068848,0.016624256968498,-0.008347138762474,0.038044929504395,0.081569105,-0.14474864,9.770433,-0.0032156594,0.006625131,9.771844,0,
17,987.650329589844,0.000681715202518,-0.000144321413245,6.94362097419798E-05,-15.1943874359131,17.5645999908447,-37.0963973999023,-0.006854012608528,-0.003780320286751,0.033304214477539,0.09111601,-0.14713164,9.758596,0.0023228042,-0.0011772513,9.760131,0,
17,987.645263671875,-0.000916057848372,-0.00041065714322,-0.000329985283315,-14.8953304290771,16.8962726593018,-36.8724174499512,0.007105991244316,0.000823870301247,0.038041114807129,0.08632356,-0.14474805,9.777533,0.0007060021,0.003970459,9.778985,0,
17,987.647766113281,-0.000383303849958,-0.000277519138763,0.000202698865905,-14.3153142929077,16.86012840271,-37.2676200866699,-0.002053521573544,0.010142415761948,0.038036346435547,0.09348056,-0.15666403,9.777531,-0.0017740633,-0.009317979,9.779227,0,
17,987.670349121094,-0.000116865732707,-0.000943328661378,0.000735383131541,-14.9827785491943,17.4463367462158,-36.583194732666,-0.015939354896545,-0.009017586708069,0.05223560333252,0.10541737,-0.14474745,9.768063,0.014700649,-0.007934511,9.769689,0,
17,987.642517089844,-0.000649375026114,-0.000410716718761,-6.35121832601726E-05,-15.0779981613159,17.4628162384033,-37.0313911437988,0.003816790878773,-0.004502296447754,0.047491073608399,0.08867538,-0.15189691,9.763327,-0.0029697083,-0.0018238276,9.764911,0,
17,987.677917480469,1.65369128808379E-05,-0.001609158003703,-0.000196617678739,-15.2194414138794,17.3830966949463,-37.0819129943848,-0.015076734125614,0.000661283731461,0.04276180267334,0.098222315,-0.14236353,9.763326,0.01007778,-0.0011552274,9.764853,0,
17,987.672729492187,0.000682448735461,-0.000543914386071,6.97505893185735E-05,-14.9239730834961,17.0801219940186,-36.8017807006836,0.004421919584274,-0.008752003312111,0.042760848999024,0.08865005,-0.13759668,9.770426,0.0056559965,0.009071887,9.7717905,0,
17,987.672729492187,0.000149939209223,-0.000543934176676,6.98028597980738E-05,-14.5224933624268,16.8768939971924,-37.313663482666,-0.000337906181812,0.005570948123932,0.061700820922852,0.09341717,-0.14712943,9.760956,0.0029319264,-0.0014666021,9.76251,0,
17,987.672912597656,-0.000116254552267,-0.000677111907862,0.000469329097541,-15.0162858963013,16.9936275482178,-36.705509185791,-0.000198051333427,-0.00418783724308,0.052229881286621,0.088624656,-0.14236261,9.763321,0.002581222,0.0055793226,9.764759,0,
17,987.685424804688,-0.000249290256761,0.000254973827396,6.9907633587718E-05,-15.0283241271973,17.0877628326416,-36.7861480712891,0.004733748733997,-0.018141850829125,0.042764663696289,0.08622211,-0.13521244,9.760954,0.0048060715,0.012469009,9.762261,0,
17,987.642517089844,0.000816095503978,-0.000810309546068,-0.000329513801262,-14.7194013595581,17.7984714508057,-36.8753395080566,-0.009970858693123,0.029798597097397,0.019034385681152,0.10121742,-0.16859438,9.782318,-0.005825784,-0.0222971,9.784266,0,
17,987.693115234375,0.000280403881334,-1.08651584014297E-05,0.000201806658879,-14.7642650604248,17.1775150299072,-37.6789169311523,-0.000546365976334,-0.003426611423492,0.042708396911621,0.09406167,-0.15667836,9.758648,-0.0033845212,-0.009247437,9.760354,0,
17,987.693115234375,0.000277151819319,0.000255978608038,-0.000199061119929,-14.6590728759766,17.4337215423584,-37.1712303161621,0.009047366678715,0.005938619375229,0.037969589233399,0.08690593,-0.14714561,9.772852,-0.0025392547,0.003077671,9.774345,0,
17,987.688232421875,-0.000122456927784,-0.000942420971114,0.000333513016813,-14.4120559692383,16.8751354217529,-37.6385154724121,-0.004966102540493,-0.008377984166145,0.047433853149414,0.09408957,-0.14714594,9.75865,0.0025968924,-0.0016579777,9.760212,0,
17,987.658142089844,-0.000255749095231,-0.000276609440334,-6.60184305161238E-05,-14.9224510192871,17.0815906524658,-36.8790855407715,0.014315746724606,-0.003882586956024,0.02849006652832,0.08454394,-0.14952953,9.782324,-0.006056471,0.0035416037,9.783829,0,
17,987.675415039062,-0.000122725963593,-0.000409745553043,0.000599713646807,-14.6812219619751,17.1492519378662,-36.6122779846191,0.005101501941681,-0.00367546081543,0.023753166198731,0.09411749,-0.14476337,9.784692,0.0038894452,0.001063928,9.786213,0,
17,987.675415039062,-0.000122725963593,-0.000409745553043,0.000599713646807,-14.5025472640991,17.4222583770752,-37.1946754455566,0.009608201682568,0.010620608925819,0.033224105834961,0.08696172,-0.16144665,9.777592,-0.012200709,-0.0072910637,9.779302,0,
17,987.670593261719,0.000542794936337,-1.02280755527318E-05,-0.000332507304847,-14.8201656341553,17.440767288208,-36.9158668518066,0.014284446835518,0.010745078325272,0.042694091796875,0.08219594,-0.15429719,9.772859,-0.011202052,0.001020804,9.774415,0,
17,987.674194335938,-0.000256287283264,0.000522425572854,0.000333224772476,-14.8130979537964,17.8164234161377,-37.4008407592773,0.00500600785017,-0.003652468323708,0.028484344482422,0.08698964,-0.14953096,9.768126,-0.0046514645,0.001649633,9.769657,0,
18,987.674194335938,-0.000256287283264,0.000522425572854,0.000333224772476,-14.8130979537964,17.8164234161377,-37.4008407592773,0.005069464445114,-0.003610163927078,0.047421455383301,0.08700359,-0.14238144,9.75629,-0.0002151914,0.0069259107,9.757715,0,
18,987.6708984375,-0.00038971437607,-1.01625337265432E-05,0.000865741283633,-14.8925313949585,17.8996448516846,-36.700611114502,0.005087099969387,0.010629564523697,0.061622619628906,0.087017566,-0.15668143,9.751556,-0.009338342,-0.0040530264,9.753199,0,
18,987.678588867188,9.6253352239728E-06,-0.00027645661612,6.67359563522041E-05,-14.9902515411377,17.5448932647705,-36.8957481384277,0.005312822759151,0.015545964241028,0.047417640686035,0.08942145,-0.15668182,9.765762,-0.0078101996,-0.005203426,9.767424,0,
18,987.678588867188,0.001607385696843,-0.000942224462051,-0.000199637608603,-14.814076423645,17.4466571807861,-37.2250862121582,0.01492340862751,0.001713559031487,0.033220291137695,0.08465558,-0.14953236,9.775232,-0.007088909,0.0031562895,9.77674,0,
18,987.673400878906,-0.000789591460489,0.000655692594592,0.000732410349883,-14.5101566314697,17.414888381958,-36.8081512451172,-0.009172648191452,-0.008648008108139,0.037941932678223,0.101398855,-0.1519159,9.765764,0.0048139,-0.009157464,9.767467,0,
18,987.637084960937,-0.001189200091176,0.000522556656506,6.65630213916302E-05,-15.0804986953735,17.0915851593018,-36.7783317565918,3.74466180801392E-05,0.014994218945503,0.037940979003906,0.077513814,-0.15191625,9.756297,-0.012939686,0.0063497573,9.757777,0,
18,987.659118652344,0.000142244971357,0.000788894307334,0.000199663336389,-14.9894104003906,17.8087368011475,-36.3724250793457,-0.000105857849121,0.015026703476906,0.052145004272461,0.09425706,-0.16383298,9.756298,-0.007959362,-0.013989404,9.758116,0,
18,987.653747558594,0.00054158444982,-0.000276347389445,-0.00019986811094,-14.8169612884521,17.969934463501,-35.9465255737305,-0.014558345079422,-0.013261824846268,0.037945747375488,0.094271034,-0.1376173,9.763401,0.008849772,0.0059021413,9.76482,0,
18,987.714172363281,-0.000390655943193,0.000655780022498,0.000332706025802,-14.8510103225708,17.8855152130127,-36.167293548584,0.004405342042446,-0.013466194272041,0.052146911621094,0.089505166,-0.14238419,9.763402,0.0023955777,0.005340323,9.764848,0,
18,987.635375976562,-0.000390790286474,0.000123170146253,0.000199490343221,-14.4049644470215,17.6710987091064,-36.300464630127,0.009099364280701,-0.004135236144066,0.03794002532959,0.0847393,-0.15430088,9.772872,-0.008694746,-0.00054082274,9.774453,0,
18,987.6884765625,-0.00025776703842,0.0002563498565,0.000199432717636,-14.3983345031738,17.3086948394775,-36.5112342834473,0.008859716355801,-0.009134441614151,0.042670249938965,0.08236337,-0.14953472,9.761038,-0.0071659815,0.0045514554,9.762527,0,
18,987.663024902344,-0.000269110547379,0.000545717542991,-4.69275400973856E-05,-15.1042776107788,17.9119892120361,-36.5147323608398,0.013240173459053,0.005169838666916,0.028469085693359,0.0775975,-0.14715178,9.782345,-0.008871993,0.009625062,9.7837515,0,
18,987.653198242188,-0.000136087299325,0.000412581459386,8.61726584844291E-05,-14.492712020874,17.5890293121338,-36.436107635498,0.017806008458138,-0.004646092653275,0.037935256958008,0.08478117,-0.14238556,9.772876,-0.00010225922,0.008518979,9.774278,0,
18,987.670227050781,-0.00093516940251,0.001344708842225,0.000618746911641,-14.8338623046875,17.4275074005127,-36.2201194763184,0.016910575330258,0.000143364071846,0.042675971984863,0.0800153,-0.15430225,9.761042,-0.010726765,0.0017924905,9.762583,0,
18,987.662780761719,-0.00026951439213,0.001611046725884,-0.000446574471425,-15.0569648742676,17.2716083526611,-36.7155113220215,0.002172909677029,-0.00010073184967,0.061612129211426,0.08719897,-0.1471528,9.763411,-0.00015343912,0.0025094748,9.76491,0,
18,987.668029785156,-3.33297066390514E-06,0.000812120735645,-0.000180316215847,-14.6170082092285,17.0513019561768,-36.5394630432129,0.002040572464466,-0.009646221995354,0.019003868103027,0.08713439,-0.14000143,9.765771,0.0045842547,0.00793016,9.767159,0,
18,987.672912597656,-0.000402940902859,0.000545826740563,-0.000713005487341,-14.7937259674072,17.5178241729736,-36.3085746765137,0.002225488424301,0.009464889764786,0.033220291137695,0.08467519,-0.15668257,9.768132,-0.008224865,-0.003101021,9.769751,1,
18,987.6728515625,0.000264673377387,-0.000386330706533,-0.000181889976375,-14.9011192321777,17.5225162506104,-36.1383285522461,-0.007288947701454,0.023838698863983,0.037954330444336,0.094242424,-0.16144939,9.775234,-0.0040215366,-0.012857825,9.777013,1,
18,987.685363769531,-0.000134686357342,-0.000918980978895,0.000217632739805,-15.1616992950439,18.1737613677979,-35.6743774414062,-0.016756795346737,-0.019170671701431,0.042683601379395,0.103809655,-0.14238329,9.782337,0.01561778,-0.004055813,9.783912,1,
18,987.710693359375,-0.000267917755991,0.000146294478327,8.44433670863509E-05,-14.6302700042725,17.7760944366455,-36.117919921875,-0.002224482595921,-0.005029767751694,0.047414779663086,0.08708793,-0.1447668,9.761032,0.0011140332,0.0046673566,9.762494,1,
18,987.685363769531,-0.000134833273478,0.00041262229206,-0.000315061886795,-14.5887489318848,17.7619647979736,-35.584602355957,0.002517648041248,-0.005215957760811,0.033207893371582,0.08470562,-0.14953358,9.768135,-0.003562849,0.0028143078,9.769647,1,
18,987.660034179688,-0.000134906498715,-0.000918945181184,-4.87774377688766E-05,-14.684947013855,17.4086818695068,-35.8570442199707,-0.00197022408247,0.009358704090118,0.033208847045899,0.091882944,-0.1495337,9.772869,0.0015334748,-0.0017508566,9.7744465,1,
18,987.677856445313,-1.82189978659153E-06,-0.000519459485076,0.000350664922735,-14.7723960876465,17.9587497711182,-35.5678176879883,0.022067256271839,-0.009818091988564,0.061611175537109,0.07516125,-0.14476739,9.756301,-0.008553881,0.012358978,9.757653,1,
18,987.675415039062,-0.000135053182021,-0.000386289611924,0.00021747557912,-14.3458604812622,17.9370098114014,-36.094181060791,0.00783334672451,0.008848324418068,0.04740047454834,0.07994866,-0.15906714,9.758668,-0.013649493,-0.0011764467,9.760282,1,
19,987.677795410156,-0.000401442521252,-0.000253119767876,-4.88717341795564E-05,-14.2629776000977,17.3825283050537,-36.1514930725098,0.00802955031395,0.009109750390053,0.042667388916016,0.08712596,-0.15430082,9.763404,-0.00542292,-0.0019832999,9.765011,1,
19,987.670104980469,0.000930063659325,-0.000386265804991,-0.000448377104476,-14.7432098388672,17.4066104888916,-35.5400085449219,-0.006610624492168,0.013782843947411,0.028464317321777,0.09430331,-0.1566843,9.784709,-0.0010389406,-0.008219644,9.786414,1,
19,987.655151367188,-0.000667905202135,0.000279535772279,8.4223342128098E-05,-13.9402523040771,17.0001468658447,-36.5637702941895,0.007649183273315,0.004131510853767,0.033197402954102,0.087141216,-0.15430118,9.775241,-0.004951706,-0.0018906295,9.776846,1,
19,987.683044433594,-0.000401662429795,0.000945337407757,-0.000714755849913,-14.8926696777344,17.7937259674072,-36.0015335083008,0.007569499313831,-0.01480133831501,0.033200263977051,0.07997912,-0.14238505,9.777609,-0.0030060038,0.0116651505,9.778966,1,
19,987.685302734375,-0.000401736004278,-0.000386230065487,-0.000182155519724,-14.3980369567871,17.9408359527588,-36.0863609313965,-0.006637617945671,0.017768874764443,0.0521240234375,0.09432611,-0.1686012,9.768141,-0.008209905,-0.017087042,9.770032,1,
19,987.685302734375,-0.000401736004278,-0.000386230065487,-0.000182155519724,-14.745138168335,17.8793430328369,-36.2602272033691,0.003492452204227,-0.00646761059761,0.01423454284668,0.08238423,-0.14715196,9.772876,-0.0038311053,0.007802859,9.774328,1,
19,987.644836425781,-0.000934514449909,-0.001051995903254,-0.000714850146323,-14.632495880127,17.6166934967041,-37.2630157470703,0.128326088190079,-0.006615847349167,0.004560470581055,-0.106410384,-0.12570252,9.855728,-0.13228229,0.15795302,9.854951,1,
19,987.647399902344,-0.060589343309403,-0.029947256669402,-0.137734413146973,-15.1730556488037,18.0055179595947,-36.355640411377,-0.443205922842026,0.056314185261726,-0.200383186340332,0.5030222,-0.48557782,9.919643,0.12525046,-0.45162505,9.933201,1,
