Timestamp,P,Gx,Gy,Gz,Mx,My,Mz,LiAx,LiAy,LiAz,Ax,Ay,Az,earthAx,earthAy,earthAz,Value,Type
0,987.774658203125,-1.1225591879338026E-4,-0.00440478790551424,2.7238624170422554E-4,-4.511577606201172,21.238679885864258,-37.68195343017578,0.004214253276586533,0.011377260088920593,0.067779541015625,0.05528024,-0.16944022,9.767114,3.5857594,-1.6307442,8.939311,0
0,987.774658203125,-1.1225591879338026E-4,-0.00440478790551424,2.7238624170422554E-4,-4.511577606201172,21.238679885864258,-37.68195343017578,1.2128435373306274,1.8134976625442505,-0.2036600112915039,0.06719804,-0.15990634,9.790783,-1.3795521,-1.6814736,9.547724,0
0,987.8715209960938,4.203636199235916E-4,9.21531580388546E-4,1.392230624333024E-4,-7.230377674102783,20.957292556762695,-36.16874694824219,1.196876883506775,1.8195053339004517,-0.16968727111816406,0.06716633,-0.16705541,9.757639,-1.3857813,-1.6698189,9.515001,0
0,987.719970703125,-1.0276323882862926E-4,-2.7688220143318176E-4,4.1228000191040337E-4,-6.705580234527588,20.922025680541992,-36.40152359008789,1.204634189605713,1.7970529794692993,-0.18779563903808594,0.06474471,-0.14798845,9.764738,-1.3397723,-1.685914,9.525697,0
0,987.7498779296875,8.296478190459311E-4,-0.0010758794378489256,-1.2022082228213549E-4,-7.517831325531006,20.793432235717773,-36.037879943847656,1.1973052024841309,1.8081862926483154,-0.18217182159423828,0.06949279,-0.1527542,9.767101,-1.3871975,-1.6441841,9.528733,0
0,987.7501220703125,4.3047970393672585E-4,2.556503168307245E-4,5.456998478621244E-4,-7.640307903289795,20.889314651489258,-35.793670654296875,1.2095149755477905,1.8045203685760498,-0.1670522689819336,0.059901446,-0.16466983,9.762363,-1.4041193,-1.6424986,9.521823,0
0,987.7520751953125,-2.3500382667407393E-4,-1.4387312694452703E-4,1.463571097701788E-4,-7.342773914337158,20.219514846801758,-35.49238586425781,1.1880184412002563,1.8009648323059082,-0.19452953338623047,0.07420921,-0.15513588,9.783667,-1.3788701,-1.6438606,9.547049,0
0,987.7167358398438,8.305651717819273E-4,-4.1023860103450716E-4,-2.529857447370887E-4,-6.982518196105957,20.66255760192871,-36.11271667480469,1.195413589477539,1.7927000522613525,-0.16523361206054688,0.06939769,-0.1599017,9.750523,-1.3467641,-1.664365,9.514158,0
0,987.775146484375,-2.3439287906512618E-4,-4.102882230654359E-4,2.797769848257303E-4,-7.5319342613220215,21.25438117980957,-36.13966369628906,1.2026429176330566,1.7983890771865845,-0.18320369720458984,0.059806347,-0.16466744,9.771825,-1.3873025,-1.6426079,9.533965,0
0,987.7444458007812,2.985443570651114E-4,-2.7717993361875415E-4,5.462239496409893E-4,-7.387882232666016,20.599000930786133,-35.96954345703125,1.1907844543457031,1.8042157888412476,-0.1680622100830078,0.06933427,-0.16228344,9.762353,-1.3709866,-1.6387869,9.527302,0
0,987.7620239257812,-1.006239908747375E-4,-0.0010761772282421589,1.3723154552280903E-5,-7.35687780380249,20.680471420288086,-35.59416961669922,1.1884667873382568,1.795824646949768,-0.1908092498779297,0.07169244,-0.1622826,9.776554,-1.3695765,-1.6365802,9.54245,0
0,987.7420043945312,2.99155421089381E-4,2.55352642852813E-4,1.3854063581675291E-5,-6.929906845092773,21.396787643432617,-36.394737243652344,1.1764657497406006,1.768250823020935,-0.16144466400146484,0.06965023,-0.15275808,9.76475,-1.3301864,-1.6513494,9.5332155,0
0,987.739013671875,1.644888543523848E-4,3.88755404856056E-4,4.1268125642091036E-4,-7.181246280670166,20.950529098510742,-36.02195739746094,1.1970646381378174,1.7644027471542358,-0.18419742584228516,0.055681407,-0.15753372,9.774252,-1.3639973,-1.6350644,9.540965,0
0,987.7643432617188,2.923240535892546E-4,-1.430122065357864E-4,-2.5538948830217123E-4,-7.6544108390808105,21.350263595581055,-35.89544677734375,1.1658462285995483,1.7700339555740356,-0.17374134063720703,0.07479939,-0.15038384,9.764782,-1.3673825,-1.602394,9.53634,0
0,987.7265014648438,2.923366264440119E-4,-1.4301418559625745E-4,2.7724745450541377E-4,-7.5514445304870605,21.447065353393555,-36.53285217285156,1.182457685470581,1.7568427324295044,-0.18226909637451172,0.06284857,-0.15515037,9.778985,-1.3673779,-1.614065,9.548906,0
0,987.7465209960938,-5.065989098511636E-4,-4.0933204581961036E-4,-3.8853706791996956E-4,-7.361006736755371,21.41410255432129,-35.63645935058594,1.1751099824905396,1.7575496435165405,-0.16705322265625,0.062847316,-0.15038373,9.769517,-1.3599114,-1.6064864,9.541481,0
0,987.7540893554688,2.604484325274825E-5,-2.761760842986405E-4,-6.548477103933692E-4,-7.196328639984131,21.041711807250977,-35.94798278808594,1.1626938581466675,1.739140510559082,-0.1659984588623047,0.07718545,-0.14561717,9.771883,-1.332882,-1.6080613,9.5474825,0
0,987.759521484375,1.5921524027362466E-4,2.5645369896665215E-4,-2.553685335442424E-4,-6.832079887390137,20.645204544067383,-35.826942443847656,1.1745471954345703,1.7589800357818604,-0.1602783203125,0.06523466,-0.16230012,9.755314,-1.3228111,-1.631822,9.528069,0
0,987.7467651367188,-3.734042984433472E-4,-1.4302210183814168E-4,2.772683510556817E-4,-7.2530694007873535,21.04111671447754,-35.708251953125,1.1717231273651123,1.7499635219573975,-0.16867733001708984,0.060453594,-0.15753348,9.769517,-1.3506753,-1.6043341,9.543254,0
0,987.7261352539062,2.6081514079123735E-5,-1.4302408089861274E-4,-1.2220023199915886E-4,-7.9342546463012695,21.19376564025879,-36.15110778808594,1.159453272819519,1.7457480430603027,-0.16289520263671875,0.07001194,-0.1503836,9.771883,-1.372983,-1.5647073,9.549021,0
0,987.7467651367188,-2.4022191064432263E-4,-8.088157628662884E-4,4.1043676901608706E-4,-7.4270405769348145,20.878446578979492,-36.056846618652344,1.1806679964065552,1.746430516242981,-0.1666116714477539,0.055671215,-0.1623,9.776619,-1.360132,-1.5938165,9.550994,0
0,987.7283935546875,2.61064269579947E-5,0.0013217092491686344,4.1044209501706064E-4,-7.20448112487793,21.402639389038086,-35.659908294677734,1.1632438898086548,1.7373900413513184,-0.1465740203857422,0.06044978,-0.15515013,9.769516,-1.331317,-1.5983553,9.546939,0
0,987.7514038085938,2.924341824837029E-4,2.5644374545663595E-4,1.097354106605053E-5,-7.066379547119141,20.847280502319336,-35.87964630126953,1.16990327835083,1.7331204414367676,-0.16917705535888672,0.053278804,-0.16229995,9.767149,-1.3278378,-1.6065872,9.543696,0
0,987.7689819335938,6.919202278368175E-4,-4.093479074072093E-4,1.4413672033697367E-4,-7.0565667152404785,20.5937442779541,-36.9441032409668,1.1484839916229248,1.7292386293411255,-0.17771530151367188,0.06283715,-0.15515001,9.786087,-1.3251631,-1.5936468,9.565549,0
0,987.7589721679688,1.593010383658111E-4,-0.0013414554996415973,2.772998414002359E-4,-7.1094231605529785,20.85993766784668,-36.335662841796875,1.164917230606079,1.7202885150909424,-0.15775299072265625,0.058056086,-0.1575333,9.760047,-1.3472718,-1.5675416,9.540146,0
1,987.7561645507812,1.5931302914395928E-4,-8.088257163763046E-4,5.436210194602609E-4,-7.412639617919922,21.04963493347168,-35.53019332885742,1.1529591083526611,1.7301127910614014,-0.15672016143798828,0.058054805,-0.1599166,9.771883,-1.3415718,-1.5715115,9.5524435,0
1,987.7561645507812,1.5931302914395928E-4,-8.088257163763046E-4,5.436210194602609E-4,-7.30318021774292,20.67812156677246,-35.679290771484375,1.1407787799835205,1.6971385478973389,-0.15094375610351562,0.07000306,-0.15038337,9.764782,-1.3484863,-1.5380841,9.549574,0
1,987.7383422851562,-6.396226235665381E-4,-1.4303799252957106E-4,-1.2216356117278337E-4,-7.744658946990967,20.89695930480957,-35.778038024902344,1.152137041091919,1.7214168310165405,-0.15933704376220703,0.055662394,-0.15753324,9.762415,-1.3507216,-1.5466837,9.545469,0
1,987.74853515625,1.593377091921866E-4,-4.093558236490935E-4,-5.216320278123021E-4,-7.646258354187012,20.989336013793945,-36.18352127075195,1.1587380170822144,1.7027068138122559,-0.16298675537109375,0.04849139,-0.15276663,9.764782,-1.3335781,-1.5552468,9.548793,0
1,987.7113037109375,6.11139927059412E-4,-5.988719640299678E-4,-3.968642558902502E-4,-7.228312969207764,20.590478897094727,-36.147605895996094,1.1415424346923828,1.7175142765045166,-0.17141056060791016,0.06521946,-0.16468303,9.769515,-1.3178355,-1.5639246,9.554699,0
1,987.7587280273438,6.111519178375602E-4,-3.32558061927557E-4,1.357726869173348E-4,-7.316601753234863,20.87669563293457,-36.38169860839844,1.1435511112213135,1.7084177732467651,-0.1514301300048828,0.060438365,-0.15514983,9.76478,-1.3144977,-1.5520508,9.552063,0
1,987.7405395507812,-5.4625095799565315E-5,-7.320338627323508E-4,2.620043233036995E-6,-7.184289932250977,20.947580337524414,-35.867347717285156,1.1452137231826782,1.6991602182388306,-0.14558792114257812,0.058047205,-0.15991636,9.769514,-1.3290287,-1.540541,9.556819,0
1,987.748779296875,6.111765978857875E-4,-1.9940410857088864E-4,-3.968486562371254E-4,-7.435492038726807,20.607236862182617,-36.193641662597656,1.132814884185791,1.6897886991500854,-0.14923381805419922,0.06282574,-0.15991636,9.76478,-1.2880528,-1.5634328,9.553904,0
1,987.7437133789062,-1.877590548247099E-4,-6.624810339417309E-5,5.352621665224433E-4,-6.941402435302734,21.12263298034668,-36.376922607421875,1.115359902381897,1.6896599531173706,-0.14806747436523438,0.067604244,-0.16468294,9.760046,-1.31277,-1.5356437,9.550322,0
1,987.7589721679688,-5.458854138851166E-5,3.3322369563393295E-4,2.689515531528741E-4,-7.448753833770752,21.332033157348633,-35.7721061706543,1.1315983533859253,1.6947904825210571,-0.16121482849121094,0.055653483,-0.16229953,9.771881,-1.3178052,-1.5335032,9.561948,0
1,987.7383422851562,-3.208923153579235E-4,-9.98357660137117E-4,-1.305170590057969E-4,-7.332365036010742,21.230257034301758,-35.70709991455078,1.1143605709075928,1.6713058948516846,-0.1554250717163086,0.06521183,-0.14561658,9.781351,-1.3060715,-1.5143049,9.57608,0
1,987.748779296875,3.449094947427511E-4,-3.3256993629038334E-4,2.68962059635669E-4,-7.314919471740723,21.404390335083008,-35.33505630493164,1.1069093942642212,1.652358889579773,-0.14478111267089844,0.07183948,-0.1479866,9.762363,-1.2965568,-1.5079801,9.559066,0
1,987.7411499023438,7.443957729265094E-4,-6.625609239563346E-5,2.6514753699302673E-6,-7.292663097381592,20.5825138092041,-35.52134704589844,1.1280417442321777,1.6617634296417236,-0.1578693389892578,0.045527786,-0.16228564,9.781299,-1.3185999,-1.5208397,9.573429,0
1,987.7158813476562,2.1588103845715523E-4,-5.979778943583369E-4,2.733510627876967E-4,-7.257497787475586,21.142610549926758,-36.1754150390625,1.1201670169830322,1.6810505390167236,-0.16150856018066406,0.05506456,-0.16228513,9.771828,-1.2997327,-1.5205191,9.566436,0
1,987.7413940429688,-1.8337287474423647E-4,3.3409197931177914E-4,7.1294489316642284E-6,-7.25459098815918,21.039644241333008,-35.63094711303711,1.1169095039367676,1.6668932437896729,-0.15091514587402344,0.06699121,-0.15990128,9.778928,-1.2903742,-1.511808,9.57637,0
1,987.7462158203125,4.826370859518647E-4,6.774035864509642E-5,2.735396847128868E-4,-7.61122989654541,21.44352149963379,-36.138511657714844,1.1090165376663208,1.6433926820755005,-0.14510726928710938,0.059798658,-0.14798437,9.783661,-1.307036,-1.4837534,9.58309,0
1,987.7383422851562,-4.9774651415646076E-5,-3.3176917349919677E-4,1.404760405421257E-4,-7.209208011627197,20.87200355529785,-36.551944732666016,1.115587830543518,1.647699236869812,-0.14392852783203125,0.05977583,-0.15513356,9.762354,-1.2802545,-1.5013322,9.562331,0
1,987.7408447265625,-4.9554742872714996E-5,-9.975945577025414E-4,-5.252192495390773E-4,-7.120918273925781,20.585783004760742,-36.317848205566406,1.1078310012817383,1.6285192966461182,-0.1428079605102539,0.057363123,-0.14798321,9.769453,-1.2785627,-1.491174,9.571263,0
1,987.7408447265625,-4.9334485083818436E-5,-4.6499859308823943E-4,-2.588090719655156E-4,-7.2951340675354,21.423540115356445,-36.34001922607422,1.104843258857727,1.6431480646133423,-0.16543006896972656,0.05256045,-0.15751578,9.788387,-1.2886238,-1.4939777,9.588931,0
1,987.7715454101562,-3.154304577037692E-4,-5.981922149658203E-4,-5.250307731330395E-4,-7.527070045471191,21.89093589782715,-35.94670867919922,1.1016888618469238,1.638087272644043,-0.14533042907714844,0.06209725,-0.14559878,9.764714,-1.2842053,-1.4641612,9.569835,0
1,987.7434692382812,3.5057927016168833E-4,-7.313858950510621E-4,-3.917784197255969E-4,-7.639328956604004,21.25907325744629,-35.96942138671875,1.1079546213150024,1.623878836631775,-0.12054252624511719,0.05251482,-0.15513135,9.769446,-1.3021101,-1.4593039,9.573078,0
1,987.7510375976562,8.448364678770304E-5,9.996317094191909E-4,-5.24842063896358E-4,-7.396578311920166,21.328210830688477,-35.77992248535156,1.099500298500061,1.6137927770614624,-0.1429586410522461,0.05488184,-0.14559777,9.776545,-1.2840258,-1.4564345,9.583064,0
1,987.73583984375,-8.474020287394524E-4,-6.566764204762876E-5,-1.2527394574135542E-4,-7.47617244720459,20.885217666625977,-36.20363998413086,1.0917105674743652,1.608540415763855,-0.13232707977294922,0.059638828,-0.14559717,9.762341,-1.2784232,-1.4462787,9.57089,0
1,987.7515869140625,-5.808660062029958E-4,-5.983351729810238E-4,2.742942306213081E-4,-7.542343616485596,20.24363899230957,-35.924949645996094,1.0933732986450195,1.5989024639129639,-0.11227607727050781,0.050056398,-0.14321329,9.745768,-1.2922857,-1.4264582,9.555011,0
1,987.766357421875,8.514383807778358E-5,-5.983707960695028E-4,-0.001057191053405404,-7.403805732727051,20.42633628845215,-36.41889190673828,1.0900919437408447,1.6034438610076904,-0.1442699432373047,0.057203293,-0.15751238,9.774172,-1.2751032,-1.4512839,9.582818,0
2,987.71533203125,-9.79899661615491E-4,6.738310912624002E-5,-6.576228188350797E-4,-7.450573921203613,20.69841957092285,-36.11967468261719,1.0721328258514404,1.5838783979415894,-0.1146392822265625,0.06196025,-0.15036203,9.757599,-1.266909,-1.434643,9.5694275,0
2,987.7230834960938,8.55838879942894E-5,-4.652843635994941E-4,-2.5805458426475525E-4,-7.353396892547607,21.421464920043945,-36.022987365722656,1.0836427211761475,1.6027536392211914,-0.1277599334716797,0.054767698,-0.16704436,9.774168,-1.2662088,-1.4551661,9.583551,0
2,987.7710571289062,-1.8051185179501772E-4,6.731168832629919E-5,-1.248023472726345E-4,-7.58204460144043,20.891382217407227,-36.11070251464844,1.0752900838851929,1.5879894495010376,-0.12182140350341797,0.057134777,-0.15274416,9.750494,-1.2705846,-1.4197383,9.563927,0
2,987.750732421875,-3.134496510028839E-4,4.6674974146299064E-4,8.449889719486237E-6,-6.934365272521973,20.28602409362793,-35.7901611328125,1.0571142435073853,1.5873404741287231,-0.12529563903808594,0.07862109,-0.1503603,9.774164,-1.2196221,-1.443003,9.591316,0
2,987.7261352539062,-0.0011121773859485984,2.0039817900396883E-4,8.074918296188116E-4,-7.106378555297852,20.862882614135742,-36.490272521972656,1.0490455627441406,1.5914533138275146,-0.10990142822265625,0.06903857,-0.15512635,9.76706,-1.2264179,-1.439187,9.583785,0
2,987.7462158203125,-3.130096010863781E-4,0.001265625935047865,8.638598956167698E-6,-7.603214740753174,20.9766788482666,-35.727508544921875,1.0596199035644531,1.5625226497650146,-0.12764358520507812,0.0690158,-0.1503592,9.769424,-1.2384471,-1.4159127,9.5880375,0
2,987.7638549804688,-3.1278934329748154E-4,-3.3230509143322706E-4,8.732895366847515E-6,-7.312173843383789,20.77520179748535,-35.91453552246094,1.0517797470092773,1.566834807395935,-0.11704826354980469,0.06899294,-0.1527419,9.762321,-1.2473414,-1.4009161,9.581888,0
2,987.7281494140625,-1.7941161058843136E-4,-1.991828321479261E-4,8.827075362205505E-6,-7.52117395401001,20.158349990844727,-36.308143615722656,1.0531291961669922,1.571156620979309,-0.1253519058227539,0.06180042,-0.1598912,9.767054,-1.2531611,-1.4016559,9.585911,0
2,987.7385864257812,3.534402931109071E-4,5.997291300445795E-4,-1.2423639418557286E-4,-7.656774044036865,21.084943771362305,-36.34146499633789,1.0352380275726318,1.5709525346755981,-0.13841533660888672,0.07133722,-0.1598906,9.769419,-1.2276475,-1.4097017,9.590507,0
2,987.7462158203125,-4.5813387259840965E-5,-3.3241219352930784E-4,-9.230897994711995E-4,-7.331141471862793,20.59959602355957,-36.20927429199219,1.0508224964141846,1.5518529415130615,-0.11836910247802734,0.05458501,-0.1527402,9.769417,-1.2460124,-1.3899888,9.590787,0
2,987.7462158203125,-4.5813387259840965E-5,-3.3241219352930784E-4,-9.230897994711995E-4,-7.409893989562988,20.420442581176758,-36.10967254638672,1.0525754690170288,1.53268563747406,-0.12204742431640625,0.06440407,-0.13606368,9.759972,-1.2450368,-1.355211,9.586084,0
2,987.7736206054688,0.0015523018082603812,-3.3244796213693917E-4,8.080577244982123E-4,-7.646694183349609,20.25128746032715,-35.90931701660156,1.0288660526275635,1.5371485948562622,-0.10669994354248047,0.064680636,-0.15751995,9.769466,-1.2280761,-1.387528,9.593649,0
2,987.7561645507812,3.534238785505295E-4,6.709998706355691E-5,-7.900332566350698E-4,-7.421633243560791,21.14670753479004,-35.765438079833984,1.025296688079834,1.5559663772583008,-0.11504173278808594,0.067070544,-0.17181958,9.764731,-1.2419621,-1.3797662,9.588419,0
2,987.7537231445312,8.246710058301687E-5,0.0011331170098856091,-1.2623262591660023E-4,-7.731098175048828,20.804296493530273,-35.77470397949219,1.031275749206543,1.536490797996521,-0.1470346450805664,0.05990085,-0.1503701,9.7907715,-1.2275465,-1.3722198,9.617459,0
2,987.7158813476562,4.8194092232733965E-4,-6.530460086651146E-5,-5.25706447660923E-4,-7.380952835083008,20.86873435974121,-35.75544357299805,1.0229101181030273,1.5311862230300903,-0.11273193359375,0.05990085,-0.16228648,9.767098,-1.2214209,-1.3765236,9.593719,0
2,987.7589721679688,2.156250411644578E-4,6.004850147292018E-4,6.727151339873672E-4,-7.396876811981201,20.696073532104492,-36.20478820800781,1.029048204421997,1.5262669324874878,-0.11638164520263672,0.05990085,-0.15513663,9.771833,-1.2145588,-1.3679596,9.600516,0
2,987.7467651367188,-3.260438097640872E-4,-1.0716446558944881E-4,-5.525797023437917E-4,-7.356739521026611,20.786386489868164,-36.29324722290039,1.0207351446151733,1.5208649635314941,-0.11048603057861328,0.064680636,-0.15513663,9.767098,-1.2245002,-1.3457476,9.597604,0
2,987.7515869140625,7.392197148874402E-4,-5.06638316437602E-4,-1.5310588059946895E-4,-7.743680000305176,21.2667179107666,-35.95378875732422,1.0266928672790527,1.5157115459442139,-0.12355899810791016,0.057510972,-0.15275337,9.764731,-1.2190826,-1.3443439,9.595999,0
2,987.7359619140625,7.343001198023558E-5,1.5915137191768736E-4,1.1321011697873473E-4,-7.486826419830322,20.874902725219727,-35.662506103515625,1.0137335062026978,1.5247299671173096,-0.11296939849853516,0.067070544,-0.15751995,9.762363,-1.1998739,-1.3508421,9.595237,0
2,987.73583984375,2.065879525616765E-4,-3.734803758561611E-4,3.795259981416166E-4,-7.360464096069336,21.045812606811523,-35.53800964355469,1.0004637241363525,1.5051475763320923,-0.10234928131103516,0.07185036,-0.16466977,9.776567,-1.18222,-1.3654505,9.609966,0
2,987.7444458007812,-5.92359690926969E-4,1.5915137191768736E-4,-1.5310588059946895E-4,-7.228557586669922,21.590906143188477,-35.82118606567383,1.0015861988067627,1.5092453956604004,-0.1106557846069336,0.07185036,-0.16228648,9.769465,-1.1882851,-1.3472495,9.604522,0
2,987.725830078125,4.7290383372455835E-4,8.249411475844681E-4,6.458418793044984E-4,-7.434512615203857,20.976999282836914,-36.36940002441406,0.9978043437004089,1.489932656288147,-0.10480880737304688,0.062290728,-0.15513663,9.762364,-1.1937896,-1.3314899,9.598631,0
2,987.766357421875,8.723776554688811E-4,9.580989717505872E-4,-1.994794001802802E-5,-7.446146011352539,20.596925735473633,-35.65250778198242,0.9940710663795471,1.4844108819961548,-0.12730789184570312,0.067070544,-0.15037008,9.7742,-1.1925923,-1.3176365,9.612682,0
2,987.7615356445312,-4.592017503455281E-4,1.5915143012534827E-4,-5.525797023437917E-4,-7.190921783447266,21.30998420715332,-35.656578063964844,0.9807403087615967,1.4933382272720337,-0.10721683502197266,0.064680636,-0.16228648,9.769465,-1.1745735,-1.338688,9.607355,0
3,987.7543334960938,-1.9288586918264627E-4,-2.4032246437855065E-4,1.1321011697873473E-4,-7.408073425292969,21.054052352905273,-35.762107849121094,1.0058619976043701,1.473783016204834,-0.11557769775390625,0.052731156,-0.15751989,9.7789345,-1.195285,-1.3174813,9.6172085,0
3,987.7640991210938,7.343001198023558E-5,9.580989717505872E-4,1.1321011697873473E-4,-7.454703330993652,21.43205451965332,-36.161964416503906,0.9831183552742004,1.4778800010681152,-0.07656669616699219,0.06946045,-0.15275337,9.755262,-1.1689503,-1.3093958,9.597519,0
3,987.7666015625,7.392197148874402E-4,-1.071645092451945E-4,2.4636805756017566E-4,-7.554924488067627,20.706064224243164,-36.10403823852539,0.9937524795532227,1.4537701606750488,-0.10388565063476562,0.055121064,-0.14560355,9.762363,-1.1895372,-1.2866839,9.605073,0
3,987.7514038085938,6.060617743059993E-4,9.580989717505872E-4,-1.9947823602706194E-5,-7.216274738311768,20.4963436126709,-36.06696701049805,0.9754285216331482,1.4676464796066284,-0.12169075012207031,0.05990085,-0.15751989,9.776567,-1.169125,-1.3093195,9.619174,0
3,987.7365112304688,3.3974589314311743E-4,6.917831487953663E-4,-1.994794001802802E-5,-6.934908866882324,20.654321670532227,-35.888614654541016,0.971327006816864,1.4529237747192383,-0.08740901947021484,0.05990085,-0.15037008,9.752895,-1.1473308,-1.30669,9.597987,0
3,987.7215576171875,-3.260438097640872E-4,2.923092688433826E-4,-4.194217617623508E-4,-7.579842567443848,20.6304874420166,-36.78863525390625,0.9728150367736816,1.4524524211883545,-0.07688426971435547,0.055121064,-0.15275337,9.752895,-1.1757467,-1.2790669,9.598279,0
3,987.7341918945312,7.392197148874402E-4,-7.729542558081448E-4,-6.857376429252326E-4,-7.328097343444824,20.602540969848633,-36.363887786865234,0.9789321422576904,1.4423565864562988,-0.07106971740722656,0.057510972,-0.15990318,9.745794,-1.1604862,-1.2889596,9.591727,0
3,987.7163696289062,-1.9288586918264627E-4,2.599344588816166E-5,-2.8626382118090987E-4,-7.216274738311768,20.4963436126709,-36.06696701049805,0.9608692526817322,1.4370609521865845,-0.079437255859375,0.07185036,-0.15037008,9.755262,-1.1396481,-1.2801003,9.604971,0
3,987.7416381835938,0.001138693536631763,-3.734803176485002E-4,-2.8626382118090987E-4,-7.674900054931641,21.173185348510742,-36.112884521484375,0.9619314670562744,1.4320096969604492,-0.11151409149169922,0.064680636,-0.15513663,9.783669,-1.1646013,-1.2660618,9.632716,0
3,987.7394409179688,4.7290383372455835E-4,-3.734803758561611E-4,5.126839387230575E-4,-7.686938762664795,21.26731300354004,-36.19352340698242,0.9585267305374146,1.4361727237701416,-0.10571098327636719,0.062290758,-0.16228648,9.7742,-1.1627831,-1.2667487,9.62333,0
3,987.7393188476562,-5.972792860120535E-5,2.923093270510435E-4,-5.525797023437917E-4,-7.465656280517578,20.789609909057617,-36.04570007324219,0.9500437378883362,1.430867075920105,-0.08095169067382812,0.067070544,-0.15751989,9.771833,-1.1470474,-1.2630383,9.623258,0
3,987.7393188476562,6.060617743059993E-4,2.599344588816166E-5,2.4636805756017566E-4,-7.161597728729248,20.86375617980957,-36.327842712402344,0.9465822577476501,1.4208086729049683,-0.0893411636352539,0.06933424,-0.15990008,9.774189,-1.1248907,-1.2758279,9.626632,0
3,987.75439453125,3.403526498004794E-4,6.916847196407616E-4,-6.854775710962713E-4,-7.698976516723633,21.361452102661133,-36.27415466308594,0.9334073066711426,1.405988097190857,-0.09774112701416016,0.076498866,-0.15275018,9.759985,-1.1341807,-1.2426676,9.615399,0
3,987.7547607421875,7.404700154438615E-4,-7.731571095064282E-4,-1.5256990445777774E-4,-7.1826300621032715,21.05497169494629,-36.64373016357422,0.9394193887710571,1.405438780784607,-0.0777444839477539,0.06454429,-0.15513332,9.752884,-1.1173662,-1.2590988,9.607972,0
3,987.7747192382812,-1.9158667419105768E-4,-2.40533277974464E-4,5.132408114150167E-4,-7.817728042602539,21.197908401489258,-36.785179138183594,0.9310388565063477,1.4093047380447388,-0.08137130737304688,0.06931901,-0.1575165,9.767086,-1.1326383,-1.238601,9.623335,0
3,987.7343139648438,-7.241696584969759E-4,4.252484650351107E-4,-4.1884375968948007E-4,-7.6045989990234375,21.08112144470215,-36.349281311035156,0.937003493309021,1.3849577903747559,-0.0992574691772461,0.06453413,-0.1456,9.769453,-1.132252,-1.2211018,9.627798,0
3,987.7421264648438,3.4114287700504065E-4,2.5766727048903704E-5,2.469668397679925E-4,-7.42149543762207,21.252626419067383,-36.464515686035156,0.9236258268356323,1.3936240673065186,-0.06973552703857422,0.06930885,-0.15036641,9.767084,-1.1218064,-1.2227632,9.626513,0
3,987.7492065429688,-4.5775575563311577E-4,1.5891673683654517E-4,2.4698773631826043E-4,-7.521418571472168,21.158777236938477,-35.981719970703125,0.9296668171882629,1.388047218322754,-0.09233570098876953,0.064523995,-0.15274958,9.771819,-1.1246852,-1.2184563,9.63153,0
3,987.7341918945312,4.74398722872138E-4,-7.731967489235103E-4,-1.9307131879031658E-5,-7.559352874755859,20.80756187438965,-36.571197509765625,0.9120378494262695,1.3874821662902832,-0.0960550308227539,0.06690881,-0.15751596,9.762348,-1.1160834,-1.2193916,9.622899,0
3,987.7421264648438,-1.9134220201522112E-4,2.5742920115590096E-5,6.465035257861018E-4,-7.507177352905273,20.803743362426758,-36.579017639160156,0.9227710962295532,1.3821438550949097,-0.07134246826171875,0.06451383,-0.15513258,9.76235,-1.1155261,-1.2103268,9.624054,0
3,987.7421264648438,-1.9134220201522112E-4,2.5742920115590096E-5,6.465035257861018E-4,-7.496661186218262,20.708139419555664,-36.42107391357422,0.9190187454223633,1.362757682800293,-0.0797891616821289,0.06928855,-0.14798264,9.759981,-1.1218555,-1.1836859,9.624151,0
3,987.7445068359375,3.413385711610317E-4,4.2520876741036773E-4,3.8020865758880973E-4,-7.9010467529296875,21.01433753967285,-36.45366287231445,0.9012951850891113,1.3478870391845703,-0.06931018829345703,0.0740633,-0.1455992,9.762348,-1.110506,-1.1799915,9.628318,0
3,987.7598266601562,8.740192279219627E-4,-3.7374679232016206E-4,-1.9244325812906027E-5,-7.957352161407471,21.751794815063477,-36.488136291503906,0.9028269052505493,1.3566548824310303,-0.10143375396728516,0.06927842,-0.14798237,9.769449,-1.1115129,-1.1781178,9.6356325,0
3,987.72998046875,7.51204788684845E-5,-7.732285303063691E-4,-2.8553925221785903E-4,-7.738570690155029,20.902849197387695,-36.087257385253906,0.9037166833877563,1.351398229598999,-0.09092044830322266,0.06210363,-0.14798225,9.774183,-1.0974467,-1.1887625,9.640686,0
3,987.7529296875,-5.798845086246729E-5,-2.4060469877440482E-4,1.1395564069971442E-4,-7.397420406341553,21.064363479614258,-36.30324172973633,0.9048987627029419,1.341316819190979,-0.0899038314819336,0.062098563,-0.14321561,9.767081,-1.0903431,-1.179807,9.635323,0
4,987.7274169921875,3.415342653170228E-4,2.9201904544606805E-4,2.471345360390842E-4,-7.368096351623535,20.61815071105957,-36.974510192871094,0.8963449001312256,1.3359472751617432,-0.06519603729248047,0.064483374,-0.14798205,9.762346,-1.0987774,-1.165545,9.631389,0
4,987.7350463867188,2.0842533558607101E-4,-1.074626634363085E-4,-8.181080338545144E-4,-7.829468250274658,21.92417335510254,-36.440948486328125,0.8973006010055542,1.3254889249801636,-0.054650306701660156,0.06447831,-0.15274848,9.750509,-1.0964549,-1.1612322,9.620254,0
4,987.7274169921875,7.531617302447557E-5,-2.406285348115489E-4,5.134923267178237E-4,-7.798760890960693,21.37351417541504,-36.490440368652344,0.8843557238578796,1.3248409032821655,-0.08679676055908203,0.06447321,-0.14798181,9.774181,-1.0874705,-1.1606151,9.645262,0
4,987.7146606445312,7.536518387496471E-5,4.251532955095172E-4,-1.9118422642350197E-5,-7.5442705154418945,20.716379165649414,-36.64517593383789,0.8852928280830383,1.3287655115127563,-0.08100414276123047,0.06924793,-0.15036489,9.769446,-1.0842725,-1.152429,9.641876,0
4,987.7348022460938,-7.235335651785135E-4,1.5882936713751405E-4,-2.854134072549641E-4,-7.74810791015625,21.36821937561035,-36.42095184326172,0.8813951015472412,1.3138009309768677,-0.0704965591430664,0.07163277,-0.15274806,9.762344,-1.0651757,-1.1605194,9.635892,0
4,987.7628784179688,-7.664250442758203E-4,3.7596802576445043E-4,8.1489491276443E-4,-7.457067012786865,21.166738510131836,-36.60797882080078,0.8774305582046509,1.3179905414581299,-0.05526447296142578,0.071627736,-0.15513118,9.764711,-1.0609691,-1.1585692,9.639028,0
4,987.7300415039062,5.652033723890781E-4,3.759600513149053E-4,-9.161373600363731E-4,-7.426902770996094,20.984365463256836,-36.75592803955078,0.8646610975265503,1.2978672981262207,-0.07792854309082031,0.06923273,-0.14559801,9.767078,-1.0310855,-1.1682649,9.643331,0
4,987.7708129882812,-4.999624798074365E-4,-2.8984560049138963E-4,1.6010133549571037E-5,-7.81275749206543,20.728120803833008,-36.219566345214844,0.8738498687744141,1.3040858507156372,-0.0670003890991211,0.062057942,-0.15989752,9.755241,-1.084581,-1.1291399,9.630311,0
4,987.747802734375,1.6587637946940958E-4,-5.561694269999862E-4,-1.1712685227394104E-4,-7.690823554992676,21.00052833557129,-36.562232971191406,0.8435822129249573,1.3011537790298462,-0.09017372131347656,0.08356202,-0.15274759,9.7765465,-1.052208,-1.1311326,9.655288,0
4,987.7381591796875,1.6592515748925507E-4,-1.5670352149754763E-4,8.149996865540743E-4,-7.600033283233643,21.085542678833008,-36.581199645996094,0.873551607131958,1.2865264415740967,-0.06083202362060547,0.05965787,-0.14798091,9.759975,-1.0647975,-1.1200252,9.63817,0
4,987.745849609375,-3.666577104013413E-4,-0.0010888170218095183,5.487047601491213E-4,-7.568048477172852,21.536775588989258,-36.38157653808594,0.8511585593223572,1.2997850179672241,-0.06457042694091797,0.07399222,-0.15751387,9.771811,-1.0465562,-1.1304564,9.651185,0
4,987.7403564453125,-0.00116555648855865,-2.8987735277041793E-4,-1.170639880001545E-4,-7.995424270629883,21.29466438293457,-36.378536224365234,0.8667685389518738,1.2656069993972778,-0.044647216796875,0.062037617,-0.14083083,9.7576065,-1.0698453,-1.0863683,9.638972,0
4,987.7381591796875,1.6607195721007884E-4,-2.356938784942031E-5,1.492728479206562E-4,-7.16700553894043,20.595495223999023,-36.61925506591797,0.8486343622207642,1.273992657661438,-0.06253719329833984,0.06203258,-0.15751363,9.764708,-1.0376092,-1.1277586,9.64519,0
4,987.7432250976562,-0.0012986164074391127,6.422123406082392E-4,-7.828116649761796E-4,-7.758080959320068,21.095529556274414,-36.480445861816406,0.8543035984039307,1.2491121292114258,-0.07570171356201172,0.062027484,-0.1432138,9.769442,-1.0545521,-1.0869939,9.652599,0
4,987.74072265625,-0.0010322517482563853,6.422044243663549E-4,1.4931487385183573E-4,-7.887050628662109,21.659730911254883,-36.72453689575195,0.8503239154815674,1.2674381732940674,-0.05575752258300781,0.059799135,-0.15513416,9.764722,-1.0542753,-1.0922227,9.647435,0
4,987.743408203125,-7.662867428734899E-4,1.0962961823679507E-4,-3.834672970697284E-4,-7.957788467407227,21.013742446899414,-36.21392822265625,0.8464664220809937,1.2760100364685059,-0.05953693389892578,0.062359333,-0.1622882,9.781309,-1.0611006,-1.0858655,9.664328,0
4,987.7228393554688,1.6300639254041016E-4,-1.56229711137712E-4,1.4801276847720146E-5,-7.592560768127441,20.98699378967285,-36.268646240234375,0.8474745154380798,1.2609632015228271,-0.0632944107055664,0.05997601,-0.15990503,9.764738,-1.0418351,-1.091001,9.649021,0
4,987.7235107421875,-6.36005075648427E-4,9.090440580621362E-4,-1.1838402133435011E-4,-7.738432884216309,21.008764266967773,-36.78633117675781,0.8436840176582336,1.2411954402923584,-0.062325477600097656,0.06476247,-0.15990524,9.764739,-1.0367401,-1.083091,9.650491,0
4,987.723388671875,-2.365949039813131E-4,-2.3051092284731567E-5,6.80536322761327E-4,-7.887050628662109,21.659730911254883,-36.72453689575195,0.8401759266853333,1.2449662685394287,-0.06608963012695312,0.06476903,-0.14798899,9.767107,-1.032953,-1.0642905,9.655194,0
4,987.7362060546875,-7.692902581766248E-4,-6.888305069878697E-4,5.473510827869177E-4,-7.998468399047852,21.291719436645508,-36.22392654418945,0.8415683507919312,1.2538397312164307,-0.06517219543457031,0.052826166,-0.16467206,9.771841,-1.0538309,-1.0642972,9.657926,0
4,987.7413940429688,-2.3672214592806995E-4,2.4328540894202888E-4,-7.842555642127991E-4,-7.908221244812012,21.745027542114258,-36.341339111328125,0.8233981132507324,1.219751238822937,-0.035803794860839844,0.062392354,-0.14560612,9.755272,-1.0278305,-1.0478774,9.6455145,0
4,987.7463989257812,-2.3678582510910928E-4,1.1013785842806101E-4,1.4664838090538979E-5,-7.461792945861816,20.63609504699707,-37.5000114440918,0.8291094303131104,1.2189507484436035,-0.049040794372558594,0.057619125,-0.15513934,9.75764,-1.0146996,-1.0662403,9.647406,0
4,987.7310791015625,-7.69481179304421E-4,0.0017080435063689947,-3.8483634125441313E-4,-7.411821365356445,20.893178939819336,-36.82989501953125,0.8109832406044006,1.1943693161010742,-0.05755805969238281,0.06957525,-0.1384566,9.769476,-0.99687815,-1.0482839,9.663024,0
4,987.7357788085938,-0.0010358607396483421,-6.887890631332994E-4,1.4610239304602146E-5,-7.546335697174072,21.083192825317383,-36.66632080078125,0.8169239163398743,1.2220771312713623,-0.05661296844482422,0.062412173,-0.1551397,9.76711,-1.0074756,-1.0529083,9.659233,0
5,987.7459716796875,-9.027664782479405E-4,5.096426466479897E-4,4.140567616559565E-4,-7.801805019378662,21.370561599731445,-36.33583068847656,0.7988927364349365,1.2069109678268433,-0.050932884216308594,0.076758176,-0.15752305,9.760009,-0.9988845,-1.0423484,9.654233,0
5,987.74658203125,-2.3704030900262296E-4,7.759688887745142E-4,2.8087152168154716E-4,-7.918193817138672,21.47233772277832,-36.40083312988281,0.8044991493225098,1.2109383344650269,-0.04998302459716797,0.06481528,-0.15514,9.764744,-1.0009179,-1.0383021,9.65912,0
5,987.7261962890625,-3.702619287651032E-4,6.428213091567159E-4,-2.5178759824484587E-4,-7.720008850097656,21.55265998840332,-36.59004211425781,0.8054404258728027,1.1911579370498657,-0.06325340270996094,0.060042083,-0.15990673,9.778948,-1.0192534,-1.0229357,9.673249,0
5,987.7492065429688,-1.040097267832607E-4,2.4335781927220523E-4,-6.512886611744761E-4,-8.048440933227539,21.034639358520508,-36.89404296875,0.8020656108856201,1.2143313884735107,-0.04816913604736328,0.05765879,-0.16943993,9.764746,-1.0194179,-1.0239936,9.658908,0
5,987.729248046875,-6.367051973938942E-4,-4.2242155177518725E-4,-1.1868414003401995E-4,-7.937597274780273,20.558683395385742,-36.42136764526367,0.8125250339508057,1.2039124965667725,-0.05669403076171875,0.0552755,-0.16229029,9.767113,-0.99788463,-1.0296401,9.662814,0
5,987.7267456054688,-1.0413696873001754E-4,3.7653642357327044E-4,1.4446501154452562E-5,-7.567505359649658,21.168489456176758,-36.28312301635742,0.7899450063705444,1.1794483661651611,-0.04634857177734375,0.06484169,-0.15275733,9.764747,-0.97166145,-1.0273149,9.663246,0
5,987.7267456054688,-1.0413696873001754E-4,3.7653642357327044E-4,1.4446501154452562E-5,-7.2478227615356445,20.783159255981445,-36.540794372558594,0.7864986658096313,1.1883126497268677,-0.031269073486328125,0.06723821,-0.16467388,9.76238,-0.99078745,-1.011407,9.660801,0
5,987.7167358398438,-0.0010363062610849738,1.1023084516637027E-4,1.4757714234292507E-4,-7.849552154541016,21.272890090942383,-35.8608512878418,0.7831896543502808,1.1733925342559814,-0.03515148162841797,0.062465012,-0.1622908,9.760014,-0.98948705,-1.0043507,9.659208,0
5,987.7422485351562,1.6205155407078564E-4,-8.218643488362432E-4,-1.187660382129252E-4,-7.814822196960449,21.094934463500977,-36.2407112121582,0.7845243215560913,1.1729748249053955,-0.03431129455566406,0.06486148,-0.15752436,9.757647,-0.97085524,-1.0061133,9.658462,0
5,987.7626953125,2.883005072362721E-5,2.4340939125977457E-4,-2.5195127818733454E-4,-7.562939643859863,21.17290687561035,-36.51504135131836,0.7615414261817932,1.1631428003311157,-0.06185626983642578,0.07442775,-0.15514125,9.776585,-0.9566164,-1.0045161,9.679207,0
5,987.7348022460938,-2.3754950962029397E-4,5.097357789054513E-4,-1.1882063699886203E-4,-7.469403266906738,20.62873649597168,-37.113487243652344,0.7775293588638306,1.1677273511886597,-0.03740501403808594,0.06726462,-0.16944112,9.7623825,-0.97269124,-1.0002022,9.663893,0
5,987.7320556640625,0.0010939661879092455,-1.560436940053478E-4,-7.846375228837132E-4,-7.819250106811523,21.196435928344727,-36.70787811279297,0.7793817520141602,1.1383980512619019,-0.04132366180419922,0.062491417,-0.14322521,9.76475,-0.9791257,-0.95875007,9.669378,0
5,987.74755859375,-1.0451881098560989E-4,-0.0012212968431413174,1.474407035857439E-4,-7.978277683258057,20.836660385131836,-36.431365966796875,0.770832896232605,1.147144079208374,-0.03570079803466797,0.06727785,-0.1527585,9.767118,-0.95255697,-0.9835223,9.672114,0
5,987.7450561523438,-6.372142815962434E-4,-0.0010881285415962338,-1.1890236055478454E-4,-7.543292045593262,21.08614158630371,-36.82093048095703,0.7624927163124084,1.1227084398269653,-0.030117034912109375,0.07206425,-0.13845901,9.755282,-0.94653666,-0.9581251,9.663124,0
5,987.7608032226562,-9.035938419401646E-4,5.097771063446999E-4,-1.1892965994775295E-4,-7.46967887878418,20.416902542114258,-35.71533203125,0.7636728286743164,1.1412498950958252,-0.02927684783935547,0.060121328,-0.15990861,9.764751,-0.94866717,-0.98278576,9.670249,0
5,987.7501220703125,2.8448208468034863E-5,1.103135000448674E-4,4.136747738812119E-4,-7.407935619354248,21.15996742248535,-36.461185455322266,0.7515621185302734,1.1213690042495728,-0.0377960205078125,0.061499685,-0.14796744,9.764659,-0.9458637,-0.9615709,9.672381,0
5,987.74267578125,-7.705632597208023E-4,6.429556524381042E-4,1.4733162242919207E-4,-7.500248908996582,21.0734806060791,-36.36491394042969,0.7388521432876587,1.1114730834960938,-0.03227806091308594,0.080584645,-0.14320005,9.767023,-0.9263003,-0.9525136,9.677626,0
5,987.7378540039062,-2.363785170018673E-4,-4.199563409201801E-4,6.841558497399092E-4,-7.372257232666016,20.1395206451416,-35.945068359375,0.7455207109451294,1.1111775636672974,-0.02679157257080078,0.06860092,-0.15988217,9.750449,-0.9343186,-0.9620611,9.6593485,0
5,987.7382202148438,5.20456989761442E-4,-1.8588064995128661E-4,-2.4045706959441304E-4,-7.320326805114746,21.13612174987793,-35.626461029052734,0.7467916011810303,1.0969067811965942,-0.03075885772705078,0.06856668,-0.14319839,9.764649,-0.92329305,-0.9479605,9.675871,0
5,987.7484130859375,5.207867943681777E-4,-5.277624586597085E-5,2.9231596272438765E-4,-7.423996925354004,20.88139533996582,-36.211456298828125,0.7529741525650024,1.1158822774887085,-0.04893207550048828,0.056582928,-0.1527306,9.769381,-0.9368917,-0.9474912,9.679454,0
5,987.733154296875,2.5480095064267516E-4,-5.282981146592647E-5,5.587732885032892E-4,-6.976131439208984,21.30058479309082,-35.99706268310547,0.7353651523590088,1.1058229207992554,-0.04813671112060547,0.066108316,-0.15749632,9.77648,-0.90666246,-0.96734923,9.68767,0
5,987.77392578125,-4.106585984118283E-4,-9.84988990239799E-4,2.6282912585884333E-5,-7.362827301025391,20.780492782592773,-35.98402786254883,0.7326966524124146,1.1052078008651733,-0.033184051513671875,0.07085386,-0.16226204,9.762273,-0.91640145,-0.94925714,9.674319,0
5,987.7534790039062,5.217765574343503E-4,-0.001783990184776485,2.927402383647859E-4,-7.065155029296875,20.216615676879883,-36.38182067871094,0.7343722581863403,1.085902214050293,-0.041907310485839844,0.06364992,-0.14557828,9.771739,-0.90904206,-0.93624413,9.685517,0
5,987.7484130859375,-2.768408157862723E-4,3.464833425823599E-4,1.597237423993647E-4,-7.277581691741943,20.4913272857666,-35.59532165527344,0.726012110710144,1.0856033563613892,-0.01744842529296875,0.068395495,-0.15749381,9.748063,-0.9095198,-0.93306893,9.66211,0
5,987.7486572265625,5.224367487244308E-4,2.1327182184904814E-4,2.930232440121472E-4,-6.907788276672363,20.468996047973633,-35.88195037841797,0.7226876020431519,1.0856587886810303,-0.035658836364746094,0.07075116,-0.15987627,9.766998,-0.8908745,-0.9471527,9.681635,0
6,987.7210083007812,-2.761809737421572E-4,-9.852033108472824E-4,2.6848691049963236E-5,-7.1044511795043945,20.39015007019043,-35.770050048828125,0.7196444272994995,1.0804346799850464,-0.0207061767578125,0.07549673,-0.15987538,9.769362,-0.89153457,-0.9350615,9.68517,0
6,987.756591796875,3.8993876660242677E-4,-5.3151234169490635E-5,1.6014795983210206E-4,-7.013660907745361,20.475168228149414,-35.78901290893555,0.7116416096687317,1.0753365755081177,-0.005753517150878906,0.07785243,-0.15749128,9.7456875,-0.8789498,-0.9302225,9.6628895,0
6,987.7311401367188,3.902686876244843E-4,-0.0011184683535248041,1.6028940444812179E-4,-7.123418807983398,20.214540481567383,-36.064788818359375,0.7227219343185425,1.0799392461776733,-0.023958206176757812,0.06347877,-0.16464026,9.764622,-0.8974314,-0.9266734,9.680644,0
6,987.756591796875,7.900724303908646E-4,4.7937341150827706E-4,-2.390430890955031E-4,-7.139044284820557,20.674020767211914,-36.089263916015625,0.714974045753479,1.0611733198165894,-0.01856231689453125,0.0658344,-0.15272306,9.757517,-0.88658994,-0.91302794,9.675595,0
6,987.7138671875,2.5777070550248027E-4,-9.85417515039444E-4,-1.0574370389804244E-4,-6.972980499267578,20.197187423706055,-35.779014587402344,0.7068329453468323,1.0610164403915405,-0.060439109802246094,0.070580006,-0.14795567,9.783553,-0.8780022,-0.90832263,9.703033,0
6,987.759521484375,7.907323888503015E-4,4.7926625120453537E-4,-6.382339051924646E-4,-7.14955997467041,20.769628524780273,-36.24720764160156,0.7131677865982056,1.0515573024749756,-0.02660083770751953,0.06337607,-0.15033813,9.776448,-0.8824583,-0.9031705,9.695935,0
6,987.7440185546875,9.242204832844436E-4,-5.86050795391202E-4,-5.049346364103258E-4,-7.282552719116211,20.96111488342285,-36.16093444824219,0.7003650665283203,1.0515443086624146,-0.011694908142089844,0.06812161,-0.15987034,9.762241,-0.8784793,-0.90393835,9.682084,0
6,987.7520751953125,1.2560252798721194E-4,-5.861043464392424E-4,2.783851232379675E-5,-7.234400749206543,20.5845890045166,-35.83838653564453,0.6975365877151489,1.0464926958084106,-0.015738487243652344,0.0680874,-0.16463606,9.755137,-0.8773444,-0.9013616,9.675343,0
6,987.7269897460938,-7.225375156849623E-6,-9.856317192316055E-4,-2.383359824307263E-4,-7.5078582763671875,21.06611442565918,-35.9783935546875,0.694424033164978,1.0365511178970337,-0.029218673706054688,0.060883462,-0.15271883,9.769337,-0.88602495,-0.8784255,9.690733,0
6,987.7498779296875,-4.063689266331494E-4,7.957822526805103E-5,-2.381946542300284E-4,-6.837486743927002,20.37693214416504,-36.11834716796875,0.7003963589668274,1.036669373512268,-0.014308929443359375,0.065629005,-0.15510131,9.7646,-0.8575561,-0.8964705,9.686935,0
6,987.7376098632812,0.0013250138144940138,-1.8679129425436258E-4,2.8262671548873186E-5,-7.031351089477539,21.30145835876465,-35.83463668823242,0.6969406008720398,1.0366626977920532,-0.027807235717773438,0.063204885,-0.159867,9.759862,-0.85968673,-0.8928218,9.682368,0
6,987.7272338867188,-6.720249657519162E-4,7.947094854898751E-5,2.947201137430966E-4,-7.007274627685547,21.11319923400879,-35.673362731933594,0.684472918510437,1.0315232276916504,-0.0271148681640625,0.06556058,-0.16701604,9.774062,-0.86344314,-0.8897392,9.696769,0
6,987.7120971679688,3.9356847992166877E-4,-4.532142775133252E-4,4.2801944073289633E-4,-7.242415428161621,21.051424026489258,-36.2493896484375,0.6861574053764343,1.017077922821045,-0.021698951721191406,0.06552631,-0.147949,9.759855,-0.856808,-0.86380476,9.685074,0
6,987.7322998046875,5.270562251098454E-4,3.456798440311104E-4,2.950028865598142E-4,-7.393396854400635,21.437074661254883,-36.633609771728516,0.6730106472969055,1.0123077630996704,-0.025730133056640625,0.07027188,-0.15271463,9.759852,-0.8637605,-0.85025,9.6857605,0
6,987.7380981445312,-4.047192051075399E-4,7.931038271635771E-5,-3.706453717313707E-4,-7.727075576782227,21.177003860473633,-36.105064392089844,0.6651917099952698,1.0027214288711548,-0.029801368713378906,0.07501748,-0.1479473,9.769319,-0.84360707,-0.85465217,9.696649,0
6,987.72021484375,-4.915462341159582E-6,-3.2021704828366637E-4,2.8969894628971815E-5,-7.30608606338501,20.781091690063477,-36.2237548828125,0.6642849445343018,0.993461549282074,-0.03411388397216797,0.0774886,-0.15039115,9.783748,-0.840454,-0.8531996,9.711644,0
6,987.72021484375,-4.915462341159582E-6,-3.2021704828366637E-4,2.8969894628971815E-5,-7.3974199295043945,21.064363479614258,-36.30324172973633,0.6611221432685852,1.0076428651809692,-0.005053520202636719,0.075163454,-0.16945897,9.762449,-0.84424186,-0.8619876,9.689377,0
6,987.7454223632812,6.427578045986593E-4,7.906035170890391E-5,-9.144533541984856E-4,-7.313153266906738,20.40543556213379,-35.73878479003906,0.6625556349754333,0.9790215492248535,-0.032802581787109375,0.06805843,-0.14562781,9.767189,-0.8446079,-0.83186656,9.696312,0
6,987.7177124023438,2.3973110364750028E-4,-3.198367194272578E-4,-1.170285395346582E-4,-7.347882270812988,20.583391189575195,-35.35892105102539,0.6492123603820801,0.9836269021034241,-0.02737140655517578,0.08246255,-0.15039594,9.77193,-0.8277473,-0.8352022,9.702439,0
6,987.7606201171875,5.054229986853898E-4,6.12370204180479E-4,2.8217799263074994E-4,-7.433969497680664,20.608705520629883,-36.27095031738281,0.6603845953941345,0.9839307069778442,-0.012559890747070312,0.06818789,-0.15516408,9.755365,-0.82293046,-0.8462661,9.685169,0
6,987.7355346679688,-1.609904575161636E-4,0.001411419128999114,4.1506855632178485E-4,-7.042165279388428,20.764928817749023,-36.417449951171875,0.6613156795501709,0.9645861983299255,-0.011855125427246094,0.07303238,-0.140866,9.762472,-0.81002975,-0.8309764,9.694553,0
6,987.736083984375,-1.616142108105123E-4,-1.8637502216733992E-4,1.5327532310038805E-5,-7.001186847686768,21.11908531188965,-35.982582092285156,0.6488024592399597,0.9740820527076721,0.0029630661010742188,0.07070723,-0.14801742,9.750643,-0.8155588,-0.82599235,9.6826935,0
6,987.7484741210938,-5.617119022645056E-4,6.126739317551255E-4,-5.175715195946395E-4,-7.092275619506836,20.401933670043945,-36.38848876953125,0.6596106290817261,0.9836028814315796,-0.015322685241699219,0.06360224,-0.1599354,9.762485,-0.8296084,-0.82499975,9.69365,0
6,987.7383422851562,3.6976992851123214E-4,7.459330372512341E-4,-5.17838925588876E-4,-7.361305236816406,20.78196907043457,-36.06133270263672,0.6470926403999329,0.9503271579742432,-0.0147247314453125,0.061277032,-0.14325409,9.764856,-0.817463,-0.81218386,9.697877,0
6,987.7357788085938,2.359882346354425E-4,-9.850189089775085E-4,-1.1863245163112879E-4,-7.088390827178955,20.668729782104492,-36.019775390625,0.6391439437866211,0.9697564840316772,-0.023607254028320312,0.070901334,-0.15278877,9.762497,-0.80578256,-0.8194206,9.696082,0
7,987.7638549804688,2.353645977564156E-4,2.1350386668927968E-4,5.468897288665175E-4,-7.143472194671631,20.775514602661133,-36.556427001953125,0.6504738926887512,0.9749985337257385,0.01483154296875,0.070966065,-0.17185654,9.745932,-0.80410975,-0.8333693,9.67867,0
7,987.743896484375,7.673726067878306E-4,-7.185004651546478E-4,1.4714867575094104E-4,-7.055182456970215,20.48929786682129,-36.322330474853516,0.6236207485198975,0.9513131380081177,-0.01772594451904297,0.06386113,-0.15994175,9.760141,-0.806011,-0.8177291,9.693899,0
7,987.7437133789062,8.992831571958959E-4,4.801235336344689E-4,1.4661398017778993E-4,-7.379431247711182,20.870203018188477,-35.83274841308594,0.6584625244140625,0.9513176083564758,-0.01236724853515625,0.051976323,-0.14564367,9.767248,-0.8222742,-0.7867942,9.701954,0
7,987.7539672851562,2.3286970099434257E-4,8.075099322013557E-5,5.458205123431981E-4,-7.271057605743408,21.23526954650879,-36.17874526977539,0.6312234401702881,0.9327004551887512,0.0024156570434570312,0.05682087,-0.14326198,9.74595,-0.8050246,-0.78687346,9.681945,0
7,987.7568969726562,6.317197694443166E-4,4.803260962944478E-4,6.787111051380634E-4,-6.8861823081970215,21.12175941467285,-36.53935241699219,0.6323997974395752,0.952215313911438,-0.025394439697265625,0.06883508,-0.1647131,9.779097,-0.78350323,-0.8208225,9.714678,0
7,987.7592163085938,2.316220779903233E-4,7.467432878911495E-4,-6.531356484629214E-4,-7.119097709655762,21.219388961791992,-35.97028350830078,0.6339948773384094,0.9285464882850647,-0.005870819091796875,0.054560363,-0.15279825,9.764898,-0.79926336,-0.7927972,9.701146,0
7,987.7642822265625,0.0012907548807561398,-5.979854613542557E-4,-5.292219575494528E-4,-7.179181098937988,20.583711624145508,-36.00080871582031,0.6356527805328369,0.9335224628448486,-0.024232864379882812,0.057015,-0.16233297,9.772007,-0.80164933,-0.7928995,9.708264,0
7,987.7620239257812,-5.74079982470721E-4,-4.6472621033899486E-4,3.1423987820744514E-6,-7.758218765258789,20.989614486694336,-35.781368255615234,0.6183755397796631,0.938247799873352,-0.02365589141845703,0.0642494,-0.16948439,9.762544,-0.80823654,-0.77953255,9.699444,0
7,987.754638671875,-4.415459115989506E-4,2.011647738981992E-4,2.875109203159809E-6,-7.231356143951416,20.5875301361084,-35.99299240112305,0.6246647834777832,0.9429035782814026,-0.0041141510009765625,0.06431416,-0.16948594,9.767284,-0.79028785,-0.79017955,9.704833,0
7,987.7421264648438,3.567778621800244E-4,-3.313657362014055E-4,-6.631819996982813E-4,-7.57997989654541,20.524568557739258,-36.08955383300781,0.6023892164230347,0.9007332921028137,0.00588226318359375,0.06915867,-0.14327152,9.755453,-0.7869637,-0.7497264,9.696018,0
7,987.7496337890625,3.5615410888567567E-4,-6.494857370853424E-5,-5.30291348695755E-4,-7.445465087890625,20.334550857543945,-36.253135681152344,0.6277052164077759,0.9105018973350525,-0.012479782104492188,0.06205368,-0.15518947,9.764929,-0.7901496,-0.759685,9.704655,0
7,987.7217407226562,2.2237218217924237E-4,8.672582916915417E-4,5.347048281691968E-4,-7.287416934967041,20.324560165405273,-36.35388946533203,0.6004393100738525,0.9106186032295227,0.007040977478027344,0.07167798,-0.15995763,9.7554655,-0.7720712,-0.7667543,9.696177,0
7,987.7267456054688,8.859048830345273E-5,2.0156984101049602E-4,-3.9766798727214336E-4,-7.127847194671631,20.316041946411133,-36.531951904296875,0.6116389036178589,0.9107276201248169,-0.0018625259399414062,0.0669629,-0.15519269,9.757839,-0.76697946,-0.762419,9.699199,0
7,987.7601928710938,-3.1150708673521876E-4,-6.464481703005731E-5,-1.3161951210349798E-4,-7.450978755950928,21.172632217407227,-36.917198181152344,0.5895886421203613,0.9014924168586731,-0.029737472534179688,0.07419735,-0.16234405,9.774416,-0.7630762,-0.76401806,9.716228,0
7,987.7423095703125,-4.5815075282007456E-5,-6.454350659623742E-5,-3.982027992606163E-4,-7.363668918609619,20.51664161682129,-36.507347106933594,0.5866489410400391,0.9016522765159607,0.01814746856689453,0.07111144,-0.15994377,9.745945,-0.76250696,-0.7524314,9.688472,0
7,987.7476196289062,-4.4046860421076417E-4,-7.311156950891018E-4,0.0012017582776024938,-7.0928192138671875,20.770227432250977,-36.4869384765625,0.58502596616745,0.8777880668640137,0.0046520233154296875,0.07275963,-0.14324258,9.762447,-0.74558145,-0.74287415,9.706877,0
7,987.770751953125,1.0544207179918885E-4,0.001925586722791195,2.703589852899313E-4,-7.543972492218018,21.348512649536133,-36.22030258178711,0.5961436033248901,0.8972155451774597,0.014669418334960938,0.06798366,-0.1599256,9.752979,-0.7598629,-0.7427689,9.69648,0
7,987.7432250976562,-8.266999502666295E-4,-2.049342729151249E-4,-1.291304943151772E-4,-7.645715713500977,20.621049880981445,-36.0850715637207,0.5931757688522339,0.8544800877571106,-0.0179290771484375,0.065597564,-0.14800934,9.774284,-0.76593757,-0.7192649,9.718995,0
7,987.7380981445312,2.385270199738443E-4,3.2770345569588244E-4,-6.617779727093875E-4,-7.357580661773682,20.522539138793945,-36.816566467285156,0.604304313659668,0.8785915970802307,-0.0031785964965820312,0.05365187,-0.14324285,9.757714,-0.7619543,-0.71717983,9.702653,0
7,987.77587890625,-5.604576435871422E-4,-0.001003870042040944,-1.2916192645207047E-4,-7.4495954513549805,21.068185806274414,-36.29542541503906,0.5920380353927612,0.873935341835022,0.00681304931640625,0.05843544,-0.15754263,9.760082,-0.7577997,-0.727296,9.704855,0
7,987.7377319335938,1.0529562132433057E-4,6.139952165540308E-5,1.3713823864236474E-4,-8.276790618896484,21.136693954467773,-36.556888580322266,0.5795769095420837,0.8555052280426025,0.012042045593261719,0.070388794,-0.14800958,9.760082,-0.7433132,-0.71419096,9.706878,0
7,987.760986328125,5.04732655826956E-4,-7.17524962965399E-5,3.964523784816265E-6,-7.418888092041016,20.517518997192383,-36.34492111206055,0.5767378807067871,0.8606865406036377,-0.0016574859619140625,0.06561279,-0.15754278,9.769552,-0.7421836,-0.7243867,9.715847,0
7,987.7664794921875,2.383801038376987E-4,-3.380624402780086E-4,-2.623670152388513E-4,-7.359645843505859,20.889360427856445,-36.83771514892578,0.5689363479614258,0.8609445691108704,-0.010601997375488281,0.0632267,-0.15277638,9.764817,-0.7423038,-0.7120808,9.711896,0
7,987.7510375976562,-2.94325000140816E-4,0.0016593184554949403,3.91743378713727E-6,-7.225406646728516,20.48750877380371,-35.60313415527344,0.5735451579093933,0.8495926856994629,-3.376007080078125E-4,0.0584507,-0.1551597,9.767184,-0.74100906,-0.70862,9.714636,0
8,987.7510375976562,-2.94325000140816E-4,0.0016593184554949403,3.91743378713727E-6,-7.225406646728516,20.48750877380371,-35.60313415527344,0.5531324148178101,0.8473676443099976,0.018842697143554688,0.07757372,-0.15039326,9.762451,-0.7241894,-0.7008348,9.711771,0
8,987.7510375976562,-2.94325000140816E-4,0.0016593184554949403,3.91743378713727E-6,-7.470221996307373,20.785188674926758,-35.813785552978516,0.5739128589630127,0.8380123972892761,0.005166053771972656,0.060848206,-0.1456268,9.762451,-0.7436819,-0.6798351,9.711599,0
8,987.7437744140625,-6.938356091268361E-4,6.142925121821463E-5,3.901601303368807E-6,-7.895639419555664,21.282602310180664,-36.16225814819336,0.5564829111099243,0.843273937702179,0.0056667327880859375,0.068021715,-0.15516,9.764818,-0.7209738,-0.7022456,9.71429,0
8,987.7584838867188,1.0507547995075583E-4,1.9459312898106873E-4,0.0010691494680941105,-7.415407657623291,21.25852394104004,-36.773738861083984,0.5490247011184692,0.8342195153236389,-0.017533302307128906,0.072805315,-0.1480103,9.783756,-0.715484,-0.69092333,9.734465,0
8,987.7432250976562,-2.811901504173875E-5,6.144112558104098E-5,3.870285581797361E-6,-7.4736714363098145,21.25644874572754,-36.456703186035156,0.5699503421783447,0.8301765322685242,-0.0028591156005859375,0.058469713,-0.15754344,9.767186,-0.7195724,-0.7000686,9.716907,0
8,987.7616577148438,2.3815996246412396E-4,6.144710641819984E-5,-1.293033128604293E-4,-7.156190872192383,21.132020950317383,-36.03643798828125,0.538373589515686,0.8546779751777649,0.011812210083007812,0.07042301,-0.16945992,9.76482,-0.723131,-0.69366,9.715005,0
8,987.7515258789062,1.0496535105630755E-4,7.272427901625633E-4,3.838853444904089E-6,-7.818408966064453,21.460275650024414,-36.18455123901367,0.5548105239868164,0.8218162059783936,0.007538795471191406,0.06803697,-0.15754361,9.771921,-0.71531785,-0.68307036,9.723251,0
8,987.7542114257812,5.044026183895767E-4,-3.3801473909989E-4,-5.288086249493062E-4,-7.55546760559082,21.07435417175293,-36.202484130859375,0.547569751739502,0.8177129626274109,0.007973670959472656,0.06804073,-0.15277718,9.755352,-0.6979002,-0.68635917,9.707561,0
8,987.7389526367188,5.043658311478794E-4,-6.043247412890196E-4,2.7012330247089267E-4,-7.0618133544921875,20.851694107055664,-36.11156463623047,0.5539942979812622,0.813504159450531,0.008455276489257812,0.056095064,-0.15277724,9.760087,-0.71816206,-0.6678865,9.712052,0
8,987.7616577148438,3.7117121974006295E-4,-2.048449678113684E-4,3.7915888242423534E-6,-7.378888130187988,20.501916885375977,-35.73429870605469,0.5508952140808105,0.8284307718276978,-0.024211883544921875,0.058488727,-0.15516068,9.783758,-0.7014745,-0.6819921,9.73613,0
8,987.7387084960938,-6.941288593225181E-4,0.0012598984176293015,-3.9569794898852706E-4,-6.968116760253906,20.8337459564209,-35.5860595703125,0.5384548902511597,0.8196843862533569,0.02357769012451172,0.06327236,-0.16946037,9.755352,-0.70624924,-0.67958724,9.707677,0
8,987.7396850585938,1.0478176409378648E-4,-2.0483297703322023E-4,1.3691815547645092E-4,-7.519054889678955,21.424089431762695,-35.53570556640625,0.5505232810974121,0.805911660194397,0.009796142578125,0.060886264,-0.15516083,9.762455,-0.6873161,-0.67801994,9.716029,0
8,987.7493286132812,7.705350290052593E-4,-0.0010037746978923678,5.363762611523271E-4,-7.071052074432373,21.94920539855957,-36.020389556884766,0.5481657981872559,0.7775596380233765,-0.003963470458984375,0.051330477,-0.14562784,9.762455,-0.70496386,-0.64864546,9.716566,0
8,987.7567749023438,-8.274338324554265E-4,-7.374469423666596E-4,-2.626028726808727E-4,-7.52225923538208,20.894929885864258,-36.505043029785156,0.5309821367263794,0.8113524913787842,0.015433311462402344,0.06806362,-0.16469412,9.760088,-0.6930914,-0.6627975,9.714495,0
8,987.767333984375,1.046353136189282E-4,4.609804891515523E-4,-6.620924104936421E-4,-7.3704376220703125,20.77312660217285,-35.59749984741211,0.5376111268997192,0.8023465871810913,-0.012516975402832031,0.06089765,-0.16469426,9.771925,-0.69603586,-0.6594995,9.726352,0
8,987.7698974609375,-6.943491171114147E-4,8.604602189734578E-4,-7.952660671435297E-4,-6.962571144104004,21.20792579650879,-35.99372863769531,0.5388133525848389,0.7933841943740845,0.016315460205078125,0.058925778,-0.15755464,9.760126,-0.6776731,-0.6626152,9.715455,0
8,987.757568359375,1.0367471259087324E-4,-3.3983675530180335E-4,-2.6537803933024406E-4,-7.247960090637207,20.677244186401367,-35.84172058105469,0.5360341668128967,0.77028489112854,0.026210784912109375,0.056556165,-0.15040533,9.760128,-0.686282,-0.63995814,9.716243,0
8,987.7596435546875,-3.0649593099951744E-5,7.256160024553537E-4,-9.316675132140517E-4,-7.847487449645996,20.90607261657715,-35.83970642089844,0.5331166386604309,0.775536060333252,-0.011219978332519531,0.054186553,-0.1575556,9.767232,-0.70150226,-0.627274,9.723219,0
8,987.765380859375,-3.0845170840620995E-5,-7.329980144277215E-5,2.666701329872012E-4,-7.396983623504639,21.80241584777832,-36.577449798583984,0.5304099321365356,0.7667673826217651,-0.0013370513916015625,0.056596696,-0.14563973,9.771969,-0.6756679,-0.63249034,9.729298,0
8,987.7732543945312,-4.305144539102912E-4,5.988989141769707E-5,-6.655192701146007E-4,-7.192305088043213,21.4144229888916,-36.278350830078125,0.5182401537895203,0.7628018856048584,-9.336471557617188E-4,0.05900693,-0.14802362,9.771971,-0.66825396,-0.6343566,9.72974,0
8,987.7581787109375,1.2111733667552471E-5,-0.0010319870198145509,2.5669060414656997E-4,-7.250323295593262,20.411924362182617,-36.28773498535156,0.5300602316856384,0.754124641418457,0.02786540985107422,0.049467623,-0.15279062,9.755402,-0.681587,-0.6248705,9.712809,0
8,987.7428588867188,1.191615592688322E-5,-7.656392990611494E-4,-1.428670366294682E-4,-7.683053016662598,21.534109115600586,-35.824806213378906,0.5179356932640076,0.7690139412879944,0.028273582458496094,0.061437428,-0.15994091,9.760138,-0.67414343,-0.62515223,9.71825,0
8,987.7531127929688,1.1720694601535797E-5,-2.3297582811210304E-4,-5.424246774055064E-4,-7.341358661651611,21.327333450317383,-35.94234848022461,0.5155770182609558,0.7508159279823303,0.023916244506835938,0.06384757,-0.15040828,9.753038,-0.65875685,-0.6206301,9.712329,0
8,987.7606811523438,1.1525233276188374E-5,3.33718053298071E-5,6.559130270034075E-4,-7.195104122161865,20.41105079650879,-36.450157165527344,0.5079101324081421,0.7614573240280151,6.351470947265625E-4,0.078207254,-0.15994187,9.771978,-0.6454865,-0.6301227,9.731884,0
8,987.7423095703125,4.108034772798419E-4,-9.97543684206903E-5,-9.420660207979381E-4,-6.896399974822998,21.849496841430664,-36.272422790527344,0.5148922204971313,0.7621375918388367,0.0010318756103515625,0.05671847,-0.15279265,9.769612,-0.64658463,-0.63035,9.7291565,0
9,987.74560546875,5.437658401206136E-4,-3.6603855551220477E-4,6.557453889399767E-4,-7.3022003173828125,21.047883987426758,-35.85504913330078,0.4977586567401886,0.758293092250824,0.029831886291503906,0.06868824,-0.15755965,9.750676,-0.6466745,-0.61730564,9.711126,0
9,987.7732543945312,2.772543812170625E-4,0.0013650463661178946,-5.427599535323679E-4,-7.209207534790039,20.871999740600586,-36.55194091796875,0.4949289560317993,0.74030601978302,0.011277198791503906,0.07109845,-0.14802702,9.762514,-0.63727456,-0.6085135,9.724055,0
9,987.7913208007812,1.0743038728833199E-5,4.3297262163832784E-4,3.8926192792132497E-4,-7.200893878936768,21.037294387817383,-35.716068267822266,0.5061956644058228,0.7459619641304016,0.030620574951171875,0.056779325,-0.16471042,9.753048,-0.6510838,-0.6173481,9.713252,0
9,987.7684326171875,4.1002139914780855E-4,9.656361071392894E-4,-5.429273587651551E-4,-7.361305236816406,20.78196907043457,-36.06133270263672,0.4983184039592743,0.7325439453125,-0.011584281921386719,0.05679959,-0.1527945,9.771987,-0.6511031,-0.59793717,9.733284,0
9,987.7432250976562,1.0351883247494698E-5,-9.959573799278587E-5,-1.4353747246786952E-4,-7.3817949295043945,20.604890823364258,-36.27876281738281,0.500901460647583,0.7430651783943176,0.007697105407714844,0.056819886,-0.15756167,9.774357,-0.64083374,-0.6086111,9.73576,0
9,987.7557373046875,-1.2300163507461548E-4,-2.3272188263945282E-4,-1.436212914995849E-4,-6.938794136047363,20.38752555847168,-36.25732421875,0.48897886276245117,0.7155492901802063,0.026983261108398438,0.05923009,-0.15041234,9.760155,-0.63324046,-0.59812415,9.722551,0
9,987.76904296875,2.762768417596817E-4,-0.00103163777384907,1.2261088704690337E-4,-7.032192707061768,21.037614822387695,-36.35795593261719,0.49113190174102783,0.7164372205734253,0.0320892333984375,0.061640263,-0.15517937,9.760157,-0.630357,-0.5981747,9.722828,0
9,987.758544921875,2.760811476036906E-4,3.365751763340086E-5,1.2252706801518798E-4,-6.9774088859558105,20.29868507385254,-36.24617385864258,0.4838148057460785,0.7363980412483215,0.0040454864501953125,0.05927068,-0.1694795,9.762526,-0.63927734,-0.6014887,9.724644,0
9,987.7788696289062,-5.230620736256242E-4,-9.946872887667269E-5,-1.071469159796834E-5,-7.312174320220947,20.77520179748535,-35.91453552246094,0.4814625382423401,0.7041239738464355,-3.47137451171875E-4,0.06407076,-0.14803047,9.769629,-0.6328234,-0.5728078,9.733606,0
9,987.761474609375,4.088480491191149E-4,-7.652266649529338E-4,-1.079845242202282E-5,-7.6589765548706055,21.345842361450195,-35.663536071777344,0.4882757365703583,0.7146415114402771,0.014222145080566406,0.054531425,-0.14803107,9.762529,-0.63704133,-0.56837654,9.726407,0
9,987.7435913085938,-5.234531126916409E-4,0.001365332049317658,-4.103561514057219E-4,-7.348043441772461,20.05716896057129,-36.482872009277344,0.4803707003593445,0.6822941899299622,0.009870529174804688,0.05694163,-0.14564826,9.7791,-0.6287478,-0.567355,9.743616,0
9,987.7435913085938,-5.234531126916409E-4,0.001365332049317658,-4.103561514057219E-4,-7.30097770690918,20.41722297668457,-36.35722351074219,0.47825905680656433,0.7022730708122253,0.014935493469238281,0.059351802,-0.15279855,9.7649,-0.62912136,-0.5655745,9.7295685,0
9,987.7588500976562,-2.573326928541064E-4,1.6694240912329406E-4,1.221917918883264E-4,-7.538321018218994,20.61635398864746,-36.255313873291016,0.4903212785720825,0.6936442852020264,0.029476165771484375,0.052202404,-0.15279903,9.755433,-0.6223636,-0.5713198,9.720124,0
9,987.7716064453125,1.419455511495471E-4,-7.651314372196794E-4,-5.436817300505936E-4,-7.223448276519775,21.22702980041504,-35.954647064208984,0.4730033576488495,0.6947633624076843,0.015636444091796875,0.057002485,-0.15041621,9.757802,-0.6176047,-0.562979,9.72328,0
9,987.7665405273438,-1.2456602416932583E-4,4.333217511884868E-4,2.5518209440633655E-4,-7.42149543762207,21.252626419067383,-36.464515686035156,0.4658900499343872,0.6958588361740112,0.006493568420410156,0.056598723,-0.14802311,9.771969,-0.60301036,-0.5713737,9.737885,0
9,987.7669067382812,-2.579194260761142E-4,-8.982258732430637E-4,-2.775333705358207E-4,-6.622835636138916,20.261625289916992,-35.75975799560547,0.483501672744751,0.69224613904953,0.0258331298828125,0.05616924,-0.15277912,9.757727,-0.61243546,-0.55949074,9.723766,0
9,987.7460327148438,1.4237570576369762E-4,4.332201788201928E-4,-2.7718167984858155E-4,-7.2289934158325195,20.852853775024414,-35.546974182128906,0.4667011499404907,0.6887088418006897,0.03089427947998047,0.058545172,-0.16469513,9.760092,-0.6188823,-0.5589413,9.725972,0
9,987.7489013671875,2.8264045249670744E-4,-5.000390810891986E-4,1.2533814879134297E-4,-7.560331344604492,20.43779945373535,-36.39544677734375,0.4686853289604187,0.6893420815467834,0.036004066467285156,0.058531225,-0.15516175,9.750622,-0.60443985,-0.5546758,9.717465,0
9,987.7615966796875,-1.1669914238154888E-4,5.652026156894863E-4,-7.76216620579362E-6,-7.228312969207764,20.590478897094727,-36.147605895996094,0.4802597761154175,0.6710915565490723,0.022162437438964844,0.03222835,-0.15039481,9.762457,-0.61969286,-0.5485383,9.72853,0
9,987.7694702148438,-0.0011818279745057225,6.983387283980846E-4,3.917692811228335E-4,-6.772730827331543,19.91069221496582,-35.947078704833984,0.4682415723800659,0.6772346496582031,0.031943321228027344,0.060893238,-0.15516098,9.755354,-0.58830875,-0.5574087,9.72306,0
9,987.7489013671875,-3.827459877356887E-4,6.98316958732903E-4,-2.739627962000668E-4,-6.822404861450195,20.28574562072754,-36.19232177734375,0.45642587542533875,0.6974316239356995,0.01805400848388672,0.04892978,-0.16707705,9.769556,-0.59464544,-0.57005346,9.736323,0
9,987.7694091796875,4.1633646469563246E-4,-0.0010327581549063325,-5.402209353633225E-4,-6.753870010375977,21.19264030456543,-36.02499771118164,0.4728175401687622,0.6699104905128479,0.02312755584716797,0.04174614,-0.16469343,9.755351,-0.60523564,-0.55361456,9.722291,0
9,987.7872924804688,4.1660526767373085E-4,1.656196400290355E-4,-7.4740382842719555E-6,-7.158011436462402,20.498414993286133,-36.384002685546875,0.4511752724647522,0.6571323275566101,0.009226799011230469,0.058461487,-0.15992658,9.764818,-0.58995944,-0.5455147,9.733192,0
9,987.7490844726562,2.8358190320432186E-4,-2.3387602414004505E-4,-5.400480586104095E-4,-7.2935051918029785,20.318666458129883,-36.04467010498047,0.44919148087501526,0.6773405075073242,0.014255523681640625,0.056057602,-0.16230948,9.757715,-0.59446985,-0.53866434,9.7262,0
10,987.8076782226562,-6.483893375843763E-4,-6.333716446533799E-4,1.2579926988109946E-4,-7.282010078430176,20.592824935913086,-36.06248474121094,0.43709734082221985,0.6545485258102417,0.038252830505371094,0.065603256,-0.15515928,9.750612,-0.5782329,-0.5323932,9.72034,0
10,987.7847290039062,-5.150967044755816E-4,-1.0076169564854354E-4,-4.0677498327568173E-4,-7.629355430603027,21.531763076782227,-35.909934997558594,0.4490397274494171,0.6557066440582275,0.02435779571533203,0.056029737,-0.15277566,9.757713,-0.5872288,-0.5218008,9.727403,0
10,987.7872924804688,4.1714333929121494E-4,6.981639890000224E-4,-8.061910630203784E-4,-7.09379768371582,20.400461196899414,-36.311180114746094,0.4465048313140869,0.6332085132598877,0.03886890411376953,0.06318545,-0.14324228,9.748243,-0.56827384,-0.51776266,9.719143,0
10,987.7567749023438,-1.1535407975316048E-4,-1.0080542415380478E-4,1.2597214663401246E-4,-7.112466812133789,20.85698890686035,-36.181053161621094,0.4345332086086273,0.6296923756599426,0.02496623992919922,0.060781598,-0.13847537,9.75771,-0.56547534,-0.51171,9.729038,0
10,987.7694091796875,-1.1521938722580671E-4,0.0012307522119954228,1.260298304259777E-4,-7.71199369430542,21.085817337036133,-36.179039001464844,0.43649938702583313,0.621827244758606,0.0110626220703125,0.06315756,-0.14800812,9.771913,-0.57455564,-0.5065988,9.743172,0
10,987.7822265625,1.5123083721846342E-4,-1.0084912355523556E-4,9.250350994989276E-4,-7.460110664367676,21.163789749145508,-36.453369140625,0.41995954513549805,0.6469827890396118,0.020816802978515625,0.06553346,-0.15515758,9.769545,-0.5650474,-0.51771915,9.740896,0
10,987.7670288085938,1.820758916437626E-5,4.3176085455343127E-4,5.256189033389091E-4,-6.596557140350342,19.812456130981445,-36.27641296386719,0.43663448095321655,0.633946418762207,0.025847434997558594,0.058349848,-0.15277393,9.764809,-0.55639553,-0.5232802,9.736264,0
10,987.7698364257812,1.8341816030442715E-5,8.312128484249115E-4,-2.7327105635777116E-4,-7.030670166015625,21.039087295532227,-36.435264587402344,0.41954490542411804,0.6400066614151001,0.026157379150390625,0.07028538,-0.15992345,9.764808,-0.54652,-0.52631617,9.736851,0
10,987.7547607421875,-1.1468143202364445E-4,2.9855925822630525E-4,5.257342709228396E-4,-6.984880447387695,20.39723777770996,-36.55873107910156,0.4128391742706299,0.6223114728927612,0.007483482360839844,0.07027143,-0.1551566,9.767172,-0.5452634,-0.5164924,9.739743,0
10,987.775146484375,0.0012106378562748432,-7.051808061078191E-4,3.3162208274006844E-4,-7.378750801086426,20.60783576965332,-36.43337631225586,0.4110212028026581,0.6291675567626953,0.017172813415527344,0.07503727,-0.15277295,9.769539,-0.5456095,-0.50491095,9.742702,0
10,987.7802734375,8.112984942272305E-4,-5.720447516068816E-4,-6.004258757457137E-4,-7.562534332275391,20.698701858520508,-35.71751403808594,0.42282119393348694,0.6355531811714172,0.026920318603515625,0.060683906,-0.15038933,9.762436,-0.5597765,-0.49136883,9.735331,0
10,987.747314453125,9.445910109207034E-4,4.931970033794641E-4,-4.6721030957996845E-4,-6.931023597717285,20.921113967895508,-35.51990509033203,0.42091667652130127,0.6325887441635132,0.02242279052734375,0.065449774,-0.16707195,9.769536,-0.542872,-0.5218749,9.742123,0
10,987.7727661132812,0.0010778831783682108,-8.384041721001267E-4,5.981108988635242E-4,-7.332119941711426,20.229825973510742,-36.03352355957031,0.4188351333141327,0.6058855056762695,0.027396202087402344,0.06065601,-0.15277196,9.752964,-0.5522463,-0.49130306,9.726304,0
10,987.7371826171875,8.117022225633264E-4,-1.7263639892917126E-4,6.553682032972574E-5,-7.215295791625977,20.866106033325195,-36.24272155761719,0.39740216732025146,0.6072707176208496,0.03240394592285156,0.06542182,-0.1527716,9.760065,-0.5392255,-0.4963627,9.733929,0
10,987.7723388671875,-1.2026913464069366E-4,4.931314615532756E-4,4.6506826765835285E-4,-7.682372093200684,21.271738052368164,-36.425437927246094,0.4048231244087219,0.6135274171829224,0.027929306030273438,0.06779778,-0.15753777,9.750595,-0.54210657,-0.49044615,9.724666,0
10,987.7730712890625,6.72262511216104E-4,6.273310864344239E-4,4.623184213414788E-4,-7.250568389892578,21.4123477935791,-35.96131134033203,0.4142787456512451,0.6088723540306091,-2.1839141845703125E-4,0.062004805,-0.15518828,9.774393,-0.53553474,-0.49316588,9.748677,0
10,987.7730712890625,6.72262511216104E-4,6.273310864344239E-4,4.623184213414788E-4,-7.250568389892578,21.4123477935791,-35.96131134033203,0.3893948793411255,0.5976652503013611,0.042511940002441406,0.07877603,-0.15280606,9.757827,-0.51170117,-0.49774373,9.733198,0
10,987.7779541015625,-1.2988958042114973E-4,-5.739072803407907E-4,5.7069293688982725E-5,-7.0191755294799805,21.31324577331543,-36.45307922363281,0.40654632449150085,0.5896625518798828,0.01907634735107422,0.066868365,-0.14565732,9.7673,-0.5266274,-0.4781251,9.742684,0
10,987.7625732421875,8.018126245588064E-4,4.914217279292643E-4,-7.626146543771029E-5,-7.3798370361328125,21.34441566467285,-36.630279541015625,0.39472782611846924,0.6058481335639954,0.019309043884277344,0.07169002,-0.15995793,9.7696705,-0.52363455,-0.48993033,9.744895,0
10,987.757568359375,2.4616019800305367E-6,-3.0746040283702314E-4,-7.643422577530146E-5,-7.325596332550049,20.97377586364746,-36.61695098876953,0.40668806433677673,0.593223512172699,0.010087013244628906,0.052612662,-0.14804257,9.767307,-0.5394585,-0.46746224,9.742456,0
10,987.7727661132812,8.010058663785458E-4,3.583947545848787E-4,4.5602465979754925E-4,-7.467040538787842,20.89405632019043,-36.66747283935547,0.4045058786869049,0.5996003746986389,0.029262542724609375,0.055044413,-0.15995999,9.767311,-0.539451,-0.47453985,9.74232,0
10,987.7727661132812,8.010058663785458E-4,3.583947545848787E-4,4.5602465979754925E-4,-7.483101844787598,20.615476608276367,-36.41773986816406,0.38286465406417847,0.5965194702148438,0.024778366088867188,0.07181555,-0.159961,9.772049,-0.5192478,-0.47778207,9.748117,0
10,987.7779541015625,-1.3150309678167105E-4,4.916182369925082E-4,5.6377844884991646E-5,-7.411277770996094,20.52488899230957,-36.7314453125,0.39989274740219116,0.5837249755859375,0.03448200225830078,0.059907854,-0.15281217,9.755483,-0.52297556,-0.46731532,9.731623,0
10,987.7807006835938,5.338832270354033E-4,2.2536778124049306E-4,4.5567884808406234E-4,-7.349129676818848,20.79374885559082,-36.679771423339844,0.38358646631240845,0.561652660369873,0.011028289794921875,0.062339604,-0.13851358,9.767323,-0.5179359,-0.4488644,9.7444315,0
10,987.757568359375,5.334798479452729E-4,-9.729881421662867E-4,7.218217942863703E-4,-7.461090087890625,20.794031143188477,-36.277610778808594,0.40564900636672974,0.5916458368301392,0.020722389221191406,0.052821904,-0.15996404,9.781528,-0.5264753,-0.4696387,9.757508,0
11,987.7753295898438,-6.653451127931476E-4,-1.739750150591135E-4,-2.104566665366292E-4,-7.382880210876465,21.341463088989258,-36.475669860839844,0.38467976450920105,0.570022702217102,0.02564716339111328,0.06959307,-0.14328219,9.764962,-0.51346177,-0.44307354,9.742685,0
11,987.7735595703125,6.65831146761775E-4,-3.070675302296877E-4,7.214759243652225E-4,-7.923601150512695,21.204076766967773,-36.69224166870117,0.39223527908325195,0.576408326625824,0.044806480407714844,0.057685375,-0.15281631,9.75313,-0.51815665,-0.4531117,9.730182,0
11,987.7779541015625,1.3279588893055916E-4,-8.396338089369237E-4,5.881452234461904E-4,-7.412799835205078,20.52341651916504,-36.65414047241211,0.394453763961792,0.5735524892807007,0.026101112365722656,0.06250706,-0.1623504,9.76497,-0.51581913,-0.45907846,9.742079,0
11,987.7779541015625,7.981822127476335E-4,9.253725875169039E-5,3.2165658194571733E-4,-7.551880836486816,20.709009170532227,-36.25864791870117,0.3785785436630249,0.5798664689064026,0.021567344665527344,0.06493878,-0.16711803,9.764974,-0.5088464,-0.4655475,9.742238,0
11,987.7807006835938,-1.3432675041258335E-4,-4.055519821122289E-5,-7.799011655151844E-5,-7.434513092041016,20.976999282836914,-36.36940002441406,0.3810490071773529,0.557914674282074,0.026521682739257812,0.067370534,-0.1432863,9.767344,-0.48854914,-0.45116925,9.745966,0
11,987.765380859375,2.647438086569309E-4,-8.394372998736799E-4,-2.1132093388587236E-4,-6.7822675704956055,20.376054763793945,-36.28077697753906,0.36929163336753845,0.5646859407424927,0.03619861602783203,0.07219219,-0.15997018,9.753145,-0.4934152,-0.4561269,9.731554,0
11,987.7679443359375,1.3118248898535967E-4,9.273365139961243E-5,-3.446517512202263E-4,-7.385381698608398,20.970232009887695,-36.22261047363281,0.3670075237751007,0.5807722806930542,0.036418914794921875,0.06984419,-0.16473784,9.767352,-0.49920133,-0.45337662,9.7456875,0
11,987.7781982421875,0.0010628846939653158,0.0012912207748740911,-7.442985661327839E-4,-7.605440139770508,20.817277908325195,-36.87260437011719,0.36975952982902527,0.5397975444793701,0.017681121826171875,0.060326397,-0.15043919,9.774459,-0.49992785,-0.4379691,9.753182,0
11,987.7709350585938,2.631301758810878E-4,-1.733857352519408E-4,3.2061932142823935E-4,-7.695389270782471,20.99610710144043,-36.33031463623047,0.3818000555038452,0.5603839755058289,0.022644996643066406,0.050808668,-0.16235657,9.760259,-0.5126426,-0.4391945,9.738371,0
11,987.7785034179688,-6.69378787279129E-4,0.0014245749916881323,8.5307820700109E-4,-7.611528396606445,20.811384201049805,-36.563385009765625,0.365194171667099,0.5382521748542786,0.013394355773925781,0.06279999,-0.14567472,9.7697315,-0.49366522,-0.4248865,9.749287,0
11,987.7634887695312,1.291654771193862E-4,2.2621912648901343E-4,3.202734515070915E-4,-7.642778396606445,21.730337142944336,-36.61233901977539,0.3582954406738281,0.5402668714523315,0.03252887725830078,0.070011556,-0.15759213,9.767368,-0.4832932,-0.44017366,9.746994,0
11,987.78369140625,-4.395842552185059E-6,-5.726630333811045E-4,4.5325845712795854E-4,-7.866018295288086,21.468515396118164,-36.408653259277344,0.3611541986465454,0.5180751085281372,0.03273200988769531,0.06527364,-0.15282656,9.769739,-0.48964855,-0.42570525,9.749587,0
11,987.7959594726562,-4.799221642315388E-6,-1.7312374257016927E-4,5.862435791641474E-4,-8.287986755371094,21.494672775268555,-36.114200592041016,0.34490856528282166,0.543483316898346,0.01873302459716797,0.08443469,-0.15759416,9.769743,-0.4774418,-0.42439562,9.750475,0
11,987.7481689453125,3.9427110459655523E-4,4.927314002998173E-4,-2.12877057492733E-4,-7.748107433319092,21.368215560913086,-36.42095184326172,0.38582995533943176,0.5406641364097595,0.02366352081298828,0.05101794,-0.15282865,9.760278,-0.49633402,-0.41837075,9.739999,0
11,987.7913818359375,-2.7192174457013607E-4,2.264809445478022E-4,-3.462077584117651E-4,-7.2798075675964355,20.331926345825195,-36.740413665771484,0.33107778429985046,0.5375248789787292,0.004935264587402344,0.05583954,-0.15997948,9.769751,-0.48763782,-0.42838758,9.749637,0
11,987.75830078125,-2.723252400755882E-4,2.2654648637399077E-4,4.525671247392893E-4,-7.733867168426514,21.013185501098633,-37.01824951171875,0.3398759365081787,0.49195361137390137,0.024194717407226562,0.04965663,-0.15517853,9.755419,-0.4936257,-0.4142617,9.735474,0
11,987.7635498046875,8.029291057027876E-4,8.922017877921462E-4,5.933712236583233E-5,-7.550764083862305,21.1846866607666,-37.13348388671875,0.30902549624443054,0.5179383158683777,0.029123306274414062,0.078320265,-0.16232802,9.755417,-0.461137,-0.43113866,9.736638,0
11,987.7457275390625,5.817681085318327E-6,6.255877669900656E-4,-2.0619190763682127E-4,-7.716421604156494,21.187314987182617,-36.646202087402344,0.335343599319458,0.4816664457321167,0.029336929321289062,0.06157574,-0.1384948,9.762518,-0.47189522,-0.39788783,9.744164,0
11,987.7863159179688,-1.2719345977529883E-4,7.58721842430532E-4,8.591345977038145E-4,-7.958874225616455,21.750322341918945,-36.410831451416016,0.33357107639312744,0.521693229675293,0.029521942138671875,0.080679744,-0.15279408,9.757782,-0.45637766,-0.41230536,9.739913,0
11,987.7711181640625,2.724271616898477E-4,-3.0656554736196995E-4,6.02498184889555E-5,-8.034881591796875,20.941980361938477,-36.890708923339844,0.37462958693504333,0.5237080454826355,0.010771751403808594,0.049595743,-0.1480272,9.779085,-0.48812878,-0.39202744,9.760274,0
11,987.7710571289062,-9.258476202376187E-4,-1.7343135550618172E-4,-4.7231907956302166E-4,-7.760008335113525,21.568265914916992,-37.20066833496094,0.3286949694156647,0.5139496326446533,0.02055072784423828,0.06391993,-0.1551766,9.771982,-0.46570292,-0.40877885,9.75376,0
11,987.7963256835938,-5.262268823571503E-4,3.591765998862684E-4,-7.278227712959051E-5,-8.169395446777344,21.13199806213379,-36.727134704589844,0.33727189898490906,0.5315589904785156,0.03958320617675781,0.080634,-0.16470937,9.750675,-0.4578714,-0.4089496,9.733058,0
11,987.7539672851562,4.137626674491912E-4,-9.78719035629183E-5,-3.5750243114307523E-4,-8.098934173583984,21.566152572631836,-35.83958435058594,0.3689139187335968,0.519178032875061,0.020827293395996094,0.04716015,-0.15517591,9.767245,-0.48326832,-0.39125833,9.748781,0
11,987.7590942382812,4.139095835853368E-4,1.6842014156281948E-4,1.7519225366413593E-4,-7.228832721710205,21.379072189331055,-34.42302703857422,0.33370673656463623,0.5119807124137878,0.035193443298339844,0.06865403,-0.1623254,9.757775,-0.44946972,-0.41580945,9.74014,0
11,987.7539672851562,-7.8436522744596E-4,3.5238335840404034E-5,3.084131167270243E-4,-6.786512851715088,21.424081802368164,-33.80096435546875,0.34157392382621765,0.4994294047355652,0.030638694763183594,0.04951957,-0.14802535,9.767242,-0.45562112,-0.40284032,9.74954,0
12,987.781982421875,9.468347998335958E-4,-7.63733172789216E-4,4.2160158045589924E-5,-6.966273307800293,21.88765525817871,-33.41546630859375,0.3346153199672699,0.5019245743751526,0.05448341369628906,0.054284215,-0.15517475,9.748303,-0.45632502,-0.40064818,9.730762,0
12,987.7586669921875,1.4803410158492625E-4,3.0150654492899776E-4,-6.235666223801672E-4,-7.277122497558594,21.649682998657227,-34.04650115966797,0.33764803409576416,0.47508180141448975,0.035724639892578125,0.06382856,-0.14325799,9.764873,-0.44102025,-0.39109576,9.748326,0
12,987.77392578125,1.4818090130575E-4,3.516682772897184E-5,4.228594480082393E-5,-6.934342384338379,20.706331253051758,-33.967140197753906,0.3316456973552704,0.5009621977806091,0.035872459411621094,0.06381333,-0.14802416,9.762504,-0.4285317,-0.40605065,9.745971,0
12,987.779052734375,2.814856416080147E-4,-0.0012964364141225815,-2.2396695567294955E-4,-6.368429183959961,21.131135940551758,-34.4641227722168,0.33453482389450073,0.5032376646995544,0.007630348205566406,0.06618798,-0.15040709,9.774339,-0.4339577,-0.39751616,9.757989,0
12,987.7844848632812,-6.504732882604003E-4,3.5119184758514166E-5,5.750436102971435E-4,-6.930181503295898,21.184953689575195,-34.99658203125,0.3426549732685089,0.49561411142349243,0.03619670867919922,0.059003055,-0.14802344,9.762501,-0.4398582,-0.38835883,9.746154,0
12,987.7844848632812,-6.504732882604003E-4,3.5119184758514166E-5,5.750436102971435E-4,-7.214155673980713,21.762094497680664,-35.294532775878906,0.3266926407814026,0.49277830123901367,0.03635978698730469,0.058987796,-0.15517284,9.760132,-0.4491524,-0.3815198,9.743739,0
12,987.7719116210938,-2.5085252127610147E-4,-0.0010301681468263268,7.082644151523709E-4,-7.773843288421631,21.4490909576416,-35.80584716796875,0.3387591242790222,0.48980915546417236,0.03182029724121094,0.06375235,-0.15755577,9.762498,-0.4450857,-0.37972406,9.746434,0
12,987.779052734375,2.8192592435516417E-4,7.008612155914307E-4,4.2537576518952847E-5,-7.753790855407715,20.88811683654785,-35.31420135498047,0.32246658205986023,0.4772406816482544,0.04146862030029297,0.061347246,-0.14563908,9.745926,-0.43715292,-0.36902615,9.730403,0
12,987.7816162109375,-0.0014489805325865746,5.676794680766761E-4,3.0891638016328216E-4,-7.537479400634766,20.88020133972168,-35.73199462890625,0.32546091079711914,0.48396360874176025,0.022698402404785156,0.061332047,-0.15755503,9.769597,-0.4416313,-0.37571043,9.7538395,0
12,987.792236328125,-3.8357017911039293E-4,4.344976623542607E-4,1.758214202709496E-4,-7.857024669647217,21.37143898010254,-36.17340087890625,0.30907827615737915,0.48113226890563965,0.01340484619140625,0.066096604,-0.15993793,9.776697,-0.43768293,-0.37453914,9.761248,0
12,987.779052734375,-5.165812326595187E-4,3.50000336766243E-5,0.0012411478674039245,-7.955424785614014,21.2790584564209,-35.767913818359375,0.31222042441368103,0.4926697611808777,0.03723430633544922,0.066081405,-0.16232087,9.76486,-0.4291829,-0.38158217,9.749534,0
12,987.756591796875,-5.164345493540168E-4,3.0129216611385345E-4,7.085789693519473E-4,-7.538022041320801,21.24848747253418,-35.8304443359375,0.3056228756904602,0.460904061794281,0.02320575714111328,0.07562575,-0.14802088,9.764858,-0.4138882,-0.3674705,9.750576,0
12,987.756591796875,-3.8312989636324346E-4,4.3442624155431986E-4,5.754840094596148E-4,-7.434650421142578,20.87108039855957,-35.670318603515625,0.31343191862106323,0.46288633346557617,0.028100013732910156,0.06605092,-0.15278699,9.76249,-0.42183968,-0.36725968,9.747876,0
12,987.7489624023438,-7.824568310752511E-4,3.012444358319044E-4,-4.897165927104652E-4,-7.3267130851745605,20.49809455871582,-35.74211502075195,0.3307846784591675,0.46945029497146606,0.03299999237060547,0.05408615,-0.15516992,9.762488,-0.42269796,-0.3741861,9.747538,0
12,987.7924194335938,-0.001314941793680191,-9.825325105339289E-5,4.2978033889085054E-5,-6.841073513031006,20.742280960083008,-36.06218719482422,0.30989357829093933,0.4716348648071289,0.033150672912597656,0.05248922,-0.15518938,9.764928,-0.4268971,-0.36618942,9.750094,0
12,987.7772827148438,-3.8268938078545034E-4,3.011968219652772E-4,-6.22748804744333E-4,-7.255975723266602,21.144086837768555,-36.252716064453125,0.3111441135406494,0.4595510959625244,0.028421401977539062,0.060500443,-0.15759327,9.776841,-0.41708612,-0.36962467,9.762405,0
12,987.7794799804688,1.443052024114877E-4,3.579596523195505E-5,-9.253289317712188E-5,-7.235486030578613,21.3211612701416,-36.03528594970703,0.29511719942092896,0.45197463035583496,0.03330039978027344,0.070109546,-0.1552112,9.765009,-0.40498573,-0.3665583,9.751206,0
12,987.7899169921875,-1.2728228466585279E-4,4.3168978299945593E-4,-2.3349840193986893E-4,-7.061270236968994,20.483407974243164,-36.01310729980469,0.2982223331928253,0.45883917808532715,0.02870464324951172,0.07015902,-0.15759571,9.772116,-0.4040123,-0.366427,9.758408,0
12,987.777099609375,-9.267067653127015E-4,5.649251397699118E-4,5.652447580359876E-4,-6.690636157989502,20.724924087524414,-35.77642059326172,0.30103257298469543,0.4702838063240051,0.03832817077636719,0.06064892,-0.15759696,9.750816,-0.40318766,-0.3685456,9.736968,0
12,987.7772827148438,-3.9455207297578454E-4,1.655287342146039E-4,1.6556656919419765E-4,-6.85006856918335,20.8393611907959,-36.29743576049805,0.3036821782588959,0.4345400929450989,0.024270057678222656,0.06786811,-0.14329852,9.772125,-0.39291725,-0.3530444,9.759127,0
12,987.77197265625,-3.9502879371866584E-4,6.982379127293825E-4,2.985201426781714E-4,-6.901700496673584,20.474889755249023,-36.19116973876953,0.287521630525589,0.4460063576698303,0.048089027404785156,0.07508734,-0.15283276,9.753192,-0.38748068,-0.35872713,9.740377,0
12,987.779052734375,-5.286639207042754E-4,1.6568356659263372E-4,3.1999778002500534E-5,-7.0745320320129395,21.208200454711914,-35.59157180786133,0.2954624593257904,0.4384636878967285,0.038756370544433594,0.06318727,-0.1576006,9.762665,-0.39866966,-0.3579496,9.749429,0
12,987.7718505859375,-5.29141107108444E-4,-1.0055485472548753E-4,4.312692326493561E-4,-6.874281883239746,20.921709060668945,-35.75963592529297,0.28422701358795166,0.4500277042388916,0.005751609802246094,0.06323677,-0.15998508,9.781607,-0.39585987,-0.36052373,9.7684555,0
12,987.7922973632812,-6.627760012634099E-4,-1.0047740943264216E-4,1.6474886797368526E-4,-6.8933868408203125,20.64018440246582,-35.35529327392578,0.287505567073822,0.4426390528678894,0.034282684326171875,0.063286245,-0.16236956,9.755572,-0.3950436,-0.35819387,9.742546,0
13,987.7769165039062,-5.30094897840172E-4,-4.998737713322043E-4,-2.3492926266044378E-4,-6.587807655334473,20.71580696105957,-35.714744567871094,0.2811569571495056,0.44939929246902466,0.048618316650390625,0.065725684,-0.15998746,9.757944,-0.38489586,-0.3598317,9.745242,0
13,987.7899169921875,-2.6425597025081515E-4,-1.0032253339886665E-4,-1.0197586379945278E-4,-6.433345794677734,21.071157455444336,-35.759342193603516,0.2940044701099396,0.4421880841255188,0.05820465087890625,0.068165064,-0.16475524,9.755581,-0.37790644,-0.36680123,9.742988,0
13,987.7974853515625,-3.978910972364247E-4,-2.3340301413554698E-4,9.630832355469465E-4,-6.470439434051514,20.983793258666992,-35.82550048828125,0.2924639880657196,0.4346519112586975,0.02045726776123047,0.058654934,-0.15522338,9.776892,-0.3847661,-0.35239422,9.76437,0
13,987.7745971679688,-2.6521034305915236E-4,-1.0016764281317592E-4,3.077322617173195E-5,-6.609818935394287,20.537256240844727,-35.85487365722656,0.28600943088531494,0.432142972946167,0.03951835632324219,0.06826407,-0.15999116,9.762692,-0.3776834,-0.35277194,9.750556,0
13,987.7693481445312,-6.651611183770001E-4,1.6622571274638176E-4,4.3004262261092663E-4,-6.2394819259643555,20.146631240844727,-36.043052673339844,0.28903695940971375,0.42952436208724976,0.03491401672363281,0.06831354,-0.15045924,9.767431,-0.36907846,-0.34602985,9.75572,0
13,987.769287109375,-3.9932207437232137E-4,2.994610113091767E-4,-2.3595162201672792E-4,-6.3987531661987305,20.78728675842285,-35.44012451171875,0.28725698590278625,0.42718052864074707,0.030302047729492188,0.0659731,-0.15761022,9.767436,-0.3714275,-0.3498837,9.755595,0
13,987.7719116210938,-1.3348303036764264E-4,-3.6625118809752166E-4,1.6331777442246675E-4,-6.0082268714904785,19.941606521606445,-35.83573913574219,0.2805359363555908,0.42339569330215454,0.025730133056640625,0.066022575,-0.1599948,9.779276,-0.36752352,-0.35364497,9.7675,0
13,987.7743530273438,-4.002760979346931E-4,-7.6564762275666E-4,4.294293175917119E-4,-5.935263633728027,20.74700355529785,-35.20124816894531,0.303615927696228,0.4080066680908203,0.03525543212890625,0.04934275,-0.15046291,9.765078,-0.37578294,-0.34208786,9.753132,0
13,987.7737426757812,2.650367678143084E-4,4.3285125866532326E-4,5.623829201795161E-4,-6.068554878234863,20.30635643005371,-35.53984832763672,0.2781292200088501,0.40538686513900757,0.01643657684326172,0.058951855,-0.140931,9.769816,-0.36582062,-0.32905015,9.758615,0
13,987.783935546875,-0.0010670195333659649,-2.3286098439712077E-4,2.9546907171607018E-5,-6.460902214050293,20.5184268951416,-35.491798400878906,0.27633243799209595,0.41238290071487427,0.04023170471191406,0.070950836,-0.15284853,9.769821,-0.35980138,-0.33566308,9.758877,0
13,987.7719116210938,-0.0013338127173483372,-9.962562762666494E-5,-6.364474538713694E-4,-5.873658180236816,21.384157180786133,-35.24803161621094,0.27979519963264465,0.41935616731643677,0.04033851623535156,0.061440706,-0.15761639,9.762724,-0.36108178,-0.34321955,9.751474,0
13,987.7736206054688,6.129348184913397E-4,-6.449584616348147E-4,1.3831770047545433E-4,-6.003500938415527,20.47224998474121,-34.94370651245117,0.2826545834541321,0.41114455461502075,0.04522132873535156,0.063880116,-0.15761758,9.762729,-0.35793036,-0.34074974,9.751696,0
13,987.7736206054688,6.129348184913397E-4,-6.449584616348147E-4,1.3831770047545433E-4,-6.003500938415527,20.47224998474121,-34.94370651245117,0.28168222308158875,0.4004032611846924,0.040549278259277344,0.06153971,-0.15285225,9.762733,-0.35264397,-0.33845705,9.751882,0
13,987.7662963867188,2.1298392675817013E-4,6.866983021609485E-4,-7.939923088997602E-4,-5.874499320983887,21.120309829711914,-35.7713508605957,0.2707037925720215,0.40775609016418457,0.00750732421875,0.06397909,-0.15047015,9.779307,-0.35408399,-0.32931787,9.768713,0
13,987.7662963867188,7.934891618788242E-5,-0.0014437513891607523,-5.278808530420065E-4,-6.147712707519531,20.601411819458008,-36.23777770996094,0.2694992125034332,0.4104726314544678,0.026531219482421875,0.071198285,-0.15762122,9.762742,-0.34973732,-0.33241415,9.752346,0
13,987.7587280273438,-3.2060209196060896E-4,-5.115682724863291E-4,4.546425770968199E-6,-6.190487861633301,20.033945083618164,-35.197181701660156,0.26859256625175476,0.40336960554122925,0.05037879943847656,0.06334412,-0.15522106,9.765047,-0.35044318,-0.33112738,9.754579,0
13,987.7587280273438,-3.2060209196060896E-4,-5.115682724863291E-4,4.546425770968199E-6,-5.979286193847656,20.389902114868164,-35.481510162353516,0.2717244327068329,0.3914009928703308,0.04575920104980469,0.0681442,-0.14330532,9.753212,-0.34077024,-0.31815547,9.743354,0
13,987.7763061523438,-4.439104814082384E-4,8.138034027069807E-4,1.3638118980452418E-4,-6.127903938293457,21.040864944458008,-35.419715881347656,0.2748928666114807,0.41331014037132263,0.055327415466308594,0.060994804,-0.16713853,9.750847,-0.35364386,-0.335412,9.740283,0
13,987.7685546875,7.560356752946973E-4,4.1408216929994524E-4,1.370347454212606E-4,-6.1434221267700195,20.393999099731445,-35.071537017822266,0.25890204310417175,0.38741934299468994,0.04596138000488281,0.06340498,-0.14092298,9.753216,-0.34469345,-0.30740225,9.7435,0
13,987.7637939453125,-4.310754593461752E-5,4.14113950682804E-4,-2.625228953547776E-4,-6.226602554321289,20.316347122192383,-35.43909454345703,0.2766186594963074,0.39035844802856445,0.027112960815429688,0.05625555,-0.15283982,9.774523,-0.34747118,-0.32278466,9.764369,0
13,987.7914428710938,0.0010219606338068843,1.4671793906018138E-5,-7.952383602969348E-4,-5.852924346923828,20.560815811157227,-35.357017517089844,0.26077747344970703,0.40723884105682373,0.036681175231933594,0.07061523,-0.17190655,9.765057,-0.3360968,-0.3416747,9.755058,0
13,987.7730102539062,-4.3498585000634193E-5,-5.179282161407173E-4,-1.2953259283676744E-4,-5.899829864501953,20.72697639465332,-34.35871124267578,0.2740964889526367,0.385948121547699,0.046235084533691406,0.05629611,-0.15999071,9.774527,-0.3480548,-0.3233925,9.764447,0
13,987.8041381835938,2.226217184215784E-4,-3.8473852328024805E-4,-0.001594353700056672,-5.994368553161621,20.481088638305664,-35.40753936767578,0.2531929612159729,0.3695818781852722,0.04160594940185547,0.07543564,-0.140925,9.750856,-0.32368234,-0.30541772,9.742006,0
13,987.7711181640625,4.887421382591128E-4,1.476702163927257E-5,8.024054113775492E-4,-6.0149946212768555,20.198091506958008,-34.9258918762207,0.2705845832824707,0.3866123855113983,0.03223896026611328,0.051556885,-0.15522511,9.757959,-0.33854744,-0.32302123,9.748106,0
13,987.7913208007812,8.907285518944263E-5,6.805885350331664E-4,-3.9609981467947364E-4,-5.444516181945801,20.627317428588867,-35.65479278564453,0.25957074761390686,0.3986082971096039,0.022869110107421875,0.06352669,-0.15760888,9.769798,-0.33057937,-0.32114697,9.760401,0
14,987.7836303710938,-3.105966607108712E-4,-1.1832744348794222E-4,-3.9618363371118903E-4,-5.807380199432373,20.91938591003418,-35.15406036376953,0.25350022315979004,0.39655885100364685,0.05136299133300781,0.063546956,-0.16952576,9.765065,-0.33133593,-0.33087772,9.755513,0
14,987.77099609375,2.2183975670486689E-4,-2.5145363179035485E-4,-3.962674527429044E-4,-5.745530128479004,20.55611228942871,-35.527259826660156,0.26157820224761963,0.3756512999534607,0.05145072937011719,0.061177343,-0.15284337,9.760332,-0.3320346,-0.30840626,9.751197,0
14,987.7609252929688,3.546065418049693E-4,8.138733683153987E-4,-3.964349743910134E-4,-5.512752532958984,20.352563858032227,-35.397247314453125,0.2500000596046448,0.37840718030929565,0.027886390686035156,0.05880773,-0.15522714,9.767437,-0.3264803,-0.31541854,9.758294,0
14,987.7886962890625,-4.5062857680022717E-5,9.470629738643765E-4,-6.628347910009325E-4,-5.538351058959961,20.53935432434082,-35.48121643066406,0.24853968620300293,0.36683976650238037,0.018507957458496094,0.06599775,-0.1480778,9.772173,-0.31622225,-0.30839223,9.763532,0
14,987.74755859375,3.5421561915427446E-4,-1.1816871119663119E-4,-1.3028673129156232E-4,-5.545279502868652,20.26961326599121,-35.69532012939453,0.24252212047576904,0.3837321400642395,0.028061866760253906,0.0707978,-0.15761138,9.772175,-0.31269717,-0.31596157,9.763587,0
14,987.7807006835938,-5.780855426564813E-4,-1.1813701712526381E-4,2.691032423172146E-4,-5.800748825073242,20.55698585510254,-35.36483383178711,0.25073954463005066,0.36745795607566833,0.03287982940673828,0.06842822,-0.15761183,9.776911,-0.31648192,-0.31087625,9.768352,0
14,987.7880859375,6.201403448358178E-4,-2.5126320542767644E-4,2.690195105969906E-4,-5.91713809967041,20.658761978149414,-35.429832458496094,0.24914103746414185,0.3701188564300537,0.023504257202148438,0.066058576,-0.16237898,9.77928,-0.31928968,-0.31194225,9.770659,0
14,987.7853393554688,3.536288859322667E-4,0.0012135059805586934,-9.29485831875354E-4,-5.883524417877197,20.005128860473633,-34.93486022949219,0.24261274933815002,0.3731350898742676,0.033064842224121094,0.06846875,-0.16714601,9.762711,-0.31732172,-0.313559,9.754185,0
14,987.7423095703125,0.0010192232439294457,1.4827409177087247E-4,2.6885190163739026E-4,-5.70096492767334,20.544931411743164,-35.1485481262207,0.2315554916858673,0.37116289138793945,0.02841663360595703,0.078048676,-0.14808027,9.767447,-0.29790905,-0.29975206,9.759737,0
14,987.7830810546875,-1.7939379904419184E-4,4.1462163790129125E-4,-1.3070571003481746E-4,-6.026895523071289,20.39813804626465,-35.70560836791992,0.24915367364883423,0.3550027310848236,0.03797149658203125,0.063729525,-0.14569749,9.772182,-0.31421062,-0.28813,9.764174,0
14,987.7777099609375,-4.4590525794774294E-4,6.809694459661841E-4,-0.0011960531119257212,-6.047086715698242,20.85319709777832,-35.498172760009766,0.23352879285812378,0.3577176034450531,0.04278564453125,0.068529636,-0.15523101,9.760349,-0.30865234,-0.2976152,9.752403,0
14,987.757568359375,4.860047483816743E-4,-3.8426241371780634E-4,-0.0011961369309574366,-5.837841987609863,20.469621658325195,-35.43098831176758,0.23228216171264648,0.365365207195282,0.038127899169921875,0.07332975,-0.1576149,9.772186,-0.30178785,-0.30114695,9.764429,0
14,987.7902221679688,-4.462961805984378E-4,-6.505465134978294E-4,-1.3095710892230272E-4,-5.749659538269043,21.289743423461914,-35.569549560546875,0.23133933544158936,0.33909398317337036,0.038204193115234375,0.06618029,-0.14569901,9.76272,-0.30102763,-0.28922212,9.755104,0
14,987.75732421875,-8.459656964987516E-4,-0.0010499886702746153,-3.973566344939172E-4,-5.865505218505859,21.02323341369629,-35.536102294921875,0.24932754039764404,0.3512348532676697,0.033545494079589844,0.056640983,-0.1528493,9.765089,-0.3126771,-0.28994983,9.757137,0
14,987.7723388671875,-8.461611578240991E-4,-1.1785131937358528E-4,-1.311246887780726E-4,-5.757568359375,20.650243759155273,-35.60789489746094,0.2431163191795349,0.3538458049297333,0.04309844970703125,0.058674276,-0.1576071,9.767425,-0.3096739,-0.29357058,9.759548,0
14,987.8103637695312,-4.459790652617812E-4,4.146654682699591E-4,2.6865265681408346E-4,-5.137850761413574,19.96636390686035,-35.817344665527344,0.23287123441696167,0.3373607099056244,0.057457923889160156,0.06307456,-0.14091487,9.755552,-0.2934591,-0.28272223,9.7482605,0
14,987.774658203125,9.294773917645216E-5,4.1364357457496226E-4,-9.270710288546979E-4,-5.758546829223633,20.280481338500977,-35.4321403503418,0.22191783785820007,0.344931036233902,0.02913188934326172,0.07023415,-0.15521426,9.772123,-0.29572988,-0.28899562,9.764858,0
14,987.7694091796875,-7.059021154418588E-4,8.131015347316861E-4,-9.270288865081966E-4,-5.73653507232666,20.45903205871582,-35.29200744628906,0.23972061276435852,0.3618803024291992,0.04815196990966797,0.060664356,-0.16474713,9.755552,-0.30416256,-0.29492888,9.747929,0
14,987.7796020507812,2.2630137391388416E-4,-6.516517605632544E-4,-3.94355331081897E-4,-5.615581035614014,20.36168098449707,-35.45892333984375,0.22908815741539001,0.331363320350647,0.0245513916015625,0.060654223,-0.14329745,9.77212,-0.29740155,-0.27390814,9.764994,0
14,987.8026123046875,-4.3939054012298584E-4,-6.516675930470228E-4,5.1604583859443665E-6,-6.058038711547852,20.21074867248535,-35.38190841674805,0.2232835292816162,0.3388923406600952,0.02935504913330078,0.065423906,-0.15759684,9.786324,-0.30425167,-0.27731144,9.779151,0
14,987.775146484375,9.333901107311249E-5,-9.17999423108995E-4,-3.9427151205018163E-4,-6.453973770141602,20.788164138793945,-35.2776985168457,0.23148736357688904,0.33236587047576904,0.03890037536621094,0.06780365,-0.15283008,9.772119,-0.29355773,-0.2771396,9.765205,0
14,987.75927734375,-5.723529029637575E-4,6.798800313845277E-4,-5.27387426700443E-4,-5.817789077758789,19.908647537231445,-34.93934631347656,0.22070547938346863,0.34440359473228455,0.04844856262207031,0.06540358,-0.15282984,9.7555485,-0.2920273,-0.27620694,9.748683,0
14,987.79248046875,-1.7278117593377829E-4,-3.8539935485459864E-4,-5.273456335999072E-4,-5.719388961791992,20.00103187561035,-35.3448371887207,0.22447657585144043,0.3426749110221863,0.05324554443359375,0.06539345,-0.15997936,9.757914,-0.29222605,-0.28185257,9.750995,0
14,987.789794921875,4.93106315843761E-4,-5.185731570236385E-4,-3.941456670872867E-4,-5.830232620239258,20.47698402404785,-35.81751251220703,0.22321352362632751,0.355057030916214,0.024913787841796875,0.065383255,-0.16474558,9.774483,-0.2978101,-0.27920967,9.767563,0
15,987.7567749023438,3.452218952588737E-4,3.191065916325897E-4,-3.111632540822029E-4,-6.223559379577637,20.31929588317871,-35.59370422363281,0.22676825523376465,0.32961857318878174,0.02971363067626953,0.06537315,-0.15282895,9.769749,-0.2916069,-0.26811123,9.76313,0
15,987.7567749023438,3.452218952588737E-4,3.191065916325897E-4,-3.111632540822029E-4,-6.088202953338623,20.39312171936035,-35.23396301269531,0.2064562439918518,0.3418935537338257,0.04872417449951172,0.07253271,-0.1647451,9.757912,-0.28022662,-0.28476512,9.751391,0
15,987.7465209960938,-3.204700187779963E-4,-8.038310625124723E-5,2.2151059238240123E-4,-5.753002166748047,20.654664993286133,-35.83980941772461,0.22866293787956238,0.3349434435367584,0.05354785919189453,0.055793256,-0.1623616,9.755543,-0.30214453,-0.26796955,9.748691,0
15,987.7769165039062,7.91015918366611E-5,1.8591692787595093E-4,-1.7792137805372477E-4,-6.314350128173828,20.234277725219727,-35.574745178222656,0.22758188843727112,0.32855725288391113,0.03940582275390625,0.06295282,-0.16474466,9.762644,-0.29539308,-0.2699211,9.756035,0
15,987.7413940429688,-1.8711650045588613E-4,8.516907691955566E-4,8.84364708326757E-5,-6.232989311218262,19.678316116333008,-35.554744720458984,0.22125139832496643,0.32232481241226196,0.04421043395996094,0.05577296,-0.14806147,9.769745,-0.28999934,-0.25857437,9.763299,0
15,987.7899169921875,7.45086872484535E-4,-7.462203502655029E-4,-1.7783755902200937E-4,-5.7443060874938965,19.925447463989258,-36.02943420410156,0.21017664670944214,0.34930694103240967,0.04428291320800781,0.0653224,-0.16236092,9.772111,-0.28748137,-0.26780203,9.765778,0
15,987.7997436523438,6.120268371887505E-4,0.001117974752560258,-1.7779564950615168E-4,-6.1994829177856445,20.13102912902832,-35.43243408203125,0.21860429644584656,0.3139951825141907,0.030145645141601562,0.06053245,-0.15282758,9.767376,-0.28493935,-0.25924826,9.761162,0
15,987.76416015625,4.789666854776442E-4,4.521693044807762E-4,-1.7775373999029398E-4,-5.965725898742676,20.2972354888916,-35.478179931640625,0.20778417587280273,0.3120248317718506,0.034951210021972656,0.07725161,-0.15759386,9.769741,-0.2698806,-0.2644195,9.76401,0
15,987.764404296875,-5.861990503035486E-4,-2.1363628911785781E-4,4.8807793064042926E-4,-6.317638397216797,21.23175621032715,-35.093711853027344,0.20215344429016113,0.31974780559539795,0.030271530151367188,0.06768191,-0.1432939,9.772108,-0.2716773,-0.24994624,9.7664175,0
15,987.7361450195312,-3.197853802703321E-4,-3.4681009128689766E-4,3.5496189957484603E-4,-5.983554363250732,21.01761817932129,-34.82472229003906,0.21034562587738037,0.31816768646240234,0.03033733367919922,0.06767169,-0.15759327,9.769739,-0.27874348,-0.25667834,9.763895,0
15,987.75927734375,4.792601685039699E-4,3.1896375003270805E-4,-4.4470070861279964E-5,-6.324865341186523,20.32988166809082,-35.73268127441406,0.2136743664741516,0.31609106063842773,0.03514862060546875,0.06766158,-0.15520974,9.769739,-0.27451736,-0.25459796,9.76403,0
15,987.7618408203125,-1.864317455329001E-4,7.18421651981771E-4,6.213615415617824E-4,-6.048364162445068,19.85129737854004,-35.74728775024414,0.21219280362129211,0.30960139632225037,0.04942131042480469,0.05809182,-0.15759279,9.755535,-0.2805956,-0.2548259,9.749615,0
15,987.7665405273438,4.795535351149738E-4,0.0011178638087585568,-4.4381816405802965E-4,-6.446798801422119,20.05747413635254,-35.3900146484375,0.20584380626678467,0.30781224370002747,0.06369781494140625,0.06525138,-0.152826,9.753166,-0.27615356,-0.24424937,9.747612,0
15,987.7615356445312,4.7965144040063024E-4,3.1890018726699054E-4,3.551715053617954E-4,-6.959122657775879,20.736665725708008,-35.35081100463867,0.21914011240005493,0.30653172731399536,0.02587413787841797,0.055681586,-0.1480592,9.767368,-0.28673714,-0.23212631,9.761681,0
15,987.7664794921875,3.465911722742021E-4,-6.132212001830339E-4,4.88371355459094E-4,-6.62696647644043,20.995256423950195,-35.80204772949219,0.18472209572792053,0.3096199035644531,0.04959869384765625,0.074790716,-0.15759207,9.762633,-0.26497576,-0.2498751,9.757397,0
15,987.76611328125,-5.854163900949061E-4,-4.800792085006833E-4,-4.4369231909513474E-4,-6.2401628494262695,20.40900993347168,-35.44242858886719,0.2034156620502472,0.32225748896598816,0.02605915069580078,0.06204015,-0.16233899,9.769662,-0.27470237,-0.2526825,9.764077,0
15,987.7763061523438,3.4506391966715455E-4,3.2415552414022386E-4,-1.728547504171729E-4,-6.4959306716918945,20.06424903869629,-35.53681182861328,0.21186664700508118,0.2966054081916809,0.049793243408203125,0.052438676,-0.15995468,9.764924,-0.2855665,-0.24205953,9.759198,0
15,987.7461547851562,2.160347648896277E-4,-7.598863157909364E-5,-3.7927296943962574E-5,-6.76634407043457,20.548715591430664,-35.83142852783203,0.19182801246643066,0.2950121760368347,0.035643577575683594,0.07151601,-0.14803733,9.762552,-0.2640593,-0.23261574,9.757593,0
15,987.7640380859375,4.827544908039272E-4,-2.0921212853863835E-4,-4.372280091047287E-4,-6.604709625244141,20.17337989807129,-35.98834228515625,0.2051113247871399,0.2980826497077942,0.03096771240234375,0.05235493,-0.15518607,9.762548,-0.28231516,-0.23382208,9.757038,0
15,987.7588500976562,-8.484213030897081E-4,-3.4243561094626784E-4,-3.75811941921711E-5,-6.570767402648926,21.364145278930664,-36.14023208618164,0.21310102939605713,0.296002060174942,0.03577995300292969,0.057092845,-0.15280174,9.769647,-0.27170795,-0.23538089,9.764392,0
15,987.7814331054688,-8.480175747536123E-4,3.232885792385787E-4,4.952235613018274E-4,-6.746696472167969,20.461950302124023,-36.13731384277344,0.2029128074645996,0.3037606477737427,0.016889572143554688,0.066610575,-0.15518405,9.783846,-0.2667346,-0.23377056,9.778873,0
15,987.763427734375,-7.144560222513974E-4,-6.088825757615268E-4,7.61712493840605E-4,-6.633489608764648,20.251314163208008,-35.218624114990234,0.20183560252189636,0.30666252970695496,0.05956077575683594,0.064178735,-0.15994956,9.762537,-0.26792234,-0.23633552,9.757521,0
15,987.7967529296875,4.843692877329886E-4,4.563154361676425E-4,-7.028521504253149E-4,-6.606912136077881,20.434282302856445,-35.31040954589844,0.20551028847694397,0.2953539490699768,0.04541587829589844,0.059357077,-0.16233177,9.757799,-0.2707187,-0.23681328,9.752702,0
15,987.74560546875,6.179308402352035E-4,7.225658046081662E-4,-4.363631596788764E-4,-6.687048435211182,20.35957908630371,-35.83258056640625,0.19455045461654663,0.2987201511859894,0.0360107421875,0.06409502,-0.17186387,9.76963,-0.268234,-0.24527338,9.764591,0
15,987.7662353515625,4.851766279898584E-4,1.898684713523835E-4,-1.6987428534775972E-4,-6.582698822021484,20.351938247680664,-35.84821319580078,0.18421396613121033,0.3065691590309143,0.026589393615722656,0.07122278,-0.15994652,9.781464,-0.25628698,-0.23547609,9.776838,0
16,987.78662109375,-8.459990494884551E-4,-3.4282883279956877E-4,9.66148218140006E-5,-6.775338172912598,20.645795822143555,-36.066673278808594,0.18292057514190674,0.28577476739883423,0.050324440002441406,0.07357085,-0.15041234,9.757788,-0.25023544,-0.2241815,9.753439,0
16,987.7581787109375,4.8598420107737184E-4,-7.657852256670594E-5,-5.690017715096474E-4,-6.722620010375977,20.273683547973633,-35.976043701171875,0.2055830955505371,0.2987404465675354,0.04091072082519531,0.054409742,-0.16232769,9.764885,-0.2710935,-0.22895928,9.759936,0
16,987.75341796875,6.195456371642649E-4,0.0012549352832138538,-3.0251313000917435E-4,-6.955534934997559,20.37131690979004,-35.40696716308594,0.18524989485740662,0.28756093978881836,0.06464099884033203,0.06870726,-0.15041031,9.755413,-0.254435,-0.21745305,9.751071,0
16,987.7662353515625,2.204757765866816E-4,-3.43025429174304E-4,-1.6918207984417677E-4,-6.667102813720703,20.90494728088379,-35.71359634399414,0.1797272264957428,0.27677273750305176,0.0315399169921875,0.07105529,-0.15517579,9.774346,-0.24858972,-0.22668032,9.770045,0
16,987.7810668945312,2.2087927209213376E-4,-7.425647927448153E-4,-1.6900908667594194E-4,-6.891727447509766,20.747575759887695,-36.13167953491211,0.1932336688041687,0.2894144058227539,0.04105663299560547,0.06384367,-0.15994133,9.760139,-0.25769153,-0.22504397,9.755662,0
16,987.7760009765625,-4.503288073465228E-5,5.6317338021472096E-5,-3.567792009562254E-5,-6.916377067565918,20.091867446899414,-35.31966781616211,0.19246038794517517,0.2878284454345703,0.04110240936279297,0.061411917,-0.15994032,9.779073,-0.25651062,-0.2264539,9.774587,0
16,987.771240234375,-1.777870929799974E-4,-0.0012753276387229562,2.3081095423549414E-4,-6.61949348449707,20.89670753479004,-35.48949432373047,0.182041734457016,0.271986722946167,0.055352210998535156,0.06375989,-0.14563961,9.755398,-0.25441816,-0.20486814,9.751224,0
16,987.763427734375,6.21564278844744E-4,4.5566013432107866E-4,9.782577399164438E-5,-7.197307586669922,20.671953201293945,-35.77223205566406,0.17635105550289154,0.26089003682136536,0.06960296630859375,0.06371802,-0.1456386,9.750659,-0.2508777,-0.20619181,9.746547,0
16,987.7658081054688,-1.769797527231276E-4,-7.703724259044975E-5,-1.6831711400300264E-4,-7.01268196105957,20.84493064880371,-35.96476745605469,0.18454059958457947,0.2926338016986847,0.01758289337158203,0.06606609,-0.16232051,9.776695,-0.25642705,-0.21687034,9.772497,0
16,987.7932739257812,-3.097339649684727E-4,9.881607256829739E-4,6.308036390691996E-4,-7.495820045471191,20.971982955932617,-35.89775085449219,0.18814808130264282,0.28652384877204895,0.03183746337890625,0.056464553,-0.16470273,9.769589,-0.26189128,-0.21860117,9.765183,0
16,987.7932739257812,-3.097339649684727E-4,9.881607256829739E-4,6.308036390691996E-4,-7.1510820388793945,20.768152236938477,-36.169898986816406,0.18254126608371735,0.2751328945159912,0.041355133056640625,0.061202466,-0.15993513,9.769585,-0.25385118,-0.21478441,9.765427,0
16,987.77294921875,-1.7617229605093598E-4,-8.761159842833877E-4,9.83449281193316E-5,-7.069423675537109,20.844335556030273,-35.72503662109375,0.19127114117145538,0.2782490849494934,0.0366668701171875,0.05638078,-0.15278436,9.769581,-0.25570607,-0.2046027,9.765448,0
16,987.7836303710938,-4.42084448877722E-4,0.0011211875826120377,-3.4640077501535416E-5,-7.103472709655762,20.759912490844727,-35.94580841064453,0.1804732084274292,0.2624345123767853,0.02251720428466797,0.06589851,-0.15754981,9.76721,-0.2434671,-0.21390823,9.763327,0
16,987.75341796875,3.451696829870343E-5,-0.0013815290294587612,-4.2467203456908464E-4,-6.68704891204834,20.35957908630371,-35.83258056640625,0.16984499990940094,0.27976322174072266,0.032036781311035156,0.06824654,-0.15516554,9.776675,-0.24496555,-0.20429885,9.77294,0
16,987.7779541015625,3.492069663479924E-5,0.0014147222973406315,3.7444871850311756E-4,-7.512423992156982,21.06169319152832,-35.74647521972656,0.17348352074623108,0.25903281569480896,0.02735424041748047,0.06820467,-0.15516452,9.776671,-0.23481,-0.21291324,9.773002,0
16,987.7657470703125,-6.304652779363096E-4,-3.163964138366282E-4,3.746218280866742E-4,-6.40416145324707,20.51902198791504,-35.73153305053711,0.17125974595546722,0.2527555525302887,0.05099964141845703,0.07384294,-0.15041901,9.767281,-0.23281254,-0.20117436,9.763871,0
16,987.778564453125,-6.300616660155356E-4,0.0016809070948511362,9.074265835806727E-4,-7.207823753356934,20.76755714416504,-35.93016815185547,0.17045634984970093,0.27976036071777344,0.04630279541015625,0.06427699,-0.16948505,9.767281,-0.24512516,-0.21664019,9.763484,0
16,987.7500610351562,6.905819172970951E-4,-4.5700406190007925E-5,5.061894189566374E-4,-7.223448753356934,21.22702980041504,-35.95465087890625,0.1687539517879486,0.24922025203704834,0.03689861297607422,0.06666055,-0.14803539,9.769648,-0.23554373,-0.19569048,9.766197,0
16,987.7500610351562,6.905819172970951E-4,-4.5700406190007925E-5,5.061894189566374E-4,-7.223448753356934,21.22702980041504,-35.95465087890625,0.1872483193874359,0.26737838983535767,0.04165840148925781,0.052314848,-0.15280183,9.762545,-0.24946263,-0.1942639,9.75876,0
16,987.7550659179688,5.574850947596133E-4,2.2060557967051864E-4,1.0674179065972567E-4,-7.209208011627197,20.87200355529785,-36.55194091796875,0.1621924638748169,0.2608570456504822,0.027502059936523438,0.07381761,-0.15041836,9.77438,-0.22655576,-0.19718167,9.771202,0
16,987.7836303710938,-0.0010403492487967014,7.53227446693927E-4,-1.5954789705574512E-4,-7.33817720413208,21.43619728088379,-36.79603576660156,0.19021961092948914,0.2546301484107971,0.05594062805175781,0.061861753,-0.15280144,9.762544,-0.23470286,-0.19800358,9.759107,0
16,987.7805786132812,-3.744982532225549E-4,2.2058573085814714E-4,3.7311005871742964E-4,-6.9503960609436035,21.219709396362305,-36.6121711730957,0.1652781069278717,0.23889023065567017,0.027574539184570312,0.06663522,-0.1456515,9.779114,-0.22999799,-0.1880108,9.775912,0
16,987.7627563476562,-1.0806025238707662E-4,3.5372376441955566E-4,1.0684656444936991E-4,-7.382881164550781,21.34147071838379,-36.475669860839844,0.16409677267074585,0.23745408654212952,0.06549358367919922,0.064238966,-0.15041794,9.738871,-0.23161761,-0.19008787,9.735635,0
16,987.79833984375,-1.0799913434311748E-4,-3.120758046861738E-4,1.0687275789678097E-4,-7.513127326965332,20.903764724731445,-36.9688720703125,0.1490851640701294,0.2552223205566406,0.027647018432617188,0.066622525,-0.16710071,9.769644,-0.23611878,-0.20324627,9.766333,0
16,987.7836303710938,2.915356890298426E-4,2.2054609144106507E-4,9.058464784175158E-4,-7.390108108520508,20.439592361450195,-37.11463928222656,0.15289106965065002,0.23482856154441833,0.032418251037597656,0.069006085,-0.14326777,9.772011,-0.22566524,-0.18001135,9.769042,0
17,987.747314453125,2.528104232624173E-5,-4.4525356497615576E-4,1.0692514479160309E-4,-7.473128318786621,20.888158798217773,-36.35824966430664,0.16646058857440948,0.25729960203170776,0.0371856689453125,0.059440136,-0.15995057,9.760174,-0.23806116,-0.19231851,9.7568655,0
17,987.770263671875,1.5849998453631997E-4,6.200001225806773E-4,-1.5936465933918953E-4,-7.704383850097656,21.09318733215332,-36.56556701660156,0.16515123844146729,0.2510639429092407,0.056168556213378906,0.061823726,-0.15280057,9.764908,-0.23341176,-0.18354332,9.761784,0
17,987.7327270507812,2.9171904316172004E-4,-1.7895754717756063E-4,-2.6180408895015717E-5,-7.5153303146362305,21.1646671295166,-36.29093933105469,0.17392519116401672,0.25923725962638855,0.04199790954589844,0.06659716,-0.1528004,9.760172,-0.22601974,-0.18585743,9.757207,0
17,987.747314453125,2.5464280042797327E-5,-4.580951645039022E-5,5.064774304628372E-4,-7.38720178604126,20.33662223815918,-36.57017517089844,0.17309346795082092,0.25785672664642334,0.046764373779296875,0.07137066,-0.15756686,9.760172,-0.22272563,-0.18952614,9.757323,0
17,987.7702026367188,-5.071064806543291E-4,7.531282608397305E-4,-6.919177249073982E-4,-7.662319183349609,20.71076011657715,-35.93379592895508,0.16206912696361542,0.24659273028373718,0.05628395080566406,0.068974376,-0.15994991,9.762539,-0.22534469,-0.18812919,9.759679,0
17,987.7520751953125,-9.065190679393709E-4,3.5364454379305243E-4,1.0705599561333656E-4,-7.267768859863281,20.237794876098633,-36.65978240966797,0.16592107713222504,0.24498489499092102,0.04685020446777344,0.05701855,-0.15756647,9.764906,-0.23260999,-0.18356036,9.761848,0
17,987.7476806640625,2.919633989222348E-4,3.5363464849069715E-4,-1.5923369210213423E-4,-7.509380340576172,21.06464195251465,-35.901084899902344,0.15557357668876648,0.24365663528442383,0.056351661682128906,0.06896174,-0.16709949,9.762537,-0.22290915,-0.19512355,9.759715,0
17,987.7652587890625,1.58866576384753E-4,-0.001377428648993373,0.001305529847741127,-7.489732265472412,20.977876663208008,-36.20697021484375,0.1551993489265442,0.22797079384326935,0.009028434753417969,0.057005882,-0.1456498,9.786209,-0.22773835,-0.16988748,9.783335,0
17,987.7760620117188,1.5892769442871213E-4,-4.585908027365804E-5,-5.586551269516349E-4,-7.148879528045654,20.507253646850586,-36.84783172607422,0.14485430717468262,0.2408890277147293,0.03746509552001953,0.07133895,-0.14564963,9.764904,-0.21081358,-0.17496723,9.762407,0
17,987.792724609375,-0.0011725907679647207,-3.1218488584272563E-4,-1.5915511175990105E-4,-7.67834997177124,21.644445419311523,-36.75579833984375,0.1583232432603836,0.24430164694786072,0.023293495178222656,0.059383094,-0.15994914,9.781473,-0.227036,-0.18236339,9.778626,0
17,987.76513671875,4.2536581167951226E-4,-8.448265725746751E-4,2.4034478701651096E-4,-7.692888259887695,21.367341995239258,-36.58338165283203,0.14318111538887024,0.2191292941570282,0.037528038024902344,0.07371616,-0.14326607,9.772003,-0.20777735,-0.16870157,9.769665,0
17,987.76513671875,-1.0720494901761413E-4,8.862167014740407E-4,-1.5910272486507893E-4,-7.360624313354492,20.519594192504883,-36.661956787109375,0.16620437800884247,0.24153240025043488,0.042293548583984375,0.05698049,-0.15756552,9.764902,-0.22613996,-0.17677869,9.762121,0
17,987.7428588867188,-2.403017715550959E-4,-8.448464213870466E-4,-4.2539252899587154E-4,-7.231356620788574,20.587533950805664,-35.99299240112305,0.15587785840034485,0.21622908115386963,0.023386001586914062,0.05936408,-0.1408825,9.779104,-0.21712597,-0.161651,9.776553,0
17,987.7449951171875,-6.397144752554595E-4,-1.7906658467836678E-4,1.0726554319262505E-4,-7.231058120727539,21.219667434692383,-35.56812286376953,0.1552078276872635,0.22921150922775269,0.03761482238769531,0.07130724,-0.1480322,9.7649,-0.20513132,-0.17250945,9.762604,0
17,987.7449951171875,-1.0702171130105853E-4,-5.785503890365362E-4,-6.916560232639313E-4,-7.515873432159424,21.5329532623291,-36.3893928527832,0.1591119021177292,0.24215759336948395,0.03764629364013672,0.069259375,-0.16234018,9.767299,-0.21137789,-0.18304053,9.764891,0
17,987.76513671875,2.900203107856214E-4,-4.4499762589111924E-4,3.725653514266014E-4,-7.415545463562012,21.152605056762695,-36.07466125488281,0.14816008508205414,0.2265283763408661,0.04707622528076172,0.072012305,-0.14804943,9.772066,-0.20253612,-0.17039981,9.769869,0
17,987.7371826171875,-5.107791512273252E-4,6.182753713801503E-4,-1.6336864791810513E-4,-7.249887466430664,21.14997673034668,-36.56193923950195,0.1521032750606537,0.23478715121746063,0.03289794921875,0.06725407,-0.16473289,9.767334,-0.20884764,-0.18605219,9.76495,0
17,987.7825317382812,4.21118747908622E-4,8.567716577090323E-5,-2.9661564622074366E-4,-7.050179958343506,21.23177146911621,-36.828453063964844,0.15581046044826508,0.21428734064102173,0.028194427490234375,0.057716012,-0.15281709,9.762602,-0.2177691,-0.1649737,9.760145,0
17,987.7723388671875,-5.111947539262474E-4,-1.806049549486488E-4,-1.6354676336050034E-4,-7.39024543762207,20.33367347717285,-36.41556167602539,0.13611695170402527,0.22242501378059387,0.03294944763183594,0.074466884,-0.15043433,9.774441,-0.20027931,-0.16682124,9.772407,0
17,987.7699584960938,-6.445604958571494E-4,-4.741328302770853E-5,-4.299517022445798E-4,-7.552561283111572,20.97138786315918,-35.65802001953125,0.14479857683181763,0.21644166111946106,0.03771018981933594,0.06731874,-0.15281816,9.77681,-0.20749415,-0.16501112,9.77464,0
17,987.7699584960938,-6.445604958571494E-4,-4.741328302770853E-5,-4.299517022445798E-4,-7.824497222900391,21.45438575744629,-35.87533187866211,0.15360404551029205,0.21012885868549347,0.04246807098388672,0.06256047,-0.14805205,9.776812,-0.2060272,-0.16212133,9.774618,0
17,987.7953491210938,-5.116102402098477E-4,-7.131692254915833E-4,1.025910023599863E-4,-7.228717803955078,21.06468391418457,-36.94512939453125,0.13823948800563812,0.21409612894058228,0.03776073455810547,0.07214165,-0.14566942,9.760242,-0.1955618,-0.16097079,9.758308,0
17,987.7754516601562,2.0813720766454935E-5,6.184439407661557E-4,1.0250206105411053E-4,-7.506741523742676,21.54179573059082,-36.85322570800781,0.14681805670261383,0.22246363759040833,0.056723594665527344,0.060213685,-0.15520294,9.760244,-0.20853049,-0.16571893,9.75803,0
17,987.8212280273438,0.0017516592051833868,-3.136279992759228E-4,3.6872876808047295E-4,-7.4547038078308105,21.43205451965332,-36.161964416503906,0.13171271979808807,0.24499817192554474,0.02834033966064453,0.079354465,-0.16711994,9.774449,-0.19193605,-0.18282437,9.772605,0
18,987.782470703125,-2.459177630953491E-4,6.185114616528153E-4,-5.634656408801675E-4,-7.015182971954346,20.473695755004883,-35.711708068847656,0.13118022680282593,0.22929632663726807,0.037827491760253906,0.074596226,-0.1575873,9.764982,-0.1969231,-0.1661816,9.763139,0
18,987.7393188476562,-2.461254480294883E-4,-4.467185353860259E-4,-0.0013625024585053325,-7.3883185386657715,19.86094093322754,-35.695335388183594,0.14964072406291962,0.20957383513450623,0.04257774353027344,0.06744808,-0.1480548,9.772086,-0.19746815,-0.15778522,9.770172,0
18,987.744873046875,-8.01840506028384E-4,-6.480817683041096E-5,1.0077928891405463E-4,-7.30912971496582,20.778146743774414,-36.06914520263672,0.14407557249069214,0.21757492423057556,0.042601585388183594,0.06746966,-0.1623549,9.764986,-0.19914585,-0.17163506,9.763028,0
18,987.81884765625,0.0014616367407143116,-5.974062369205058E-4,-2.98783415928483E-4,-7.295271396636963,21.3176212310791,-35.64094543457031,0.14804768562316895,0.20691078901290894,0.028418540954589844,0.057931542,-0.1480558,9.779192,-0.20416394,-0.153257,9.777153,0
18,987.7928466796875,-1.3646617298945785E-4,-5.973725346848369E-4,-3.255670890212059E-5,-7.276602745056152,20.8610897064209,-35.77107620239258,0.13761761784553528,0.21513760089874268,0.023708343505859375,0.07229257,-0.14567305,9.772093,-0.18773833,-0.15503062,9.770412,0
18,987.7373046875,1.2964167399331927E-4,2.0160892745479941E-4,-3.264565020799637E-5,-7.301359176635742,21.31172752380371,-35.33172607421875,0.13209496438503265,0.18556547164916992,0.03793048858642578,0.07231411,-0.14567359,9.769728,-0.18527013,-0.15603021,9.768079,0
