Timestamp,P,Gx,Gy,Gz,Mx,My,Mz,LiAx,LiAy,LiAz,Ax,Ay,Az,earthAx,earthAy,earthAz,Value,Type
0,987.7655029296875,-6.305662682279944E-4,-0.0010662432760000229,3.8769221282564104E-4,-4.663368225097656,18.154024124145508,-38.06081771850586,-0.009531546384096146,0.0013915300369262695,0.028371810913085938,0.07978487,-0.15300669,9.756207,2.1916695,-1.6642201,9.36164,0
0,987.654052734375,-2.3090920876711607E-4,0.004925834946334362,-2.780191134661436E-4,-4.2671356201171875,18.208749771118164,-37.74016189575195,-0.8347817063331604,1.347773551940918,-0.06938934326171875,0.0629217,-0.15300341,9.768031,-0.030126195,-1.2084677,9.694354,0
0,987.5978393554688,0.0010919761843979359,0.0018251725705340505,-3.167515969835222E-4,-9.023855209350586,17.047014236450195,-37.054664611816406,-0.8431615829467773,1.3361493349075317,-0.06430339813232422,0.06529006,-0.14823635,9.768029,-0.018180847,-1.2036852,9.694919,0
0,987.6510620117188,-1.0815466521307826E-4,-1.7096131341531873E-4,-4.9083842895925045E-5,-9.024467468261719,17.36235237121582,-36.80357360839844,-0.8371527194976807,1.343639612197876,-0.05448436737060547,0.07004827,-0.15300234,9.753824,-0.019273698,-1.2067205,9.680334,0
0,987.6382446289062,-1.0794698027893901E-4,3.616366593632847E-4,8.416327182203531E-5,-9.127226829528809,17.424421310424805,-37.21479034423828,-0.8357130289077759,1.3509408235549927,-0.0493621826171875,0.070026696,-0.15538509,9.770393,-0.028758503,-1.2083628,9.696837,0
0,987.6307373046875,-5.072130006738007E-4,-3.041868330910802E-4,-1.8206355161964893E-4,-9.240368843078613,17.29203987121582,-37.035640716552734,-0.8393483757972717,1.3536453247070312,-0.06322097778320312,0.07000515,-0.16253434,9.77986,-0.037029684,-1.2137479,9.705792,0
0,987.6476440429688,5.582585581578314E-4,3.6156908026896417E-4,8.434138726443052E-5,-9.154714584350586,16.924646377563477,-37.29677963256836,-0.8331990242004395,1.3515393733978271,-0.07232284545898438,0.067593664,-0.16730042,9.779858,-0.016179124,-1.2155082,9.705691,0
0,987.6529541015625,2.9215047834441066E-4,9.521955507807434E-5,-4.872737918049097E-5,-8.881501197814941,17.443540573120117,-36.830360412597656,-0.841030478477478,1.3446340560913086,-0.06245708465576172,0.069961995,-0.15538348,9.758551,-0.023910914,-1.2014924,9.685773,0
0,987.6652221679688,2.604263136163354E-5,-7.037619361653924E-4,-4.863826325163245E-5,-9.204729080200195,17.430891036987305,-37.2417106628418,-0.8156951069831848,1.3421229124069214,-0.06203651428222656,0.05560106,-0.15299971,9.760916,-0.025858508,-1.1909993,9.689315,0
0,987.6248779296875,-0.0011721712071448565,-1.7116389062721282E-4,7.503983797505498E-4,-9.107429504394531,17.653722763061523,-37.3082389831543,-0.8283775448799133,1.344541072845459,-0.056885719299316406,0.07230878,-0.15299918,9.77275,-0.012351433,-1.1976391,9.700555,0
0,987.6449584960938,1.5961617464199662E-4,-7.03829457052052E-4,4.84171585412696E-4,-8.988486289978027,17.370012283325195,-37.30997085571289,-0.8271880745887756,1.3276771306991577,-0.05648040771484375,0.067507386,-0.15061535,9.760912,-0.037680667,-1.189427,9.689504,0
0,987.6755981445312,-7.722813752479851E-4,7.608742453157902E-4,6.17418612819165E-4,-9.169593811035156,16.778730392456055,-36.82404708862305,-0.825702428817749,1.3251543045043945,-0.056056976318359375,0.06748584,-0.15061481,9.76091,-0.034797482,-1.1872488,9.68978,0
0,987.6468505859375,2.9339775210246444E-4,-8.370885625481606E-4,2.181229938287288E-4,-9.608789443969727,16.999773025512695,-37.03874588012695,-0.8190521597862244,1.3229645490646362,-0.036708831787109375,0.06268448,-0.15538086,9.751439,-0.05862619,-1.1853226,9.680404,0
0,987.63720703125,2.7289788704365492E-5,4.944570828229189E-4,2.1821213886141777E-4,-8.970647811889648,16.859785079956055,-37.05190658569336,-0.8273861408233643,1.3253451585769653,-0.06946563720703125,0.067442685,-0.15299709,9.76564,-0.027682241,-1.1859109,9.694769,0
0,987.6317749023438,-7.714499370194972E-4,0.0011602130252867937,2.18301109271124E-4,-8.759445190429688,17.21573829650879,-37.33623123168945,-0.8261452913284302,1.3273760080337524,-0.04536724090576172,0.06742111,-0.1529965,9.765638,-0.009225556,-1.1838785,9.69505,0
0,987.6620483398438,-2.3861025692895055E-4,-0.001236663549207151,8.523231372237206E-5,-9.055131912231445,17.149686813354492,-37.47926712036133,-0.8288314342498779,1.315342903137207,-0.04490375518798828,0.0793491,-0.15537931,9.760902,-0.015083108,-1.1883104,9.6898575,0
0,987.6416625976562,-1.0524451499804854E-4,9.488195064477623E-5,-1.8099445151165128E-4,-9.167092323303223,17.14996910095215,-37.077110290527344,-0.8273293972015381,1.3127431869506836,-0.044475555419921875,0.067378044,-0.15061219,9.7632675,-0.028398529,-1.1764324,9.693495,0
0,987.6519165039062,-3.713525948114693E-4,-3.0462551512755454E-4,7.512002484872937E-4,-8.929462432861328,17.37281608581543,-37.665653228759766,-0.8065344095230103,1.3052253723144531,-0.0676889419555664,0.060186744,-0.14822842,9.772734,-0.0177597,-1.1698205,9.703769,0
0,987.6467895507812,-3.711445606313646E-4,-1.7150136409327388E-4,7.512893062084913E-4,-8.684022903442383,16.96995735168457,-36.794586181640625,-0.814350426197052,1.3169782161712646,-0.0625162124633789,0.060165167,-0.14822783,9.770366,-0.016102774,-1.1672583,9.701695,0
0,987.6362915039062,2.853706246241927E-5,9.478078573010862E-5,-3.138851607218385E-4,-8.954926490783691,17.26955223083496,-37.00132369995117,-0.8176529407501221,1.300011396408081,-0.062084197998046875,0.07448298,-0.15299393,9.767997,-0.010684861,-1.1753738,9.69851,0
0,987.6614379882812,-5.038868985138834E-4,0.0010268527548760176,-5.801119841635227E-4,-9.29323673248291,17.348085403442383,-37.33871078491211,-0.792386531829834,1.31150484085083,-0.028504371643066406,0.06490183,-0.15537663,9.758526,-0.0331925,-1.1694605,9.689604,0
0,987.6563720703125,-5.036788643337786E-4,-3.047604695893824E-4,-3.1370692886412144E-4,-9.076642036437988,17.366167068481445,-36.79576110839844,-0.8097666501998901,1.2895342111587524,-0.03749370574951172,0.06488022,-0.15537609,9.756155,-0.02314619,-1.1668329,9.687563,0
0,987.6561279296875,-3.703131224028766E-4,-5.711101111955941E-4,-5.799336358904839E-4,-9.217677116394043,17.208219528198242,-37.49613571166992,-0.8128092288970947,1.305884599685669,-0.05124378204345703,0.07202837,-0.16967525,9.758521,-0.0334253,-1.1802969,9.688575,0
0,987.6611938476562,2.956844982691109E-4,4.941197112202644E-4,-5.798446945846081E-4,-9.266605377197266,16.977880477905273,-37.244163513183594,-0.8064848184585571,1.3031245470046997,-0.06026935577392578,0.06483716,-0.1601416,9.770355,-0.042834442,-1.1671362,9.701838,0
0,987.6585693359375,-2.3673934629186988E-4,-3.8545840652659535E-5,-7.129134610295296E-4,-9.25621223449707,17.382490158081055,-36.923011779785156,-0.7897471189498901,1.2988760471343994,-0.031179428100585938,0.060035765,-0.15775777,9.749048,-0.03566164,-1.1572754,9.681521,0
1,987.6636962890625,2.961002173833549E-4,0.0012929999502375722,-5.796665791422129E-4,-9.076642036437988,17.36617088317871,-36.79575729370117,-0.7988156676292419,1.3070197105407715,-0.035714149475097656,0.066836804,-0.16728182,9.765585,-0.02623431,-1.1696309,9.696927,0
1,987.6636962890625,-5.047139129601419E-4,6.297100335359573E-4,9.010580834001303E-5,-9.111872673034668,17.149091720581055,-37.239532470703125,-0.8013086915016174,1.2848689556121826,-0.04937267303466797,0.059277534,-0.16727228,9.767917,-0.039277647,-1.163531,9.699916,0
1,987.671142578125,-7.680944981984794E-4,-1.6971408331301063E-4,-5.744260270148516E-4,-8.981706619262695,17.32368278503418,-37.30830383300781,-0.7995196580886841,1.2960718870162964,-0.05360889434814453,0.06400788,-0.16012122,9.770279,-0.02178471,-1.1571555,9.703021,0
1,987.656005859375,-6.34459953289479E-4,-3.029494546353817E-4,-3.079057205468416E-4,-8.876594543457031,17.3167781829834,-37.362586975097656,-0.7975907325744629,1.2929824590682983,-0.048370361328125,0.063958466,-0.16012006,9.763174,-0.017285835,-1.1536926,9.696288,0
1,987.68115234375,-3.6766770062968135E-4,-1.6986881382763386E-4,9.177217725664377E-5,-9.148002624511719,16.82535743713379,-36.945579528808594,-0.7907530069351196,1.3041036128997803,-0.05257892608642578,0.07107872,-0.16726865,9.772637,-0.037990347,-1.1607392,9.705086,0
1,987.6553344726562,3.228295827284455E-5,-0.001501525635831058,9.197648614645004E-5,-8.906147003173828,17.18381690979004,-37.46572494506836,-0.8075436353683472,1.2869819402694702,-0.037873268127441406,0.082978785,-0.15773429,9.7631645,-0.004009117,-1.1545442,9.696297,0
1,987.6455688476562,-0.0010325037874281406,-1.7002357344608754E-4,3.584966470953077E-4,-8.690803527832031,17.016286849975586,-36.79624938964844,-0.7863744497299194,1.2836358547210693,-0.046802520751953125,0.068589926,-0.15534987,9.756058,-0.009887467,-1.142153,9.6904545,0
1,987.6455688476562,-0.0010325037874281406,-1.7002357344608754E-4,3.584966470953077E-4,-8.81917667388916,16.659025192260742,-36.75556564331055,-0.8030600547790527,1.2806811332702637,-0.06048297882080078,0.078100085,-0.1577319,9.779725,-0.017051343,-1.1479204,9.713701,0
1,987.6505737304688,-9.992189006879926E-5,-0.001102206646464765,7.581746904179454E-4,-9.073869705200195,17.55326271057129,-36.99959182739258,-0.79178786277771,1.2776145935058594,-0.05053520202636719,0.07088089,-0.1505809,9.760784,-0.010577289,-1.1338801,9.696124,0
1,987.6608276367188,-9.944516932591796E-5,9.613754809834063E-5,-4.400424659252167E-4,-8.921568870544434,17.406187057495117,-37.09144592285156,-0.7986971139907837,1.2682459354400635,-0.04034137725830078,0.07083148,-0.16249599,9.765513,-0.012698432,-1.1422793,9.7000885,0
1,987.67041015625,5.668211379088461E-4,6.286919815465808E-4,-3.066802164539695E-4,-8.8386869430542,16.85170555114746,-37.14875411987305,-0.7880215048789978,1.2619959115982056,-0.035355567932128906,0.06600219,-0.15534498,9.756041,-0.022569168,-1.1299187,9.691832,0
1,987.6301879882812,-9.849184425547719E-5,9.598277392797172E-5,0.001291419262997806,-8.719728469848633,17.17412757873535,-37.68635177612305,-0.7812739014625549,1.2632607221603394,-0.03954505920410156,0.07312244,-0.15772705,9.765505,-0.004531515,-1.133231,9.701086,0
1,987.67529296875,-0.0011632787063717842,9.590547415427864E-5,-3.995583392679691E-5,-8.874950408935547,16.81803321838379,-37.60310363769531,-0.788411557674408,1.2553131580352783,-0.053208351135253906,0.065903306,-0.15772589,9.758398,-0.026163299,-1.1259886,9.694691,0
1,987.6448364257812,-3.638545167632401E-4,-8.362774970009923E-4,6.26038177870214E-4,-9.031055450439453,16.961427688598633,-37.317989349365234,-0.78144770860672,1.2520090341567993,-0.052674293518066406,0.07063365,-0.15057482,9.770229,-0.022234898,-1.1199375,9.707229,0
1,987.62451171875,-3.6337802885100245E-4,-5.700390320271254E-4,-3.0586321372538805E-4,-9.092687606811523,17.693723678588867,-37.0818977355957,-0.7839637994766235,1.2582770586013794,-0.03793621063232422,0.07536399,-0.16010667,9.758389,-0.008740732,-1.1265298,9.694758,0
1,987.655029296875,-9.658531052991748E-5,-7.032743305899203E-4,4.932887386530638E-4,-9.06647777557373,17.191598892211914,-37.24901580810547,-0.7724956274032593,1.2549818754196167,-0.046894073486328125,0.06814486,-0.164872,9.777323,-0.027295027,-1.126223,9.713844,0
1,987.6652221679688,-4.977898788638413E-4,1.561050012242049E-4,-3.393947845324874E-4,-9.184197425842285,16.84464454650879,-37.74946594238281,-0.7657063007354736,1.2469922304153442,-0.05585289001464844,0.060925692,-0.1553377,9.779684,-0.042132493,-1.1114299,9.717665,0
1,987.6676025390625,1.6847619554027915E-4,2.891855256166309E-4,6.028322968631983E-5,-8.996176719665527,17.09953498840332,-37.485416412353516,-0.7785283327102661,1.2344087362289429,-0.041197776794433594,0.07521564,-0.15056993,9.758375,-0.012969738,-1.1097268,9.696524,0
1,987.6751098632812,4.3526868103072047E-4,5.554240196943283E-4,-3.389862831681967E-4,-8.885194778442383,16.729494094848633,-37.71181869506836,-0.7606543302536011,1.2249062061309814,-0.035681724548339844,0.0679965,-0.1434189,9.76784,-0.019937951,-1.0979576,9.707214,0
1,987.6676025390625,1.6942952061071992E-4,-2.4360099632758647E-4,-4.7194003127515316E-4,-9.028352737426758,17.095556259155273,-37.17228698730469,-0.7775472402572632,1.2357475757598877,-0.039870262145996094,0.07750666,-0.15533404,9.770203,-0.014957523,-1.1085405,9.7086525,0
1,987.632080078125,3.6748184356838465E-5,-6.43152161501348E-4,-0.0010043674847111106,-9.116641998291016,17.381772994995117,-37.4063835144043,-0.7616994380950928,1.2294119596481323,-0.030118942260742188,0.06789762,-0.14818306,9.755995,-0.017849006,-1.0948647,9.695719,0
1,987.6571655273438,3.7224788684397936E-5,-9.095454588532448E-4,-7.378472946584225E-4,-9.565757751464844,16.776968002319336,-37.4942512512207,-0.7598940134048462,1.2497968673706055,-0.04381084442138672,0.067848146,-0.17201464,9.770193,-0.06175948,-1.112947,9.708162,0
1,987.65478515625,-2.286147209815681E-4,2.2482796339318156E-5,-6.044851616024971E-4,-9.54760456085205,17.505006790161133,-37.34718704223633,-0.7534070014953613,1.227761149406433,-0.048096656799316406,0.065408826,-0.16486348,9.767822,-0.042602804,-1.1036811,9.706797,0
1,987.6318969726562,-9.450322249904275E-5,4.21801843913272E-4,6.171304266899824E-5,-9.44789981842041,17.229833602905273,-37.692874908447266,-0.7693634033203125,1.227469563484192,-0.02837657928466797,0.07252908,-0.16486229,9.767817,-0.038185403,-1.1041238,9.706809,0
1,987.6338500976562,1.722889137454331E-4,2.88566603558138E-4,-3.3755647018551826E-4,-9.393564224243164,17.728437423706055,-37.653438568115234,-0.7577952146530151,1.2193670272827148,-0.0373382568359375,0.07725942,-0.15532799,9.763079,-0.016048353,-1.09331,9.703208,0
2,987.6338500976562,1.722889137454331E-4,2.88566603558138E-4,-3.3755647018551826E-4,-9.393564224243164,17.728437423706055,-37.653438568115234,-0.7480382919311523,1.208228588104248,-0.01348876953125,0.06586295,-0.15057506,9.756027,-0.016735213,-1.0819886,9.697222,0
2,987.6572265625,4.390813992358744E-4,8.211209205910563E-4,-3.373522777110338E-4,-9.361308097839355,17.995527267456055,-37.40459060668945,-0.7557549476623535,1.1954694986343384,-0.04614830017089844,0.07061738,-0.15772422,9.767861,-0.03013674,-1.0885525,9.7085085,0
2,987.6593627929688,4.3168634874746203E-4,4.2758104973472655E-4,6.15339376963675E-5,-9.270682334899902,17.158342361450195,-37.100128173828125,-0.7683925628662109,1.2110074758529663,-0.03617572784423828,0.072981894,-0.15534033,9.763124,-0.016556649,-1.0843923,9.704221,0
2,987.6465454101562,-3.670164733193815E-4,0.0014928046148270369,1.947968266904354E-4,-9.103081703186035,17.289113998413086,-37.403053283691406,-0.7516776323318481,1.1886202096939087,-0.04985332489013672,0.0729565,-0.14818986,9.770224,-0.01604363,-1.0756421,9.712224,0
2,987.6437377929688,1.658597611822188E-4,-1.0513013694435358E-4,-3.3773010363802314E-4,-9.071395874023438,17.108217239379883,-37.62830352783203,-0.7641727328300476,1.2137750387191772,-0.011477470397949219,0.080100834,-0.16963877,9.756018,-0.027213397,-1.0934434,9.696325,0
2,987.674560546875,1.6610458260402083E-4,2.9430395807139575E-4,6.18485501036048E-5,-9.437995910644531,17.449560165405273,-37.28384780883789,-0.7522916197776794,1.196016550064087,-0.04881858825683594,0.08246535,-0.160105,9.772585,-0.021794135,-1.084561,9.7138605,0
2,987.6465454101562,5.658231093548238E-4,5.605801707133651E-4,1.951113808900118E-4,-9.154022216796875,16.872426986694336,-36.985897064208984,-0.7547047138214111,1.1923924684524536,-0.03879737854003906,0.07049042,-0.14342149,9.765482,-0.019444391,-1.0604173,9.709033,0
2,987.65673828125,-4.991958267055452E-4,-2.3840719950385392E-4,6.20582140982151E-5,-8.980892181396484,16.7712459564209,-37.16062545776367,-0.7432035207748413,1.1888974905014038,-0.05249309539794922,0.07046509,-0.14818735,9.76548,-0.015358556,-1.0617081,9.708969,0
2,987.6668701171875,3.368064062669873E-5,1.6102686640806496E-4,6.216316251084208E-5,-8.884013175964355,16.862154006958008,-37.48881149291992,-0.7410946488380432,1.1807054281234741,-0.037779808044433594,0.072829604,-0.15295334,9.772579,-0.02136757,-1.0645498,9.7158785,0
2,987.65673828125,3.0024099396541715E-4,4.273029917385429E-4,-8.69837764184922E-4,-9.025105476379395,16.861398696899414,-36.92813491821289,-0.7341326475143433,1.1964975595474243,-0.046751976013183594,0.06563449,-0.15771927,9.777311,-0.026894577,-1.062988,9.720819,0
2,987.6465454101562,9.662756347097456E-4,4.2726335232146084E-4,1.9553079619072378E-4,-9.022401809692383,16.99553108215332,-36.78242874145508,-0.7271862030029297,1.1643970012664795,-0.02256011962890625,0.067999005,-0.14103572,9.760738,-0.014577952,-1.0448315,9.705909,0
2,987.6490478515625,1.67572230566293E-4,-2.3856607731431723E-4,-4.701542784459889E-4,-8.845887184143066,16.7661075592041,-37.41208267211914,-0.7344539165496826,1.1656157970428467,-0.040968894958496094,0.07036355,-0.14818488,9.7702055,-0.030126195,-1.0495901,9.715002,0
2,987.64404296875,3.4659227821975946E-5,2.940259000752121E-4,4.6205639955587685E-4,-9.121644020080566,16.63930320739746,-36.90026092529297,-0.7417736053466797,1.1668388843536377,-0.03570842742919922,0.075117946,-0.14580102,9.767836,-0.02533353,-1.0463811,9.712979,0
2,987.6470947265625,3.0121958116069436E-4,1.608282618690282E-4,-7.047055987641215E-5,-9.292762756347656,16.926836013793945,-36.89072036743164,-0.7400908470153809,1.1679027080535889,-0.02573871612548828,0.07987237,-0.15533347,9.755997,-0.02186473,-1.0529639,9.700556,0
2,987.6895141601562,-3.6432541674003005E-4,0.0014923680573701859,4.622660926543176E-4,-9.419939041137695,17.308359146118164,-37.16289138793945,-0.7330316305160522,1.159666657447815,-0.015752792358398438,0.07028741,-0.15056632,9.763096,-0.0066950116,-1.0421484,9.7087345,0
2,987.6720581054688,4.348668153397739E-4,2.7590926038101315E-5,3.292128967586905E-4,-8.89887809753418,17.322370529174805,-37.55194091796875,-0.7213205099105835,1.1514866352081299,-0.024723052978515625,0.07265189,-0.15771551,9.772563,-0.02680715,-1.0471056,9.717819,0
2,987.6564331054688,5.68269460927695E-4,5.601828452199697E-4,4.624757566489279E-4,-9.153952598571777,16.925382614135742,-37.3354377746582,-0.7384588718414307,1.1621867418289185,-0.033684730529785156,0.0726265,-0.15533163,9.770193,-0.015744068,-1.0419158,9.715979,0
2,987.6386108398438,1.690404606051743E-4,5.601432640105486E-4,-7.005123188719153E-5,-9.11699390411377,17.302812576293945,-38.01758575439453,-0.7122477293014526,1.1631120443344116,-0.028400421142578125,0.067821324,-0.155331,9.760722,-0.017840143,-1.0354533,9.7071085,0
2,987.6388549804688,-9.703083196654916E-5,5.601035663858056E-4,5.958434194326401E-4,-8.934938430786133,17.051591873168945,-37.607521057128906,-0.7290771007537842,1.1548534631729126,-0.01842021942138672,0.07735559,-0.15771364,9.760719,-0.0104593225,-1.0388523,9.706862,0
2,987.65673828125,3.6371813621371984E-5,2.7432048227638006E-5,-4.69315389636904E-4,-8.952372550964355,17.087614059448242,-37.06805419921875,-0.7217909097671509,1.1512309312820435,-0.02735137939453125,0.07733017,-0.16247953,9.763084,-0.026034994,-1.0396953,9.709201,0
2,987.66943359375,7.02406105119735E-4,-2.389235596638173E-4,6.34213793091476E-5,-8.990035057067871,16.552255630493164,-37.60830307006836,-0.7147597074508667,1.142662525177002,-0.007876396179199219,0.072525024,-0.16009568,9.7559805,-0.022408845,-1.0315216,9.702862,0
2,987.661865234375,1.7001904780045152E-4,4.2682644561864436E-4,-3.3594761043787E-4,-9.20141315460205,17.249692916870117,-37.347103118896484,-0.7170013785362244,1.1437231302261353,-0.03100299835205078,0.070109695,-0.15294524,9.755978,-0.030812543,-1.0204613,9.703873,0
2,987.6338500976562,-9.605236118659377E-5,-6.384768057614565E-4,6.36310433037579E-5,-9.456963539123535,17.273954391479492,-37.57858657836914,-0.7146300077438354,1.130536437034607,-0.035213470458984375,0.067694426,-0.15056135,9.76071,-0.033710994,-1.0143117,9.709209,0
2,987.65673828125,3.036663983948529E-4,-3.7220068043097854E-4,-0.0011346854735165834,-9.16620922088623,16.65049171447754,-37.278968811035156,-0.7122906446456909,1.136446475982666,-0.039427757263183594,0.07483876,-0.15771051,9.777279,-0.018464398,-1.0224854,9.725217,0
3,987.6312866210938,3.041556919924915E-4,-3.7228010478429496E-4,1.9710365450009704E-4,-9.013744354248047,17.42561912536621,-37.694252014160156,-0.6993540525436401,1.1260415315628052,-0.0339202880859375,0.060724735,-0.16009931,9.782034,-0.021992357,-1.0134856,9.730874,0
3,987.6312866210938,3.041556919924915E-4,-3.7228010478429496E-4,1.9710365450009704E-4,-9.013744354248047,17.42561912536621,-37.694252014160156,-0.6932135820388794,1.1242176294326782,-0.028914451599121094,0.0729149,-0.16248854,9.77022,-0.024001837,-1.0182363,9.718617,0
3,987.6590576171875,-2.3005373077467084E-4,-6.38339901342988E-4,-2.0304630743339658E-4,-9.31212329864502,17.43558692932129,-37.07147216796875,-0.7000430822372437,1.1107912063598633,-0.033084869384765625,0.070519865,-0.1434222,9.774954,-0.013817781,-0.9971523,9.725265,0
3,987.6614379882812,1.6649352619424462E-4,-7.710227509960532E-4,-2.0430056611075997E-4,-8.972792625427246,16.9634952545166,-37.63502883911133,-0.7071778774261475,1.1115573644638062,-0.018329620361328125,0.0705148,-0.15295519,9.756016,-0.014417699,-1.0003932,9.70604,0
3,987.6338500976562,-8.254312560893595E-4,-2.7492863591760397E-4,3.481149906292558E-5,-8.900548934936523,17.00482749938965,-37.687068939208984,-0.6951408982276917,1.1031150817871094,-0.0036029815673828125,0.077679455,-0.14580525,9.753648,-0.013652528,-0.9937679,9.704287,0
3,987.6741943359375,3.730391035787761E-4,-1.4177858247421682E-4,3.483257023617625E-5,-9.134576797485352,17.02276039123535,-37.690547943115234,-0.6831218004226685,1.1090199947357178,-0.03149604797363281,0.06333497,-0.15295492,9.770218,-0.041197076,-0.9910448,9.721147,0
3,987.6491088867188,7.725618197582662E-4,-1.4178655692376196E-4,-2.3146235616877675E-4,-9.386459350585938,16.944791793823242,-37.416221618652344,-0.6714725494384766,1.090985655784607,-0.01679515838623047,0.05855009,-0.14818819,9.763116,-0.027562108,-0.9813377,9.714939,0
3,987.6592407226562,-2.6336812879890203E-5,2.576793194748461E-4,-3.6459934199228883E-4,-9.086068153381348,17.12117576599121,-38.20418167114258,-0.6832593679428101,1.1155788898468018,-0.016241073608398438,0.06571472,-0.16487102,9.75128,-0.04632218,-0.9940697,9.701992,0
3,987.6539306640625,-9.583447244949639E-4,-8.65239417180419E-6,-2.313994918949902E-4,-8.906567573547363,17.05189323425293,-37.72739028930664,-0.6809118986129761,1.0925230979919434,-0.0109710693359375,0.070489466,-0.14818801,9.760748,-0.011312381,-0.9795839,9.71285,0
3,987.6873168945312,-2.925060107372701E-4,-1.418182800989598E-4,-9.822059655562043E-5,-8.92076587677002,16.643606185913086,-37.85527801513672,-0.6878747940063477,1.102721095085144,-0.0246124267578125,0.08004397,-0.16248749,9.763115,-0.018539976,-0.9929381,9.71416,0
3,987.6564331054688,1.0701670544221997E-4,-0.001073931809514761,3.495829878374934E-5,-8.946704864501953,16.96158790588379,-37.63893508911133,-0.6791185140609741,1.0875638723373413,-0.014354705810546875,0.068089426,-0.15772082,9.763114,-0.021540713,-0.9797294,9.715326,0
3,987.66943359375,6.396971293725073E-4,1.2448179768398404E-4,-8.971264469437301E-4,-8.955687522888184,17.26881217956543,-36.96267318725586,-0.6874737739562988,1.0855587720870972,-0.004616737365722656,0.07764393,-0.1577207,9.74891,-0.0071287393,-0.97961795,9.701157,0
3,987.6513061523438,-2.9235944384709E-4,1.2447376502677798E-4,1.6815814888104796E-4,-8.866567611694336,17.036287307739258,-37.116764068603516,-0.6850078701972961,1.07693350315094,-0.02303314208984375,0.0800288,-0.14818753,9.763113,-0.0018458981,-0.96997315,9.7162695,0
3,987.6444091796875,6.397952674888074E-4,-4.081659426447004E-4,-9.813677752390504E-5,-9.027591705322266,17.09629249572754,-37.210941314697266,-0.6776526570320129,1.0780085325241089,-0.008319854736328125,0.07285398,-0.15295391,9.763113,-0.015548551,-0.9674549,9.716525,0
3,987.6641235351562,3.735281643457711E-4,-2.750159183051437E-4,4.345159395597875E-4,-9.015064239501953,17.187040328979492,-37.21818161010742,-0.6703102588653564,1.0694981813430786,-0.0078067779541015625,0.06806913,-0.1481873,9.760744,-0.015376756,-0.9574649,9.715027,0
3,987.6389770507812,-2.922128769569099E-4,-2.750238636508584E-4,1.6822089673951268E-4,-8.93806266784668,16.785539627075195,-38.014888763427734,-0.6663368940353394,1.0633296966552734,-0.021185874938964844,0.07045391,-0.14818718,9.763111,-0.018361285,-0.9550827,9.717652,0
3,987.661865234375,-8.247955120168626E-4,-1.4187386841513216E-4,-3.6438979441300035E-4,-9.235749244689941,16.743288040161133,-37.08122253417969,-0.6510531902313232,1.0612542629241943,-0.006730079650878906,0.06566906,-0.14342041,9.763111,-0.032252267,-0.94452083,9.718543,0
3,987.6542358398438,-2.921147388406098E-4,0.0010565395932644606,-9.805290028452873E-5,-9.0338134765625,17.380464553833008,-37.650020599365234,-0.6727882623672485,1.047678828239441,-0.034626007080078125,0.07283372,-0.14818682,9.767845,-0.007528135,-0.9493953,9.722996,0
3,987.6318359375,-2.920659608207643E-4,-2.7504769968800247E-4,7.009156979620457E-4,-9.595160484313965,16.96006965637207,-37.38495635986328,-0.670081377029419,1.0579934120178223,-0.024623870849609375,0.07282865,-0.15295325,9.760743,-0.03915277,-0.948598,9.715937,0
3,987.684814453125,1.0745663894340396E-4,-2.7505564503371716E-4,3.514677518978715E-5,-9.244403839111328,16.70918083190918,-37.61678695678711,-0.6535050272941589,1.0588586330413818,-0.01465606689453125,0.072823554,-0.16010298,9.767843,-0.034407727,-0.95231986,9.722839,0
3,987.6692504882812,1.0750576620921493E-4,3.9072608342394233E-4,4.346417263150215E-4,-9.103991508483887,16.97231101989746,-37.57683563232422,-0.6653253436088562,1.0596503019332886,6.4849853515625E-5,0.0775983,-0.16248615,9.767843,-0.02055988,-0.9533943,9.72285,0
3,987.664794921875,5.07028482388705E-4,3.90718225389719E-4,-2.3112696362659335E-4,-9.577917098999023,17.371309280395508,-37.411678314208984,-0.6534675359725952,1.0512042045593262,-0.013662338256835938,0.0752033,-0.1648693,9.765475,-0.033357985,-0.95067143,9.720722,0
3,987.6516723632812,-1.587123260833323E-4,-8.763570804148912E-6,-4.974220064468682E-4,-9.515578269958496,17.19291877746582,-37.87274932861328,-0.6557554602622986,1.0566574335098267,-0.017876625061035156,0.07041842,-0.16248591,9.77021,-0.03753668,-0.94296104,9.726138,0
3,987.6592407226562,5.071261548437178E-4,-8.771487046033144E-6,-9.792722994461656E-5,-9.06628704071045,16.74434471130371,-37.76176834106445,-0.6579439640045166,1.0433553457260132,-0.012643814086914062,0.077583045,-0.15295269,9.76074,-0.019120201,-0.93407,9.71744,0
3,987.6694946289062,6.403331062756479E-4,-6.745691644027829E-4,-3.6422203993424773E-4,-8.95284652709961,17.50886344909668,-37.51604461669922,-0.6361108422279358,1.044291615486145,-0.007403373718261719,0.06562847,-0.16248567,9.758373,-0.015186917,-0.9335791,9.715182,0
4,987.6343383789062,-1.5856564277783036E-4,-0.0012072089593857527,-6.305170827545226E-4,-9.297462463378906,17.21247673034668,-37.4071044921875,-0.6521472334861755,1.0305917263031006,0.0073642730712890625,0.079773724,-0.1529478,9.75362,-0.016760092,-0.92710364,9.710977,0
4,987.6521606445312,-0.0014910728204995394,7.905040984041989E-4,1.7091428162530065E-4,-9.384176254272461,16.94700050354004,-37.53217697143555,-0.6405411958694458,1.026154637336731,-0.0015859603881835938,0.07498121,-0.15533073,9.758354,-0.02990847,-0.9233098,9.716059,0
4,987.664794921875,-2.9230472864583135E-4,0.0019888693932443857,-9.525311179459095E-5,-9.327136993408203,17.57973289489746,-37.347042083740234,-0.6482768058776855,1.0270227193832397,-0.015333175659179688,0.077358454,-0.14579733,9.770188,-0.008455205,-0.91409385,9.72873,0
4,987.664794921875,-2.9230472864583135E-4,0.0019888693932443857,-9.525311179459095E-5,-8.997629165649414,17.15102195739746,-37.757652282714844,-0.6454527378082275,1.0092674493789673,-0.01959705352783203,0.07256597,-0.15056361,9.770187,-0.01155409,-0.91286004,9.728876,0
4,987.6622314453125,0.0014388707932084799,-4.0799344424158335E-4,-6.278324872255325E-4,-9.247570037841797,17.206445693969727,-37.29896545410156,-0.6428343653678894,1.0196797847747803,-1.6307830810546875E-4,0.08211291,-0.16009633,9.755983,-0.015674565,-0.9209675,9.714071,0
4,987.6498413085938,3.73729330021888E-4,-5.411711754277349E-4,3.043254546355456E-4,-9.123624801635742,17.66520881652832,-37.80681610107422,-0.6246882677078247,1.009354591369629,-0.01839160919189453,0.07493052,-0.14817967,9.767818,-0.003522906,-0.90313756,9.727394,0
4,987.6498413085938,6.401674472726882E-4,-2.748752012848854E-4,-9.50960093177855E-5,-8.878388404846191,17.499448776245117,-37.33450698852539,-0.6280928254127502,1.0122735500335693,0.005520820617675781,0.06535816,-0.15532918,9.7607155,-0.009720692,-0.9029262,9.720319,0
4,987.6624145507812,9.066056809388101E-4,-2.748950500972569E-4,-9.504356421530247E-5,-9.390669822692871,17.415315628051758,-38.020484924316406,-0.6349231004714966,0.9986733198165894,-0.027108192443847656,0.07968491,-0.15532885,9.770184,-0.016939405,-0.90620023,9.729619,0
4,987.6649780273438,-5.580090801231563E-4,-4.080728685948998E-4,5.70798700209707E-4,-9.131532669067383,17.025705337524414,-37.84516143798828,-0.6226861476898193,1.009213924407959,-0.0076904296875,0.07728231,-0.15532862,9.763081,-0.017387018,-0.9011164,9.7229395,0
4,987.6500244140625,6.405346211977303E-4,-5.412506870925426E-4,1.7137726536020637E-4,-8.914380073547363,17.28162956237793,-37.739627838134766,-0.6251026391983032,1.000537633895874,-0.016687393188476562,0.07248986,-0.14817841,9.770181,-0.005602141,-0.88982284,9.730972,0
4,987.6524658203125,3.743408597074449E-4,5.239929887466133E-4,8.372192969545722E-4,-9.325274467468262,17.45001792907715,-37.72465515136719,-0.6212904453277588,0.9896814823150635,-0.039620399475097656,0.07486707,-0.1505614,9.779649,-0.016042022,-0.89010954,9.740495,0
4,987.6727905273438,1.0814721463248134E-4,-8.658505976200104E-6,5.709558026865125E-4,-9.574533462524414,17.243074417114258,-37.86659622192383,-0.6150254011154175,0.9877392649650574,-0.0014963150024414062,0.074854374,-0.16009422,9.763077,-0.033147223,-0.8930326,9.723698,0
4,987.6527709960938,-6.906783091835678E-4,-6.744681159034371E-4,7.041661301627755E-4,-9.512874603271484,17.327051162719727,-37.72704315185547,-0.6172468066215515,0.9979270696640015,-0.01520538330078125,0.067672014,-0.16009386,9.765443,-0.035617992,-0.886203,9.726636,0
4,987.6526489257812,-2.4766370188444853E-5,1.2445967877283692E-4,-3.610451240092516E-4,-8.743682861328125,16.8621768951416,-38.01082992553711,-0.6053450107574463,0.9845405220985413,-0.010013580322265625,0.06526941,-0.15056045,9.767809,-0.014748832,-0.8739984,9.73,0
4,987.6373291015625,3.748296876437962E-4,-1.4187605120241642E-4,-8.936243830248713E-4,-9.208395957946777,17.533124923706055,-37.747528076171875,-0.6220066547393799,0.9754849672317505,0.014157295227050781,0.077206194,-0.15770997,9.760706,-0.011339253,-0.88142353,9.722405,0
4,987.6327514648438,-4.239958361722529E-4,3.907358623109758E-4,1.7169152852147818E-4,-9.196086883544922,17.254850387573242,-37.6176643371582,-0.6085484623908997,0.9837902784347534,-0.004062652587890625,0.07241371,-0.1624762,9.760705,-0.02250188,-0.8778692,9.72275,0
4,987.6630249023438,-3.1310197664424777E-4,3.3508290653117E-4,-4.710127250291407E-4,-9.31428337097168,16.93316078186035,-37.11872482299805,-0.5927819013595581,0.9626687169075012,0.02459430694580078,0.06523132,-0.14102648,9.748868,-0.028806558,-0.8525658,9.712717,0
4,987.6630249023438,-3.1310197664424777E-4,3.3508290653117E-4,-4.710127250291407E-4,-9.31428337097168,16.93316078186035,-37.11872482299805,-0.6044696569442749,0.9493839740753174,-0.0222930908203125,0.07477826,-0.14579265,9.765436,-0.022839438,-0.85904324,9.728932,0
4,987.6353759765625,3.529320820234716E-4,-4.639043763745576E-4,-7.143389666453004E-5,-9.054302215576172,17.20338249206543,-37.867454528808594,-0.5925119519233704,0.9835737943649292,0.001834869384765625,0.07476556,-0.16485856,9.763069,-0.031710707,-0.8720822,9.725675,0
4,987.6377563476562,2.1989626111462712E-4,-6.445040344260633E-5,6.177631439641118E-5,-9.265504837036133,16.847429275512695,-37.5831298828125,-0.594469428062439,0.9557623267173767,0.002315521240234375,0.07953268,-0.1505586,9.767802,-0.012147737,-0.8586145,9.731473,0
4,987.640380859375,-4.629738396033645E-5,-4.6394410310313106E-4,3.281444951426238E-4,-9.510022163391113,17.777254104614258,-37.3689079284668,-0.6016836166381836,0.951301634311676,0.007542610168457031,0.07713014,-0.16009136,9.755965,-0.01267053,-0.8612342,9.719495,0
4,987.6404418945312,-0.0012445966713130474,6.866783951409161E-5,6.188102997839451E-5,-9.193244934082031,17.494897842407227,-38.17103958129883,-0.5899658203125,0.9616675972938538,0.012713432312011719,0.06755781,-0.1672409,9.75833,-0.02918192,-0.8597592,9.7220125,0
4,987.6380004882812,3.5342079354450107E-4,0.0011339114280417562,3.2824932713992894E-4,-9.085445404052734,17.015993118286133,-37.54375457763672,-0.5921198129653931,0.9480686187744141,-0.010489463806152344,0.069935024,-0.15532418,9.770165,-0.015270105,-0.8476255,9.734805,0
4,987.6812133789062,-1.7908873269334435E-4,-4.640035913325846E-4,3.283016267232597E-4,-9.148679733276367,17.483713150024414,-37.79233169555664,-0.5801845788955688,0.9443411231040955,-0.01953125,0.07470214,-0.1600904,9.774899,-0.028602678,-0.8506964,9.73937,0
5,987.6383056640625,3.536656149663031E-4,6.860829307697713E-5,-2.0427757408469915E-4,-9.262460708618164,16.85038185119629,-37.73774337768555,-0.5870457887649536,0.9262210130691528,-0.004878044128417969,0.07946926,-0.15294035,9.774898,-0.0020240184,-0.84344214,9.739965,0
5,987.6436157226562,4.8694590805098414E-4,-6.45695545244962E-5,6.209075218066573E-5,-8.687009811401367,16.809812545776367,-37.90102767944336,-0.5749204754829407,0.9454967975616455,0.009823799133300781,0.06511718,-0.1600898,9.7559595,-0.030561425,-0.83743376,9.72144,0
5,987.686279296875,-9.776693768799305E-4,-3.309052553959191E-4,1.9530107965692878E-4,-9.177619934082031,17.035417556762695,-38.14656448364258,-0.5816607475280762,0.9130148887634277,-0.0039234161376953125,0.077053994,-0.14578988,9.770161,-0.00864924,-0.82787347,9.736416,0
5,987.6385498046875,-1.7859943909570575E-4,-5.972409853711724E-4,-2.0412035519257188E-4,-9.321809768676758,17.584890365600586,-37.61760711669922,-0.5746864080429077,0.9330698251724243,0.00595855712890625,0.0674817,-0.15532269,9.755957,-0.025967753,-0.8274751,9.722243,0
5,987.6611328125,3.5415455931797624E-4,6.852883961983025E-5,1.9540585344657302E-4,-9.173054695129395,17.039838790893555,-38.37847900390625,-0.572324812412262,0.9244351983070374,-0.007817268371582031,0.074638754,-0.15293904,9.77726,-0.02839555,-0.8264891,9.7437105,0
5,987.62548828125,2.211188548244536E-4,6.011407822370529E-4,-7.366473437286913E-4,-9.791387557983398,17.619279861450195,-37.54725646972656,-0.5791490077972412,0.9111169576644897,0.021026611328125,0.079405874,-0.15055548,9.760689,-0.013625215,-0.8222856,9.72747,0
5,987.6611328125,3.543990314938128E-4,-7.304584141820669E-4,6.235262844711542E-5,-9.479857444763184,17.594881057739258,-37.516849517822266,-0.5668745040893555,0.916419267654419,-0.002178192138671875,0.06983358,-0.16247155,9.765422,-0.019915044,-0.8248956,9.732106,0
5,987.6663208007812,-7.107422570697963E-4,-8.636362035758793E-4,-2.0391092402860522E-4,-8.838970184326172,16.825700759887695,-38.109493255615234,-0.5549162030220032,0.9171233177185059,0.021932601928710938,0.06265113,-0.15770464,9.74885,-0.030918809,-0.81241906,9.7163725,0
5,987.6362915039062,-4.483020165935159E-5,3.3476538374088705E-4,-4.701743018813431E-4,-9.05375862121582,16.835092544555664,-37.769004821777344,-0.5475863814353943,0.9039643406867981,0.008136749267578125,0.06263846,-0.15055458,9.758318,-0.035181426,-0.80316234,9.726515,0
5,987.6512451171875,8.873979677446187E-4,-5.973600782454014E-4,4.619837854988873E-4,-9.45357894897461,17.145715713500977,-38.03350830078125,-0.5688849687576294,0.9190034866333008,-0.005626678466796875,0.074575305,-0.16485389,9.767786,-0.03480518,-0.8182145,9.735076,0
5,987.66943359375,-1.7774332081899047E-4,2.0156780374236405E-4,-4.7006941167637706E-4,-9.49980354309082,17.049509048461914,-37.63583755493164,-0.5571098327636719,0.9050838351249695,0.02322673797607422,0.0721727,-0.15532048,9.755947,-0.026540117,-0.8043438,9.724204,0
5,987.6465454101562,8.881691610440612E-5,-9.968933882191777E-4,1.958250068128109E-4,-9.210827827453613,17.214845657348633,-37.8440055847168,-0.5494276881217957,0.8915316462516785,0.02840900421142578,0.072160065,-0.15532018,9.760681,-0.01980266,-0.8010384,9.729242,0
5,987.644287109375,-0.0013757983688265085,-0.001130071235820651,1.958773354999721E-4,-9.235883712768555,17.033349990844727,-37.829524993896484,-0.5562300682067871,0.8872280716896057,0.005199432373046875,0.07214737,-0.15293653,9.770149,-0.022632647,-0.7954487,9.739157,0
5,987.6643676757812,-4.4357049046084285E-4,-1.9798544235527515E-4,1.9592972239479423E-4,-9.803425788879395,17.713411331176758,-37.62789535522461,-0.5391170382499695,0.8783565759658813,0.0056438446044921875,0.069744796,-0.14816974,9.760679,-0.028713582,-0.7854878,9.730356,0
5,987.6596069335938,-4.397443262860179E-5,-3.3116323174908757E-4,-7.03337718732655E-5,-9.239470481872559,17.398698806762695,-37.77336502075195,-0.5605740547180176,0.8793203830718994,-0.012891769409179688,0.074511886,-0.15293594,9.777248,-0.014500018,-0.7899158,9.746761,0
5,987.6470947265625,8.930562762543559E-5,-8.638147264719009E-4,-7.028150139376521E-5,-9.247920989990234,17.12748146057129,-37.9101676940918,-0.5433133840560913,0.875366747379303,0.0112152099609375,0.069719374,-0.16008548,9.779615,-0.027216682,-0.7902156,9.749164,0
5,987.6649169921875,-1.7688778461888433E-4,3.345867444295436E-4,-7.022888166829944E-5,-9.216235160827637,16.94658088684082,-38.13541793823242,-0.5412392616271973,0.8618719577789307,0.006875038146972656,0.072096586,-0.15055211,9.758308,-0.022262,-0.7781796,9.728638,0
5,987.6602172851562,-1.767653157003224E-4,2.0140889682807028E-4,-3.3649225952103734E-4,-9.179685592651367,17.402238845825195,-38.16770935058594,-0.5491783618927002,0.8912426829338074,-0.006993293762207031,0.080154985,-0.16964014,9.772593,-0.015190479,-0.7962456,9.741898,0
5,987.6546020507812,-3.1850201776251197E-4,-3.2983015989884734E-4,3.2562081469222903E-4,-9.298574447631836,17.132776260375977,-37.979652404785156,-0.5370579957962036,0.8730222582817078,-0.006585121154785156,0.06582481,-0.16487367,9.7773285,-0.033973284,-0.7817695,9.747582,0
5,987.655029296875,-3.1859060982242227E-4,-3.2981581171043217E-4,5.918988026678562E-4,-9.189497947692871,17.655771255493164,-37.10325241088867,-0.5393630862236023,0.8737505078315735,-0.00144195556640625,0.07061371,-0.16010736,9.763126,-0.015359392,-0.77565265,9.733826,0
5,987.655029296875,-3.1859060982242227E-4,-3.2981581171043217E-4,5.918988026678562E-4,-9.037836074829102,17.007753372192383,-37.31965637207031,-0.5126783847808838,0.8602830171585083,0.01791095733642578,0.06106332,-0.15772434,9.765495,-0.028800596,-0.76539445,9.736881,0
5,987.6576538085938,-1.855206792242825E-4,-9.955911664292216E-4,1.9238714594393969E-4,-9.063434600830078,17.194543838500977,-37.403629302978516,-0.5195737481117249,0.8564586043357849,0.02304553985595703,0.05868256,-0.15534128,9.751291,-0.027661415,-0.757849,9.723175,0
5,987.675048828125,2.1386443404480815E-4,-8.62418906763196E-4,5.918230162933469E-4,-8.611438751220703,16.880098342895508,-37.14693832397461,-0.5269409418106079,0.8432224988937378,0.02341175079345703,0.07781094,-0.15534155,9.75366,-0.0014301428,-0.76372236,9.725266,0
5,987.6602783203125,8.061836706474423E-5,6.970102549530566E-5,-4.734784015454352E-4,-9.020390510559082,17.181882858276367,-36.94761276245117,-0.5247251987457275,0.844165027141571,1.1157989501953125E-4,0.06587058,-0.15057524,9.772598,-0.017666833,-0.7517184,9.745014,0
5,987.6552734375,4.800034803338349E-4,6.023471942171454E-4,-3.4035841235890985E-4,-9.700735092163086,17.5983829498291,-36.86714553833008,-0.5171993970870972,0.8258630037307739,0.014725685119628906,0.06587976,-0.14580889,9.765497,-0.029277243,-0.74291325,9.738468,0
6,987.6602783203125,-7.185061112977564E-4,-7.292178925126791E-4,8.580252761021256E-4,-9.158086776733398,17.263036727905273,-35.93034744262695,-0.5383013486862183,0.8364894986152649,0.010376930236816406,0.07783845,-0.16249205,9.7726,-0.016067937,-0.7604939,9.744618,0
6,987.645263671875,4.7982699470594525E-4,-0.0012618352193385363,1.9219779642298818E-4,-8.969194412231445,16.808298110961914,-36.77967071533203,-0.5216823816299438,0.8373218774795532,0.015489578247070312,0.073067814,-0.15772574,9.767866,-0.019454937,-0.75026,9.740543,0
6,987.6300659179688,-1.8605130026116967E-4,2.0291641703806818E-4,1.921598450280726E-4,-8.731850624084473,16.60917091369629,-36.8815803527832,-0.519452691078186,0.8241251707077026,0.020578384399414062,0.06829718,-0.15057613,9.756031,-0.016758125,-0.73789173,9.729477,0
6,987.655517578125,2.1333439508453012E-4,8.687203517183661E-4,1.9212195184081793E-4,-8.913837432861328,16.913339614868164,-37.641178131103516,-0.5072026252746582,0.8297159671783447,-0.016902923583984375,0.061136633,-0.15057628,9.779703,-0.023291662,-0.7322731,9.753576,0
6,987.6351318359375,-4.525438998825848E-4,-0.001394950202666223,-8.73179582413286E-4,-9.154905319213867,17.371904373168945,-36.78403091430664,-0.5048983097076416,0.8355856537818909,0.0071239471435546875,0.06353569,-0.16249289,9.763135,-0.022096846,-0.73984015,9.736601,0
6,987.6580810546875,3.2009684946388006E-4,-7.615162758156657E-5,9.401366114616394E-4,-8.99837875366211,17.360437393188477,-36.8074836730957,-0.5024459958076477,0.8222299218177795,0.021696090698242188,0.07071459,-0.16010983,9.758401,-0.01340237,-0.7372995,9.732073,0
6,987.66064453125,1.8685043323785067E-4,-7.613722118549049E-5,6.73782778903842E-4,-9.007373809814453,17.457517623901367,-37.042728424072266,-0.5051263570785522,0.8184962272644043,0.02204132080078125,0.068333834,-0.15296029,9.760769,-0.020177595,-0.7265908,9.735108,0
6,987.64599609375,5.360448267310858E-5,1.901929936138913E-4,-5.246765213087201E-4,-9.396677017211914,17.67253303527832,-37.1492919921875,-0.507912278175354,0.795685350894928,0.02238178253173828,0.07312283,-0.14819397,9.753668,-0.015868988,-0.7209746,9.728376,0
6,987.663818359375,5.3515774197876453E-5,9.891549125313759E-4,2.742332289926708E-4,-9.285696029663086,17.302492141723633,-37.375694274902344,-0.5010479092597961,0.8012727499008179,0.013269424438476562,0.06835216,-0.14342768,9.763138,-0.0067257285,-0.71184313,9.738447,0
6,987.6488037109375,-6.123620551079512E-4,4.565375857055187E-4,-2.584364265203476E-4,-8.798129081726074,17.073938369750977,-36.97554397583008,-0.49870479106903076,0.8070574402809143,0.008887290954589844,0.063581586,-0.16011079,9.765507,-0.014401052,-0.7213363,9.740342,0
6,987.62353515625,-7.981900125741959E-5,-7.60798720875755E-5,4.073154414072633E-4,-9.139388084411621,18.018770217895508,-37.13221740722656,-0.4771500825881958,0.7935977578163147,0.018721580505371094,0.063590735,-0.1577278,9.767874,-0.023157537,-0.7155318,9.743088,0
6,987.6538696289062,3.194784512743354E-4,3.2342271879315376E-4,2.7408168534748256E-4,-9.546571731567383,17.321596145629883,-37.336612701416016,-0.48828601837158203,0.7975373268127441,0.023962020874023438,0.07076964,-0.15534474,9.756039,-0.027984127,-0.71249497,9.731445,0
6,987.6436157226562,-6.127157248556614E-4,5.897529190406203E-4,-2.5858799926936626E-4,-8.995335578918457,17.36338233947754,-36.962093353271484,-0.5004355907440186,0.784270167350769,0.01956462860107422,0.07555857,-0.15057836,9.765509,-0.0045696707,-0.7064991,9.741377,0
6,987.6436157226562,-6.127157248556614E-4,5.897529190406203E-4,-2.5858799926936626E-4,-8.995335578918457,17.36338233947754,-36.962093353271484,-0.4992437958717346,0.8014128804206848,0.010272026062011719,0.073177844,-0.16249491,9.753674,-0.014293983,-0.7135428,9.729161,0
6,987.6566162109375,4.5245944056659937E-4,1.902934309327975E-4,4.07163955969736E-4,-8.8231840133667,16.89244270324707,-36.961063385009766,-0.47789326310157776,0.7835280895233154,0.010599136352539062,0.0564577,-0.15296204,9.772612,-0.038983196,-0.6945869,9.749181,0
6,987.6466064453125,-3.4657656215131283E-4,5.714989674743265E-5,7.65221193432808E-6,-9.398496627807617,17.03891944885254,-37.496856689453125,-0.47589972615242004,0.7845178246498108,0.01092529296875,0.058856755,-0.15772884,9.77498,-0.028258575,-0.6973058,9.75149,0
6,987.6519775390625,1.8596695736050606E-4,9.89269814454019E-4,2.7393014170229435E-4,-8.854327201843262,16.705049514770508,-36.63736343383789,-0.49307551980018616,0.7807413935661316,0.02545166015625,0.07590425,-0.16250323,9.767907,-0.020830076,-0.7057191,9.744009,0
6,987.6494140625,5.038757808506489E-5,1.9071523274760693E-4,-6.592132849618793E-4,-9.706546783447266,17.804323196411133,-37.95608139038086,-0.48576197028160095,0.7755211591720581,0.030592918395996094,0.07146132,-0.16012819,9.763205,-0.025174253,-0.69800854,9.739767,0
6,987.6494140625,5.038757808506489E-5,1.9071523274760693E-4,-6.592132849618793E-4,-9.706546783447266,17.804323196411133,-37.95608139038086,-0.4753013253211975,0.7785929441452026,0.026001930236816406,0.07149553,-0.14821263,9.756105,-0.01565911,-0.6844964,9.733442,0
6,987.6621704101562,0.0011146129108965397,8.501657284796238E-4,-7.967497804202139E-4,-9.20335578918457,17.116296768188477,-37.531455993652344,-0.4875040650367737,0.7750257849693298,0.021577835083007812,0.083479345,-0.15059681,9.767944,-0.006916214,-0.68972427,9.745082,0
6,987.6497192382812,3.1500542536377907E-4,5.132527439855039E-5,-1.3124290853738785E-4,-9.39393138885498,17.0433406829834,-37.7287712097168,-0.4613931477069855,0.7667079567909241,0.03135967254638672,0.06917417,-0.16966386,9.76558,-0.0342418,-0.69618607,9.742395,0
6,987.6444091796875,3.146752715110779E-4,4.5085270539857447E-4,-1.3138435315340757E-4,-8.982479095458984,17.112794876098633,-38.1811637878418,-0.4832448363304138,0.7583140134811401,0.012729644775390625,0.078767955,-0.1577483,9.76795,-0.0071209325,-0.6875677,9.745313,0
6,987.6549072265625,-8.512812200933695E-5,0.001116695930249989,1.3479014160111547E-4,-9.272976875305176,16.945985794067383,-37.89568328857422,-0.48619338870048523,0.7546353936195374,0.01776409149169922,0.07402241,-0.14821602,9.753751,-0.017116334,-0.6728983,9.731908,0
6,987.6397094726562,1.808574888855219E-4,-3.4798786509782076E-4,1.3464875519275665E-4,-9.0166654586792,16.922456741333008,-37.702850341796875,-0.47910788655281067,0.7655389308929443,0.022798538208007812,0.07644659,-0.16728307,9.751387,-0.017198872,-0.6877852,9.728824,0
6,987.6653442382812,-2.1894625388085842E-4,0.0013831189135089517,-5.312823341228068E-4,-9.267569541931152,17.214250564575195,-37.604278564453125,-0.4583517611026764,0.7331901788711548,0.032562255859375,0.06453124,-0.1434512,9.753757,-0.018572494,-0.6581557,9.7327795,0
7,987.63720703125,-3.5243399906903505E-4,-4.8103867447935045E-4,1.207983586937189E-6,-9.216480255126953,17.94700813293457,-37.80899429321289,-0.4844827353954315,0.7484210133552551,0.032894134521484375,0.08368474,-0.16251822,9.763229,0.001276782,-0.68095934,9.741167,0
7,987.6299438476562,-4.8592209350317717E-4,-4.8098512343131006E-4,1.342244795523584E-4,-9.45357894897461,17.14571189880371,-38.033512115478516,-0.4582439064979553,0.7446541786193848,0.009540557861328125,0.062209845,-0.15298595,9.760864,-0.031181004,-0.65853614,9.739976,0
7,987.6522827148438,-7.525678956881166E-4,5.843319231644273E-4,9.250943548977375E-7,-8.928781509399414,17.110445022583008,-38.26628494262695,-0.46103155612945557,0.7407902479171753,0.02878856658935547,0.06941372,-0.15775333,9.756133,-0.012902693,-0.66298926,9.735097,0
7,987.6656494140625,-4.865818191319704E-4,4.512275627348572E-4,-3.9869017200544477E-4,-9.173192024230957,16.933923721313477,-37.67940139770508,-0.4639647603034973,0.7227991819381714,0.010140419006347656,0.079007626,-0.1458378,9.763239,-0.0077716354,-0.65403485,9.742716,0
7,987.6600952148438,3.120357869192958E-4,0.0013833866687491536,-5.319894407875836E-4,-9.297733306884766,17.396623611450195,-37.45633316040039,-0.45753976702690125,0.7337692975997925,0.01986980438232422,0.07426205,-0.14822187,9.763242,-0.009359636,-0.65120554,9.742907,0
7,987.6600952148438,3.120357869192958E-4,0.0013833866687491536,-5.319894407875836E-4,-9.373441696166992,17.22041893005371,-37.5113410949707,-0.46995294094085693,0.7258737087249756,0.03906536102294922,0.08863568,-0.1577558,9.749041,-0.005698801,-0.6629468,9.728155,0
7,987.6605224609375,0.0011106535093858838,9.839663980528712E-4,-9.316045907326043E-4,-9.121452331542969,16.192049026489258,-37.41300964355469,-0.46748900413513184,0.7269989848136902,0.015700340270996094,0.08150023,-0.15299018,9.7632475,-0.018399123,-0.6524828,9.742944,0
7,987.6610107421875,-8.809799328446388E-5,-3.475593985058367E-4,1.335174310952425E-4,-9.116451263427734,16.934518814086914,-37.919132232666016,-0.4596082270145416,0.7026809453964233,0.03505897521972656,0.071974814,-0.14584117,9.753782,-0.011851894,-0.6381543,9.734236,0
7,987.6779174804688,-7.54217617213726E-4,-8.118989353533834E-5,1.333760446868837E-4,-8.573664665222168,16.705095291137695,-37.68141555786133,-0.45854875445365906,0.7106359601020813,0.025720596313476562,0.07678884,-0.15537511,9.760887,-4.9696E-4,-0.6465328,9.7409935,0
7,987.622802734375,7.101900409907103E-4,5.846533458679914E-4,-3.993970458395779E-4,-9.023296356201172,17.284860610961914,-37.49208450317383,-0.4510379433631897,0.7119541764259338,0.03075695037841797,0.07443321,-0.1482261,9.758522,-0.0038077007,-0.6356274,9.739208,0
7,987.635498046875,4.435440059751272E-4,-0.0012795042712241411,-1.332226092927158E-4,-8.481351852416992,16.791582107543945,-37.77768325805664,-0.4393048882484436,0.6798248291015625,0.04050731658935547,0.069687605,-0.13631056,9.758526,0.005125079,-0.61969215,9.740033,0
7,987.6686401367188,-8.941767737269402E-5,-4.805030475836247E-4,2.6610976783558726E-4,-8.972643852233887,17.279565811157227,-37.4225959777832,-0.4466041922569275,0.7045719623565674,0.026605606079101562,0.07928145,-0.15776087,9.753795,-0.0025000118,-0.6394142,9.734414,0
7,987.6278686523438,-9.007763583213091E-5,5.223584594205022E-5,-4.888861440122128E-7,-9.250123977661133,17.388383865356445,-37.23223114013672,-0.4294002950191498,0.6992283463478088,0.012806892395019531,0.064976275,-0.15299518,9.775103,-0.01834903,-0.62483287,9.756511,0
7,987.6278686523438,-9.007763583213091E-5,5.223584594205022E-5,-4.888861440122128E-7,-9.250123977661133,17.388383865356445,-37.23223114013672,-0.4376715421676636,0.7166903614997864,0.017678260803222656,0.07218021,-0.16729571,9.768003,-0.030022334,-0.63851917,9.748769,0
7,987.6583251953125,-2.2356549743562937E-4,1.8544727936387062E-4,-1.3378827134147286E-4,-9.37746524810791,16.84771156311035,-37.180973052978516,-0.4308084547519684,0.7132484316825867,0.03214836120605469,0.072214425,-0.16252996,9.753803,-0.020182725,-0.6309206,9.734979,0
7,987.6456909179688,4.4189440086483955E-4,-6.134468130767345E-4,-4.002454807050526E-4,-9.192840576171875,17.020689010620117,-37.37351608276367,-0.42860788106918335,0.6903508901596069,0.018236160278320312,0.074638605,-0.15299766,9.772745,-0.021628467,-0.620862,9.754465,0
7,987.6282348632812,-7.568571018055081E-4,5.850282032042742E-4,1.3224483700469136E-4,-9.269390106201172,16.580636978149414,-37.951839447021484,-0.4362476170063019,0.691399097442627,0.037446022033691406,0.06689969,-0.15298371,9.751388,-0.013806598,-0.6133586,9.733502,0
7,987.6329956054688,-7.571870228275657E-4,1.856079907156527E-4,3.9841930265538394E-4,-9.203899383544922,17.484586715698242,-37.629905700683594,-0.418773889541626,0.7023873329162598,0.014131546020507812,0.06868428,-0.16011871,9.77027,-0.03294542,-0.6178186,9.752219,0
7,987.6231689453125,2.3555674124509096E-4,6.095969583839178E-4,6.906525231897831E-4,-9.388959884643555,16.57355308532715,-37.16315841674805,-0.44046178460121155,0.6798820495605469,0.019133567810058594,0.08061981,-0.15535177,9.765534,-0.008773098,-0.6164527,9.747626,0
7,987.6513061523438,-5.604133475571871E-4,-1.8983401241712272E-4,1.592967309989035E-4,-9.460209846496582,17.50811195373535,-37.8227424621582,-0.42399582266807556,0.6811395287513733,0.043071746826171875,0.07343614,-0.15535147,9.748962,-0.021074314,-0.6089814,9.73142,0
7,987.6384887695312,-2.7647241950035095E-5,-1.8985584028996527E-4,5.588282365351915E-4,-9.450672149658203,17.042741775512695,-37.489044189453125,-0.4173896014690399,0.673152506351471,0.03857612609863281,0.071032286,-0.1505846,9.7607975,0.0051307846,-0.6017698,9.74365,0
7,987.6585693359375,3.7196138873696327E-4,8.753858273848891E-4,1.59412098582834E-4,-8.689618110656738,17.544923782348633,-38.02062225341797,-0.4198538064956665,0.6698029041290283,0.029367446899414062,0.073408246,-0.1529675,9.758429,-0.021927655,-0.6013937,9.741331,0
7,987.6385498046875,2.3893790785223246E-4,-3.2305746572092175E-4,-1.0684598237276077E-4,-9.276999473571777,16.573274612426758,-37.5653190612793,-0.4274069666862488,0.6666579246520996,0.034338951110839844,0.078174084,-0.14820059,9.744225,8.0817577E-4,-0.59635013,9.727402,0
7,987.6588134765625,1.0591442696750164E-4,-5.676344153471291E-5,2.636946737766266E-5,-9.02025318145752,17.287805557250977,-37.646690368652344,-0.4158291220664978,0.6681355237960815,0.02984905242919922,0.07099044,-0.15773334,9.765528,-0.00690357,-0.59954536,9.748639,0
8,987.67919921875,1.0604888666421175E-4,6.090042879804969E-4,-3.7304667057469487E-4,-8.903726577758789,17.291940689086914,-38.280765533447266,-0.40873241424560547,0.6741310954093933,0.03958415985107422,0.06619665,-0.16249962,9.739487,-0.013591103,-0.59718,9.722734,0
8,987.6410522460938,-2.9329012613743544E-4,-8.557548280805349E-4,-1.0667304741218686E-4,-8.908292770385742,17.287527084350586,-38.048851013183594,-0.4164513647556305,0.665899395942688,0.03509330749511719,0.075742304,-0.16249923,9.760791,-0.008250597,-0.59944904,9.744012,0
8,987.6410522460938,-1.5999784227460623E-4,0.0011415922781452537,-2.3977336240932345E-4,-8.795926094055176,16.813039779663086,-37.653480529785156,-0.4097723960876465,0.6528211236000061,0.030607223510742188,0.0757283,-0.15773232,9.758423,-0.007641251,-0.5920117,9.742016,0
8,987.6385498046875,-2.9302097391337156E-4,7.63071293476969E-5,-1.0655767982825637E-4,-9.067999839782715,17.190126419067383,-37.17171096801758,-0.4076041281223297,0.6351304650306702,0.049793243408203125,0.068544626,-0.1458156,9.75132,-0.010237621,-0.5747229,9.735698,0
8,987.6638793945312,-5.590678192675114E-4,8.752110879868269E-4,2.6715511921793222E-5,-9.458144187927246,17.14129066467285,-37.80159378051758,-0.3998839855194092,0.6441635489463806,0.026488304138183594,0.06614077,-0.15534838,9.77499,-0.024841355,-0.5796986,9.759215,0
8,987.6514282226562,-2.6301713660359383E-5,-1.900742790894583E-4,2.6773137506097555E-5,-9.345343589782715,17.40486717224121,-37.6804313659668,-0.38450297713279724,0.6474690437316895,0.03606700897216797,0.061347038,-0.15534802,9.760786,-0.022865936,-0.5741226,9.745292,0
8,987.6561889648438,5.064649740234017E-4,7.621970144100487E-5,2.6830879505723715E-5,-9.562357902526855,17.254854202270508,-38.48503875732422,-0.38258329033851624,0.6539222598075867,0.026816368103027344,0.063723,-0.16488083,9.763151,-0.03232085,-0.5806829,9.747416,0
8,987.6265869140625,-2.603256143629551E-5,-9.890657383948565E-4,2.688856329768896E-5,-8.863183975219727,16.908044815063477,-37.57168960571289,-0.39930906891822815,0.6505100727081299,0.031800270080566406,0.06609893,-0.15058078,9.765518,-0.011249516,-0.5665729,9.750449,0
8,987.6367797851562,-1.5905557665973902E-4,-7.227716268971562E-4,2.9326207004487514E-4,-8.988567352294922,17.106904983520508,-37.871944427490234,-0.38730764389038086,0.6329287886619568,0.03204536437988281,0.06847489,-0.16011353,9.765516,-0.014341523,-0.5729691,9.750238,0
8,987.6290283203125,-4.252371145412326E-4,-8.559514535591006E-4,8.259515161626041E-4,-9.082262992858887,17.12485694885254,-38.39744567871094,-0.393480122089386,0.6471173763275146,0.046600341796875,0.075630605,-0.17441292,9.753679,-0.01696494,-0.5853808,9.737939,0
8,987.656982421875,5.070031620562077E-4,-1.9018353486899287E-4,2.9337743762880564E-4,-9.384393692016602,16.577974319458008,-37.395076751708984,-0.39717093110084534,0.6360403895378113,0.046710968017578125,0.07322675,-0.16249616,9.758411,-0.028065406,-0.5704677,9.743313,0
8,987.6219482421875,-2.918101381510496E-4,-5.896792281419039E-4,1.6027718083932996E-4,-9.175149917602539,16.194395065307617,-37.32788848876953,-0.3807729184627533,0.6279369592666626,0.042205810546875,0.06365317,-0.16011252,9.756043,-0.035257716,-0.5605897,9.7413845,0
8,987.632080078125,6.404302548617125E-4,-7.228589383885264E-4,2.934927761089057E-4,-9.235340118408203,16.66506004333496,-37.731075286865234,-0.38789698481559753,0.625037431716919,0.02348613739013672,0.07797861,-0.15296234,9.7702465,-0.014750008,-0.5592935,9.755725,0
8,987.6295776367188,3.742487169802189E-4,-7.228808244690299E-4,1.6039243200793862E-4,-9.049193382263184,16.839509963989258,-38.000919342041016,-0.3952219784259796,0.6220266819000244,0.02843761444091797,0.07079494,-0.16011186,9.763143,-0.01792792,-0.55924064,9.748669,0
8,987.6397094726562,-2.50902958214283E-5,-3.234288305975497E-4,-1.0586570715531707E-4,-9.17982292175293,17.29631996154785,-37.468631744384766,-0.3882974684238434,0.6140207648277283,0.004985809326171875,0.077950716,-0.15296169,9.777345,-0.005629584,-0.5539388,9.763148,0
8,987.6397094726562,-2.50902958214283E-5,-3.234288305975497E-4,-1.0586570715531707E-4,-9.242813110351562,16.763612747192383,-38.04362869262695,-0.3623792231082916,0.6204848289489746,0.047806739807128906,0.061207443,-0.16726102,9.753672,-0.03533668,-0.5545755,9.739456,0
8,987.642333984375,1.0820210445672274E-4,-5.713480641134083E-5,-2.3896602215245366E-4,-8.981935501098633,16.7445011138916,-38.08271026611328,-0.37949639558792114,0.6123740673065186,0.03382301330566406,0.07553291,-0.16011079,9.756037,-0.013250806,-0.55246574,9.741983,0
8,987.6473388671875,-1.57979317009449E-4,-1.9031463307328522E-4,6.931972457095981E-4,-9.523038864135742,17.501619338989258,-37.27378845214844,-0.3874650299549103,0.6047321557998657,0.04344463348388672,0.07606262,-0.15297402,9.753718,-0.012644116,-0.5436118,9.7400465,0
8,987.6321411132812,5.07302931509912E-4,-1.9023221102543175E-4,-1.0596791980788112E-4,-10.010062217712402,17.361886978149414,-37.57548141479492,-0.37482666969299316,0.6095803380012512,0.03428459167480469,0.068900526,-0.15297414,9.763187,-0.03131913,-0.535701,9.749872,0
8,987.6376342773438,-6.955954013392329E-4,-3.226633707527071E-4,2.5271379854530096E-5,-9.202674865722656,16.85392189025879,-38.132083892822266,-0.37851789593696594,0.6177017092704773,0.015444755554199219,0.07368791,-0.16489078,9.772657,-0.021266183,-0.5480325,9.758926,0
8,987.6321411132812,9.022264275699854E-4,-7.221252890303731E-4,2.915558288805187E-4,-9.096940040588379,16.74183464050293,-37.525943756103516,-0.37213146686553955,0.5999118685722351,0.03932380676269531,0.07130566,-0.15297456,9.767924,-0.016149804,-0.5333193,9.754801,0
8,987.6455078125,-8.289000252261758E-4,7.426239317283034E-4,-7.73739127907902E-4,-8.731032371520996,16.45271110534668,-38.1812858581543,-0.37508252263069153,0.5920795202255249,0.034783363342285156,0.08087289,-0.16012456,9.770292,0.0013715122,-0.5416478,9.756918,0
8,987.6327514648438,-3.00257233902812E-5,3.4316201345063746E-4,-2.4113879771903157E-4,-8.943022727966309,17.465478897094727,-37.66898727416992,-0.37294822931289673,0.5795822739601135,0.030246734619140625,0.07371074,-0.15059172,9.765557,-0.007179436,-0.52691925,9.752771,0
8,987.6378784179688,-3.0099181458353996E-5,-5.889316089451313E-4,1.5830359188839793E-4,-8.743070602416992,16.546846389770508,-38.26192092895508,-0.3703908920288086,0.6005780696868896,0.03044891357421875,0.07371837,-0.1648915,9.765558,-0.012449842,-0.5367597,9.7524605,0
8,987.6455078125,7.687752367928624E-4,-0.0011215514969080687,-1.080437796190381E-4,-9.205284118652344,17.589033126831055,-38.25168228149414,-0.368588924407959,0.5787729620933533,0.04009246826171875,0.073726,-0.14820881,9.751356,-0.016192205,-0.51882696,9.738939,0
9,987.6199951171875,9.018598357215524E-4,-1.894339657155797E-4,-6.407069158740342E-4,-9.653829574584961,17.432214736938477,-37.86545181274414,-0.35709768533706665,0.5854322910308838,0.04974365234375,0.076123536,-0.16012527,9.758459,-0.016254956,-0.5281944,9.745753,0
9,987.6181030273438,3.6915449891239405E-4,7.689374615438282E-5,2.505135489627719E-5,-9.524560928344727,17.500146865844727,-37.19648361206055,-0.3505222201347351,0.5681180357933044,0.045192718505859375,0.061791718,-0.14820914,9.758459,-0.021009631,-0.50832194,9.746511,0
9,987.6377563476562,-3.0392548069357872E-5,-3.225680848117918E-4,1.5817786334082484E-4,-9.479857444763184,17.594877243041992,-37.51685333251953,-0.3727762997150421,0.5605009198188782,0.03589439392089844,0.08091852,-0.14582603,9.756093,-0.0072719054,-0.51269364,9.744037,0
9,987.6488647460938,6.35323696769774E-4,6.095493445172906E-4,8.239360759034753E-4,-9.54200553894043,17.326013565063477,-37.56852722167969,-0.36587488651275635,0.58126300573349,0.03135395050048828,0.076146364,-0.16250916,9.75846,-0.020392973,-0.5221969,9.74611,0
9,987.6332397460938,-5.631711101159453E-4,-5.888601881451905E-4,-1.0820088209584355E-4,-9.58657169342041,17.337202072143555,-37.947235107421875,-0.3451346158981323,0.5785984396934509,0.03151416778564453,0.07137418,-0.15535958,9.763196,-0.020162003,-0.5115549,9.751265,0
9,987.6156616210938,7.683350704610348E-4,4.7641523997299373E-4,2.9124144930392504E-4,-9.331239700317383,16.943910598754883,-37.57864761352539,-0.3622470796108246,0.5662106871604919,0.022222518920898438,0.06660196,-0.15297638,9.782135,-0.020076426,-0.50533164,9.770478,0
9,987.6563110351562,-6.407189648598433E-4,-0.0011232164688408375,1.0108621791005135E-4,-8.998539924621582,16.83421516418457,-37.93143081665039,-0.3497636020183563,0.5616175532341003,0.05563926696777344,0.073779285,-0.15059336,9.746627,-0.009886786,-0.5012893,9.7351675,0
9,987.6563110351562,-6.407189648598433E-4,-0.0011232164688408375,1.0108621791005135E-4,-8.998539924621582,16.83421516418457,-37.93143081665039,-0.3535315990447998,0.5549792647361755,0.0652151107788086,0.07856667,-0.15059347,9.737158,-0.00476223,-0.5015139,9.725716,0
9,987.6563110351562,-6.407921900972724E-4,-5.794109893031418E-5,3.6737063783220947E-4,-9.012100219726562,16.9268741607666,-37.93476486206055,-0.3565429449081421,0.5807064771652222,0.036975860595703125,0.07618442,-0.16251011,9.756097,-0.019372007,-0.5087941,9.744454,0
9,987.64111328125,2.4924054741859436E-5,2.0838668569922447E-4,-5.647664074786007E-4,-9.662822723388672,17.5292911529541,-38.1006965637207,-0.340768963098526,0.5444228053092957,0.03713512420654297,0.071412206,-0.1482106,9.760833,-0.009162849,-0.49188557,9.749814,0
9,987.64111328125,-3.7462334148585796E-4,0.0012736623175442219,-4.316398990340531E-4,-9.149520874023438,17.219865798950195,-38.31565475463867,-0.34890761971473694,0.5556671023368835,0.0467681884765625,0.071419835,-0.16012718,9.760833,-0.021084983,-0.49961448,9.749593,0
9,987.6310424804688,4.2417761869728565E-4,2.0842242520302534E-4,5.004027625545859E-4,-9.077835083007812,17.02335548400879,-37.93027877807617,-0.3460356891155243,0.5516409277915955,0.023336410522460938,0.07620722,-0.15774412,9.77267,-0.009745995,-0.4978752,9.761546,0
9,987.6310424804688,4.2417761869728565E-4,2.0842242520302534E-4,5.004027625545859E-4,-9.077835083007812,17.02335548400879,-37.93027877807617,-0.34037816524505615,0.5217821002006531,0.056552886962890625,0.06665522,-0.14106132,9.748999,-0.017735802,-0.47535378,9.738636,0
9,987.63916015625,1.577151706442237E-4,7.410781108774245E-4,3.6718195769935846E-4,-8.751222610473633,16.90777015686035,-37.973846435546875,-0.3428368866443634,0.5363370776176453,0.04732704162597656,0.07144266,-0.14821143,9.763203,-0.0038532717,-0.48228267,9.75267,0
9,987.634033203125,-5.081478739157319E-4,3.4161616349592805E-4,-4.317971761338413E-4,-9.081857681274414,16.650651931762695,-37.599918365478516,-0.33729666471481323,0.5443872213363647,0.02846813201904297,0.07623008,-0.1601279,9.770305,-0.014767383,-0.49232832,9.759494,0
9,987.6340942382812,4.238842520862818E-4,-4.5731960562989116E-4,-3.2354670111089945E-5,-9.205718994140625,16.85097312927246,-37.97747039794922,-0.3494170308113098,0.5464945435523987,0.028632164001464844,0.081017494,-0.16012813,9.772673,-0.011236614,-0.49208236,9.761918,0
9,987.6468505859375,-0.0010409264359623194,-4.573076730594039E-4,1.007717801257968E-4,-9.33026123046875,17.313676834106445,-37.7544059753418,-0.3284164071083069,0.5431710481643677,0.043015480041503906,0.07201719,-0.16252516,9.75852,-0.017476356,-0.48650688,9.747991,0
9,987.6166381835938,1.552616013213992E-4,0.0012687287526205182,-3.041282179765403E-4,-9.423552513122559,16.857423782348633,-37.48237609863281,-0.3379409611225128,0.5404525995254517,0.028844833374023438,0.0773896,-0.16015632,9.7680435,-0.018190183,-0.48487014,9.7576065,0
9,987.6089477539062,5.50326076336205E-4,-4.6160881174728274E-4,2.2661391994915903E-4,-8.853508949279785,16.54859733581543,-37.937068939208984,-0.3305516839027405,0.5314987897872925,0.029069900512695312,0.07027191,-0.15300782,9.784618,-0.012613658,-0.4721908,9.77466,0
9,987.6468505859375,-6.485966732725501E-4,6.037360290065408E-4,-1.730747171677649E-4,-9.012100219726562,16.9268741607666,-37.93476486206055,-0.334434449672699,0.5157856941223145,0.03861522674560547,0.079883516,-0.14824258,9.756217,-0.0010009846,-0.47034752,9.746327,0
9,987.6145629882812,1.6691861674189568E-5,-3.2828812254592776E-4,2.2618420189246535E-4,-8.747636795043945,16.54242515563965,-38.030006408691406,-0.3374479413032532,0.5368215441703796,0.048232078552246094,0.08232546,-0.16254349,9.768058,-0.00428362,-0.48194677,9.757861,0
9,987.6297607421875,-3.832833608612418E-4,0.0011365305399522185,-3.0666240490972996E-4,-8.779865264892578,17.091615676879883,-37.903202056884766,-0.3361201882362366,0.5242477655410767,0.04364299774169922,0.07759768,-0.16254474,9.749125,-0.0026828898,-0.47666374,9.73913,0
9,987.6348266601562,-3.837847616523504E-4,-4.6128331450745463E-4,-4.05613100156188E-5,-9.617714881896973,17.149812698364258,-37.62353515625,-0.32476016879081726,0.5167036652565002,0.048523902893066406,0.075259745,-0.15539618,9.756231,-0.01770131,-0.46657723,9.746581,0
9,987.64013671875,1.4834594912827015E-4,7.142985123209655E-5,-1.7393409507349133E-4,-9.294690132141113,17.39957618713379,-37.61094284057617,-0.33730700612068176,0.5425424575805664,0.04393482208251953,0.082481444,-0.17446373,9.756235,-0.011313091,-0.48451284,9.746101,0
10,987.64013671875,1.4834594912827015E-4,7.142985123209655E-5,-1.7393409507349133E-4,-9.238927841186523,17.030405044555664,-37.6749153137207,-0.3306936025619507,0.5204423666000366,0.03935432434082031,0.07775366,-0.15539877,9.765709,-0.009283137,-0.46291175,9.756274,0
10,987.6299438476562,-3.847869811579585E-4,-4.611205658875406E-4,7.579567609354854E-4,-9.095961570739746,17.111600875854492,-37.701698303222656,-0.314430832862854,0.49855685234069824,0.034768104553222656,0.07302588,-0.145867,9.765713,-0.005402732,-0.44968587,9.756717,0
10,987.6273193359375,-3.852883819490671E-4,-8.605130715295672E-4,9.195215534418821E-5,-9.230476379394531,17.30161476135254,-37.53812026977539,-0.3077535331249237,0.5099461078643799,0.04438495635986328,0.065908134,-0.1673177,9.760984,-0.022492334,-0.4623915,9.751659,0
10,987.637939453125,-6.521055474877357E-4,-7.272737566381693E-4,-0.0011066840961575508,-8.910494804382324,17.548425674438477,-37.370914459228516,-0.31610360741615295,0.5166447162628174,0.03977775573730469,0.06596017,-0.16493572,9.753888,-0.012083623,-0.45808646,9.744738,0
10,987.6529541015625,-1.1997506953775883E-4,0.001003860728815198,-9.737411164678633E-4,-8.965577125549316,17.655214309692383,-37.90756607055664,-0.3047316372394562,0.5045807957649231,0.035175323486328125,0.06840208,-0.15063731,9.758627,-0.0036424312,-0.44423485,9.749915,0
10,987.5977172851562,1.4583941083401442E-4,-6.132124690338969E-5,8.902552654035389E-4,-9.252487182617188,17.123064041137695,-37.67824935913086,-0.31248950958251953,0.5018385052680969,0.04951667785644531,0.0732339,-0.15063863,9.753897,-0.010194106,-0.44363472,9.745236,0
10,987.6459350585938,1.2180302292108536E-5,-8.601875742897391E-4,2.2425074712373316E-4,-9.164603233337402,17.31104850769043,-38.24168014526367,-0.3017426133155823,0.4899703860282898,0.05909156799316406,0.075675786,-0.15778972,9.751535,-0.0075525343,-0.44919544,9.742755,0
10,987.6382446289062,5.443110130727291E-4,7.37789086997509E-4,3.571939014364034E-4,-9.283194541931152,17.67372703552246,-37.62875747680664,-0.30518919229507446,0.4920156002044678,0.045012474060058594,0.07572782,-0.15064116,9.76811,-0.0025107577,-0.44106656,9.7596035,0
10,987.6658935546875,1.11778499558568E-5,8.71028401888907E-4,-5.751264397986233E-4,-9.253030776977539,17.49135398864746,-37.77669906616211,-0.3133006691932678,0.4798007607460022,0.02146434783935547,0.075779825,-0.14825912,9.768114,-1.2947165E-4,-0.4366477,9.759771,0
10,987.6460571289062,-3.887973725795746E-4,4.7163598355837166E-4,2.236063010059297E-4,-9.226452827453613,17.6743221282959,-37.86848068237305,-0.30700984597206116,0.5009938478469849,0.021587371826171875,0.06866211,-0.15779354,9.765752,-0.022609787,-0.43895334,9.757373,0
10,987.6557006835938,-1.229826593771577E-4,2.0540147670544684E-4,-4.2924482841044664E-5,-9.632796287536621,17.240999221801758,-37.549564361572266,-0.31040158867836,0.498115599155426,0.03591728210449219,0.07349396,-0.16256131,9.76339,-0.016893774,-0.44306755,9.754948,0
10,987.63037109375,-5.229578819125891E-4,4.7179879038594663E-4,-4.313932731747627E-5,-9.282108306884766,16.937143325805664,-37.431854248046875,-0.313569575548172,0.4762573838233948,0.040780067443847656,0.08071566,-0.15064628,9.756293,0.0039289454,-0.43338504,9.748159,0
10,987.6463012695312,-2.571431687101722E-4,-3.270674787927419E-4,-4.335411358624697E-5,-8.66141128540039,16.623022079467773,-37.817054748535156,-0.28773432970046997,0.4738057851791382,0.0645751953125,0.066428244,-0.15541406,9.751564,-0.01515729,-0.4283926,9.743605,0
10,987.6412963867188,5.413033068180084E-4,-5.933020729571581E-4,-4.430426633916795E-4,-9.433632850646973,17.69108009338379,-37.91452407836914,-0.3243195414543152,0.47161173820495605,0.026807785034179688,0.083209574,-0.14826556,9.763405,0.0026836665,-0.42827564,9.755489,0
10,987.6234741210938,5.408020224422216E-4,7.256903336383402E-5,2.225321950390935E-4,-9.345205307006836,17.510778427124023,-38.3795051574707,-0.3083851933479309,0.4789719581604004,0.041115760803222656,0.07848179,-0.15303333,9.756308,0.0010551356,-0.4281099,9.748427,0
10,987.6412353515625,8.066166192293167E-4,-1.9366542983334512E-4,2.2231732145883143E-4,-8.960468292236328,17.291345596313477,-38.04103469848633,-0.28322505950927734,0.4578396677970886,0.03647422790527344,0.059414595,-0.14826806,9.772882,-0.0155058,-0.41374367,9.765413,0
10,987.6467895507812,0.00107243109960109,3.3904772135429084E-4,-5.768451956100762E-4,-9.067862510681152,17.296045303344727,-37.870792388916016,-0.3105558156967163,0.4794228672981262,0.027105331420898438,0.08575547,-0.15780242,9.77052,0.006536342,-0.43238208,9.762598,0
10,987.611083984375,0.0010719298152253032,0.0010049187112599611,-4.439021577127278E-4,-8.700570106506348,16.902475357055664,-37.904354095458984,-0.28393876552581787,0.4625799059867859,0.0368194580078125,0.06274453,-0.14584924,9.756178,-0.014565582,-0.40858623,9.7489,0
10,987.6438598632812,6.165122613310814E-6,4.723684105556458E-4,-4.441169439814985E-4,-9.068840980529785,16.926279067993164,-37.69503402709961,-0.28747010231018066,0.46951574087142944,0.04640007019042969,0.06512427,-0.15538205,9.758546,-0.017610382,-0.41596246,9.751116,0
10,987.636474609375,-6.45111664198339E-4,0.0010026441887021065,-3.0473904917016625E-4,-9.388385772705078,17.41752052307129,-38.13644790649414,-0.29554080963134766,0.4668528437614441,0.03705024719238281,0.072283864,-0.15061532,9.760912,-0.008814447,-0.41288292,9.753604,0
10,987.6370239257812,2.0775827579200268E-5,3.36838565999642E-4,-8.373289019800723E-4,-9.38686466217041,17.41899299621582,-38.2137451171875,-0.289168119430542,0.4547411799430847,0.046634674072265625,0.07466361,-0.15061505,9.76091,-0.0073297727,-0.4116788,9.75367,0
10,987.6619873046875,-4.801849718205631E-4,-4.6943314373493195E-4,3.2131365151144564E-4,-9.318222999572754,17.219545364379883,-37.673763275146484,-0.28719767928123474,0.45689618587493896,0.056229591369628906,0.06987366,-0.15061481,9.753809,-0.010598305,-0.40672833,9.746733,0
10,987.6369018554688,-3.4692935878410935E-4,-8.689227979630232E-4,-3.44433996360749E-4,-9.255393981933594,17.226037979125977,-38.222721099853516,-0.2997647225856781,0.44512706995010376,0.03266620635986328,0.0794231,-0.14823125,9.765644,0.0050853826,-0.40729684,9.7585945,0
10,987.6292724609375,3.189581329934299E-4,-3.3630692632868886E-4,4.545553820207715E-4,-8.77391529083252,16.991594314575195,-37.51334762573242,-0.2885611057281494,0.4426761865615845,0.03277778625488281,0.07463318,-0.15061425,9.758541,-0.0122677125,-0.4046136,9.751592,0
10,987.6318969726562,-8.79267870914191E-4,-3.363386495038867E-4,-3.4430838422849774E-4,-9.113407135009766,16.937463760375977,-38.0737419128418,-0.2868795394897461,0.46847736835479736,0.028163909912109375,0.07462305,-0.16014715,9.768009,-0.01132047,-0.41079122,9.760959,0
11,987.6370849609375,-3.465383197180927E-4,7.289089844562113E-4,5.878390511497855E-4,-9.383415222167969,16.94773292541504,-37.570831298828125,-0.29520541429519653,0.4421153664588928,0.03773689270019531,0.08178258,-0.14346395,9.763273,-0.0013422403,-0.3972646,9.756585,0
11,987.6701049804688,5.303329089656472E-5,-3.3637037267908454E-4,4.547230200842023E-4,-8.82967758178711,17.36075782775879,-37.44937515258789,-0.2791883051395416,0.45388495922088623,0.04258251190185547,0.07460278,-0.15776335,9.760906,-9.490829E-4,-0.40417016,9.754097,0
11,987.653076171875,-4.795007989741862E-4,-4.6954420395195484E-4,7.210807525552809E-4,-8.910387992858887,16.442087173461914,-36.998260498046875,-0.28651344776153564,0.4503082036972046,0.038002967834472656,0.07220268,-0.15776311,9.760904,-0.013047229,-0.39968902,9.754252,0
11,987.647216796875,-7.992918835952878E-5,6.307178409770131E-5,5.879647796973586E-4,-8.75440502166748,16.798906326293945,-37.12015914916992,-0.28074103593826294,0.44434744119644165,0.04279136657714844,0.07219255,-0.15299632,9.758537,-0.0048334715,-0.39437923,9.752031,0
11,987.6326904296875,8.522741845808923E-4,-4.6957586891949177E-4,3.21690778946504E-4,-9.295668601989746,17.02980613708496,-37.43518829345703,-0.28392738103866577,0.45171093940734863,0.042888641357421875,0.07696223,-0.15537937,9.756168,-0.009154856,-0.39655358,9.749642,0
11,987.6021728515625,-4.7920754877850413E-4,5.956717650406063E-4,5.541671998798847E-5,-9.398497581481934,17.03891944885254,-37.496856689453125,-0.27294957637786865,0.44428545236587524,0.038262367248535156,0.0673925,-0.15061258,9.7585335,-0.016653752,-0.38543814,9.7523,0
11,987.647705078125,-7.454256410710514E-4,-3.364497097209096E-4,-7.769925286993384E-5,-9.217757225036621,16.94510841369629,-38.058109283447266,-0.26669418811798096,0.43694913387298584,0.04783439636230469,0.07455206,-0.15776215,9.7609005,-0.011450202,-0.39298612,9.75454,0
11,987.647705078125,-7.454256410710514E-4,-3.364497097209096E-4,-7.769925286993384E-5,-9.228273391723633,17.04071617126465,-38.2160530090332,-0.2558465898036957,0.4294845461845398,0.04793834686279297,0.06259236,-0.15061213,9.753798,-0.017488929,-0.37855107,9.747798,0
11,987.66064453125,-7.453278522007167E-4,7.287980406545103E-4,4.5497436076402664E-4,-9.320723533630371,16.84830665588379,-37.42070388793945,-0.273526668548584,0.4364815950393677,0.033835411071777344,0.072141886,-0.16967796,9.763266,-0.021428809,-0.3976485,9.756884,0
11,987.6708984375,-4.789142985828221E-4,-7.016555173322558E-5,-3.439313150011003E-4,-9.386704444885254,17.945215225219727,-37.08979797363281,-0.2675762176513672,0.4245419502258301,0.04813098907470703,0.07691157,-0.1410784,9.756164,0.0053006383,-0.37273747,9.750365,0
11,987.6453857421875,-2.125006285496056E-4,3.292923793196678E-4,4.550581506919116E-4,-8.884758949279785,17.467546463012695,-37.98602294921875,-0.27480727434158325,0.42569708824157715,0.02933788299560547,0.07451147,-0.15299456,9.765632,0.0018318021,-0.38020402,9.75971,0
11,987.6381225585938,-3.4556101309135556E-4,4.624344874173403E-4,3.21942032314837E-4,-8.554559707641602,16.986616134643555,-38.085750579833984,-0.2787540555000305,0.43405967950820923,0.03885650634765625,0.08167106,-0.16014414,9.770365,0.0063164113,-0.38768655,9.764323,0
11,987.6588134765625,-3.454631078056991E-4,-4.696869873441756E-4,3.219840000383556E-4,-8.922968864440918,16.904504776000977,-37.177345275878906,-0.2865525484085083,0.42716842889785767,0.029479026794433594,0.08883062,-0.1601439,9.76563,0.0052334745,-0.38892612,9.759599,0
11,987.6406860351562,7.198982057161629E-4,-4.6970287803560495E-4,5.570997018367052E-5,-9.157812118530273,17.474870681762695,-37.3285026550293,-0.2611110806465149,0.4104086756706238,0.04377937316894531,0.07448104,-0.14822732,9.753793,-8.063812E-4,-0.36919796,9.748215,0
11,987.6182250976562,-6.115836440585554E-4,-4.697187105193734E-4,-2.1056400146335363E-4,-9.273221015930176,17.946409225463867,-37.56926345825195,-0.250064492225647,0.4083505868911743,0.04386425018310547,0.067301214,-0.14584382,9.760894,-0.0041511795,-0.36205924,9.755498,0
11,987.6312255859375,3.206199617125094E-4,-2.0341873459983617E-4,-0.0010094698518514633,-9.18979549407959,17.023637771606445,-37.52812576293945,-0.2630999684333801,0.41107749938964844,0.03447532653808594,0.074460745,-0.1506101,9.772728,-0.0039063822,-0.36802787,9.76724,0
11,987.6160888671875,7.201913394965231E-4,9.94986854493618E-4,4.553094622679055E-4,-9.237948417663574,17.400171279907227,-37.85067367553711,-0.2572476863861084,0.39926183223724365,0.06296253204345703,0.07271689,-0.15062593,9.749115,-0.012542746,-0.36468017,9.743721,0
11,987.6388549804688,-7.865851512178779E-5,4.6233925968408585E-4,-3.435962717048824E-4,-9.686356544494629,17.349267959594727,-38.163516998291016,-0.2567126750946045,0.42087322473526,0.04873085021972656,0.07340294,-0.16255914,9.763382,-0.009719798,-0.37379098,9.757851,0
11,987.6337890625,-3.496441640891135E-4,-0.0011347979307174683,4.533500177785754E-4,-9.338414192199707,17.67460060119629,-37.46632766723633,-0.26004815101623535,0.4090636968612671,0.025140762329101562,0.08061582,-0.14587726,9.763386,0.0011281184,-0.36035934,9.758157,0
11,987.6338500976562,4.512321902438998E-5,-2.0397439948283136E-4,-2.1975499112159014E-4,-9.519857406616211,17.610483169555664,-38.12747573852539,-0.24427905678749084,0.41631850600242615,0.04889392852783203,0.07348919,-0.15302812,9.756289,-0.013378692,-0.3608935,9.7510805,0
11,987.656982421875,-8.845044067129493E-5,-2.039069077000022E-4,1.7954071518033743E-4,-9.362382888793945,16.75652503967285,-37.254947662353516,-0.2667962908744812,0.39534229040145874,0.058434486389160156,0.08070207,-0.14826266,9.761026,-0.004020486,-0.35860944,9.755897,0
11,987.64697265625,5.769236595369875E-4,6.247643614187837E-5,-8.695345604792237E-5,-9.25055980682373,16.650327682495117,-36.95802688598633,-0.25145596265792847,0.3933168351650238,0.053765296936035156,0.07357547,-0.15303026,9.765764,-0.012589809,-0.35773963,9.76068,0
11,987.6444091796875,3.101920592598617E-4,5.951756611466408E-4,8.449740707874298E-4,-9.01253604888916,16.18882179260254,-37.66055679321289,-0.25968894362449646,0.39121371507644653,0.03490161895751953,0.07839841,-0.14826478,9.758666,-6.186925E-4,-0.35394615,9.753686,0
11,987.6749877929688,1.7661851597949862E-4,3.2892730087041855E-4,-2.204675693064928E-4,-8.865684509277344,16.536813735961914,-37.31863021850586,-0.25353989005088806,0.39844810962677,0.034979820251464844,0.07127184,-0.15541564,9.765772,-0.011336993,-0.35489708,9.760812,0
11,987.6368408203125,-6.227449630387127E-4,-3.3679493935778737E-4,4.451439017429948E-4,-9.460209846496582,17.50811195373535,-37.82273483276367,-0.24718335270881653,0.39181017875671387,0.03031444549560547,0.08087453,-0.14826684,9.770512,-0.001964632,-0.35144645,9.76565,0
12,987.6674194335938,7.084186072461307E-4,-6.030433578416705E-4,-3.539819736033678E-4,-9.346322059631348,17.035097122192383,-37.50467300415039,-0.25040972232818604,0.39462900161743164,0.058793067932128906,0.07852778,-0.1673341,9.756311,-0.0147158215,-0.36485052,9.751228,0
12,987.6427001953125,4.416872397996485E-4,-4.698179545812309E-4,8.442613761872053E-4,-9.534533500671387,17.22746467590332,-37.25597381591797,-0.2395709753036499,0.3686721920967102,0.05886363983154297,0.0785709,-0.15065224,9.761049,-0.007922281,-0.34843758,9.756305,0
12,987.6170654296875,1.749556395225227E-4,1.9603921100497246E-4,5.777673795819283E-4,-9.422030448913574,16.858896255493164,-37.5596809387207,-0.24283455312252045,0.38084086775779724,0.04473400115966797,0.069054425,-0.15303661,9.751585,-0.010686864,-0.34397292,9.746957,0
12,987.632568359375,1.7453980399295688E-4,-4.6968302922323346E-4,-3.5451643634587526E-4,-9.459368705749512,17.77195930480957,-37.29941940307617,-0.2458328753709793,0.383556067943573,0.04481029510498047,0.08104709,-0.1578042,9.756323,-0.00401058,-0.35181624,9.75159,0
12,987.6351928710938,4.0966260712593794E-5,-0.0012685630936175585,3.110951802227646E-4,-9.346864700317383,17.403390884399414,-37.60312271118164,-0.24459072947502136,0.386308491230011,0.04014110565185547,0.076310396,-0.16018857,9.765796,-0.0189473,-0.3496635,9.761129,0
12,987.6605834960938,1.7370859859511256E-4,-2.0323214994277805E-4,4.440749471541494E-4,-9.475184440612793,16.492952346801758,-37.3761100769043,-0.24354422092437744,0.3935454487800598,0.03547382354736328,0.07635355,-0.16257288,9.777636,-0.016630813,-0.35018054,9.772998,0
12,987.66064453125,-2.2618105867877603E-4,8.620987646281719E-4,1.775809214450419E-4,-9.266483306884766,16.477670669555664,-37.40737533569336,-0.2424975335597992,0.3817182183265686,0.03554058074951172,0.08117649,-0.16019063,9.770538,-0.0058415146,-0.34851515,9.765971,0
12,987.6427612304688,-2.27012496907264E-4,3.296021022833884E-4,4.4066691771149635E-5,-9.115471839904785,17.304285049438477,-38.09489059448242,-0.23170113563537598,0.37483149766921997,0.04980945587158203,0.07404989,-0.15542515,9.753971,-0.0056729433,-0.33884662,9.749602,0
12,987.6510009765625,-3.6425713915377855E-5,5.460473475977778E-4,2.6853466988541186E-4,-9.201833724975586,17.117769241333008,-37.608760833740234,-0.24512304365634918,0.37755268812179565,0.0640707015991211,0.07887286,-0.15304293,9.74214,-0.0027455857,-0.3370986,9.737828,0
12,987.6510009765625,0.0010284220334142447,-5.191487143747509E-4,-5.305912927724421E-4,-9.413578987121582,17.13010597229004,-37.42288589477539,-0.22463089227676392,0.38547176122665405,0.04992198944091797,0.07413617,-0.1649604,9.758715,-0.015898902,-0.34398878,9.754315,0
12,987.6636352539062,6.28532434348017E-4,5.461823311634362E-4,-5.307692917995155E-4,-8.75815200805664,16.638032913208008,-38.187950134277344,-0.23791085183620453,0.3883697986602783,0.031040191650390625,0.081348956,-0.17211129,9.7681875,-0.0067727882,-0.3524631,9.76368,0
12,987.65087890625,-3.767275484278798E-5,6.794076762162149E-4,-1.3147370191290975E-4,-8.996475219726562,16.4674015045166,-37.9102897644043,-0.21773119270801544,0.36704909801483154,0.05951118469238281,0.074222445,-0.15542938,9.758722,-0.01001599,-0.33217674,9.754582,0
12,987.6566162109375,-1.712464145384729E-4,-3.857883275486529E-4,6.672957679256797E-4,-8.652822494506836,17.000154495239258,-38.37934112548828,-0.24028290808200836,0.36970722675323486,0.04063701629638672,0.07426557,-0.15543039,9.768194,-6.3792756E-4,-0.33055627,9.764119,0
12,987.6485595703125,9.465351467952132E-5,-9.18352568987757E-4,-1.3182993279770017E-4,-9.362788200378418,17.230730056762695,-38.05247116088867,-0.22915780544281006,0.36302733421325684,0.04069995880126953,0.07430866,-0.1530482,9.74926,-0.008361998,-0.32616827,9.745283,0
12,987.63134765625,-3.892002860084176E-5,-7.851271657273173E-4,2.674656279850751E-4,-9.409151077270508,17.02861213684082,-36.95572280883789,-0.23715999722480774,0.3610695004463196,0.04076194763183594,0.08391145,-0.14828272,9.772938,-1.302897E-4,-0.32502812,9.769017,0
12,987.6463012695312,6.264539551921189E-4,9.459935245104134E-4,-2.6534427888691425E-4,-9.343958854675293,17.300424575805664,-37.058650970458984,-0.22669272124767303,0.3449910879135132,0.031341552734375,0.07439497,-0.14351727,9.777676,-0.0030199222,-0.3149166,9.77394,0
12,987.6463012695312,6.264539551921189E-4,9.459935245104134E-4,-2.6534427888691425E-4,-9.121016502380371,16.93010139465332,-37.687217712402344,-0.2208334058523178,0.3669246435165405,0.040863990783691406,0.06669673,-0.16257052,9.768158,-0.018407116,-0.32624266,9.764272,0
12,987.6441650390625,9.34064737521112E-5,4.134292248636484E-4,7.934286259114742E-7,-9.387981414794922,16.943315505981445,-37.33891677856445,-0.21841555833816528,0.34093785285949707,0.041031837463378906,0.068523824,-0.15064026,9.758638,-0.014685802,-0.31438303,9.754967,0
12,987.6543579101562,-2.9697746504098177E-4,-1.2237936607562006E-4,-1.2937502469867468E-4,-9.2335205078125,17.298669815063477,-37.38351058959961,-0.22652782499790192,0.3679841160774231,0.041085243225097656,0.07091117,-0.16493995,9.758637,-0.014842877,-0.32680732,9.754804,0
12,987.69482421875,9.041613666340709E-4,-6.554522551596165E-4,5.375792970880866E-4,-9.680108070373535,17.881376266479492,-37.34878921508789,-0.22039373219013214,0.3611520528793335,0.05535125732421875,0.07568848,-0.16017325,9.756269,-0.010250111,-0.32285517,9.75253,0
12,987.636474609375,-2.7919537387788296E-5,-7.886142120696604E-4,4.044318338856101E-4,-9.351729393005371,16.76683235168457,-37.796077728271484,-0.21895284950733185,0.35921767354011536,0.055411338806152344,0.078075826,-0.16017325,9.761004,-0.0122300545,-0.32209867,9.757309,0
12,987.6395874023438,1.0526273399591446E-4,-2.5598646607249975E-4,5.376002518460155E-4,-9.32667350769043,16.948328018188477,-37.8105583190918,-0.20855797827243805,0.3524323105812073,0.04599571228027344,0.06851363,-0.15778984,9.7704735,-0.017273046,-0.31397858,9.766926,0
12,987.6148681640625,2.3844512179493904E-4,9.424310410395265E-4,-1.2817897368222475E-4,-9.086423873901367,16.64622688293457,-37.36800003051758,-0.22131502628326416,0.3645765781402588,0.060265541076660156,0.073290944,-0.16970624,9.749167,-0.017894352,-0.32436973,9.745506,0
12,987.642333984375,-6.936357822269201E-4,-9.217840852215886E-4,-1.281684380955994E-4,-9.0322904586792,17.38193702697754,-37.72732925415039,-0.2247832864522934,0.329504132270813,0.02244281768798828,0.080458105,-0.14587335,9.770473,0.005750625,-0.3055483,9.767112,0
13,987.6723022460938,2.3849401623010635E-4,-2.559983404353261E-4,-1.28157960716635E-4,-8.96655559539795,17.28545570373535,-37.7318115234375,-0.2283754199743271,0.34670156240463257,0.03669929504394531,0.078065634,-0.15063985,9.768105,0.003171352,-0.3069533,9.764755,0
13,987.6373291015625,2.3851846344769E-4,4.097874043509364E-4,1.3816836872138083E-4,-8.946066856384277,17.462533950805664,-37.51437759399414,-0.19857025146484375,0.3257492780685425,0.03675079345703125,0.06611365,-0.15540637,9.784676,-0.009576115,-0.30430686,9.781396,0
13,987.6497192382812,-1.6093067824840546E-4,-3.8916425546631217E-4,-1.2813700595870614E-4,-9.203057289123535,17.748430252075195,-37.10658264160156,-0.20649069547653198,0.34302183985710144,0.05574607849121094,0.06611106,-0.15302302,9.7586355,-0.008201533,-0.30002874,9.755445,0
13,987.6326904296875,2.385672414675355E-4,-9.217999177053571E-4,4.0450520464219153E-4,-9.037399291992188,17.745805740356445,-37.593868255615234,-0.20054414868354797,0.3363352417945862,0.051064491271972656,0.06132874,-0.15302293,9.7515335,-0.016934974,-0.2958215,9.7484255,0
13,987.627685546875,-1.6088178381323814E-4,-2.560142311267555E-4,5.376737099140882E-4,-9.197949409484863,17.384565353393555,-37.24005126953125,-0.2048514187335968,0.3395867943763733,0.046364784240722656,0.07805553,-0.16017272,9.753901,-0.005262819,-0.30895352,9.750632,0
13,987.6480102539062,0.0010375641286373138,0.0014750350965186954,-2.612634561955929E-4,-9.115609169006348,17.198366165161133,-37.395809173583984,-0.20371685922145844,0.34708672761917114,0.03694915771484375,0.06610346,-0.16970576,9.7633705,-0.023402581,-0.30986917,9.760124,0
13,987.6254272460938,-2.939910627901554E-4,4.09767497330904E-4,2.713786670938134E-4,-9.159631729125977,16.841264724731445,-37.67606735229492,-0.20249682664871216,0.32612836360931396,0.07014179229736328,0.06849086,-0.14110641,9.746799,-0.008257505,-0.2839285,9.743921,0
13,987.6505126953125,-2.765050157904625E-5,-2.560261345934123E-4,5.377051420509815E-4,-8.849922180175781,16.183252334594727,-37.993228912353516,-0.2058762013912201,0.31474053859710693,0.07493019104003906,0.07087821,-0.14587288,9.753901,-0.003746741,-0.2876742,9.751005,0
13,987.638427734375,-1.6078411135822535E-4,-5.223460029810667E-4,1.382417103741318E-4,-9.127510070800781,17.39841651916504,-38.1755256652832,-0.19039702415466309,0.33180493116378784,0.032370567321777344,0.06848574,-0.14825608,9.763369,-0.008745068,-0.28695378,9.760514,0
13,987.620361328125,-2.939176047220826E-4,-7.886657840572298E-4,2.714101574383676E-4,-9.377029418945312,17.585763931274414,-37.45518112182617,-0.1943178027868271,0.32029449939727783,0.018213272094726562,0.05892366,-0.14587279,9.765737,-0.015398393,-0.2787597,9.763012,0
13,987.63330078125,-2.938687102869153E-4,1.4343176735565066E-4,-3.9435853250324726E-4,-9.164603233337402,17.311052322387695,-38.24168395996094,-0.19710566103458405,0.32708293199539185,0.056163787841796875,0.07087058,-0.157789,9.753901,-0.009921887,-0.29307908,9.751025,0
13,987.63330078125,-2.938687102869153E-4,1.4343176735565066E-4,-3.9435853250324726E-4,-9.164603233337402,17.311052322387695,-38.24168395996094,-0.19682447612285614,0.3262479305267334,0.06091785430908203,0.06608823,-0.1601723,9.763367,-0.015298324,-0.2915293,9.76054,0
13,987.6259765625,2.3878761567175388E-4,-6.55519834253937E-4,1.382836780976504E-4,-9.410236358642578,17.76519203186035,-37.152626037597656,-0.18160510063171387,0.33403128385543823,0.032550811767578125,0.06130588,-0.15778895,9.761001,-0.018487457,-0.2856796,9.758271,0
13,987.6463623046875,2.3881206288933754E-4,8.09213612228632E-4,5.377680063247681E-4,-9.239470481872559,17.398698806762695,-37.77336883544922,-0.18055972456932068,0.32265985012054443,0.05626869201660156,0.061303347,-0.16255547,9.761001,-0.019830655,-0.28832883,9.758267,0
13,987.65380859375,-2.9379536863416433E-4,-2.56053899647668E-4,5.146663170307875E-6,-9.27267837524414,17.5781192779541,-37.4708137512207,-0.19916784763336182,0.32521578669548035,0.04210853576660156,0.06608063,-0.16017206,9.758633,-0.020959826,-0.28629154,9.755949,0
13,987.6463623046875,-5.600865697488189E-4,0.0012086795177310705,-1.280006836168468E-4,-9.40390396118164,16.770654678344727,-37.788265228271484,-0.20276673138141632,0.3093634843826294,0.03741455078125,0.078027606,-0.14587243,9.758633,-0.0016645433,-0.27824855,9.756068,0
13,987.6644897460938,-2.7430360205471516E-5,1.4341191854327917E-4,-2.6114826323464513E-4,-9.452056884765625,17.147188186645508,-38.11081314086914,-0.19184185564517975,0.30326542258262634,0.07533073425292969,0.07324523,-0.15063883,9.751531,-0.007367676,-0.278735,9.748983,0
13,987.6365356445312,6.379929836839437E-4,-3.891603264492005E-4,6.708003929816186E-4,-9.449150085449219,17.044214248657227,-37.566349029541016,-0.17187225818634033,0.3161705434322357,0.05166339874267578,0.05447519,-0.15779726,9.751562,-0.029239248,-0.27452898,9.7490835,0
13,987.649169921875,7.681925781071186E-4,-0.0013207857264205813,2.700587210711092E-4,-8.75122356414795,16.90777015686035,-37.973846435546875,-0.1941561996936798,0.300248384475708,0.037506103515625,0.073605776,-0.16018082,9.765767,-0.0061423676,-0.2846142,9.763208,0
13,987.65673828125,-6.96654780767858E-4,-1.2234637688379735E-4,-1.2946227798238397E-4,-9.165145874023438,17.67934226989746,-38.34013748168945,-0.19293366372585297,0.2983701527118683,0.04701805114746094,0.066447526,-0.14826478,9.7563,-0.0072318427,-0.26888075,9.753944,0
13,987.6419067382812,0.0010342884343117476,-7.881182245910168E-4,-1.2950942618772388E-4,-9.318084716796875,17.325456619262695,-38.37284469604492,-0.18704576790332794,0.3065471947193146,0.06599044799804688,0.071238756,-0.15064828,9.744465,-0.008300843,-0.27174193,9.742097,0
13,987.6242065429688,3.6838860251009464E-4,1.4400522923097014E-4,1.367592776659876E-4,-9.443062782287598,17.050107955932617,-37.87556457519531,-0.19099676609039307,0.314439594745636,0.04708671569824219,0.06886029,-0.16256489,9.770505,-0.019226147,-0.2798129,9.768074,0
13,987.63916015625,-5.405701231211424E-4,7.511931471526623E-4,4.201794508844614E-4,-9.074248313903809,16.65801429748535,-37.9864387512207,-0.17586460709571838,0.3029714822769165,0.056593894958496094,0.06887171,-0.15541543,9.75867,-0.013512053,-0.27193305,9.756352,0
13,987.6499633789062,-8.048489689826965E-6,7.512109586969018E-4,-6.451312801800668E-4,-9.293167114257812,17.40104103088379,-37.6882438659668,-0.18457293510437012,0.30607283115386963,0.056629180908203125,0.06649318,-0.15303238,9.749202,-0.012098242,-0.2673122,9.746957,0
13,987.62451171875,6.576312007382512E-4,-4.771875683218241E-5,6.864009774290025E-4,-9.170989036560059,16.67302131652832,-38.35733413696289,-0.17396123707294464,0.3141655921936035,0.05666160583496094,0.06411472,-0.16733234,9.753937,-0.024379382,-0.2772761,9.751611,0
14,987.6476440429688,-2.745843958109617E-4,-7.134905317798257E-4,-3.789096954278648E-4,-9.123624801635742,17.66520881652832,-37.80681228637695,-0.1775171160697937,0.3123592734336853,0.033028602600097656,0.06651604,-0.16494937,9.765775,-0.014117956,-0.27521366,9.763505,0
14,987.6499633789062,-8.378643542528152E-6,-7.134727202355862E-4,2.8683277196250856E-4,-8.973484992980957,17.015714645385742,-37.9459114074707,-0.15712308883666992,0.3152783215045929,0.04727363586425781,0.06174767,-0.16971613,9.77051,-0.0229704,-0.27535427,9.768272,0
14,987.6499633789062,-8.378643542528152E-6,-7.134727202355862E-4,2.8683277196250856E-4,-8.950929641723633,16.82597541809082,-37.707332611083984,-0.18956592679023743,0.2947311997413635,0.061509132385253906,0.0760985,-0.15780003,9.753941,-0.005716714,-0.2700072,9.751776,0
14,987.6622924804688,2.578269923105836E-4,-4.7665147576481104E-5,1.536276249680668E-4,-9.179141998291016,17.033945083618164,-38.06925582885742,-0.1793018877506256,0.26939719915390015,0.03786659240722656,0.06894022,-0.13635089,9.756309,-0.003027082,-0.2465212,9.75439,0
14,987.6425170898438,2.5771697983145714E-4,7.513003656640649E-4,-2.4589337408542633E-4,-9.377870559692383,17.321916580200195,-37.9785041809082,-0.1834850013256073,0.2867584228515625,0.05209922790527344,0.06895161,-0.14588423,9.7586775,-0.0076101823,-0.25359643,9.756714,0
14,987.6602783203125,-1.4186697080731392E-4,7.513182936236262E-4,-3.790985210798681E-4,-9.342436790466309,17.30189323425293,-37.135963439941406,-0.17321249842643738,0.2853814661502838,0.04739093780517578,0.064183295,-0.1530344,9.753944,-0.014758105,-0.2564839,9.751972,0
14,987.6376953125,5.238128360360861E-4,6.181782810017467E-4,4.19802003307268E-4,-9.585186958312988,17.232759475708008,-37.325462341308594,-0.17197641730308533,0.2837045192718506,0.061631202697753906,0.07375431,-0.15541793,9.761046,-0.010813821,-0.26147234,9.759053,0
14,987.6554565429688,1.2422888539731503E-4,-4.470674612093717E-4,-3.791928756982088E-4,-9.557087898254395,17.417203903198242,-37.49455642700195,-0.16598111391067505,0.27273011207580566,0.037990570068359375,0.06420612,-0.1482683,9.763414,-0.014478492,-0.24929036,9.761558,0
14,987.6554565429688,1.2411864008754492E-4,-5.802075611427426E-4,-3.792399656958878E-4,-8.822504043579102,16.630067825317383,-37.56169509887695,-0.18419377505779266,0.2804461121559143,0.03802490234375,0.07377714,-0.15065195,9.765783,-0.0034973975,-0.2544958,9.763908,0
14,987.6585083007812,-5.417810752987862E-4,-3.138737811241299E-4,-1.1297134915366769E-4,-8.866228103637695,16.905099868774414,-37.41707992553711,-0.17402328550815582,0.28388071060180664,0.047514915466308594,0.06422895,-0.15303545,9.763417,-0.011654488,-0.2511349,9.761593,0
14,987.6406860351562,6.565302610397339E-4,0.001284039462916553,-1.130184973590076E-4,-8.916337966918945,16.5421085357666,-37.388118743896484,-0.17762824892997742,0.2726265490055084,0.052285194396972656,0.07857978,-0.14826919,9.756316,0.0021426259,-0.25190642,9.754505,0
14,987.6458129882812,-2.7568533550947905E-4,-4.469959530979395E-4,-2.4622358614578843E-4,-8.81489372253418,16.63743019104004,-37.94821548461914,-0.1672821044921875,0.27593111991882324,0.06651496887207031,0.069031596,-0.15541936,9.761051,-0.01281595,-0.25241935,9.759261,0
14,987.6406860351562,3.8999435491859913E-4,6.182853830978274E-4,-1.1311285197734833E-4,-8.851444244384766,16.18177604675293,-37.91592025756836,-0.1807713359594345,0.2788383364677429,0.03340625762939453,0.07860264,-0.15303628,9.761053,0.0028337126,-0.25332394,9.759281,0
14,987.6409912109375,-9.416952962055802E-4,-1.8064436153508723E-4,1.9997911294922233E-5,-8.983160018920898,17.37516975402832,-37.580535888671875,-0.17472147941589355,0.28678303956985474,0.05711174011230469,0.07622415,-0.16733624,9.749218,-0.011190596,-0.26310083,9.7473955,0
14,987.6109008789062,7.891377899795771E-4,-7.132403552532196E-4,1.5306149725802243E-4,-9.429502487182617,16.95744514465332,-37.87223434448242,-0.1729181408882141,0.25619834661483765,0.057152748107910156,0.0786255,-0.14827032,9.753953,-0.0027726796,-0.24624766,9.75229,0
14,987.6487426757812,3.8955395575612783E-4,-3.1374869286082685E-4,1.5301431994885206E-4,-9.2491455078125,17.758146286010742,-37.407989501953125,-0.18173955380916595,0.26901161670684814,0.024036407470703125,0.078636885,-0.14350404,9.768157,0.006046055,-0.24019894,9.766574,0
14,987.6487426757812,3.8955395575612783E-4,-3.1374869286082685E-4,1.5301431994885206E-4,-9.2491455078125,17.758146286010742,-37.407989501953125,-0.17166657745838165,0.27311667799949646,0.052455902099609375,0.074214965,-0.15542923,9.756353,-0.008244865,-0.24790986,9.754722,0
14,987.6588745117188,1.2312782928347588E-4,8.846906712278724E-4,4.1928302380256355E-4,-9.506434440612793,17.41190528869629,-37.42506790161133,-0.1666889637708664,0.27649906277656555,0.04768180847167969,0.072203815,-0.15782176,9.758757,-0.0063190255,-0.24799457,9.757148,0
14,987.63134765625,6.56066695228219E-4,-4.513053863774985E-4,1.5209722914732993E-4,-9.154629707336426,17.5837345123291,-38.182193756103516,-0.17529481649398804,0.26549553871154785,0.033501625061035156,0.07463306,-0.15305616,9.768229,-2.60812E-4,-0.24363223,9.766675,0
14,987.6546020507812,-1.4571379870176315E-4,2.1494421525858343E-4,1.772516407072544E-5,-8.79038143157959,17.187223434448242,-38.0611457824707,-0.16462154686450958,0.26402756571769714,0.03826141357421875,0.07467231,-0.1554404,9.765865,-0.0026648378,-0.24433433,9.764332,0
14,987.6417846679688,-1.2934673577547073E-5,-5.83941931836307E-4,-0.0010477006435394287,-8.89777660369873,17.191919326782227,-37.890907287597656,-0.18270666897296906,0.25769874453544617,0.057224273681640625,0.081881344,-0.14114176,9.77297,0.009529204,-0.23357588,9.771535,0
14,987.63916015625,-2.7962925378233194E-4,-4.507225239649415E-4,-3.8207322359085083E-4,-9.220365524291992,17.68021583557129,-38.17770767211914,-0.1576986163854599,0.26545679569244385,0.05251789093017578,0.06758124,-0.15544237,9.756403,-0.016958345,-0.23742697,9.754972,0
14,987.6544189453125,-5.463240668177605E-4,-5.1187205826863647E-5,2.8355413815006614E-4,-9.61923599243164,17.148340225219727,-37.54623031616211,-0.166355162858963,0.26865118741989136,0.06200981140136719,0.079570055,-0.1530601,9.746938,-0.001243878,-0.23979242,9.745513,0
14,987.6469116210938,-1.472289441153407E-4,-4.5059953117743134E-4,-1.160820247605443E-4,-9.179141998291016,17.033945083618164,-38.06925582885742,-0.17484548687934875,0.2817949652671814,0.05256080627441406,0.07482955,-0.16259415,9.74931,-0.009171361,-0.2448645,9.747873,0
15,987.6292724609375,6.513400003314018E-4,-3.173801233060658E-4,-3.825602470897138E-4,-9.228954315185547,17.30308723449707,-37.61542510986328,-0.15497836470603943,0.28047722578048706,0.038374900817871094,0.06530926,-0.16259505,9.763515,-0.018344784,-0.2392928,9.762137,0
15,987.6397094726562,3.846450708806515E-4,2.153131936211139E-4,-1.1640670709311962E-4,-9.414122581481934,17.49839973449707,-37.52133560180664,-0.1680585741996765,0.27900809049606323,0.038399696350097656,0.08446777,-0.1649793,9.765887,-0.0018989483,-0.24899995,9.764473,0
15,987.6221313476562,-2.81902146525681E-4,3.4859406878240407E-4,-2.498893882147968E-4,-9.358359336853027,17.129236221313477,-37.58531188964844,-0.1481497883796692,0.2631654143333435,0.06682777404785156,0.065387845,-0.16498025,9.756421,-0.021069178,-0.23841466,9.755098,0
15,987.64501953125,-1.4912313781678677E-4,7.48129328712821E-4,-2.5005172938108444E-4,-9.24555778503418,17.39280128479004,-37.464149475097656,-0.15244969725608826,0.26148536801338196,0.05737781524658203,0.07020694,-0.16259791,9.75169,-0.01254582,-0.23744582,9.750398,0
15,987.6552124023438,-4.1581783443689346E-4,-4.502305528149009E-4,-1.1705607175827026E-4,-9.604398727416992,18.057580947875977,-37.29378128051758,-0.1609620749950409,0.24097304046154022,0.06686687469482422,0.075026035,-0.15306588,9.751694,-0.0039909407,-0.22991148,9.750472,0
15,987.622314453125,-1.498805359005928E-4,-3.1701111583970487E-4,4.1541329119354486E-4,-9.262598037719727,16.744462966918945,-37.03866195678711,-0.1647917628288269,0.27275681495666504,0.038481712341308594,0.07745528,-0.16259994,9.770636,-0.010183753,-0.2379888,9.769393,0
15,987.630126953125,1.1605641338974237E-4,8.252420229837298E-5,5.484088906086981E-4,-9.267868041992188,16.58211326599121,-38.02914810180664,-0.15907840430736542,0.2618231177330017,0.06690692901611328,0.08227435,-0.15545107,9.756436,-0.003545641,-0.23267415,9.755247,0
15,987.622314453125,-1.7480342648923397E-5,-5.83204033318907E-4,-2.507010940462351E-4,-9.021093368530273,17.023958206176758,-38.170013427734375,-0.15318918228149414,0.23651652038097382,0.05272388458251953,0.06319445,-0.15545203,9.754072,-0.015426682,-0.22230215,9.75297,0
15,987.6123657226562,2.484567230567336E-4,6.152789574116468E-4,5.480842082761228E-4,-9.353250503540039,16.76535987854004,-37.71877670288086,-0.162132129073143,0.25426191091537476,0.038537025451660156,0.082352966,-0.15545292,9.770646,-0.0032419155,-0.23027387,9.769516,0
15,987.6428833007812,3.812359645962715E-4,-3.16765159368515E-4,2.8160601505078375E-4,-9.064818382263184,17.29899024963379,-38.02539825439453,-0.16112205386161804,0.24835410714149475,0.05275535583496094,0.07522255,-0.16498701,9.75408,-0.008256333,-0.23421293,9.752949,0
15,987.6204223632812,-1.8616672605276108E-5,4.822439805138856E-4,-5.175040569156408E-4,-9.3975191116333,17.4086856842041,-37.67261505126953,-0.14634284377098083,0.24681194126605988,0.04803752899169922,0.06570226,-0.15545483,9.754083,-0.014527911,-0.21999003,9.753053,0
15,987.6478881835938,-2.342045190744102E-4,-2.1727129933424294E-5,2.973427181132138E-4,-9.090852737426758,16.74772834777832,-37.83516311645508,-0.14544489979743958,0.24526819586753845,0.057524681091308594,0.06813145,-0.15307258,9.7611885,-0.011711714,-0.21764578,9.760193,0
15,987.6478881835938,-2.342045190744102E-4,-2.1727129933424294E-5,2.973427181132138E-4,-8.952995300292969,17.19279670715332,-37.72848129272461,-0.1637665331363678,0.24881424009799957,0.05280494689941406,0.08251017,-0.15069033,9.75409,0.005814392,-0.2212277,9.753092,0
15,987.640380859375,5.643643089570105E-4,3.778082027565688E-4,-7.680832059122622E-4,-8.636899948120117,17.17281150817871,-37.929988861083984,-0.15796877443790436,0.23790882527828217,0.043354034423828125,0.08254945,-0.16260768,9.761194,0.003407493,-0.23050229,9.760176,0
15,987.6382446289062,-1.0180420940741897E-4,-6.873939419165254E-4,-6.35087548289448E-4,-9.197405815124512,17.016271591186523,-37.141597747802734,-0.16170504689216614,0.21738886833190918,0.03863811492919922,0.07302916,-0.13877584,9.758831,-4.8562523E-4,-0.20359044,9.757967,0
15,987.6560668945312,-5.016568466089666E-4,-2.8785853646695614E-4,6.963295163586736E-4,-9.415644645690918,17.49692726135254,-37.44403076171875,-0.15168142318725586,0.24944904446601868,0.048117637634277344,0.07545835,-0.15784298,9.768305,-0.0067163706,-0.22056647,9.767378,0
15,987.6382446289062,4.3007003841921687E-4,6.44308514893055E-4,-5.022542318329215E-4,-9.153788566589355,17.84758186340332,-37.65886688232422,-0.1315862387418747,0.2573285400867462,0.04813671112060547,0.06115824,-0.16261049,9.756472,-0.017297141,-0.21675277,9.755595,0
15,987.6358032226562,-0.0010350460652261972,-8.203672477975488E-4,-7.68732454162091E-4,-8.900277137756348,16.8206844329834,-37.63784408569336,-0.1540830433368683,0.24654197692871094,0.048178672790527344,0.08003205,-0.1626045,9.751715,-0.003652251,-0.22405544,9.750825,0
15,987.6383056640625,6.95628288667649E-4,-5.539899575524032E-4,1.6321075963787735E-4,-9.24639892578125,17.12895393371582,-37.98746871948242,-0.13411667943000793,0.24981780350208282,0.038725852966308594,0.06333059,-0.16260521,9.758819,-0.020122454,-0.21476036,9.757995,0
15,987.6184692382812,-3.613248700276017E-4,-5.597771960310638E-4,-3.6790536250919104E-4,-9.28569507598877,17.302492141723633,-37.37569808959961,-0.14777332544326782,0.2386835813522339,0.0387420654296875,0.075308025,-0.15545596,9.763556,-0.0063903625,-0.21279642,9.762764,0
15,987.6284790039062,-7.610676111653447E-4,2.3921416141092777E-4,-1.0170479072257876E-4,-9.240448951721191,17.028928756713867,-37.59761428833008,-0.15214961767196655,0.2421756386756897,0.043488502502441406,0.08250564,-0.16260652,9.76119,0.0020993226,-0.22156121,9.76038,0
15,987.6360473632812,1.7076916992664337E-4,0.0015708371065557003,-3.6813586484640837E-4,-8.652959823608398,16.894235610961914,-37.68025588989258,-0.13737048208713531,0.23126845061779022,0.05296897888183594,0.07058406,-0.14830758,9.773029,-0.0036333962,-0.20234717,9.772315,0
15,987.6284790039062,1.7050013411790133E-4,3.724594134837389E-4,-3.6825117422267795E-4,-9.222024917602539,17.572832107543945,-37.40132522583008,-0.14204387366771698,0.2154865860939026,0.04351043701171875,0.068222106,-0.15069158,9.758829,-0.009105721,-0.20218143,9.758132,0
15,987.65380859375,-7.618744857609272E-4,0.0017040824750438333,-2.352085430175066E-4,-9.460347175598145,17.402193069458008,-37.123661041259766,-0.1459355652332306,0.23777617514133453,0.048259735107421875,0.075419694,-0.14830895,9.7612,0.002808811,-0.2020986,9.760527,0
15,987.6315307617188,-2.2951187565922737E-4,1.0623084381222725E-4,-3.684816765598953E-4,-8.709701538085938,16.89363670349121,-37.44053268432617,-0.15011197328567505,0.22702527046203613,0.04353809356689453,0.07544762,-0.15545942,9.761202,-0.0025829857,-0.20743695,9.760527,0
16,987.6312866210938,-3.629387356340885E-4,2.3943244013935328E-4,-2.3543910356238484E-4,-8.9048433303833,16.81626319885254,-37.40593338012695,-0.12532463669776917,0.24497206509113312,0.029346466064453125,0.06830585,-0.16737653,9.768305,-0.010536978,-0.21382466,9.7676325,0
16,987.6542358398438,3.025821642950177E-4,-2.931556664407253E-4,-6.350281764753163E-4,-8.626383781433105,17.07720375061035,-37.77204513549805,-0.13897426426410675,0.22953149676322937,0.0814352035522461,0.06355387,-0.15307756,9.7422695,-0.009490659,-0.19779296,9.741667,0
16,987.6342163085938,8.349447743967175E-4,3.726776922121644E-4,-3.6882766289636493E-4,-8.859161376953125,17.2807559967041,-37.90205764770508,-0.14306887984275818,0.20911002159118652,0.04830741882324219,0.07792121,-0.15307827,9.7635765,-4.27512E-5,-0.20328021,9.762972,0
16,987.60888671875,-3.6374572664499283E-4,-2.6752444682642817E-5,-1.0262697469443083E-4,-9.354337692260742,17.501943588256836,-37.91567611694336,-0.14703406393527985,0.22191479802131653,0.048320770263671875,0.07794911,-0.15546216,9.765945,-0.0013402316,-0.20404017,9.765364,0
16,987.6544189453125,-6.303305272012949E-4,-1.5986671496648341E-4,3.041565651074052E-5,-9.337733268737793,17.412233352661133,-38.06695556640625,-0.13680870831012726,0.21586254239082336,0.043598175048828125,0.06602752,-0.14116322,9.758846,-0.0034563332,-0.18470518,9.758342,0
16,987.6343383789062,-9.796756785362959E-5,3.728086594492197E-4,6.960900500416756E-4,-9.141207695007324,17.385156631469727,-37.47978210449219,-0.13613545894622803,0.2095777988433838,0.053078651428222656,0.07561505,-0.14116393,9.768318,0.003966357,-0.18791321,9.767823,0
16,987.6064453125,-8.97184363566339E-4,1.0653649223968387E-4,3.018503775820136E-5,-9.4488525390625,17.676355361938477,-37.141475677490234,-0.1400732398033142,0.22263352572917938,0.034152984619140625,0.07564297,-0.16499738,9.77779,-0.0016012429,-0.20792526,9.777264,0
16,987.6347045898438,-9.850575588643551E-5,-1.5973573317751288E-4,2.9638572596013546E-4,-8.758535385131836,17.53254508972168,-37.16244888305664,-0.12018261104822159,0.20672613382339478,0.04363536834716797,0.06372136,-0.14116527,9.770691,-0.00546064,-0.17972863,9.770264,0
16,987.6271362304688,-3.650905564427376E-4,-1.5969204832799733E-4,2.962704165838659E-4,-8.773372650146484,16.623300552368164,-37.41489791870117,-0.12906917929649353,0.20088820159435272,0.048377037048339844,0.06374931,-0.14354922,9.744655,-0.0074903877,-0.18081585,9.74424,0
16,987.6224975585938,3.4114462323486805E-5,1.0666751768440008E-4,-1.0331865632906556E-4,-8.790817260742188,16.449167251586914,-37.78694152832031,-0.13340222835540771,0.21864819526672363,0.05312061309814453,0.07094681,-0.15308304,9.754126,-0.0058512245,-0.19159368,9.753701,0
16,987.6268310546875,-8.982602739706635E-4,6.393429357558489E-4,2.960398269351572E-4,-9.357519149780273,17.393083572387695,-37.06199264526367,-0.13738343119621277,0.22236673533916473,0.029458999633789062,0.07814446,-0.1650001,9.775433,-0.0037343893,-0.20460837,9.774996,0
16,987.6351318359375,-7.656405214220285E-4,6.3943030545488E-4,5.621251766569912E-4,-9.31020736694336,16.752702713012695,-37.262760162353516,-0.13698261976242065,0.20653769373893738,0.05787467956542969,0.07578248,-0.14831786,9.761232,-0.001539608,-0.18752344,9.760853,0
16,987.6148681640625,3.3038435503840446E-5,6.394739029929042E-4,1.6253607464022934E-4,-9.139142036437988,17.018342971801758,-37.45863342285156,-0.15089599788188934,0.205440491437912,0.053145408630371094,0.08775991,-0.15785159,9.761234,0.007414409,-0.20075262,9.7608385,0
16,987.6024780273438,-2.3354636505246162E-4,-5.58903906494379E-4,-5.033689085394144E-4,-9.887585639953613,17.266000747680664,-37.819698333740234,-0.12598201632499695,0.20888814330101013,0.024751663208007812,0.07344842,-0.1578523,9.77544,-0.010573087,-0.19246311,9.775089,0
16,987.6176147460938,-2.338155172765255E-4,-2.6228459319099784E-5,4.2862145346589386E-4,-9.768695831298828,17.535459518432617,-38.007755279541016,-0.14923810958862305,0.21704508364200592,0.05316638946533203,0.07586622,-0.16023628,9.763607,-0.0071704807,-0.19461785,9.763274,0
16,987.63525390625,-6.335584912449121E-4,6.396049284376204E-4,-1.0412564733996987E-4,-9.352272033691406,17.1351261138916,-37.894527435302734,-0.14388786256313324,0.21574218571186066,0.04370689392089844,0.08067393,-0.15070392,9.758875,0.003502435,-0.18751138,9.75857,0
16,987.62060546875,2.9827828984707594E-4,5.064906436018646E-4,-5.037147784605622E-4,-8.89418888092041,16.826570510864258,-37.94706344604492,-0.13369491696357727,0.22416244447231293,0.04844856262207031,0.078124404,-0.17214943,9.770697,-0.006241186,-0.20425877,9.770388,0
16,987.6278686523438,3.305613063275814E-5,-9.584241779521108E-4,-1.0377232683822513E-4,-9.149659156799316,17.11394691467285,-37.616573333740234,-0.1321408748626709,0.2084323614835739,0.04849433898925781,0.07556346,-0.15307899,9.756477,-7.070876E-4,-0.18469818,9.756223,0
16,987.6150512695312,-0.001030104816891253,-4.2613380355760455E-4,6.960765458643436E-4,-9.027725219726562,17.386354446411133,-37.95924758911133,-0.13134390115737915,0.21654005348682404,0.029567718505859375,0.077966034,-0.16261245,9.765947,-6.940933E-4,-0.19295973,9.765705,0
16,987.597412109375,-4.975951742380857E-4,-9.587457170709968E-4,-6.355551886372268E-4,-9.618938446044922,17.78047752380371,-37.12135696411133,-0.14452043175697327,0.205744206905365,0.06272125244140625,0.08036861,-0.1554629,9.747011,0.0012559094,-0.18641445,9.7467985,0
16,987.6057739257812,-9.824370499700308E-5,-2.6620298740454018E-5,-5.02449634950608E-4,-8.886281967163086,17.466073989868164,-37.90871810913086,-0.12946301698684692,0.20455628633499146,0.04379081726074219,0.07560155,-0.16022976,9.777786,-4.433985E-4,-0.18736921,9.777596,0
16,987.6057739257812,-9.824370499700308E-5,-2.6620298740454018E-5,-5.02449634950608E-4,-9.17275619506836,17.67197608947754,-37.95360565185547,-0.11501863598823547,0.19843754172325134,0.06273555755615234,0.0708344,-0.15546353,9.754115,-0.0033896747,-0.17997183,9.753952,0
16,987.6334228515625,3.479141741991043E-5,0.0011718211462721229,-1.0302843293175101E-4,-9.221343994140625,17.310457229614258,-38.001949310302734,-0.13343492150306702,0.2069815993309021,0.06274223327636719,0.07801682,-0.1626137,9.751749,-0.0023947014,-0.18872353,9.751591,0
16,987.6131591796875,3.00985062494874E-4,5.060512921772897E-4,-1.0308081982657313E-4,-8.747774124145508,16.436513900756836,-37.330928802490234,-0.12323276698589325,0.20101958513259888,0.034343719482421875,0.07085976,-0.15784742,9.765953,-0.0062965946,-0.18011592,9.765823,0
16,987.62841796875,-1.8978893058374524E-4,2.462335687596351E-4,3.172975266352296E-5,-9.353251457214355,16.76535987854004,-37.71877670288086,-0.1319141983985901,0.20947429537773132,0.048553466796875,0.08043206,-0.15546449,9.756486,-4.7372002E-4,-0.18148404,9.756369,0
17,987.638427734375,-5.67532260902226E-5,-2.863783738575876E-4,5.643091863021255E-4,-9.180801391601562,16.92655372619629,-37.29287338256836,-0.12618516385555267,0.1938328742980957,0.04383087158203125,0.07088512,-0.15784802,9.768322,-0.0079359375,-0.17835268,9.768222,0
17,987.6287231445312,0.0011415460612624884,-5.526745226234198E-4,5.642567994073033E-4,-9.32583236694336,17.212182998657227,-37.28723907470703,-0.13982978463172913,0.20247112214565277,0.03910064697265625,0.0828473,-0.16023166,9.758856,0.0013463036,-0.18526055,9.758764,0
17,987.6234130859375,4.7563418047502637E-4,3.7945093936286867E-4,-1.015852321870625E-4,-9.240013122558594,17.766984939575195,-37.87181854248047,-0.11518260836601257,0.19245943427085876,0.04384136199951172,0.068520576,-0.14831556,9.765957,-0.0029368456,-0.16697927,9.765896,0
17,987.6315307617188,3.4235400380566716E-4,-4.1947682620957494E-4,-3.679535002447665E-4,-8.853073120117188,17.286645889282227,-38.21127700805664,-0.13856564462184906,0.18657055497169495,0.04858112335205078,0.075702965,-0.16261555,9.754124,-0.0018922221,-0.18205859,9.754074,0
17,987.6339721679688,-3.235578187741339E-4,-1.5314111078623682E-4,-2.3484794655814767E-4,-8.98620319366455,17.372224807739258,-37.42592239379883,-0.10911242663860321,0.19491742551326752,0.053322792053222656,0.061376274,-0.15546604,9.765961,-0.015573652,-0.16771396,9.765939,0
17,987.6261596679688,-5.736417369917035E-5,-4.1943712858483195E-4,2.9773145797662437E-4,-9.368875503540039,17.22484016418457,-37.743255615234375,-0.12295833230018616,0.17479538917541504,0.04859352111816406,0.07333848,-0.1411667,9.761229,0.003860793,-0.15998559,9.761213,0
17,987.6315307617188,-5.748687544837594E-5,5.126884207129478E-4,2.976788382511586E-4,-9.190338134765625,17.391923904418945,-37.6265754699707,-0.1364736258983612,0.17377230525016785,0.05807018280029297,0.085300654,-0.1507001,9.7564945,0.010243179,-0.17299198,9.756494,0
17,987.62646484375,7.55488290451467E-5,-2.8623943217098713E-4,8.302582427859306E-4,-8.987044334411621,17.108373641967773,-37.94924545288086,-0.11661602556705475,0.18711638450622559,0.06754302978515625,0.07097393,-0.15308367,9.7517605,-0.004778186,-0.16750373,9.75178,0
17,987.624267578125,3.417425905354321E-4,-1.9903731299564242E-5,2.975740935653448E-4,-9.085444450378418,17.015993118286133,-37.543758392333984,-0.12062247097492218,0.19105121493339539,0.05808067321777344,0.08293611,-0.16261707,9.751761,-0.0018414068,-0.18074392,9.751795,0
17,987.639892578125,2.084624138660729E-4,1.1327405809424818E-4,-5.01425878610462E-4,-9.301074981689453,16.76154136657715,-37.72658920288086,-0.1155082955956459,0.1996387243270874,0.04388141632080078,0.06860939,-0.15785088,9.758863,-0.0064070113,-0.1692071,9.758913,0
17,987.6015014648438,7.409719401039183E-4,3.7960984627716243E-4,3.115349682047963E-5,-8.837990760803223,17.195466995239258,-38.28525161743164,-0.12456384301185608,0.19384035468101501,0.04861927032470703,0.07340187,-0.16023447,9.770702,-0.0057309987,-0.17259064,9.770767,0
17,987.6192626953125,7.506011752411723E-5,5.127876065671444E-4,2.9741699108853936E-4,-9.17234992980957,17.19776725769043,-37.15607833862305,-0.11463737487792969,0.16907548904418945,0.05335712432861328,0.06863475,-0.15308495,9.758867,-0.0053107627,-0.16337305,9.758941,0
17,987.6644897460938,-4.578160005621612E-4,-8.187522180378437E-4,-6.347933667711914E-4,-9.055280685424805,16.833620071411133,-37.69169998168945,-0.13188044726848602,0.19133123755455017,0.043900489807128906,0.08537671,-0.15785183,9.7565,0.004785223,-0.17361051,9.756604,0
17,987.6644897460938,-4.578160005621612E-4,-8.187522180378437E-4,-6.347933667711914E-4,-9.055280685424805,16.833620071411133,-37.69169998168945,-0.10751998424530029,0.1861039400100708,0.034432411193847656,0.06866014,-0.15308554,9.763603,-0.009555664,-0.16090234,9.763714,0
17,987.6195678710938,2.0785146625712514E-4,-0.0014845221303403378,1.64101948030293E-4,-9.250422477722168,16.756242752075195,-37.6571044921875,-0.13576394319534302,0.19461293518543243,0.06284427642822266,0.09496176,-0.16738553,9.739932,0.004681965,-0.18540561,9.740068,0
17,987.6170654296875,7.403605268336833E-4,6.460249423980713E-4,1.6404929920099676E-4,-9.388959884643555,16.57355308532715,-37.16315841674805,-0.11572317779064178,0.1886807531118393,0.0628509521484375,0.07107544,-0.16023599,9.756504,-0.012013762,-0.16625156,9.756656,0
17,987.6093139648438,-5.913411150686443E-4,-1.5290288138203323E-4,3.0838942620903254E-5,-9.68040657043457,17.249238967895508,-37.77366256713867,-0.10074862092733383,0.1685909628868103,0.058119773864746094,0.06860298,-0.14355107,9.763598,-0.0032925978,-0.14965205,9.763748,0
17,987.6525268554688,3.406422329135239E-4,-4.191989137325436E-4,5.634184344671667E-4,-9.113407135009766,16.937463760375977,-38.0737419128418,-0.11408828943967819,0.1774880588054657,0.04393768310546875,0.068514705,-0.15784849,9.761223,-0.009989828,-0.16156779,9.761397,0
17,987.6348266601562,6.105761276558042E-4,-4.213103384245187E-4,4.3055371497757733E-4,-9.352815628051758,17.5034122467041,-37.992984771728516,-0.10384161025285721,0.16697952151298523,0.05814647674560547,0.0780794,-0.14593233,9.749388,0.0044612736,-0.15467563,9.749565,0
17,987.614501953125,7.83439027145505E-5,1.1125652235932648E-4,-2.3506477009505033E-4,-9.384501457214355,17.68431282043457,-37.767730712890625,-0.10736767947673798,0.20027737319469452,0.02027416229248047,0.07808453,-0.15784882,9.775428,-0.0034536207,-0.16477607,9.775624,0
17,987.8058471679688,-0.001519649289548397,0.0011765359668061137,2.9752511181868613E-4,-9.068840980529785,16.926279067993164,-37.69503402709961,-0.12615130841732025,0.17012864351272583,0.03921699523925781,0.08047947,-0.14593257,9.765959,0.0055357474,-0.15418929,9.766162,0
17,987.5771484375,-0.001519698416814208,7.770700613036752E-4,5.638200091198087E-4,-8.829975128173828,16.72862434387207,-37.87424850463867,-0.11611419916152954,0.18309995532035828,0.03922080993652344,0.07809466,-0.16261558,9.76596,-0.0031293444,-0.16666472,9.766204,0
17,987.5823364257812,4.7762179747223854E-4,-1.550275628687814E-4,-1.0199076496064663E-4,-9.38757610321045,16.4691104888916,-36.541385650634766,-0.11991473287343979,0.16841547191143036,0.07236576080322266,0.080489635,-0.15069933,9.756491,-0.0011027318,-0.15678567,9.756727,0
17,987.64111328125,0.002874416299164295,-0.0013534409226849675,-9.009592467918992E-4,-9.4332275390625,17.216875076293945,-37.11699295043945,-0.11438930034637451,0.18231788277626038,0.03922748565673828,0.075714886,-0.17214896,9.754124,-0.013315355,-0.17285995,9.754396,0
18,987.68408203125,-0.002585108857601881,0.0010434096911922097,9.632308501750231E-4,-8.977347373962402,17.16922950744629,-36.49160385131836,-0.11874081939458847,0.17560982704162598,0.058170318603515625,0.07571995,-0.15069957,9.768328,6.167784E-4,-0.1524207,9.768595,0
