Timestamp,Ax,Ay,Az,Gx,Gy,Gz,Mx,My,Mz,LiAx,LiAy,LiAz,P,Value,Type,GroupType,Activities
0.0,0.03888458,-0.13726771,9.759003,-0.0012941262684762476,0.001594323432072997,0.000349009147612378,9.132919311523438,25.23539733886719,-15.99699592590332,-0.017406430095434192,-0.00890040397644043,0.059262275695800774,990.0549926757812,0,13.0,1,1
0.04,0.03647566,-0.14918366,9.770837,0.0020290296524763107,0.0012415087549015882,-9.265614789910614e-05,3.517173290252685,24.40298080444336,-17.007532119750973,-0.007760707288980484,-0.004164695739746094,0.04032707214355469,990.0784912109376,0,13.0,1,1
0.08,0.048406124,-0.13965005,9.761367,0.0020290296524763107,0.0012415087549015882,-9.265614789910614e-05,3.7759850025177,24.750694274902344,-17.067758560180664,-0.0072925444692373284,-0.0041986703872680655,0.04506111145019531,990.0784912109376,0,13.0,1,1
0.12,0.031657755,-0.13964957,9.758997,-0.000767103920225054,-0.0006227321573533117,0.0005732121644541621,3.840741395950317,24.284446716308594,-16.896486282348633,0.002143317833542824,-0.00887596607208252,0.059267997741699226,989.8525390625,0,13.0,1,1
0.16,0.036418557000000004,-0.13726583,9.770831,-0.00050042086513713,0.0008419455261901021,-0.00022557811462320385,3.85125732421875,24.1888427734375,-16.73854637145996,0.006569407880306244,-0.018273398280143738,0.045070648193359375,989.9033203125,0,13.0,1,1
0.2,0.024450034,-0.15156502,9.763728,0.0009644997189752758,0.0007087578997015952,0.0005734480218961835,3.926530361175537,23.626991271972656,-16.409326553344727,0.016371354460716248,0.0005851984024047853,0.035599708557128906,989.8901977539062,0,13.0,1,1
0.24,0.031600714,-0.14918128,9.773196,0.0009644997189752758,0.0007087578997015952,0.0005734480218961835,3.926530361175537,23.626991271972656,-16.409326553344727,-0.0027390867471694946,0.005393818020820618,0.026131629943847656,989.8901977539062,0,13.0,1,1
0.28,0.036361486,-0.15394735,9.777928,-0.0003668963327072561,-0.0006228514248505236,-0.0003585789527278393,3.809736251831055,24.20297241210937,-17.27186393737793,-0.0025643650442361827,0.001241445541381836,0.040345191955566406,989.9121704101562,0,13.0,1,1
0.32,0.031562626,-0.15633014,9.756621,0.000432234548497945,-0.00022340715804602948,0.0007067631231620907,4.2903733253478995,23.70468521118164,-17.085817337036133,-0.002465561032295227,0.010468244552612305,0.06874942779541016,989.911865234375,0,13.0,1,1
0.36,0.024373889,-0.13726345,9.7684555,-0.001431609271094203,-0.0004897827166132629,0.00030744663672521716,3.96862530708313,24.456825256347656,-16.84929084777832,-0.0023761428892612453,-0.01803971827030182,0.03087902069091797,989.9038696289062,0,13.0,1,1
0.4,0.043474108,-0.14441282,9.761353,0.0005659431335516274,-0.0003566545201465488,4.120927769690752e-05,3.26626968383789,24.69477081298828,-16.90895652770996,-0.016678977757692337,0.0013886988162994385,0.05455684661865234,989.8988647460938,0,13.0,1,1
0.44,0.03867528,-0.1348792,9.77082,0.0008324422524310647,0.00017594762903172525,-0.0003581859928090125,3.7695987224578857,24.11266326904297,-17.183408737182614,-0.002227218821644783,-0.01773613691329956,0.049823760986328125,989.9061889648438,0,13.0,1,1
0.48,0.03387642,-0.153945,9.766083,-9.94799775071442e-05,4.275982792023569e-05,-9.17915313038975e-05,3.6837797164916988,23.55785751342773,-16.59882926940918,0.0025483742356300354,-0.0034216344356536865,0.04982471466064453,989.8861694335938,0,13.0,1,1
0.52,0.036247283,-0.16347763,9.754246,3.386143362149596e-05,-0.0006230596918612719,-0.00022487089154310522,3.4190711975097656,24.942737579345703,-16.177167892456055,0.007818758487701416,0.020643308758735657,0.07349967956542969,989.8811645507812,0,13.0,1,1
0.56,0.029058576000000003,-0.14202762,9.768447,0.0004335188423283398,0.00017585822206456214,0.00017468168516643345,3.5586953163146973,24.38884735107422,-16.474210739135742,-0.007072670385241509,-0.007835626602172852,0.03089618682861328,989.9007568359376,0,13.0,1,1
0.6,0.029039562,-0.13964394,9.75661,0.0010994919575750828,0.0008416181080974637,-9.155567386187612e-05,4.0144147872924805,23.814979553222656,-16.972761154174805,0.007176371291279794,-0.007621645927429198,0.04036998748779297,989.8961181640624,0,13.0,1,1
0.64,0.045749843,-0.14917663,9.768443,0.0003007274935953319,0.0005752724828198553,-0.0003577929164748639,3.4309487342834477,24.32238006591797,-17.220476150512695,-0.021307261660695083,0.006863012909889221,0.026170730590820312,989.8834838867188,0,13.0,1,1
0.68,0.0360291,-0.134873,9.766062,-9.856309043243527e-05,-0.00035686290357261896,-0.000624030246399343,3.6088051795959473,24.751842498779297,-16.503175735473633,-0.0021406952291727066,-0.026392951607704163,0.04984664916992188,989.90576171875,0,13.0,1,1
0.72,0.0334695,-0.15393510000000002,9.756577499999999,-0.00036435638321563596,-0.0003569477121345699,-0.00035749052767641837,4.106184005737306,24.269760131835934,-17.167482376098633,-0.006769314408302307,0.0017202645540237427,0.04040050506591797,989.9364013671876,0,13.0,1,1
0.76,0.03343904,-0.13963458,9.766043,-0.0010292847873643038,0.0009752995683811604,-0.00035272267996333534,3.603398323059082,24.48357391357422,-16.794580459594727,-0.0015290174633264544,-0.012615025043487549,0.04040241241455078,989.9210815429688,0,13.0,1,1
0.8,0.042968214000000005,-0.15155026,9.77551,0.0001694300735834986,-0.0012884329771623015,-8.628086652606726e-05,3.51467227935791,24.03174591064453,-16.754465103149414,-0.015603572130203247,-0.003119915723800659,0.02146434783935547,989.8955688476562,0,13.0,1,1
0.84,0.03815794,-0.14439970000000002,9.763671,-0.00036290808930061763,-0.000622691004537046,-8.615510887466371e-05,3.4368991851806636,24.222354888916016,-16.830621719360348,-0.005814326927065849,-0.0081348717212677,0.04040050506591797,989.8930053710938,0,13.0,1,1
0.88,0.035737634,-0.14916548,9.758933,-0.000628930632956326,-0.0006227386766113341,-0.0004855032020714134,3.4514377117156982,24.49946212768555,-17.003046035766598,0.003989787772297859,-0.00840875506401062,0.05460166931152344,989.8905639648438,0,13.0,1,1
0.92,0.03092736,-0.1491647,9.768399,-0.0010281107388436792,0.0003093192935921252,0.00018041234579868612,3.867318868637085,24.46741485595703,-16.988271713256836,0.003931473940610886,-0.0038496404886245728,0.04039859771728516,989.9033203125,0,13.0,1,1
0.96,0.03328681,-0.14201418,9.754192999999999,3.744606510736048e-05,0.00017611369548831135,-0.00021893563098274169,3.8488943576812735,23.92352294921875,-17.184564590454098,0.008714128285646439,-0.008501291275024414,0.04987239837646485,989.8857421875,0,13.0,1,1
1.0,0.033256352,-0.15869635,9.7683935,3.773989737965167e-05,4.290811193641275e-05,4.750594962388277e-05,3.8597087860107417,24.46005249023437,-16.601747512817386,-0.0006523914635181428,0.01513567566871643,0.0593414306640625,989.90576171875,0,13.0,1,1
1.04,0.042785496,-0.14201263,9.773126,-9.483107714913784e-05,-0.000622976862359792,0.0004472313448786736,3.4810593128204346,24.68537902832031,-17.24943733215332,-0.005026845261454582,-0.013454094529151915,0.0404052734375,989.8980712890624,0,13.0,1,1
1.08,0.02841568,-0.14916176,9.763653999999999,-9.483107714913784e-05,-0.000622976862359792,0.0004472313448786736,3.4810593128204346,24.68537902832031,-17.24943733215332,0.014167230576276781,0.000954747200012207,0.04987621307373047,989.8980712890624,0,13.0,1,1
1.12,0.033164978,-0.14916104,9.766019,0.00017177793779410422,-0.0008893404155969619,-0.0008842223323881627,3.750929355621338,24.569190979003906,-17.053277969360348,0.004690935835242271,-0.0040430575609207145,0.04514122009277344,989.9057006835938,0,13.0,1,1
1.16,0.023574948,-0.14677694,9.75418,-9.39508609008044e-05,-0.00022364602773450318,-0.00035133902565576136,3.477036476135254,24.31266784667969,-16.919076919555664,0.0049655213952064505,0.0006558001041412354,0.04987716674804688,989.9386596679688,0,13.0,1,1
1.2,0.03549403,-0.16107592,9.763646000000001,-9.39508609008044e-05,-0.00022364602773450318,-0.00035133902565576136,3.477036476135254,24.31266784667969,-16.919076919555664,-0.013997919857501984,0.014811411499977112,0.04040718078613281,989.9386596679688,0,13.0,1,1
1.24,0.042633235,-0.15392536,9.773111,0.0004389745008666068,-0.0006231674342416228,-8.489727042615414e-05,4.015393257141113,24.18474578857422,-17.14851951599121,-0.01358615979552269,0.010275453329086305,0.03094482421875,989.9386596679688,0,13.0,1,1
1.28,0.030653298,-0.14200819,9.7778425,-9.336366201750934e-05,-9.058341674972326e-05,-0.0004842453345190733,3.38874626159668,24.598892211914066,-17.153169631958008,0.005134452134370804,-0.003935858607292175,0.04041862487792969,989.9077758789062,0,13.0,1,1
1.32,0.033012748,-0.15154055,9.76127,0.00017324546934105456,0.0005751588032580912,4.8512185458093875e-05,4.16444730758667,24.271827697753906,-17.48451805114746,0.009809119626879692,0.0055795907974243155,0.059359550476074226,989.8851928710938,0,13.0,1,1
1.36,0.035372198,-0.15868965,9.756532,-0.0004922504303976893,0.00030879513360559935,-0.0004839936445932835,4.0765628814697275,24.083839416503906,-16.921083450317386,-0.0044616106897592545,0.005428150296211243,0.04515743255615234,989.8877563476562,0,13.0,1,1
1.4,0.042511463,-0.15153906,9.763631,0.0011062318226322534,0.0005750158452428878,4.888957482762635e-05,3.8739495277404794,24.105018615722656,-17.199041366577152,0.0003708880394697189,-0.003699272871017456,0.05937099456787109,989.9179077148438,0,13.0,1,1
1.44,0.040091097,-0.14438844,9.765996000000001,0.0011062318226322534,0.0005750158452428878,4.888957482762635e-05,3.76101016998291,23.73553276062012,-16.621126174926758,-0.013741638511419295,0.0007445961236953735,0.03569602966308594,989.9179077148438,0,13.0,1,1
1.48,0.042450547000000005,-0.14677098,9.768360000000001,0.0011062318226322534,0.0005750158452428878,4.888957482762635e-05,3.76101016998291,23.73553276062012,-16.621126174926758,0.0006018057465553284,0.0009067803621292113,0.04516887664794922,989.9179077148438,0,13.0,1,1
1.52,0.044809997000000004,-0.144387,9.770724000000001,-0.0010240020928904414,-0.0004902954678982496,-0.0002173004613723606,3.832290172576904,24.01323699951172,-17.033281326293945,-0.013930955901741982,-0.013368979096412659,0.04990673065185547,989.907470703125,0,13.0,1,1
1.56,0.04238966,-0.15153602,9.751783999999999,0.0003078712907154113,0.0003086045617237687,0.00018229908891953528,3.78772497177124,24.02442169189453,-17.411989212036133,-0.018176976591348648,-0.003656357526779175,0.04991054534912109,989.895263671875,0,13.0,1,1
1.6,0.042359203,-0.1396189,9.7636175,0.0001750064839143306,-0.0004903906956315041,-8.38909763842821e-05,3.782616138458252,24.38829040527344,-17.278528213500973,-0.017988339066505432,-0.012838765978813171,0.04044914245605469,989.9102172851562,0,13.0,1,1
1.64,0.044718623,-0.1372349,9.758882,0.0008410898735746741,-0.0004904383094981314,-0.00021692310110665858,3.3858401775360107,24.70185852050781,-17.697641372680664,-0.013038773089647291,-0.003207504749298096,0.04992103576660156,989.9102172851562,0,13.0,1,1
1.68,0.04136926,-0.14918643,9.768479,0.00044190944754518563,0.00030846160370856524,-0.00034995531314052636,3.502091407775879,24.494163513183594,-16.933557510375973,-0.0052285753190517426,-0.007627472281455994,0.05453205108642578,989.8949584960938,0,13.0,1,1
1.72,0.031837493,-0.13965389,9.777951,0.00043550916598178446,-8.997316763270646e-05,0.0003130914410576225,3.8808786869049072,24.374755859375,-16.984941482543945,-0.00037408247590065,-0.007785812020301819,0.03558921813964844,989.9074096679688,0,13.0,1,1
1.76,0.036645173999999996,-0.13965460000000002,9.763751,-0.0001392438425682485,-4.5093941025697866e-08,-7.675203960388899e-05,3.9918599128723145,24.004718780517575,-17.21134376525879,-8.135288953781128e-05,-0.012536048889160156,0.03558635711669922,989.93798828125,0,13.0,1,1
1.8,0.031893313,-0.13965532,9.756652,-6.35458854958415e-06,-0.0010652649216353893,0.00018944853218272328,3.660682201385498,24.115886688232425,-16.935861587524414,-0.014328695833683012,-0.007837593555450441,0.0545196533203125,989.88720703125,0,13.0,1,1
1.84,0.036701024,-0.14918914,9.766124000000001,-0.0004060975625179708,4.2261206090188346e-08,0.0008551229257136582,3.4806232452392583,23.94732666015625,-16.975236892700195,-0.005198884755373001,-0.0030843019485473637,0.03084564208984375,989.90478515625,0,13.0,1,1
1.88,0.041508734,-0.14203998,9.782697,-6.89277658239007e-06,0.00039955970714800065,-7.70978513173759e-05,3.7931318283081055,24.292686462402344,-17.12058448791504,-0.009749770164489746,-0.012485414743423462,0.03557872772216797,989.90478515625,0,13.0,1,1
1.92,0.02958715,-0.14680716,9.759027,-7.161695975810289e-06,0.000532761390786618,0.00032226069015450776,3.517173290252685,24.40298080444336,-17.007532119750973,0.013899743556976318,-0.007850706577301025,0.045044898986816406,989.9125366210938,0,13.0,1,1
1.96,0.03439483,-0.14919117,9.773232,-0.00014058843953534958,0.0003996470768470317,-0.0004768022918142378,3.5503816604614262,24.22354888916016,-17.310083389282227,0.004162855446338653,-0.007860556244850159,0.030838966369628906,989.9197998046876,0,13.0,1,1
2.0,0.03920254,-0.14919189,9.770866999999999,-7.699534762650728e-06,0.0002665327629074455,5.57142193429172e-05,3.6189160346984863,25.13044357299805,-17.142755508422848,-0.01500498503446579,0.006576582789421082,0.030839920043945312,989.897216796875,0,13.0,1,1
2.04,0.029670835,-0.13727620000000001,9.766135,-0.0001411265111528337,-0.0005323711666278541,-0.0002107168547809124,3.6742422580718994,24.02322769165039,-16.932527542114258,0.004078362137079239,-0.02225862443447113,0.04030132293701172,989.897216796875,0,13.0,1,1
2.08,0.03925836,-0.13727679999999998,9.763772,-0.0004077113117091357,0.0011987255420535805,-0.0004771480453200639,3.328663110733032,23.96320724487305,-17.18370246887207,-0.0008788816630840303,-0.026942908763885498,0.05450248718261719,989.8770751953124,0,13.0,1,1
2.12,0.0345065,-0.14919391,9.754305,0.00012465164763852954,-0.00013281006249599161,-0.00034410535590723157,3.6878023147583012,23.93056869506836,-16.929193496704098,-0.010392632335424423,-0.017580360174179074,0.04976177215576172,989.8998413085938,0,13.0,1,1
2.16,0.036924303,-0.14442804,9.759041999999999,-0.00040824915049597616,0.0001335494889644906,0.0005878849769942462,3.748673677444458,23.19753074645996,-17.12663459777832,-0.010398343205451964,-0.012884572148323059,0.04029083251953125,989.8641967773438,0,13.0,1,1
2.2,0.048901677000000005,-0.163495,9.76378,-0.0005416761268861592,0.0007993828621692955,-0.0010101257357746363,3.8397626876831055,23.914684295654297,-16.720727920532227,-0.020124498754739758,0.01064467430114746,0.05448627471923828,989.8916015625,0,13.0,1,1
2.24,0.029810369,-0.14204606,9.766149,-9.313516784459352e-06,-0.0003989949764218181,-0.0004776091664098203,3.613914012908936,24.387969970703125,-16.63663673400879,0.003956697881221771,-0.01309187710285187,0.03554630279541016,989.8916015625,0,13.0,1,1
2.28,0.039397895,-0.15157989,9.761416,-0.00014274002751335502,-0.0005321092321537435,-0.0006108822417445482,3.6266331672668457,24.03146743774414,-17.156625747680664,0.003849543631076813,-0.0034470856189727783,0.05448532104492188,989.8839721679688,0,13.0,1,1
2.32,0.03942579,-0.1539639,9.763785,0.00025646475842222566,0.00040004000766202813,5.479220999404788e-05,3.805850982666016,23.93617820739746,-17.640573501586914,-0.010428816080093384,0.005990132689476013,0.045012474060058594,989.8839721679688,0,13.0,1,1
2.36,0.027504206,-0.1563479,9.756688,0.00012303778203204274,0.00013376778224483132,0.0001878348120953888,4.156837463378906,24.26446533203125,-17.097993850708008,-0.0055354759097099296,0.0010494738817214966,0.054474830627441406,989.8690185546876,0,13.0,1,1
2.4,0.029922009,-0.14681542,9.766158,-0.00040986313251778483,-0.0005319782067090273,-0.00021175428992137316,4.019958972930908,24.18916320800781,-17.380434036254886,0.008761446923017502,-0.008339345455169678,0.040271759033203125,989.8966674804688,0,13.0,1,1
2.44,0.041899383,-0.15634921,9.773263,0.0002556577674113214,-0.00013246078742668033,0.00045392019092105334,3.6973700523376474,24.677459716796875,-17.6672306060791,-0.010551277548074722,-0.0035741478204727173,0.045004844665527344,989.9015502929688,0,13.0,1,1
2.48,0.0395374,-0.15158334,9.763797,-0.0005435586790554224,0.000267056719167158,-0.0003451427328400314,3.59494686126709,24.21236801147461,-16.93137550354004,-0.0057997070252895355,0.001084357500076294,0.0592031478881836,989.8837280273438,0,13.0,1,1
2.52,0.03478551,-0.16111717,9.778003,-0.0001443538931198418,0.00040025837370194495,-0.0003452581004239619,3.3926315307617188,24.865684509277344,-16.784456253051758,-0.0009628757834434508,0.010153263807296751,0.030786514282226562,989.8837280273438,0,13.0,1,1
2.56,0.041983128,-0.15635133,9.768537,-0.0008104127482511102,0.00013398610462900248,0.0004535743209999056,3.648942232131958,24.84215545654297,-16.591623306274414,-0.005681339651346207,0.019592642784118645,0.040251731872558594,989.865966796875,0,13.0,1,1
2.6,0.027671635,-0.13490242,9.7709055,0.0005208978545852004,-0.0002654440759215504,-7.917266339063644e-05,3.670655250549317,24.38857269287109,-16.876367568969727,-0.0010409839451313019,-0.027655094861984253,0.026052474975585938,989.865966796875,0,13.0,1,1
2.64,0.041365862,-0.14203647,9.766112,0.00038747099461033935,0.0009330210741609336,-0.00021244591334834692,3.505678653717041,24.12882232666016,-16.989717483520508,-0.010676264762878418,-0.0037026703357696533,0.04498958587646485,989.8756713867188,0,13.0,1,1
2.68,0.023950517,-0.14440289,9.775518,-0.00014542980352416635,-0.0007979884976521133,-0.0002125611645169556,3.7470450401306152,24.302398681640625,-17.421991348266598,0.02885466068983078,-0.008760720491409302,0.040373802185058594,989.88818359375,0,13.0,1,1
2.72,0.043043077,-0.15631863,9.7660475,-0.0009331214823760092,0.00039860568358562887,-7.457920582965016e-05,3.8066921234130864,24.20002746582031,-17.117254257202152,-0.023852342739701268,0.010124891996383669,0.03563976287841797,989.9193725585938,0,13.0,1,1
2.76,0.026287168,-0.14440161,9.77078,0.0002671701950021088,0.0009309339220635592,0.0004588541050907224,3.3908109664916988,24.23207092285156,-17.132028579711914,0.014106860384345056,0.0006215721368789673,0.04037857055664063,989.9168701171876,0,13.0,1,1
2.8,0.035820127,-0.1396344,9.775511999999999,1.1112424544990065e-06,0.0002651024551596492,0.0003258061478845775,3.244694709777832,25.2542724609375,-17.32328987121582,-0.004744620993733406,-0.023149162530899048,0.03564739227294922,989.9168701171876,0,13.0,1,1
2.84,0.03818339,-0.1563167,9.761306,1.3679382391273977e-06,-0.0006670447182841599,5.9600337408483035e-05,3.8458502292633057,23.92057609558105,-17.029951095581055,-0.023582488298416138,0.00043618679046630865,0.04511451721191406,989.922607421875,0,13.0,1,1
2.88,0.03576684,-0.13963309,9.758937,1.3679382391273977e-06,-0.0006670447182841599,5.9600337408483035e-05,3.8458502292633057,23.92057609558105,-17.029951095581055,-0.009439468383789062,-0.008967220783233644,0.0640554428100586,989.922607421875,0,13.0,1,1
2.92,0.026180625,-0.15154883,9.770769,-0.0009304809500463307,-0.0005339285125955938,-7.344753248617053e-05,3.3801577091217037,24.221759796142575,-16.590890884399414,0.0048064906150102615,0.00033648312091827387,0.03564929962158203,989.9121704101562,0,13.0,1,1
2.96,0.030933797000000002,-0.14678162,9.777869,0.00013529608258977532,0.00013177780783735216,0.0008588780183345079,3.784138202667236,24.38976287841797,-17.355833053588867,0.009423013776540756,-0.003883317112922669,0.04986381530761719,989.8912963867188,0,13.0,1,1
3.0,0.026127337999999996,-0.14916426,9.792069,0.00013529608258977532,0.00013177780783735216,0.0008588780183345079,3.784138202667236,24.38976287841797,-17.355833053588867,-0.0050713904201984406,-0.008677765727043152,0.016724586486816406,989.8912963867188,0,13.0,1,1
3.04,0.03327042,-0.15631345,9.770762,0.0009345004218630493,0.0005312100402079524,0.0004595142381731421,4.512933254241943,24.22887420654297,-16.688879013061527,0.0045645441859960565,0.0060098469257354745,0.04987335205078125,989.90087890625,0,13.0,1,1
3.08,0.023684174,-0.1539295,9.78733,0.000935013813432306,0.00026481071836315095,-7.289747009053826e-05,4.3345561027526855,24.5880126953125,-15.681612014770508,0.004460543394088745,0.005916818976402283,0.021470069885253903,989.8930053710938,0,13.0,1,1
3.12,0.037996918,-0.16346195,9.761289,0.00040263886330649257,0.00013161111564841121,0.00019352842355147004,4.2958035469055185,24.393253326416016,-14.971384048461914,-0.005554648116230965,0.010710284113883972,0.05935096740722656,989.90283203125,0,13.0,1,1
3.16,0.03319049,-0.14439508,9.770755,0.00026973761850968003,0.001329990802332759,6.048055365681648e-05,4.6460862159729,24.56360626220703,-15.651205062866213,-0.005653049796819687,-0.0036852508783340454,0.03567790985107422,989.8573608398438,0,13.0,1,1
3.2,0.03794369,-0.15869412,9.775487,0.00013683649012818933,-0.00013478814798872918,6.0590595239773386e-05,3.945390462875366,24.90894317626953,-16.487245559692386,0.004459075629711151,0.010698586702346802,0.026212692260742188,989.8927612304688,0,13.0,1,1
3.24,0.033137232,-0.15154362,9.77075,-0.0001292226952500641,-0.0006674616015516223,6.070060771889985e-05,3.72533130645752,24.75598907470703,-17.13724708557129,0.004402667284011841,0.0013284087181091306,0.045154571533203125,989.8900756835938,0,13.0,1,1
3.28,0.03072071,-0.15154296,9.76838,0.0004527122073341161,3.7651479942724113e-06,0.0007084449753165245,3.910201549530029,23.92853927612305,-17.656206130981445,-0.005040368065237999,-0.008169710636138916,0.06409454345703125,989.8468627929688,0,13.0,1,1
3.32,0.030694008,-0.14677575,9.766011,5.349519778974354e-05,3.723485860973597e-06,0.0011080288095399737,3.634243488311768,24.0388298034668,-17.543149948120114,-0.0052520353347063065,0.0011577457189559937,0.04515647888183594,989.872314453125,0,13.0,1,1
3.36,0.040226996,-0.15392488,9.775477,-0.0006120378384366633,0.0006694715120829643,-0.0002234405837953091,3.619704008102417,23.76172637939453,-17.370729446411133,-0.00949193350970745,0.01535980403423309,0.04042243957519531,989.9024658203124,0,13.0,1,1
3.4,0.03303066,-0.16107413,9.768373,5.400870577432215e-05,-0.0007953075692057611,-0.0007559624500572681,3.9146299362182617,23.82703971862793,-17.189043045043945,-0.004604386165738107,0.0058428049087524405,0.0356903076171875,989.8648071289062,0,13.0,1,1
3.44,0.03778383,-0.14200717,9.773105000000001,-0.0003452085366006941,3.598397597670555e-06,-0.00075585232116282,4.122788429260254,24.180042266845703,-17.318761825561527,-0.009617462754249571,-0.008799731731414795,0.04989147186279297,989.8648071289062,0,13.0,1,1
3.48,0.028197587000000003,-0.14438984,9.756532,-0.0006112675182521343,0.0002698726311791688,4.3205422116443515e-05,3.210209369659424,24.43179702758789,-17.269853591918945,8.679740130901337e-05,-0.008677884936332703,0.049895286560058594,989.8798828125,0,13.0,1,1
3.52,0.030560851,-0.13723929999999998,9.761264,0.0007205684669315815,0.0005361468065530062,0.0003096313157584518,3.3841805458068848,24.594467163085934,-16.921258926391598,0.009241148829460144,-0.012909203767776491,0.045174598693847656,989.9254150390624,0,13.0,1,1
3.56,0.028144299999999997,-0.14915511,9.763629,0.0007208252791315317,-0.0001296845584874973,0.0007092151790857315,3.3257567882537837,24.066177368164066,-17.728166580200195,0.009471841156482695,-0.012831777334213257,0.0499114990234375,989.8779907226562,0,13.0,1,1
3.6,0.037677287999999996,-0.14200458,9.782564,0.0004547663556877524,-0.0003960421308875084,-0.0004890962736681104,3.4731507301330566,24.045879364013672,-17.287786483764652,-0.009053809568285942,0.006035283207893372,0.02150249481201172,989.8779907226562,0,13.0,1,1
3.64,0.028234124,-0.14439073,9.777841,-0.0006102406186982988,-0.0009287155698984859,0.00030996149871498346,3.3426589965820312,24.608600616455078,-17.45457649230957,0.00994950532913208,-0.003914311528205872,0.016737937927246094,989.8697509765624,0,13.0,1,1
3.68,0.025969237000000003,-0.14439383,9.770750999999999,-0.0011432967148721216,-0.0005291728302836418,4.3463718611747026e-05,3.682394981384277,23.66230010986328,-17.220598220825195,0.02448747307062149,-0.003948390483856201,0.04987716674804688,989.8697509765624,0,13.0,1,1
3.72,0.04746312,-0.14439341,9.768381,-0.0006137382006272674,-0.0015935651026666164,0.00017931906040757895,3.960174083709717,24.18561553955078,-16.986093521118164,-0.008503291755914688,-0.008627206087112427,0.054615020751953125,989.8720092773438,0,13.0,1,1
3.76,0.021159023,-0.13247666,9.763646000000001,5.2344956202432506e-05,-0.001194138778373599,-0.00022002897458150986,3.5123090744018555,23.76642608642578,-17.20048713684082,0.006371136754751205,-0.022857666015625,0.03567790985107422,989.8639526367188,0,13.0,1,1
3.8,0.040262997,-0.1563091,9.770746,5.2344956202432506e-05,-0.001194138778373599,-0.00022002897458150986,3.5123090744018555,23.76642608642578,-17.20048713684082,0.006302483379840851,0.0056802183389663705,0.02620887756347656,989.8639526367188,0,13.0,1,1
3.84,0.028298259,-0.14677557,9.773112,-0.00034683538251556456,0.0001373929844703525,0.00031272851629182696,3.923761606216431,23.835878372192386,-17.65287208557129,0.0016345866024494171,-0.013566851615905762,0.04041004180908203,989.8814697265624,0,13.0,1,1
3.88,0.035452724,-0.15869161,9.749438,-0.00034683538251556456,0.0001373929844703525,0.00031272851629182696,3.923761606216431,23.835878372192386,-17.65287208557129,-0.0031272359192371373,0.010191142559051514,0.05934810638427735,989.8814697265624,0,13.0,1,1
3.92,0.033047646,-0.14200827,9.770741000000001,0.00018608986283652482,0.0006699771620333196,-8.661951869726181e-05,3.620682716369629,24.13149261474609,-17.546480178833008,0.006359722465276718,-0.003942042589187622,0.04514980316162109,989.8483276367188,0,13.0,1,1
3.96,0.035422295,-0.14915773,9.7707405,5.3078605560585856e-05,0.0008031113538891077,-0.0010186622384935617,3.952702045440674,24.284168243408203,-17.298643112182614,-0.0034787654876708984,-0.004072681069374085,0.04041576385498047,989.9068603515624,0,13.0,1,1
4.0,0.035407066,-0.1420075,9.782575,5.3078605560585856e-05,0.0008031113538891077,-0.0010186622384935617,3.952702045440674,24.284168243408203,-17.298643112182614,-0.003354150801897049,-0.018362849950790402,0.035681724548339844,989.9068603515624,0,13.0,1,1
4.04,0.030612022000000003,-0.15630683,9.763637,-0.00047940647345967585,-0.0007948079146444798,-0.00021965167252346876,3.9850683212280273,23.84089660644531,-18.124521255493164,0.006264809519052506,0.014817625284194946,0.04041481018066406,989.9068603515624,0,13.0,1,1
4.08,0.032986699999999994,-0.15153989,9.756534,0.0007193086203187704,0.0002704079088289291,-0.00021952588576823476,3.1591200828552246,23.69904327392578,-17.065134048461914,0.001473061740398407,0.010349631309509277,0.04989051818847656,989.8645629882812,0,13.0,1,1
4.12,0.030581623,-0.14438966,9.766,0.0007193086203187704,0.0002704079088289291,-0.00021952588576823476,3.1591200828552246,23.69904327392578,-17.065134048461914,-0.0030775703489780426,-0.008840993046760559,0.03568553924560547,989.8645629882812,0,13.0,1,1
4.16,0.028176457000000002,-0.1467726,9.770734,0.0007193086203187704,0.0002704079088289291,-0.00021952588576823476,3.8317470550537114,24.381526947021484,-17.131731033325195,0.0017419829964637756,-0.0041934698820114144,0.03568458557128906,989.8645629882812,0,13.0,1,1
4.2,0.042500645,-0.15153882,9.7802,-0.00021265030954964462,-0.0013275111559778454,-8.630502270534635e-05,3.1475179195404053,24.53122711181641,-17.419977188110348,-0.0027670040726661678,-0.008849918842315674,0.026218414306640625,989.8743286132812,0,13.0,1,1
4.24,0.0472652,-0.16583810000000002,9.763629,5.395905463956296e-05,-0.0009280849481001496,-0.00021933723473921415,3.418910503387451,24.4165153503418,-17.301118850708008,-0.007671676576137544,0.019520863890647888,0.06409072875976562,989.9263916015624,0,13.0,1,1
4.28,0.0376904,-0.13962165,9.765995,5.395905463956296e-05,-0.0009280849481001496,-0.00021933723473921415,3.418910503387451,24.4165153503418,-17.301118850708008,-0.007526785135269166,-0.00922277569770813,0.03094959259033203,989.9263916015624,0,13.0,1,1
4.32,0.035285294,-0.15153769,9.773095,5.4252537665888674e-05,0.00013713090447708964,0.00031342028523795307,3.738050937652588,24.39947509765625,-17.657236099243164,-0.007585454732179643,0.0051732808351516715,0.040421485900878906,989.8668212890624,0,13.0,1,1
4.36,0.023320556,-0.14677069,9.775461,5.4252537665888674e-05,0.00013713090447708964,0.00031342028523795307,3.738050937652588,24.39947509765625,-17.657236099243164,0.011402532458305359,-0.008804395794868471,0.02148914337158203,989.8668212890624,0,13.0,1,1
4.4,0.028085082999999997,-0.14438710000000002,9.775459,0.00018770384485833347,0.0005365571705624461,0.0005798619240522385,3.860389709472656,24.19767761230469,-17.202375411987305,0.006067462265491486,-0.004504427313804626,0.03095722198486328,989.8631591796876,0,13.0,1,1
4.44,0.040019452999999997,-0.15391985,9.763622,-0.0011437287321314216,0.0008028491865843534,0.0005799248465336858,3.794654130935669,24.294158935546875,-17.197885513305664,-0.007785830646753311,0.009850472211837769,0.04042530059814453,989.8804931640624,0,13.0,1,1
4.48,0.037614286000000004,-0.1396198,9.78019,-7.831855327822268e-05,-0.0007950699655339122,-0.000352117873262614,3.825797080993652,24.481548309326172,-17.52159309387207,-0.0030954331159591675,-0.0045324116945266715,0.026223182678222656,989.8623657226562,0,13.0,1,1
4.52,0.039988935,-0.13961938,9.768353,0.00018814401119016108,0.00013701184070669117,-0.00021889706840738651,3.439399719238281,24.59359741210937,-17.083681106567386,-0.01244845986366272,-0.009327977895736694,0.02622222900390625,989.870361328125,0,13.0,1,1
4.56,0.039973736,-0.15391871,9.775454,-7.80251866672188e-05,0.00013698800466954708,0.00031379758729599416,3.5452725887298584,24.587425231933594,-17.17662239074707,0.0023603253066539764,0.005046963691711426,0.0309600830078125,989.8623657226562,0,13.0,1,1
4.6,0.03756863,-0.14676851,9.768352,-7.78782705310732e-05,-0.0013277732068672776,4.7544599510729306e-05,3.6110081672668457,24.49094390869141,-17.181108474731445,0.007073547691106795,0.0003941655158996582,0.0451650619506836,989.8623657226562,0,13.0,1,1
4.64,0.033477664,-0.14916864,9.7660475,0.00018858429393731058,0.0005364142125472425,-0.0004850243567489088,4.098711967468262,24.36830902099609,-17.480035781860348,0.0012878775596618652,-0.004246070981025696,0.04983901977539063,989.9462890625,0,13.0,1,1
4.68,0.031100452,-0.13486934,9.761313000000001,-8.261160110123456e-05,0.0005372064188122749,4.551606252789498e-05,4.087216854095459,24.09415435791016,-17.462221145629886,0.001120883971452713,-0.004377782344818115,0.04510307312011719,989.9462890625,0,13.0,1,1
4.72,0.043062627,-0.13963616,9.77315,0.000581414089538157,0.00040433477261103684,0.0005773917655460536,3.505135536193848,24.497108459472656,-17.088167190551758,0.0011901184916496275,-0.0038771033287048344,0.03563880920410156,989.9503784179688,0,13.0,1,1
4.76,0.050245076,-0.1491696,9.770785,0.00031497594318352634,4.8807996790856115e-06,-8.84503242559731e-05,3.4856252670288086,24.689796447753906,-17.481355667114258,-0.02302131056785584,0.0010948926210403442,0.04037666320800781,989.932861328125,0,13.0,1,1
4.8,0.04069814,-0.14440337,9.756583000000001,0.00010247333557344972,0.001292360364459455,-0.0005487330490723252,3.550924062728882,23.85526466369629,-17.211633682250973,-0.008685987442731856,-0.003485053777694702,0.054581642150878906,989.8908081054688,0,13.0,1,1
4.84,0.043100744,-0.14440367,9.756584,0.0001023508666548878,-0.0004386731015983969,0.0005164779722690582,4.1333041191101065,24.08443832397461,-17.160821914672848,-0.01318669319152832,-0.008297294378280641,0.05457878112792969,989.892333984375,0,13.0,1,1
4.88,0.026384115,-0.15155381,9.763686,0.00010222874698229134,-0.0004386533400975168,0.00025010976241901517,4.0616188049316415,24.28094482421875,-17.54619026184082,0.005941208451986313,-0.0036080926656723022,0.03563880920410156,989.8705444335938,0,13.0,1,1
4.92,0.033566475,-0.14440432,9.766055,0.000235264451475814,0.0003603142104111612,0.0007826891378499568,3.879356384277344,24.37328338623047,-16.90763282775879,-0.0036234669387340546,-0.013136833906173706,0.03090381622314453,989.8672485351562,0,13.0,1,1
4.96,0.028799355,-0.15155439999999998,9.770791000000001,-0.0004306473711039871,-0.0007049295236356556,-0.00014946880401112142,3.9381630420684814,24.007064819335934,-17.126218795776367,0.0058652907609939575,0.001087099313735962,0.035635948181152344,989.8700561523438,0,13.0,1,1
5.0,0.035981715,-0.14440492,9.766057,-3.1295785447582596e-05,0.001026143552735448,-1.636322122067213e-05,3.5660066604614262,23.76407623291016,-17.285608291625973,0.000922754406929016,-0.00822998583316803,0.0593109130859375,989.874267578125,0,13.0,1,1
5.04,0.03599441,-0.15632161,9.756589,0.00010173991904594004,9.405783202964813e-05,0.0007825320353731513,3.7690560817718506,24.48094940185547,-17.281862258911133,-0.0087948739528656,0.0011876225471496582,0.05930900573730469,989.84912109375,0,13.0,1,1
5.08,0.040786862,-0.1610885,9.766059,0.0003679335641209036,-0.00017223820032086223,0.00024984791525639594,3.641715049743652,23.94028091430664,-17.230600357055664,-0.013320021331310272,0.019937023520469662,0.03089618682861328,989.8739624023438,0,13.0,1,1
5.12,0.04079956,-0.15632227,9.754225,-0.0005642942851409316,-0.00043853424722328777,-0.0004159942327532917,3.746363878250122,24.56477355957031,-16.821359634399414,-0.01808452606201172,0.015106752514839172,0.0545644760131836,989.8565063476562,0,13.0,1,1
5.16,0.038422406,-0.13725632,9.777898,-3.178472979925573e-05,0.0004935911274515091,0.00011658522998914124,3.7755494117736816,24.012636184692386,-16.793550491333008,-0.013347581028938292,-0.008475884795188906,0.035628318786621094,989.8609619140624,0,13.0,1,1
5.2,0.05038458,-0.14678973,9.780266000000001,0.0003675666230265051,-3.902070238837041e-05,-0.00041609900654293597,3.4875519275665283,24.217063903808594,-16.761133193969727,-0.008569106459617616,-0.0035748183727264404,0.04510021209716797,989.8588256835938,0,13.0,1,1
5.24,0.03366795,-0.15393993,9.761330000000001,-0.0001651876082178205,0.0006267888820730151,0.00011648025247268379,3.349694967269897,23.77199935913086,-16.867815017700195,0.0054689161479473105,0.0010257363319396973,0.040363311767578125,989.8588256835938,0,13.0,1,1
5.28,0.033680617999999996,-0.14202377,9.761331,0.00010100603685714304,0.0004936507320962846,-1.673007500357926e-05,3.526167631149292,24.30590057373047,-16.772283554077152,0.0005059763789176941,-0.004081264138221741,0.04509162902832031,989.8453369140624,0,13.0,1,1
5.32,0.028913498,-0.14917397,9.7637,-0.0002985899045597762,0.0003605126694310457,0.0006490072701126338,3.5534253120422363,24.22650146484375,-17.464696884155273,-0.009282313287258148,-0.013236790895462036,0.03562641143798828,989.8630981445312,0,13.0,1,1
5.36,0.036095887,-0.15394083,9.780271,0.00036707756225951016,0.0006268483120948076,0.00011632314999587834,3.9381625652313232,24.00706672668457,-17.126222610473633,-0.0050026848912239075,-0.0037399381399154654,0.030893325805664062,989.8630981445312,0,13.0,1,1
5.4,0.026548952,-0.15155783,9.7731695,-0.000964623992331326,0.0012926578056067226,-0.00028320311685092747,3.413503170013428,24.14824676513672,-17.5925235748291,0.01870208978652954,-0.0038274675607681283,0.04509449005126953,989.878173828125,0,13.0,1,1
5.44,0.02417174,-0.13964179,9.758968,0.00010051732533611356,-0.0004383755149319768,0.0003825342864729464,3.4234766960144043,24.42093276977539,-17.533029556274414,0.0047487691044807425,-0.008548825979232788,0.04509258270263672,989.8731689453124,0,13.0,1,1
5.48,0.024184406000000002,-0.15632507,9.756602,0.00010051732533611356,-0.0004383755149319768,0.0003825342864729464,3.712451934814453,24.58627319335937,-17.7412052154541,-0.004818279296159743,0.010614320635795592,0.045093536376953125,989.8731689453124,0,13.0,1,1
5.52,0.026587068999999998,-0.15632537,9.780275,-0.00016604291158728302,-0.0005714937578886747,-0.0004165181017015129,3.5409514904022217,23.582576751708984,-17.271127700805664,-0.0003018137067556381,0.0056539177894592285,0.04508876800537109,989.8703002929688,0,13.0,1,1
5.56,0.040939152,-0.15870899,9.763705,-0.00016604291158728302,-0.0005714937578886747,-0.0004165181017015129,3.5409514904022217,23.582576751708984,-17.271127700805664,-0.0051980651915073395,0.00095503032207489,0.059292793273925774,989.8703002929688,0,13.0,1,1
5.6,0.030555963999999998,-0.15153888,9.768365,-0.00016616538050584498,0.0006269475561566651,-1.7096783267334107e-05,3.6963913440704346,24.30769348144531,-17.49147605895996,0.013874858617782593,0.0008394718170166017,0.04982185363769531,989.8477172851562,0,13.0,1,1
5.64,0.027292132,-0.15390074,9.765918,-0.0002994457900058478,9.433572995476425e-05,0.0001160086831077933,4.375213146209717,23.889728546142575,-17.494638442993164,0.0010189022868871687,0.000940188765525818,0.04997920989990234,989.8499755859376,0,13.0,1,1
5.68,0.027237535,-0.13721648,9.768281,-3.125736839137972e-05,0.0008929793839342892,-0.0002826625423040241,3.48853087425232,24.58683013916016,-16.936891555786133,-0.013553488999605179,-0.013615712523460388,0.0405120849609375,989.8499755859376,0,13.0,1,1
5.72,0.029572904,-0.13721511,9.761174,0.0005142869194969535,0.0004928198759444059,-5.709589459002017e-06,3.6426939964294434,24.310043334960934,-17.406354904174805,0.005616554990410805,-0.01814281940460205,0.026317596435546875,989.863037109375,0,13.0,1,1
5.76,0.029518396000000002,-0.14913014,9.7730055,-1.7819227650761604e-05,0.0007590504828840494,0.0010597791988402603,3.88240122795105,24.37622833251953,-17.06224250793457,-0.003869697451591492,-0.0038525462150573726,0.04999446868896485,989.8577270507812,0,13.0,1,1
5.8,0.02707392,-0.15389541,9.775367,-0.0010820309398695829,-0.000572699645999819,-0.00027134944684803486,3.84751033782959,24.027963638305664,-17.806333541870114,0.005749020725488664,-0.003769472241401672,0.04053211212158203,989.8322143554688,0,13.0,1,1
5.84,0.043748707000000005,-0.13721108,9.770627000000001,0.0003832317888736725,0.0004924784880131483,-0.00013796612620353701,3.9063162803649902,23.66174507141113,-18.02491950988769,-0.00394090637564659,-0.013093128800392151,0.04527568817138672,989.8369140625,0,13.0,1,1
5.88,0.029354751000000002,-0.14912617,9.768255,0.0009163895156234504,-4.023861765745096e-05,-0.00027089880313724285,3.7069077491760254,24.21208953857422,-17.33353614807129,-0.00823860429227352,0.006089478731155396,0.026343345642089844,989.8369140625,0,13.0,1,1
5.92,0.02213049,-0.15389135,9.765883,-1.5190220437943935e-05,-0.0008392716408707201,-0.00013751548249274492,3.1930623054504395,24.88980484008789,-17.21702766418457,0.010944331064820291,0.0011741966009140015,0.031080245971679688,989.8871459960938,0,13.0,1,1
5.96,0.03641534,-0.14912352,9.775348,-0.0004141384270042181,-0.0003067251527681947,-0.0008030798053368926,3.740115642547608,24.03266143798828,-17.63608741760254,0.0016479864716529846,-0.008468493819236755,0.04528522491455078,989.8871459960938,0,13.0,1,1
6.0,0.031580985,-0.14912215,9.768241,-0.0005467705195769668,-0.0007062843069434166,-3.906927304342389e-06,4.099254608154297,24.000022888183594,-17.381586074829098,0.0019246935844421387,0.010811403393745422,0.03109264373779297,989.8564453125,0,13.0,1,1
6.04,0.024356753,-0.14673749,9.761134,0.0009184925584122539,-4.0580005588708445e-05,0.0002626342757139355,4.190045833587647,24.08503723144531,-17.40055274963379,0.0067894216626882544,-0.008139476180076599,0.050037384033203125,989.8564453125,0,13.0,1,1
6.08,0.031471908,-0.14435291,9.763494999999999,0.00025322847068309784,-0.000173823325894773,-0.00013661431148648262,3.907837867736816,23.663217544555664,-18.10222053527832,-0.0026992447674274445,-0.00798813998699188,0.03583812713623047,989.851318359375,0,13.0,1,1
6.12,0.029027462,-0.15865123,9.770593,0.00038691237568855286,-0.0003070665698032826,-0.00013638893142342567,3.860389709472656,24.19767761230469,-17.20237159729004,0.00674777664244175,0.011044904589653015,0.035843849182128906,989.851318359375,0,13.0,1,1
6.16,0.024193078,-0.15150008,9.784791,-0.00014519377145916224,0.0003586378297768533,-3.0056398827582598e-06,3.6490802764892583,24.94807434082031,-17.290704727172848,0.002229548990726471,-0.008351042866706848,0.026376724243164062,989.8461303710938,0,13.0,1,1
6.2,0.028918326,-0.14911544,9.76348,-0.0006772996857762338,-4.092137896805071e-05,-0.0001359382295049727,4.108386993408203,24.00885772705078,-17.845415115356445,0.007315270602703094,-0.0033416002988815308,0.0595235824584961,989.8486328125,0,13.0,1,1
6.24,0.028863787999999998,-0.14911416,9.761109,0.0005216475110501051,-0.001239428180269897,-2.554996171966195e-06,3.643374919891357,24.04766845703125,-18.006982803344727,-0.007027667015790939,0.0014052987098693848,0.04532432556152344,989.866455078125,0,13.0,1,1
6.28,0.026419342000000002,-0.1562626,9.75637,0.00037110946141183376,0.00028319412376731634,0.001169753959402442,3.7756869792938232,24.11855316162109,-17.49262809753418,-0.007211113348603249,0.01084524393081665,0.04533004760742188,989.8511962890624,0,13.0,1,1
6.32,0.023974895,-0.14911142,9.777669,0.00010531931184232236,0.0014815302565693855,0.00010471581481397152,3.8022639751434326,24.3015251159668,-17.584413528442386,0.016998279839754105,0.0015304982662200928,0.035869598388671875,989.8662719726562,0,13.0,1,1
6.36,0.035869837,-0.14911011,9.77293,0.0001058451598510146,-0.0011817138874903321,-0.00096032238798216,3.808213949203491,24.201499938964844,-17.19455909729004,-0.0019844882190227513,-0.003102481365203857,0.05007743835449219,989.8790283203124,0,13.0,1,1
6.4,0.023865819,-0.14672545,9.775292,0.00010637089144438504,-0.0003828516346402466,-2.799142384901643e-05,3.7695987224578857,24.11266326904297,-17.183408737182614,0.002431873232126236,-0.003060415387153625,0.04535102844238281,989.8662719726562,0,13.0,1,1
6.44,0.030981004,-0.14195761,9.777654,-0.0002925773151218891,0.0009486423223279415,-0.00016092410078272223,3.796719074249268,23.92734146118164,-17.17674446105957,-0.012454379349946976,-0.012481793761253357,0.02642440795898437,989.8513793945312,0,13.0,1,1
6.48,0.021366775,-0.14910606,9.758712,0.0005068962927907705,0.001214872929267585,0.0006382488645613194,3.518397092819214,23.77231788635254,-17.509706497192386,0.0017459671944379807,0.001778826117515564,0.04062938690185547,989.8513793945312,0,13.0,1,1
6.52,0.018922359,-0.14195493,9.76344,0.00037426396738737816,0.0006821557763032615,0.00037215827615000313,3.6677494049072266,24.491539001464844,-17.420839309692386,0.016092495992779732,-0.0071573406457901,0.045379638671875,989.8506469726562,0,13.0,1,1
6.56,0.0403769,-0.15863654,9.76817,0.0005079476395621897,-0.00011687717051245271,0.0002392256865277886,3.5173110961914062,24.508899688720703,-17.706605911254886,-0.0080767422914505,0.002267688512802124,0.0595865249633789,989.8508911132812,0,13.0,1,1
6.6,0.024101018999999998,-0.144348,9.765845,0.00010899954941123724,0.0005488272290676832,0.0006389248883351684,3.8358774185180655,23.647891998291016,-17.089441299438473,0.015572030097246168,-0.0026476234197616573,0.05954170227050781,989.8508911132812,0,13.0,1,1
6.64,0.014507145,-0.1443471,9.756373,0.00023614297970198092,0.0012166122905910015,0.00037704696296714246,3.5944042205810547,24.58065795898437,-17.02982521057129,0.024613892659544945,-0.00264902412891388,0.0690164566040039,989.853271484375,0,13.0,1,1
6.68,0.024032473999999998,-0.15626267,9.775308,0.00023614297970198092,0.0012166122905910015,0.00037704696296714246,3.5944042205810547,24.58065795898437,-17.02982521057129,-0.008331390097737312,0.006829813122749329,0.026406288146972656,989.853271484375,0,13.0,1,1
6.72,0.028778017000000003,-0.15864512,9.763468,0.0003696310741361231,-0.0010471262503415346,-2.2285414161160585e-05,3.4539389610290527,24.87069702148437,-17.256105422973633,-0.00346379354596138,0.006721675395965576,0.045345306396484375,989.84814453125,0,13.0,1,1
6.76,0.009624541,-0.14434460000000002,9.796605,0.00037029138184152544,-0.0011803911766037345,-0.0001551603781990707,3.999332427978516,23.90616607666016,-16.89879035949707,0.02118435874581337,-0.007522642612457275,-0.030401229858398438,989.83544921875,0,13.0,1,1
6.8,0.043048977999999995,-0.13004413,9.75636,0.00037029138184152544,-0.0011803911766037345,-0.0001551603781990707,3.999332427978516,23.90616607666016,-16.89879035949707,-0.021808994933962825,-0.04048870503902435,0.09270000457763672,989.83544921875,0,13.0,1,1
6.84,0.03584504,-0.15625936,9.770560000000001,0.00037029138184152544,-0.0011803911766037345,-0.0001551603781990707,3.6828310489654537,24.400352478027344,-17.494806289672848,-0.0271181259304285,0.025986999273300167,0.016950607299804688,989.83544921875,0,13.0,1,1
6.88,0.028641075,-0.14434204,9.770557,0.00037062130286358297,1.797662116587162e-05,0.0005107708275318147,3.727940082550049,24.02087783813477,-17.017648696899414,-0.013446502387523651,-0.002480447292327881,0.026427268981933597,989.853271484375,0,13.0,1,1
6.92,0.026216924,-0.15864092,9.768187,0.0007704254239797593,0.0016158182406798005,0.0007772281533107163,4.035882472991943,24.36182403564453,-16.931081771850586,0.0004507340490818024,-0.002415910363197327,0.045371055603027344,989.8659057617188,0,13.0,1,1
6.96,0.021402836,-0.14672369,9.765817,-0.0004273357626516372,0.0001509737630840391,-0.00028775236569345,3.670793294906616,24.494483947753906,-17.575448989868164,-0.00450795516371727,0.002095893025398255,0.02643394470214844,989.8502807617188,0,13.0,1,1
7.0,0.033318102,-0.14910614,9.768180000000001,-0.0004273357626516372,0.0001509737630840391,-0.00028775236569345,3.670793294906616,24.494483947753906,-17.575448989868164,-0.004320504143834114,-0.007608383893966675,0.04063606262207031,989.8502807617188,0,13.0,1,1
7.04,0.028504074,-0.13242233,9.768177,-0.0001603596901986748,1.7708662198856473e-05,-0.00015431147767230868,3.833812713623047,24.014707565307614,-17.110589981079098,0.009695237502455713,-0.0167415589094162,0.05011653900146485,989.8549194335938,0,13.0,1,1
7.08,0.026079893,-0.15625426,9.770541,-0.0001603596901986748,1.7708662198856473e-05,-0.00015431147767230868,3.833812713623047,24.014707565307614,-17.110589981079098,-0.004349784925580025,0.002285107970237732,0.026444435119628903,989.8549194335938,0,13.0,1,1
7.12,0.030825436,-0.14672032,9.772905,-0.0004260152636561543,-0.0007813461706973612,-0.0002871864126063884,3.397878170013428,24.60772705078125,-17.61699867248535,0.0009213350713253019,0.006718054413795471,0.03117656707763672,989.8499145507812,0,13.0,1,1
7.16,0.0236215,-0.1443362,9.768168,-0.00042568545904941857,-0.0011808734852820635,0.0007782184984534979,3.909658670425415,24.29682922363281,-17.754655838012695,0.01533655449748039,0.001911938190460205,0.04538154602050781,989.8555297851562,0,13.0,1,1
7.2,0.03075695,-0.15386847,9.758697,-0.0001590393076185137,0.0001506522239651531,0.0007783600012771785,3.729599475860596,24.12826538085937,-17.794031143188477,-0.0037887468934059134,0.011379450559616087,0.05011749267578125,989.8426513671876,0,13.0,1,1
7.24,0.033112586,-0.14671782,9.768162,-0.00015870927018113434,0.00028375655529089267,-2.044613938778639e-05,4.329967498779297,24.16328430175781,-17.272722244262695,0.0009444430470466614,-0.01745341718196869,0.05011940002441406,989.8453369140624,0,13.0,1,1
7.28,0.030688435,-0.14671698,9.772893,-0.0005578527925536036,-0.0003820866986643523,0.00037916915607638657,3.678808689117432,24.02764320373535,-17.16444206237793,-0.0036532394587993617,-0.012630358338356018,0.021715164184570312,989.8648681640624,0,13.0,1,1
7.32,0.037823915,-0.13956633,9.772889,-0.0001580490788910538,0.00015049142530187964,0.0007787843933328986,3.718647718429565,23.485820770263672,-17.677766799926758,0.0057499296963214866,-0.01262715458869934,0.02645397186279297,989.8648681640624,0,13.0,1,1
7.36,0.03061995,-0.14433196,9.775253999999999,0.000241755013121292,-0.00038219394627958536,0.0005126100732013583,3.6592979431152335,24.22032928466797,-17.55763053894043,-0.008212288841605186,-0.0028762519359588623,0.02645969390869141,989.8623046875,0,13.0,1,1
7.4,0.03775537,-0.14671442,9.777617,0.0003752429911401123,1.7226324416697025e-05,-1.9880244508385655e-05,3.7726426124572754,24.11560821533203,-17.338018417358402,-0.0033563636243343358,-0.007707267999649049,0.0406646728515625,989.86279296875,0,13.0,1,1
7.44,0.037721217,-0.13956377,9.7586775,-0.0001570585009176284,-0.0003823011065833271,0.0005128930206410587,3.5854096412658687,24.677734375,-17.265077590942386,-0.012923723086714745,-0.012350738048553469,0.031200408935546875,989.86279296875,0,13.0,1,1
7.48,0.04007685,-0.14909604,9.768144,0.0007753771496936679,0.00028343501617200667,0.0003798765246756375,3.4695644378662114,24.411216735839844,-17.231626510620114,-0.003314012661576271,0.0022148191928863525,0.04067516326904297,989.8729248046876,0,13.0,1,1
7.52,0.03765267,-0.15386179,9.772874,0.00010991745512001216,0.00015022349543869498,-0.00015261367661878467,3.607420921325684,24.85628890991211,-17.124944686889652,-0.003125205636024475,0.0024653524160385127,0.05015182495117188,989.8349609375,0,13.0,1,1
7.56,0.02854395,-0.13957313,9.761078999999999,0.00024340566596947608,1.7011960153467953e-05,0.0003801595012191683,3.9069128036499023,24.92602157592773,-17.175180435180664,0.0003348495811223984,-0.0118219256401062,0.04059982299804688,989.8624877929688,0,13.0,1,1
7.6,0.04336381,-0.14911804,9.768226,0.0002437357034068554,0.0009490640368312596,0.000247143063461408,3.4490749835968018,24.23413848876953,-17.449060440063473,-0.018668320029973984,-0.011945292353630066,0.03586292266845703,989.8472900390624,0,13.0,1,1
7.64,0.043368875999999994,-0.14196834,9.761124,-0.0004300318250898272,-0.00011490451288409531,0.0007763557368889451,4.0040364265441895,24.01650047302246,-17.829782485961914,-0.018511760979890823,0.006960093975067139,0.05006217956542969,989.8768920898438,0,13.0,1,1
7.68,0.043373942,-0.14673501,9.765858999999999,-0.0004312439414206892,1.845021324697882e-05,0.0002432045293971896,3.8649556636810303,24.20209503173828,-17.434289932250973,-0.01367875374853611,-0.0071133673191070565,0.040596961975097656,989.879638671875,0,13.0,1,1
7.72,0.04337901,-0.13958529,9.770593,0.0007671286584809422,-0.0001146997674368322,-0.0001562901888974011,3.308173656463623,23.78613090515137,-17.40113639831543,-0.009216055274009705,-0.01635737717151642,0.04533672332763672,989.8642578125,0,13.0,1,1
7.76,0.033824503,-0.14911851,9.761125999999999,0.00036760602961294353,0.0006842558505013585,-0.00015631126007065177,3.7884058952331534,23.762046813964844,-18.01262092590332,-0.00926155224442482,0.0025376826524734497,0.031129837036132806,989.8699951171876,0,13.0,1,1
7.8,0.029049754,-0.15388528,9.768228,-0.00035299151204526424,0.0002718797768466174,-9.837080142460763e-06,3.8737888336181636,23.578798294067386,-18.32298851013184,0.0003701765090227127,0.011989742517471312,0.04533100128173828,989.8521728515624,0,13.0,1,1
7.84,0.02905482,-0.1515021,9.7611265,-0.00021988258231431249,-0.0010596916545182467,0.000256457831710577,3.785223960876465,23.653186798095703,-17.158929824829098,-0.008639400824904442,0.006961047649383545,0.02638721466064453,989.8516845703124,0,13.0,1,1
7.88,0.050568998,-0.16103536,9.768228,-8.677365258336067e-05,-0.0002607360947877169,-0.0005425108247436583,3.7895450592041016,24.65803527832031,-17.064424514770508,-0.01362902857363224,0.011820703744888306,0.035858154296875,989.8667602539062,0,13.0,1,1
7.92,0.041014493,-0.14673576,9.777698,-0.00021998025476932528,0.000538219406735152,0.00012325799616519362,3.7538361549377437,24.46622085571289,-16.508806228637695,-0.004514170810580254,-0.0070849359035491935,0.031126022338867188,989.84716796875,0,13.0,1,1
7.96,0.031459957000000004,-0.15626901,9.7634945,-0.001019025919958949,-0.0002607124042697251,-0.00014309985272120684,3.5810885429382324,23.672889709472656,-17.359575271606445,-0.0093690175563097,0.006712839007377625,0.04532146453857422,989.8643188476562,0,13.0,1,1
8.0,0.041024655,-0.15150258,9.7682295,-0.001019025919958949,-0.0002607124042697251,-0.00014309985272120684,3.5810885429382324,23.672889709472656,-17.359575271606445,-0.0187466274946928,-0.002698957920074463,0.03585338592529297,989.8643188476562,0,13.0,1,1
8.04,0.03147009,-0.15388599,9.770597,0.0007119786459952593,-0.0010596520733088255,-0.0005425945273600519,3.28798246383667,24.24118804931641,-17.193696975708008,-0.004065405577421188,0.006705135107040404,0.02638149261474609,989.8593139648438,0,13.0,1,1
8.08,0.052984297,-0.13958642,9.768231,-0.00035333377309143543,-0.00012753850023727864,-0.00027629965916275984,3.3189880847930913,24.32265853881836,-16.81831932067871,-0.013326471671462059,-0.011998921632766724,0.04532337188720703,989.8593139648438,0,13.0,1,1
8.12,0.03626004,-0.14673638,9.772965,0.0009781966218724847,-0.001192794181406498,-0.0008089524344541132,3.682394981384277,23.66230010986328,-17.220605850219727,-0.0037253703922033314,-0.002249404788017273,0.026388168334960938,989.8617553710938,0,13.0,1,1
8.16,0.048214614,-0.15150306,9.775333,0.0009781966218724847,-0.001192794181406498,-0.0008089524344541132,3.682394981384277,23.66230010986328,-17.220605850219727,-0.013116838410496712,-0.002288088202476501,0.03585529327392578,989.8617553710938,0,13.0,1,1
8.2,0.024320692,-0.14197007,9.775333,-0.0002202738542109728,0.0013372148387134075,-0.0002763416268862784,3.634946584701538,24.196762084960934,-16.32075309753418,-0.0037013478577136993,0.002412557601928711,0.040589332580566406,989.8717651367188,0,13.0,1,1
8.24,0.0458349,-0.14912006,9.772967,4.599336534738541e-05,-0.0005269884713925421,-1.0046627721749246e-05,3.359668731689453,24.044681549072266,-16.808320999145508,-0.013277970254421234,0.0022569149732589717,0.021648406982421875,989.8592529296876,0,13.0,1,1
8.28,0.03150052,-0.14673689,9.7706,0.0005785762332379817,0.0002719670883379877,0.0006557221058756112,3.61902379989624,24.024099349975586,-16.77010154724121,-0.003713702782988548,0.0025370121002197266,0.031121253967285163,989.8336181640624,0,13.0,1,1
8.32,0.03628543,-0.15150360000000002,9.772967999999999,-0.0003535783616825938,0.00013881706399843097,-1.0088566341437401e-05,3.6645679473876953,24.38267517089844,-16.567148208618164,-0.003816956654191017,-0.011799439787864685,0.05479240417480469,989.848876953125,0,13.0,1,1
8.36,0.038680375,-0.14435387,9.782437,-0.00022051809355616567,0.00013883292558602991,-0.00027644640067592263,3.795197010040283,23.92586898803711,-17.09943962097168,-0.008558887988328934,-0.01656346023082733,0.016916275024414062,989.8612670898438,0,13.0,1,1
8.4,0.031515777,-0.13958743,9.751664,-0.00022051809355616567,0.00013883292558602991,-0.00027644640067592263,3.795197010040283,23.92586898803711,-17.09943962097168,-0.013118842616677284,-0.016614854335784912,0.05478954315185547,989.8612670898438,0,13.0,1,1
8.44,0.03630066,-0.13720426,9.758764999999999,-0.00035377393942326313,-0.0010595726780593397,0.0006556173320859671,3.712015867233277,23.84821891784668,-17.466997146606445,-0.003169726580381393,-0.012070387601852415,0.05951881408691406,989.8616333007812,0,13.0,1,1
8.48,0.04108554,-0.14673749,9.765868,-0.00035377393942326313,-0.0010595726780593397,0.0006556173320859671,3.712015867233277,23.84821891784668,-17.466997146606445,0.0014690198004245758,-0.007434546947479248,0.04531383514404297,989.8616333007812,0,13.0,1,1
8.52,0.053040117000000005,-0.13958779,9.765868,-0.0006201876094564794,0.0001388647360727191,-0.00014337226457428187,3.7289185523986816,24.390640258789066,-17.19340705871582,-0.02179524302482605,-0.012127786874771118,0.04531288146972656,989.8616333007812,0,13.0,1,1
8.56,0.033766896,-0.14911714,9.761121000000001,-8.760485798120499e-05,-0.0009263908723369241,-1.0235278750769794e-05,3.891532421112061,24.38507080078125,-17.52607536315918,0.011656276881694794,0.01157298684120178,0.05004405975341797,989.86376953125,0,13.0,1,1
8.6,0.035993338,-0.16341284,9.765839999999999,-0.0004863705253228545,-0.0002607161295600236,-0.0013415112625807526,3.7009572982788086,24.312110900878906,-17.723390579223633,-0.01633993536233902,0.016124725341796875,0.03586769104003906,989.86376953125,0,13.0,1,1
8.64,0.026426136,-0.13481322,9.761105,0.0005811910377815366,-0.0007937209447845818,-0.0001421048800693825,3.565325260162353,24.026451110839844,-16.684980392456055,0.0030250512063503265,-0.021749868988990784,0.040604591369628906,989.8842163085938,0,13.0,1,1
8.68,0.026418507,-0.15387931,9.780042,4.863261710852385e-05,-0.0006605748785659671,-0.0005415472551248968,3.6616611480712886,24.48564910888672,-17.11161231994629,0.003002334386110306,-0.011879205703735352,0.02167224884033203,989.8387451171876,0,13.0,1,1
8.72,0.03597051,-0.14196270000000002,9.770572,0.0007144957780838013,-0.0005274288705550134,-0.0008078317041508852,3.3135814666748047,24.05439376831055,-17.10972785949707,-0.010505974292755129,-0.007214263081550598,0.026404380798339844,989.8387451171876,0,13.0,1,1
8.76,0.03357297,-0.1395793,9.765837,-0.00048385246191173786,-0.0011932305060327053,-0.00014201052545104176,3.5549471378326416,24.22797393798828,-17.541997909545902,0.0040558986365795135,-0.002324119210243225,0.026406288146972656,989.8739624023438,0,13.0,1,1
8.8,0.028785586000000002,-0.1491122,9.756368,0.00018201081547886133,-0.0005274527356959879,0.00012433681695256382,3.74674654006958,23.670265197753906,-17.84685707092285,-0.0006375685334205627,0.002509176731109619,0.06428337097167969,989.8687133789062,0,13.0,1,1
8.84,0.033557773,-0.13957888,9.761101,0.00044840003829449415,-0.00012799080286640674,0.0005238420562818646,3.423476219177246,24.420936584472656,-17.533029556274414,-4.4595450162887566e-05,-0.016645610332489014,0.05007648468017578,989.8583374023438,0,13.0,1,1
8.88,0.03832996,-0.15387839,9.772936,-0.00021731643937528133,-0.0017258981242775915,-0.00014191619993653146,3.813758850097656,24.57568359375,-17.60222816467285,-0.00038297101855278015,0.002316147089004517,0.04060840606689453,989.8809204101562,0,13.0,1,1
8.92,0.03832233,-0.14672829999999998,9.770569,-0.001149348565377295,0.0008040909306146204,-0.0005413586623035371,3.2979559898376465,24.51387023925781,-17.134210586547848,-0.00013302266597747805,-0.007622286677360535,0.04060077667236328,989.8611450195312,0,13.0,1,1
8.96,0.031145036,-0.14672819,9.756364999999999,-0.0007498012855648994,-0.00026118452660739416,-0.0002750112325884402,4.042651653289795,24.10533905029297,-17.84092903137207,0.009545657783746721,-0.00790652632713318,0.0642690658569336,989.8611450195312,0,13.0,1,1
9.0,0.03830713,-0.14434466,9.758731,-0.00048341217916458845,-0.00039435434155166155,-0.0012070853263139725,3.788160800933838,24.762474060058594,-17.68619728088379,-0.009577896445989607,0.006227657198905946,0.03586101531982422,989.8637084960938,0,13.0,1,1
9.04,0.033519745,-0.14911112,9.765832000000001,-0.00035018078051507473,0.0006708973669447005,0.00012452546798158434,4.006399631500243,24.281822204589844,-17.38376808166504,-0.014629211276769638,-0.008194416761398315,0.02639293670654297,989.8709106445312,0,13.0,1,1
9.08,0.04068178,-0.1443443,9.7753,-0.00021694949828088284,0.00040456949500367045,-0.00040807487675920134,4.081129074096681,24.08826065063477,-17.15300178527832,-0.0004212595522403717,-0.003683537244796753,0.040592193603515625,989.8709106445312,0,13.0,1,1
9.12,0.045453966,-0.1491107,9.768197,-0.0008826658595353365,0.00013824168127030134,-0.0006743593257851899,3.616116762161255,24.127071380615234,-17.314569473266598,-0.014616481959819794,0.005873128771781921,0.050063133239746094,989.8709106445312,0,13.0,1,1
9.16,0.04066658,-0.14911053,9.761096,-0.00021680269856005907,-0.0005275599542073905,-0.00014169605856295675,3.929711818695069,23.7358512878418,-17.263017654418945,-0.009664691984653471,0.0009855031967163086,0.05479526519775391,989.867919921875,0,13.0,1,1
9.2,0.038269073,-0.14196044,9.761094,0.0005822182865813375,0.0005376916960813105,-0.00027482258155941963,3.5452723503112797,24.587425231933594,-17.176618576049805,-0.004898324608802795,-0.01778891682624817,0.02165985107421875,989.8607788085938,0,13.0,1,1
9.24,0.045431137,-0.14196032,9.777664999999999,4.9659749493002885e-05,0.0002713639405556023,-0.00094058079412207,3.880037784576416,24.11091232299805,-17.508264541625973,-0.01920999214053154,0.001391887664794922,0.026395797729492188,989.858154296875,0,13.0,1,1
9.28,0.033474027999999996,-0.16340962,9.775296,0.0008486808510497212,-0.00039443772402592003,-0.0005410755984485148,3.82786226272583,24.114730834960934,-17.50044822692871,0.004457004368305206,0.011396750807762146,0.03114032745361328,989.8555908203124,0,13.0,1,1
9.32,0.038246214,-0.13481012,9.775296,0.0004040402418468148,0.00031690922332927585,0.0003618162591010332,3.225834369659424,23.97232437133789,-17.245370864868164,-0.00530155748128891,-0.008066549897193909,0.0406036376953125,989.8653564453124,0,13.0,1,1
9.36,0.023899197999999997,-0.15149286,9.761092,-0.0007943080272525549,0.000982687110081315,0.0004950056318193674,3.492661476135254,23.853191375732425,-16.894598007202152,0.01376255601644516,0.001387476921081543,0.0406036376953125,989.8783569335938,0,13.0,1,1
9.4,0.03345119999999999,-0.13957629,9.768193,-0.0003946872602682561,5.055764631833881e-05,0.00036191061371937394,3.9182169437408447,23.46169471740723,-17.245203018188473,0.004139117896556854,-0.008245795965194702,0.045337677001953125,989.887939453125,0,13.0,1,1
9.44,0.04300317,-0.14434263,9.770560000000001,-0.0003946872602682561,5.055764631833881e-05,0.00036191061371937394,3.9182169437408447,23.46169471740723,-17.245203018188473,-0.01949615031480789,-0.008196085691452026,0.03586769104003906,989.887939453125,0,13.0,1,1
9.48,0.042995572,-0.14910898,9.782394,0.0002711756678763777,0.00018370365432929248,-3.753174678422511e-05,3.8869664669036874,24.38064956665039,-17.294160842895508,0.004116315394639969,0.0013948827981948853,0.02640247344970703,989.8806762695312,0,13.0,1,1
9.52,0.03342837,-0.14672557,9.765824,0.0002711756678763777,0.00018370365432929248,-3.753174678422511e-05,3.812535285949707,25.20634841918945,-17.100053787231445,0.009035784751176834,-0.008000418543815613,0.05007743835449219,989.8806762695312,0,13.0,1,1
9.56,0.028832972000000002,-0.14196345,9.765839999999999,4.9332447815686464e-06,-8.262413030024618e-05,-0.00043697416549548507,3.7445437908172607,23.9311637878418,-17.16892433166504,-0.0007524751126766205,-0.0033327043056488037,0.04059028625488281,989.8404541015624,0,13.0,1,1
9.6,0.038392574,-0.1371969,9.751636999999999,0.00027002478600479657,0.0004502062802203,0.0007609226740896702,3.696253299713135,24.201778411865234,-16.79239845275879,-0.0055565498769283295,-0.01236395537853241,0.06427001953125,989.885498046875,0,13.0,1,1
9.64,0.038392574,-0.16102973,9.772942,0.0006690508453175426,-0.00021551064855884758,-3.821688005700707e-05,3.7095158100128174,23.47698211669922,-17.213937759399414,-0.00039442256093025213,0.025542110204696652,0.04059314727783203,989.842529296875,0,13.0,1,1
9.68,0.04078248,-0.15387988,9.780044,-0.0003962126502301544,-0.00034866860369220376,-3.821688005700707e-05,3.8549818992614746,23.929412841796875,-17.493780136108402,-0.009981121867895126,-0.0030291825532913212,0.016921043395996094,989.842529296875,0,13.0,1,1
9.72,0.04317236,-0.14911329999999998,9.768208,-0.0003962126502301544,-0.00034866860369220376,-3.821688005700707e-05,3.8549818992614746,23.929412841796875,-17.493780136108402,-0.005142968147993089,-0.007642105221748351,0.04059600830078125,989.842529296875,0,13.0,1,1
9.76,0.024053186,-0.14911333,9.761106,0.0005358929047361016,0.0005834369803778827,-3.821688005700707e-05,3.6282925605773926,24.13885498046875,-17.933008193969727,0.009050130844116213,-0.002447500824928284,0.045337677001953125,989.8449096679688,0,13.0,1,1
9.8,0.038392574,-0.14434674,9.765839999999999,0.0005358929047361016,0.0005834369803778827,-3.821688005700707e-05,3.6282925605773926,24.13885498046875,-17.933008193969727,-0.009839609265327455,-0.007167890667915343,0.031134605407714844,989.8449096679688,0,13.0,1,1
9.84,0.038392574,-0.15149659,9.777677,0.0008022087858989835,-0.00048182654427364474,0.00036125694168731565,3.7922909259796143,24.028839111328125,-17.643903732299805,-0.004638422280550003,0.0022228658199310303,0.026395797729492188,989.8800659179688,0,13.0,1,1
9.88,0.04078245,-0.15864643,9.763473,-0.0006625285604968668,-0.0008813003660179676,0.00036125694168731565,3.5058159828186035,24.2347412109375,-17.688791275024414,7.618963718414307e-05,0.00704634189605713,0.05480289459228516,989.8800659179688,0,13.0,1,1
9.92,0.04317236,-0.14673004,9.772942,-0.00012989676906727254,0.00031712109921500087,0.00036125694168731565,3.4355146884918213,24.326801300048828,-17.452394485473633,-0.014039598405361177,-0.0026209652423858643,0.040596961975097656,989.869873046875,0,13.0,1,1
9.96,0.03122285,-0.13004708,9.772942,-0.00012989676906727254,-0.00048182654427364474,-0.0009703223477117717,3.5373644828796387,23.94792175292969,-17.214967727661133,0.005061756819486618,-0.012059420347213743,0.03113079071044922,989.869873046875,0,13.0,1,1
10.0,0.036002666,-0.1371969,9.765839999999999,0.0001364191120956093,-0.0010144582483917477,9.494106052443384e-05,3.4519810676574707,24.13117218017578,-16.904596328735348,0.005131278187036514,-0.011950835585594177,0.026397705078125,989.857177734375,0,13.0,1,1
10.04,0.03122285,-0.14434674,9.765839999999999,0.0005358929047361016,0.0007165948045440017,-3.821688005700707e-05,3.518152236938477,24.772743225097656,-17.183286666870114,0.004846867173910141,0.007462203502655029,0.04534149169921875,989.857177734375,0,13.0,1,1
10.08,0.038392544,-0.14196345,9.780044,0.0001364191120956093,0.0007165948045440017,0.0002280990011058748,3.850416421890259,23.92499542236328,-17.261865615844727,0.004820842295885086,-0.011333882808685304,0.03587627410888672,989.8648681640624,0,13.0,1,1
10.12,0.038392574,-0.13958022,9.777677,-0.00012989676906727254,-0.00021551064855884758,0.00036125694168731565,3.70342755317688,23.47109222412109,-16.904718399047848,-0.004544049501419067,-0.02581565082073212,0.012201309204101562,989.84716796875,0,13.0,1,1
10.16,0.036002666,-0.15149659,9.763473,0.0004027349932584912,0.0001839631731854752,0.00036125694168731565,3.1815669536590576,24.61564636230469,-17.199213027954098,1.4465302228927612e-05,0.002536892890930176,0.031136512756347656,989.84716796875,0,13.0,1,1
10.2,0.036002696,-0.14196345,9.765839999999999,-0.0007956865010783076,0.0005834369803778827,-0.00043769070180132985,3.725874900817871,24.3876953125,-17.03879737854004,0.00978914275765419,-0.01207616925239563,0.05480194091796875,989.8541259765624,0,13.0,1,1
10.24,0.03122285,-0.15626314,9.768208,-0.0005293706199154258,-0.0008813003660179676,-0.000171374820638448,3.9226758480072017,24.57246017456055,-17.84977912902832,3.593042492866516e-05,0.011608123779296877,0.05480003356933594,989.858642578125,0,13.0,1,1
10.28,0.045562267000000004,-0.14673004,9.777677,-0.0005293706199154258,0.0008497528615407647,-0.00017137470422312617,3.524347305297852,23.672292709350586,-17.119844436645508,-0.00431482121348381,-0.002392813563346863,0.026396751403808597,989.8580322265624,0,13.0,1,1
10.32,0.038392574,-0.15387985,9.763473,0.0005358929047361016,-0.0012807742459699512,-3.821688005700707e-05,3.8268833160400386,23.74496841430664,-17.32468605041504,-0.00437358021736145,0.002376124262809753,0.03113269805908203,989.8650512695312,0,13.0,1,1
10.36,0.04078245,-0.14434674,9.765839999999999,-0.00012989676906727254,0.0001839631731854752,9.494106052443384e-05,3.1138741970062256,23.97260284423828,-16.843217849731445,-0.013744663447141649,-0.007322788238525391,0.03586292266845703,989.852294921875,0,13.0,1,1
10.4,0.04078248,-0.15149659,9.7587385,0.0004027349932584912,-0.00034866860369220376,0.0007607307634316385,3.610028982162476,24.121177673339844,-17.00535011291504,-0.008961640298366547,0.002366378903388977,0.04533481597900391,989.8549194335938,0,13.0,1,1
10.44,0.047952175,-0.14196345,9.763473,3.2611715141683817e-06,0.0001839631731854752,-0.000437690585386008,3.983408927917481,23.73350715637207,-17.348138809204098,-0.013601336628198624,-0.011802226305007936,0.035866737365722656,989.8419799804688,0,13.0,1,1
10.48,0.036002666,-0.16102973,9.765839999999999,-0.0005293706199154258,5.080523260403425e-05,-0.000171374820638448,3.6656839847564697,24.858360290527344,-17.441980361938473,0.0007019974291324615,0.012052863836288452,0.04060173034667969,989.8750610351562,0,13.0,1,1
10.52,0.047447324000000006,-0.13718456,9.768161,0.0006690508453175426,-0.0007481424254365264,0.0002280990011058748,3.6170957088470463,24.49683380126953,-17.490327835083008,-0.008783739060163498,-0.011835649609565737,0.05480384826660156,989.8750610351562,0,13.0,1,1
10.56,0.03974235,-0.14670452,9.751542,0.00027078136918134993,-0.0003488641232252121,-0.00043717451626434917,3.6010346412658687,24.21826171875,-17.240594863891598,0.0020132623612880707,-0.0021625906229019165,0.04069709777832031,989.8670654296876,0,13.0,1,1
10.6,0.044481575,-0.14193702,9.770474,0.0001451698481105268,0.00044985674321651464,0.0001031628344208002,3.6320405006408687,24.29972839355469,-16.86522102355957,-0.011996157467365265,-0.0021164268255233765,0.03123188018798828,989.8670654296876,0,13.0,1,1
10.64,0.042050987000000005,-0.15623570000000003,9.761003,0.0001455610035918653,-0.001148102106526494,-2.9827409889549017e-05,4.104661941528319,24.26828765869141,-17.090173721313473,-0.011710274964571001,0.002728015184402466,0.05490684509277344,989.8772583007812,0,13.0,1,1
10.68,0.034840703,-0.14908484,9.770469,0.0001459521590732038,-0.00034921796759590507,0.0007692879298701882,3.800604104995728,24.19413757324219,-16.808034896850586,-0.001960914582014084,-0.0021212548017501827,0.050174713134765625,989.8569946289062,0,13.0,1,1
10.72,0.02524048,-0.14193407,9.758628999999999,-0.000253130157943815,-0.00034928147215396166,0.00036998186260461807,3.506657361984253,24.49858474731445,-17.165472030639652,0.012564092874526978,-0.0017526745796203613,0.06438636779785156,989.8486938476562,0,13.0,1,1
10.76,0.022810042000000003,-0.14908281,9.782297999999999,0.003608841216191649,-0.0014146085595712064,0.00010383361950516701,3.62815523147583,24.03293800354004,-17.23393440246582,0.013268310576677322,-0.00018170475959777832,0.01706695556640625,989.84130859375,0,13.0,1,1
10.8,0.027549207000000003,-0.14908189,9.768089999999999,-0.004140583798289299,0.0012200629571452735,0.0009325069840997458,3.6862807273864746,23.929094314575195,-16.85188865661621,-0.002076629549264908,-0.011579751968383787,0.04545497894287109,989.9911499023438,0,13.0,1,1
10.84,0.025118709,-0.14669761,9.772821,-0.00054492789786309,2.157803464797325e-05,-0.0003989047545474023,3.449074506759644,24.2341423034668,-17.449064254760742,0.0028389617800712585,0.007277235388755798,0.03598594665527344,989.75244140625,0,13.0,1,1
10.88,0.03463775,-0.1562297,9.777552,-0.00054492789786309,2.157803464797325e-05,-0.0003989047545474023,3.449074506759644,24.2341423034668,-17.449064254760742,0.0124623104929924,0.01248110830783844,0.054932594299316406,989.75244140625,0,13.0,1,1
10.92,0.020257771,-0.14669564,9.768079,-0.00054492789786309,2.157803464797325e-05,-0.0003989047545474023,3.6471219062805176,24.20854568481445,-16.93919563293457,0.013499133288860321,-0.010068148374557495,0.05495166778564453,989.75244140625,0,13.0,1,1
10.96,0.022607058,-0.14669457,9.760974000000001,-0.0008104613516479732,-0.00011170693323947488,0.00026722028269432485,3.822753190994263,24.478599548339844,-17.366979598999027,0.012857086956501007,0.0020843148231506348,0.04545879364013672,989.8993530273438,0,13.0,1,1
11.0,0.029736161,-0.15622672,9.765704,-0.0038727030623704204,0.0010866511147469282,0.0006668618298135697,3.5270092487335205,24.56974792480469,-16.248960494995114,0.012536518275737762,0.006854712963104248,0.05019855499267578,989.7366943359376,0,13.0,1,1
11.04,0.029695481,-0.1490759,9.763333,-0.0038727030623704204,0.0010866511147469282,0.0006668618298135697,3.5270092487335205,24.56974792480469,-16.248960494995114,0.007779441773891448,-0.007639572024345399,0.050197601318359375,989.7366943359376,0,13.0,1,1
11.08,0.027265012,-0.14907488,9.7704315,0.0002555848041083664,0.0005539556732401252,0.0009333454072475431,3.5029330253601074,24.75801086425781,-16.410234451293945,0.017574768513441086,-0.007646843791007996,0.05966949462890625,989.7804565429688,0,13.0,1,1
11.12,0.02961433,-0.15145722,9.756225,-0.00040981362690217793,-0.000378213357180357,-0.00026490827440284187,3.876855373382568,24.00204849243164,-16.654573440551758,0.0127967931330204,0.001643359661102295,0.050200462341308594,989.7804565429688,0,13.0,1,1
11.16,0.017624200000000003,-0.14907286,9.777525,0.0003899166767951101,0.0012195549206808212,0.00013490088167600334,3.7700042724609375,23.63845443725586,-16.385881423950195,0.026480332016944885,0.0016824454069137573,0.031271934509277344,989.873779296875,0,13.0,1,1
11.2,0.024753332000000003,-0.15622178,9.775153999999999,0.0003899166767951101,0.0012195549206808212,0.00013490088167600334,3.7700042724609375,23.63845443725586,-16.385881423950195,0.007433611899614334,0.016038388013839718,0.021805763244628903,989.873779296875,0,13.0,1,1
11.24,0.017543018,-0.14668763,9.768048,0.0003906992205884308,-0.0002453096094541252,0.0004015521553810686,3.8949816226959233,23.913806915283203,-16.88315773010254,0.012435626238584518,-0.0031259208917617802,0.045479774475097656,989.8204956054688,0,13.0,1,1
11.28,0.022282242999999997,-0.14906988,9.768044999999999,-0.0009404885349795222,-0.0002453731431160122,0.00026856199838221073,3.460432291030884,24.402381896972656,-16.767797470092773,0.012211736291646956,-0.00327455997467041,0.054950714111328125,989.8609619140624,1,1.0,2,2
11.32,0.029411346,-0.14668566,9.775143,-0.00014114976511336863,0.0006866689654998481,0.0006682034581899643,3.9697110652923584,23.72024917602539,-16.65239143371582,0.012383755296468736,-0.003375411033630371,0.03128242492675781,989.833251953125,1,1.0,2,2
11.36,0.029370725,-0.15621772,9.758569,-0.00040707437437959015,-0.0007781317690387367,-0.0005300502525642513,4.140776634216309,23.98588943481445,-16.848264694213867,0.007287252694368362,-0.003789141774177551,0.059687614440917976,989.8508911132812,1,1.0,2,2
11.4,0.029330105,-0.15145022,9.765668,-0.000406682986067608,0.0005533839575946331,0.00026906505809165543,4.106046676635741,24.163841247558594,-16.468408584594727,0.02145303413271904,-0.0085335373878479,0.036017417907714844,989.848388671875,1,1.0,2,2
11.44,0.034069300000000004,-0.14668265,9.791702,-6.817776011303068e-06,0.0005533205112442374,-0.0009291886817663908,3.458367109298706,24.76919937133789,-16.788942337036133,0.007109887897968292,-0.008280843496322632,0.0076198577880859375,989.8560791015624,1,1.0,2,2
11.48,0.02207923,-0.16098133,9.753822999999999,0.0002598893770482391,0.00015378303942270577,-0.0006627051625400783,4.125694751739502,24.07707214355469,-16.774293899536133,0.0161476619541645,0.015231460332870485,0.0691680908203125,989.8458862304688,1,1.0,2,2
11.52,0.039402902000000004,-0.17529559,9.765715,-0.0016039303736761212,0.0009526673238724471,0.0006690419977530838,3.653615713119507,23.74023056030273,-16.450883865356445,-0.008989669382572174,0.022813037037849426,0.05014801025390625,989.848388671875,1,1.0,2,2
11.56,0.20907077,-0.8306968000000001,10.019003999999999,-0.0028049976099282503,0.0016188864829018712,-0.0007968293502926826,3.9402277469635014,23.640247344970703,-17.105073928833008,-0.2691993713378906,1.2821847200393677,-0.05441761016845703,989.815185546875,1,1.0,2,2
11.6,-0.09446201,0.40622509999999995,10.194175,-0.12558215856552124,-0.03925786167383194,0.13356180489063266,3.7139973640441895,25.00804901123047,-15.995485305786133,0.1234082654118538,-1.1172056198120115,-0.5667715072631836,989.7059936523438,1,1.0,2,2
11.64,-0.48164135,0.57305497,9.813054,-0.10547515749931337,0.2349143028259277,0.13316237926483154,4.662827968597412,24.57981109619141,-16.501558303833008,0.6647274494171143,-1.070765256881714,0.5190448760986328,989.7764282226562,1,1.0,2,2
11.68,0.31657064,-1.2001038999999998,10.18707,-0.4994893968105316,0.07086371630430223,-0.12489765137434004,4.489996433258057,25.31312561035156,-15.901960372924805,-0.12778878211975098,0.5907232761383057,0.11091995239257812,989.7846069335938,1,1.0,2,2
11.72,0.19706038,-1.3859992,9.637877,-1.2072237730026243,-0.29279065132141113,-0.2885487079620361,3.688315153121948,26.72148895263672,-14.629083633422852,-0.09704992920160294,0.04416477680206299,0.03134918212890625,989.8076171875,1,1.0,2,2
11.76,0.63917696,-0.58045065,9.997691,-1.1462372541427612,0.010809426195919514,-0.07429750263690947,3.4777095317840576,27.629810333251953,-13.495016098022461,-0.33210521936416626,-0.6973532438278198,-0.28191375732421875,989.83544921875,1,1.0,2,2
11.8,0.69890934,-2.0890656,9.775172999999999,-1.2604866027832031,-0.07760746777057648,0.08615788072347641,3.4604783058166504,29.614459991455078,-11.991819381713867,-1.3640514612197876,-0.14950132369995114,0.1816701889038086,989.85009765625,1,1.0,2,2
11.84,-1.444848,-3.3903352999999994,10.009524,-1.3427780866622925,0.14649730920791626,-0.3059922158718109,3.3775115013122563,31.695594787597656,-10.484140396118164,0.6436095237731934,0.9038424491882324,0.4653835296630859,989.8272094726562,1,1.0,2,2
11.88,-0.43154472,-2.6443686,7.3345839999999995,-0.8173366785049438,1.0795350074768066,-0.30346211791038513,4.13416051864624,32.71957397460937,-9.659856796264648,-0.42502132058143616,0.3230400085449219,1.993513107299805,989.8377075195312,1,1.0,2,2
11.92,-1.0840032,-3.7120771,7.339317299999999,-0.661541759967804,1.0054991245269775,-0.21451257169246676,4.618576049804688,33.59442138671875,-9.477754592895508,1.1025729179382324,-1.9313772916793823,9.025312423706056,989.8275756835938,1,1.0,2,2
11.96,2.187757,-3.6286616,11.702071,-0.7608772516250609,-2.0954830646514893,-0.5093241930007935,3.0450258255004883,33.964073181152344,-8.256113052368164,-1.6333894729614258,0.3995447158813477,-4.646599769592285,989.903564453125,1,1.0,2,2
12.0,-0.31448525,-4.086251,6.7593502999999995,-0.8743277788162231,-1.2094500064849854,-0.19320717453956604,0.21872377395629886,34.79372787475586,-6.945323944091798,-0.3877668976783752,-0.1580801010131836,0.27971649169921875,989.9618530273438,1,1.0,2,2
12.04,-0.0468314,-4.3364944,8.922972999999999,-1.0427722930908203,-0.23939456045627594,-0.13235385715961456,1.3046705722808838,37.01987838745117,-3.4706935882568364,0.2494778633117676,-0.2587409019470215,0.12544918060302734,989.8504638671876,1,1.0,2,2
12.08,0.26384056,-4.8250665999999995,8.501609,-1.0427722930908203,-0.23939456045627594,-0.13235385715961456,1.3046705722808838,37.01987838745117,-3.4706935882568364,0.016016673296689987,-0.16848421096801758,-0.03146839141845703,989.8504638671876,1,1.0,2,2
12.12,0.35225177,-5.323171599999999,7.554725599999999,-1.2422428131103516,0.20202401280403134,-0.2697727680206299,1.4992914199829102,37.88584899902344,-1.7807159423828125,-0.3543649315834045,0.023923873901367188,0.6116452217102051,989.88037109375,1,1.0,2,2
12.16,-0.43404123,-4.152981,8.092080000000001,-0.4748532772064209,-0.2718851566314697,0.4278418123722077,1.4687676429748535,39.383033752441406,1.2157554626464844,1.094894528388977,-2.596587657928467,-0.7164382934570312,989.8499145507812,1,1.0,2,2
12.2,-0.1639975,-2.355989,9.112342,-0.4748532772064209,-0.2718851566314697,0.4278418123722077,1.8072800636291504,39.06739807128906,1.9519023895263672,-0.5067192912101746,-1.7687087059020996,-0.3625621795654297,989.8499145507812,1,1.0,2,2
12.24,0.7393702,-5.7902927,8.482664999999999,0.7063909769058228,0.05688179284334183,-0.07962306588888167,0.6189947128295898,39.22097778320313,-1.1073131561279297,-0.7553234696388245,1.4732789993286133,-0.15369796752929688,989.8729858398438,1,1.0,2,2
12.28,0.08213198,-5.9094562999999996,8.721751,0.7063909769058228,0.05688179284334183,-0.07962306588888167,0.6189947128295898,39.22097778320313,-1.1073131561279297,-0.6022111177444458,1.7330126762390137,0.09656810760498047,989.8729858398438,1,1.0,2,2
12.32,-1.0052886,-3.7549725,10.667589999999999,1.4048044681549072,0.382186621427536,-0.644612193107605,0.09069490432739258,38.09494018554688,-2.268749237060547,1.1783244609832764,-0.063812255859375,-1.4193248748779297,989.9285888671876,1,1.0,2,2
12.36,0.34021090000000004,-3.3140655,11.730463,0.8609877228736877,0.3696697056293488,-0.3816251754760742,0.18322992324829104,36.760704040527344,-4.514467239379883,0.04309257864952088,-0.8711185455322266,-2.3005332946777344,989.9619140625,1,1.0,2,2
12.4,-0.104326054,-2.6824965,11.29963,0.6711046099662781,-0.37668052315711975,0.12384245544672012,-0.6316828727722168,35.734649658203125,-5.021711349487305,0.25869014859199524,0.03465008735656738,-3.4304790496826167,989.9717407226562,1,1.0,2,2
12.44,0.23024499999999998,-0.76872337,9.289874000000001,1.4286401271820068,-0.4180926978588104,-0.037145428359508514,-1.0385079383850098,33.72266387939453,-8.07463264465332,0.8816653490066528,-1.2961004972457886,3.0776758193969727,990.0221557617188,1,1.0,2,2
12.48,1.2268188999999998,-1.6004871,11.756497,2.740112781524658,-0.04019046574831009,-0.43595340847969055,-3.1310582160949707,29.92182540893555,-11.378992080688475,-0.1517091989517212,-0.24575138092041016,-3.570063591003418,990.0301513671876,1,1.0,2,2
12.52,0.6125988,-1.7744662,11.792005,0.834090530872345,-0.08626318722963333,-0.4615196287631989,-6.588075160980225,25.580841064453125,-14.518472671508787,0.5971301198005676,0.5419415235519409,-3.1776456832885738,989.915283203125,1,1.0,2,2
12.56,0.9258481,-0.6304966,10.028455000000001,0.6624500751495361,0.09336687624454497,-0.5154485106468201,-7.211731433868407,24.365367889404297,-15.429025650024414,0.17544591426849365,-0.4322703778743744,0.5813055038452148,989.9457397460938,1,1.0,2,2
12.6,0.9021316999999999,-0.73774874,11.370675,1.160993576049805,-0.08466532081365585,-0.3414110243320465,-7.9106078147888175,20.97283935546875,-17.047430038452152,0.19469022750854487,0.4002012610435486,-2.836708068847656,989.95849609375,1,1.0,2,2
12.64,1.3347028,-0.4183893,12.177891,0.5881446003913879,-0.3363332450389862,-0.4097225368022919,-8.436683654785156,20.00621032714844,-17.063776016235348,-0.3520516157150269,-0.2195960283279419,-2.7587890625,989.7984619140624,1,1.0,2,2
12.68,0.80653334,-1.3168852,10.293597,0.39413341879844666,0.4482333362102509,-0.2577893435955048,-7.9411234855651855,18.890514373779297,-18.075647354125977,0.3797023296356201,1.367365837097168,-1.8184366226196291,989.9102783203124,1,1.0,2,2
12.72,0.022644311,0.31089395,8.875643,1.1834936141967771,-0.042853161692619324,-0.2778961658477783,-7.997375965118407,16.889060974121097,-18.48875617980957,1.2608495950698853,-0.21382665634155276,-0.4124641418457031,989.9124145507812,1,1.0,2,2
12.76,1.243883,0.058266446,13.546132,0.4537882208824158,0.020663175731897358,-0.2081213891506195,-7.23705530166626,16.021053314208984,-19.171003341674805,-0.20528817176818848,-0.26183146238327026,-3.424569129943848,989.7191162109376,1,1.0,2,2
12.8,0.34049892,-0.029914856,11.531644,0.1183633878827095,0.3465006649494171,-0.0034576451871544127,-6.544290065765381,14.61591339111328,-20.196332931518555,0.5360971093177795,1.0033491849899292,-2.27187442779541,989.7571411132812,1,1.0,2,2
12.84,1.2462707,1.2141565,10.213113,1.1456769704818726,0.5767307877540588,-0.07509660720825195,-5.2929768562316895,12.627792358398438,-21.658540725708008,-0.40332162380218506,0.3845018148422241,-0.9804477691650392,989.90966796875,1,1.0,2,2
12.88,0.20188224,1.3476202,9.339614,1.8747166395187376,0.08537792414426804,-0.11664188653230667,-5.336103916168213,9.79562759399414,-21.79411125183105,0.23221445083618164,0.3064086437225342,0.6218719482421875,989.7188110351562,1,1.0,2,2
12.92,0.37873379999999995,1.2570555,10.08765,2.013600349426269,-0.3784111738204956,-0.4660483300685882,-5.473662853240967,5.611224174499512,-22.60584831237793,0.5011857748031616,2.0224571228027344,-1.0783100128173828,989.683349609375,1,1.0,2,2
12.96,-0.41471475,2.1484017000000004,8.766752,1.373376965522766,0.3857822120189667,-0.07522976398468018,-4.757258892059326,3.2797718048095703,-23.195695877075195,0.6951638460159302,0.830618143081665,0.3554887771606445,989.667724609375,1,1.0,2,2
13.0,0.23533738,2.689406,9.060285,0.8930763602256775,0.7520998120307922,-0.0627129077911377,-3.1043052673339844,1.6146316528320312,-24.04583549499512,-0.011152207851409912,0.8797919750213623,0.02520084381103516,989.6654663085938,1,1.0,2,2
13.04,0.6368397,2.6941724,8.735977,1.2636548280715942,-0.4650970101356506,0.008393443189561367,-3.9113402366638175,0.01582193374633789,-23.443002700805664,-0.057429432868957526,1.3802411556243896,0.6016836166381836,989.6575317382812,1,1.0,2,2
13.08,0.14451873,3.24471,8.648391,1.452872395515442,-1.1917400360107422,-0.2551260888576508,-5.733675479888916,-2.4284634590148926,-22.480268478393555,0.9250024557113647,1.4396042823791504,-0.4359912872314453,989.6956787109376,1,1.0,2,2
13.12,1.1482763999999999,3.7213655,9.787015,0.707187831401825,-0.057234231382608414,-0.1354171186685562,-5.879035472869872,-3.98723578453064,-21.827768325805664,0.1105073094367981,0.9626164436340332,-0.9628572463989258,989.6854858398438,1,1.0,2,2
13.16,0.87343645,4.0454917,8.20099,1.2970774173736572,0.10268845409154892,-0.17203554511070251,-5.02094316482544,-7.239397048950195,-22.693513870239254,0.4090992212295532,1.351473331451416,0.7285008430480957,989.8221435546876,1,1.0,2,2
13.2,0.05130902,3.8858117999999995,6.839847,1.2970774173736572,0.10268845409154892,-0.17203554511070251,-5.02094316482544,-7.239397048950195,-22.693513870239254,0.2521491050720215,0.9386844635009766,1.0334000587463381,989.8221435546876,1,1.0,2,2
13.24,1.8963120999999998,5.913981400000001,8.664961,0.06842928379774094,0.4871154129505158,0.3239778280258179,-3.158555030822754,-7.549624443054199,-23.42425346374512,-2.158953189849853,-0.985595703125,0.4870662689208984,989.6671752929688,1,1.0,2,2
13.28,1.0837444,4.243304,8.390366,0.06842928379774094,0.4871154129505158,0.3239778280258179,-3.158555030822754,-7.549624443054199,-23.42425346374512,-1.4370813369750977,0.15163898468017578,0.4208860397338867,989.6671752929688,1,1.0,2,2
13.32,-0.89748555,3.3924737,7.829337599999999,1.1524680852890017,0.2488958537578583,-0.1754976511001587,-3.8888258934021,-10.92107391357422,-21.497774124145508,1.5419961214065552,2.1813287734985347,0.4864745140075684,989.7454223632812,1,1.0,2,2
13.36,0.42890882,5.215681,7.2848809999999995,1.1524680852890017,0.2488958537578583,-0.1754976511001587,-3.8888258934021,-10.92107391357422,-21.497774124145508,0.553057074546814,1.367128849029541,0.7376613616943359,989.7454223632812,1,1.0,2,2
13.4,0.7706636,5.8520164,7.242272,0.7386133074760437,0.7008339166641235,0.5315710306167603,-2.8737163543701167,-11.814081192016602,-21.909883499145508,-0.7121245861053467,0.4555544853210449,-0.1646723747253418,989.7151489257812,1,1.0,2,2
13.44,0.4456358,5.952114,6.2456794,1.3113255500793457,-0.08679531514644623,0.421183168888092,-2.8703508377075195,-15.130167007446287,-20.94651985168457,-0.005320370197296143,0.8243508338928223,0.6657257080078125,989.6712036132812,1,1.0,2,2
13.48,0.45280433,6.2428745999999995,5.919005,1.3113255500793457,-0.08679531514644623,0.421183168888092,-2.8703508377075195,-15.130167007446287,-20.94651985168457,-0.04167652130126953,0.6622853279113771,0.6785769462585449,989.6712036132812,1,1.0,2,2
13.52,0.6416054,6.261941,5.665714,0.6632458567619324,0.23478110134601596,0.4944199919700623,-3.2274560928344727,-16.676605224609375,-20.10814476013184,0.008006513118743895,0.8023915290832521,0.6814961433410645,989.7042846679688,1,1.0,2,2
13.56,1.6854209,7.119935000000001,7.886098,0.6632458567619324,0.23478110134601596,0.4944199919700623,-3.2274560928344727,-16.676605224609375,-20.10814476013184,-0.598504364490509,0.1504201889038086,-0.7616205215454102,989.7042846679688,1,1.0,2,2
13.6,1.36037,6.8339419999999995,6.3403125,0.22542259097099304,0.16420738399028778,0.6566063761711121,-3.1510672569274902,-16.762771606445312,-20.653764724731445,-0.6489183902740479,0.2526040077209473,-0.7032628059387207,989.73193359375,1,1.0,2,2
13.64,1.140475,7.041288400000001,4.974434400000001,0.9464770555496216,0.3136108815670013,0.4058741629123688,-2.5605640411376958,-18.10678482055664,-19.81928825378418,-0.2702021598815918,0.3714346885681152,1.0170130729675293,989.71630859375,1,1.0,2,2
13.68,1.4654776000000003,7.365414599999999,6.20301,0.9464770555496216,0.3136108815670013,0.4058741629123688,-2.5605640411376958,-18.10678482055664,-19.81928825378418,-0.3684228658676148,0.26427173614501953,0.2769813537597656,989.71630859375,1,1.0,2,2
13.72,1.1834451000000001,7.251017599999999,6.020734,0.4304905831813812,0.19989390671253204,0.4354354441165924,-2.367680072784424,-19.40106773376465,-19.927248001098636,-0.030198574066162113,0.4382429122924805,0.2708702087402344,989.7314453125,1,1.0,2,2
13.76,1.3674434,7.498879400000001,5.7437687,0.4304905831813812,0.19989390671253204,0.4354354441165924,-2.367680072784424,-19.40106773376465,-19.927248001098636,-0.2394058704376221,0.2688469886779785,0.26209402084350586,989.7314453125,1,1.0,2,2
13.8,1.8692986,8.139981,5.4999447,0.5010647177696228,0.34317177534103394,0.3737834990024567,-2.2249889373779297,-19.53171157836914,-18.555871963500977,-0.9211368560791016,-0.4308772087097168,0.2327780723571777,989.6984252929688,1,1.0,2,2
13.84,1.5585874,7.846839,5.414723,0.5010647177696228,0.34317177534103394,0.3737834990024567,-2.2249889373779297,-19.53171157836914,-18.555871963500977,-0.6619882583618164,0.034743309020996094,0.023084163665771484,989.6984252929688,1,1.0,2,2
13.88,1.39127,8.049418,5.066742,0.6193091869354248,0.23757748305797574,0.3238493800163269,-1.98036527633667,-21.56787109375,-18.39743995666504,-0.07775545120239258,0.3073620796203613,0.11493206024169922,989.710693359375,1,1.0,2,2
13.92,1.4916219,8.190032,4.8773637,0.7061285972595215,0.16061212122440338,0.05806631967425345,-1.6259827613830566,-23.34341812133789,-17.963232040405273,-0.4299999475479126,0.14846229553222656,-0.03913307189941406,989.68994140625,1,1.0,2,2
13.96,1.4509693000000001,8.435511,4.6169696,0.5605872273445129,0.36607480049133295,0.07644221931695938,-1.795961856842041,-24.345632553100586,-17.570459365844727,-0.2610656023025513,0.08449172973632812,0.05470752716064453,989.69775390625,1,1.0,2,2
14.0,1.0088135,8.170967,4.5743575,0.4929432272911072,0.4114816188812256,0.0713823139667511,-1.1423325538635254,-25.05101776123047,-16.86005973815918,0.02769374847412109,0.3934154510498047,-0.09571075439453124,989.7026977539062,1,1.0,2,2
14.04,1.4939395,8.497478,4.2382126,0.6565945148468018,0.17086517810821533,0.04608240351080895,-1.0218138694763184,-25.88642501831055,-16.752763748168945,-0.5484383106231691,0.16225814819335938,0.0695648193359375,989.70751953125,1,1.0,2,2
14.08,1.3505212,8.578509,4.614595,0.6619210839271545,0.1309177577495575,0.13396674394607544,-0.7487921714782715,-27.10600662231445,-16.338552474975586,-0.3613131046295166,0.17529010772705078,-0.35244035720825195,989.7025756835938,1,1.0,2,2
14.12,1.28358,8.526076,4.1979656,0.6004023551940918,0.15621770918369293,0.08869314938783646,-0.9295320510864258,-27.01219367980957,-15.777299880981445,-0.216660737991333,0.4195594787597656,-0.2280111312866211,989.7355346679688,1,1.0,2,2
14.16,1.8690816000000003,9.112364999999999,4.0322595,0.7969437837600708,0.04236765205860138,0.07844008505344391,-1.0764141082763672,-28.57244300842285,-15.047494888305664,-0.6338424682617188,0.014716148376464844,-0.4859144687652588,989.72509765625,1,1.0,2,2
14.2,1.1066790000000002,8.60711,3.4546597,0.8544681668281555,0.09256815910339357,0.06459175050258636,-1.2441668510437012,-29.415264129638672,-13.509622573852539,-0.2697117328643799,0.4801111221313477,-0.26707959175109863,989.7174072265624,1,1.0,2,2
14.24,1.4531907,9.160031,3.2061014,0.8484762907028198,0.19789603352546686,-0.013971325010061264,-0.7353239059448242,-30.83544540405273,-13.120012283325195,-0.155045747756958,0.19745540618896484,-0.1466507911682129,989.7094116210938,1,1.0,2,2
14.28,1.4197079,9.238681,2.6000952999999996,0.9306349158287048,0.14876072108745575,0.0893593356013298,-0.7304902076721191,-31.41115379333496,-11.855325698852539,-0.5106792449951172,0.21143054962158206,-0.21419334411621094,989.6738891601562,1,1.0,2,2
14.32,0.98472154,9.367378,1.804713,0.7419503927230835,0.4331860840320587,-0.09093642234802246,-0.3170037269592285,-32.9207763671875,-11.21483039855957,-0.0772789716720581,-0.049233436584472656,0.6056623458862305,989.6713256835938,1,1.0,2,2
14.36,0.2796765,8.897872,2.1195487999999996,0.5866884589195251,0.3650091588497162,-0.2533890008926392,0.2065391540527344,-33.537643432617195,-9.873697280883787,0.29213786125183105,0.3849325180053711,0.5198071002960205,989.668701171875,1,1.0,2,2
14.4,0.79587114,9.388829,2.5503774,0.5720413327217102,-0.05523734167218208,-0.3709673285484314,0.6174173355102539,-34.31215667724609,-9.352800369262695,-0.20885378122329712,0.2064800262451172,-0.31832194328308105,989.673583984375,1,1.0,2,2
14.44,0.40868294,9.348313000000001,1.8402145,0.61345374584198,-0.08519792556762695,-0.23740984499454496,1.294581413269043,-34.837520599365234,-8.579580307006836,0.03318256139755249,0.15828418731689453,-0.2786509990692139,989.7235717773438,1,1.0,2,2
14.48,0.07168269,9.3506975,2.0532605999999998,0.5492717623710632,0.24609899520874026,-0.28987398743629456,1.740732192993164,-36.15827560424805,-8.340093612670897,0.4508635997772217,0.5038566589355469,-0.4764316082000733,989.7235717773438,1,1.0,2,2
14.52,0.7002028,9.469861,1.6011226,0.5854910016059875,0.03917152062058449,-0.2681691646575928,2.1921534538269043,-37.31669235229492,-7.110124588012695,-0.033183157444000244,0.3752784729003906,-0.19496583938598636,989.7083129882812,1,1.0,2,2
14.56,0.67873377,9.634307000000002,0.84362155,1.1676578521728516,-0.9667036533355712,-0.35951536893844604,1.8968152999877932,-37.69975662231445,-5.194574356079102,-1.0064388513565063,0.06541633605957031,-0.8437557816505432,989.761474609375,1,1.0,2,2
14.6,-1.338365,9.02657,-1.2631905,1.1552739143371582,-0.7601755857467651,-0.6294266581535339,1.872133731842041,-39.567718505859375,-3.3108310699462886,1.446907877922058,0.7529697418212891,1.1929093599319458,989.7408447265624,1,1.0,2,2
14.64,-1.085057,9.121903,-0.71163434,0.5291652679443359,0.010009923949837685,-0.5292918682098389,2.754410743713379,-39.743019104003906,-2.512716293334961,0.9073141813278198,0.8009529113769531,1.5991762876510618,989.7205810546876,1,1.0,2,2
14.68,-0.2533927,9.732022,0.27311984,-0.13063211739063266,-0.05497118830680847,-0.12675529718399048,3.381600379943848,-40.52545166015625,-2.4096126556396484,0.3615227937698364,0.008089065551757812,0.4144259691238403,989.6925659179688,1,1.0,2,2
14.72,0.14330947,9.739173,2.1076999,-0.8928278088569641,0.8997711539268494,0.17644551396369934,3.9958343505859375,-39.15900039672852,-4.354860305786134,-0.2083001434803009,-0.07701396942138672,-0.8504313230514526,989.745361328125,1,1.0,2,2
14.76,-0.60475135,9.281585,0.7181499,-0.03156198188662529,0.6062910556793213,0.03902661055326462,4.535446166992188,-38.70532989501953,-6.158212661743164,0.9031886458396912,0.691741943359375,0.7940110564231873,989.7554931640624,1,1.0,2,2
14.8,-0.11245319,9.372149,0.59505343,-0.03156198188662529,0.6062910556793213,0.03902661055326462,4.535446166992188,-38.70532989501953,-6.158212661743164,0.7766246795654297,0.647028923034668,0.7329077720642091,989.7554931640624,1,1.0,2,2
14.84,0.9032334999999999,10.041852,1.1584457000000001,0.12716250121593475,0.13717558979988098,0.16978779435157776,4.671100616455078,-37.999366760253906,-5.373598098754883,-1.238487958908081,-0.4482345581054688,0.05640554428100586,989.71728515625,1,1.0,2,2
14.88,-0.38494515,9.102839,0.9264578000000001,-0.1748393028974533,0.6447736024856567,-0.26563847064971924,5.544085502624512,-38.70972442626953,-5.235603332519531,0.1938544511795044,0.4983015060424805,0.4065275192260742,989.7678833007812,1,1.0,2,2
14.92,0.31049484,9.629545,1.8165240000000002,-0.1748393028974533,0.6447736024856567,-0.26563847064971924,6.417506217956543,-38.682029724121094,-5.371816635131836,-0.8859332799911499,-0.04441738128662109,-1.1578941345214844,989.7678833007812,1,1.0,2,2
14.96,0.46342695,9.839274000000001,0.4624822,0.05086362361907959,0.28511396050453186,-0.15272045135498047,7.21910285949707,-38.56373977661133,-5.19432258605957,-0.5441719889640808,0.0691518783569336,1.3275810480117798,989.7376098632812,1,1.0,2,2
15.0,-0.36828053,9.93699,0.13343912,0.3367539346218109,0.5678082108497621,-0.3648409247398377,8.647890090942383,-39.2278938293457,-4.913724899291992,-0.2908814549446106,-0.205378532409668,0.2792662978172302,989.729736328125,1,1.0,2,2
15.04,0.14791676,9.984653999999999,1.908839,-0.07963074743747711,0.3114791810512543,-0.4367461800575256,9.120267868041992,-38.25891494750977,-4.812261581420898,-1.1797263622283936,-0.37801265716552734,-0.7363686561584473,989.7345581054688,1,1.0,2,2
15.08,-1.0016477,9.558049,-0.36367732,-0.07963074743747711,0.3114791810512543,-0.4367461800575256,9.120267868041992,-38.25891494750977,-4.812261581420898,-0.4149265289306641,0.18956565856933594,0.8466857671737671,989.7345581054688,1,1.0,2,2
15.12,-1.3075767,9.460336,2.0627031000000002,0.06351445615291595,0.1859111487865448,-0.5356823801994324,11.413755416870115,-38.58646011352539,-6.301279067993164,-0.03194928169250488,0.3323984146118164,-2.0695815086364746,989.7597045898438,1,1.0,2,2
15.16,-1.1737636,8.976529,1.7052536,0.06351445615291595,0.1859111487865448,-0.5356823801994324,11.413755416870115,-38.58646011352539,-6.301279067993164,0.061627388000488274,0.8168039321899414,-1.9348207712173464,989.7597045898438,1,1.0,2,2
15.2,-0.6002088000000001,9.808294,-0.16010384,0.21651335060596466,0.1671358197927475,-0.18068309128284452,11.31576156616211,-39.15304946899414,-5.098260879516602,-0.3264138102531433,0.1821269989013672,1.663043975830078,989.7947387695312,1,1.0,2,2
15.24,-0.70299613,9.677214999999999,1.1868323,0.3696452081203461,-0.07388009130954742,-0.11410403996706008,11.6141357421875,-39.558998107910156,-4.273658752441406,-0.2284164428710937,0.14858055114746094,-0.2134484052658081,989.683349609375,1,1.0,2,2
15.28,-0.85119164,9.395988000000001,-1.4194593,0.5388891100883484,-0.3793444335460663,-0.3841482698917389,11.72886562347412,-39.76816177368164,-3.432270050048828,0.20143938064575195,0.1936016082763672,1.0191709995269775,989.6906127929688,1,1.0,2,2
15.32,3.768467,9.391223,1.0447959999999998,0.2817613482475281,-0.5224893093109131,-0.3788218200206757,11.281841278076172,-39.92350769042969,-3.1233425140380864,-5.156999588012695,-1.4682149887084959,-3.571998119354248,989.7464599609376,1,1.0,2,2
15.36,-7.731762400000001,10.952270500000001,3.1800108,-0.1973406970500946,-3.436251401901245,-0.9487377405166626,10.99191665649414,-39.24634552001953,-3.8111495971679688,2.5283434391021733,-2.357760429382324,-3.6395983695983887,989.6693725585938,1,1.0,2,2
15.4,-4.0585046,8.221034,1.111074,-0.3456784188747406,-0.754983127117157,-2.514941453933716,13.58323860168457,-39.611549377441406,-4.574014663696289,2.523404359817505,1.842406272888184,0.8083661794662476,989.7285766601562,1,1.0,2,2
15.44,-2.2254715,9.686751,2.289939,-0.04221127554774285,-0.15723712742328644,-0.334479957818985,13.89256477355957,-39.37504577636719,-3.86567497253418,-1.2303367853164673,-0.5025196075439453,-0.7916228771209717,989.6517944335938,1,1.0,2,2
15.48,-2.5672493,9.558055,0.9974443000000001,0.4651207029819489,-0.2915935516357422,-0.17628824710845947,14.55021858215332,-39.70772552490234,-3.4856472015380864,-0.8285496234893799,-0.4452533721923828,-0.03296339511871338,989.6671752929688,1,1.0,2,2
15.52,-3.2465248,8.940799,1.1110202,0.46871617436409,0.3052203357219696,-0.4130429923534393,15.103519439697266,-40.03276062011719,-3.0899829864501958,-0.18699359893798828,0.25835132598876953,-0.3659156560897827,989.7052001953124,1,1.0,2,2
15.56,-3.2925076,8.804965,0.646996,0.5716486573219299,0.15302056074142456,-0.5443360805511475,16.490510940551758,-40.89460754394531,-1.9445476531982424,-0.2747693061828613,0.3117475509643555,-0.4016133546829224,989.73291015625,1,1.0,2,2
15.6,-2.797861,9.198209,0.11673687,0.7321085333824158,-0.05363810807466507,-0.5142325162887573,17.54037094116211,-41.54526138305664,-0.9134922027587892,-0.5919749736785889,0.11062335968017578,-0.2238087952136993,989.7200317382812,1,1.0,2,2
15.64,-3.5053358,8.876468,-0.16733322,0.8807133436203003,-0.1296713948249817,-0.5299448370933533,17.69858169555664,-41.02903747558594,0.10970306396484376,-0.9634635448455809,-0.2025737762451172,-0.06798939406871796,989.747802734375,1,1.0,2,2
15.68,-4.4852586,8.485612,-0.7236315999999999,0.7847070693969727,-0.014223553240299225,-0.7939968109130859,19.12665557861328,-42.64308166503906,2.062662124633789,0.36322832107543945,0.43892765045166016,0.19271165132522586,989.757568359375,1,1.0,2,2
15.72,-4.002562,8.704875,-0.31647855,0.7134681940078735,0.021728988736867905,-0.7192949056625366,20.87862777709961,-42.53125381469727,3.4797992706298833,-0.30624866485595703,-0.01767444610595703,-0.4282090365886688,989.7451782226562,1,1.0,2,2
15.76,-4.698087,8.187705000000001,-2.0800502,1.0065493583679201,-0.2836022973060608,-0.6632351279258728,21.605220794677734,-42.431243896484375,4.824686050415039,0.2019181251525879,0.4004583358764648,1.259845733642578,989.732177734375,1,1.0,2,2
15.8,-4.475889,8.054242,-2.1723769,1.2571532726287842,-0.2349997162818909,-0.7231560349464417,22.45469665527344,-42.90132141113281,6.7228851318359375,-0.8053250312805176,0.1826610565185547,0.3689879179000855,989.7092895507812,1,1.0,2,2
15.84,-4.6838746,7.730117999999999,-2.4659157000000005,1.0138742923736572,-0.3163593113422394,-0.5812093615531921,23.61515617370605,-43.02751159667969,8.553037643432617,-0.3003344535827637,0.4600696563720703,0.797027587890625,989.6987915039062,1,1.0,2,2
15.88,-5.202546599999999,7.441742999999999,-3.067191,0.912408709526062,-0.14112357795238495,-0.6392660140991211,24.90472412109375,-43.61198425292969,9.928205490112305,-0.14223814010620114,0.5366621017456055,0.8383262157440186,989.7089233398438,1,1.0,2,2
15.92,-5.3364444,7.513242699999999,-3.2873464,0.564068615436554,-0.13699586689472198,-0.5969212055206299,27.003522872924805,-43.65050506591797,12.917367935180664,-0.18987703323364255,0.1516728401184082,0.7932310104370117,989.7188720703124,1,1.0,2,2
15.96,-6.0104604,7.4417458,-2.816279,0.564068615436554,-0.13699586689472198,-0.5969212055206299,27.003522872924805,-43.65050506591797,12.917367935180664,0.0681600570678711,0.08679866790771484,0.4012765884399414,989.7188720703124,1,1.0,2,2
16.0,-6.242344,7.291600999999999,-2.8470583,0.3623349964618683,0.07312726229429245,-0.572020411491394,28.16412353515625,-43.67077255249024,14.048444747924805,0.4827837944030762,0.17348003387451172,0.41898655891418457,989.7188720703124,1,1.0,2,2
16.04,-5.678391,7.263003299999999,-3.4578027999999996,0.4717920422554016,0.0783202201128006,-0.4142277240753174,29.513530731201172,-42.619140625,15.780562400817873,-0.4752779006958008,0.010781288146972656,0.8992931842803955,989.7337036132812,1,1.0,2,2
16.08,-5.9676323,6.941262200000001,-3.230557,0.4717920422554016,0.0783202201128006,-0.4142277240753174,29.513530731201172,-42.619140625,15.780562400817873,-0.15665292739868164,0.1708521842956543,0.3781280517578125,989.7337036132812,1,1.0,2,2
16.12,-6.027444,6.7005525,-3.3844309999999997,0.35341525077819824,0.14942646026611328,-0.4435222148895264,30.5556755065918,-42.17082214355469,16.825489044189453,-0.3178939819335937,0.2486190795898437,0.6396548748016357,989.766357421875,1,1.0,2,2
16.16,-6.409891,6.574240700000001,-3.0790677000000004,0.35341525077819824,0.14942646026611328,-0.4435222148895264,31.487083435058594,-42.35288619995117,17.770395278930664,-0.11897850036621095,0.1491084098815918,-0.01024460792541504,989.766357421875,1,1.0,2,2
16.2,-6.4195137,6.4717607,-2.911002,0.310806542634964,-0.2732171416282654,-0.6453888416290283,33.649856567382805,-40.69697570800781,18.2640380859375,-0.4399991035461426,0.014482498168945312,-0.33533191680908203,989.7232666015624,1,1.0,2,2
16.24,-6.6490083,5.9283752,-2.6340451000000003,0.29456186294555664,-0.22461459040641785,-0.7493849992752075,34.52121353149414,-40.30245971679688,18.10667991638184,-0.014957904815673828,0.5069594383239746,-0.2470467090606689,989.7206420898438,1,1.0,2,2
16.28,-7.064914,5.4636374000000005,-2.645887,0.29456186294555664,-0.22461459040641785,-0.7493849992752075,34.52121353149414,-40.30245971679688,18.10667991638184,0.1195821762084961,0.6143660545349121,-0.3726069927215576,989.7206420898438,1,1.0,2,2
16.32,-6.77102,5.4541059999999995,-2.4659853,0.2784503698348999,-0.1825367659330368,-0.6499157547950745,36.59914779663086,-38.83159255981445,19.009143829345703,-0.5396494865417479,0.358548641204834,-0.7086336612701416,989.7180786132812,1,1.0,2,2
16.36,-7.1367389999999995,5.187180000000001,-2.544109,0.2784503698348999,-0.1825367659330368,-0.6499157547950745,36.59914779663086,-38.83159255981445,19.009143829345703,-0.3936367034912109,0.3879036903381348,-0.6056323051452637,989.7180786132812,1,1.0,2,2
16.4,-7.4259796,4.841606,-3.0554304,0.4073478579521179,-0.3633653521537781,-0.6246154308319092,37.782875061035156,-38.19763565063477,19.405515670776367,-0.4851365089416504,0.2777032852172852,-0.17684149742126465,989.7252197265624,1,1.0,2,2
16.44,-7.7128315,4.5913634000000005,-2.421026,0.6355812549591064,-0.4628344774246216,-0.7338046431541443,39.58661651611328,-37.61542510986328,20.017311096191406,-0.31734228134155273,0.16509723663330078,-0.07619786262512207,989.7203369140624,1,1.0,2,2
16.48,-8.539802,3.8501656000000004,-2.5962047999999998,0.7213355302810669,-0.5109045505523682,-0.8549780845642091,40.61259460449219,-36.33934020996094,20.939306259155273,0.059077262878417976,0.4808366298675537,-0.5752348899841309,989.7176513671876,1,1.0,2,2
16.52,-8.562459,3.5903578,-2.5913568,0.7350514531135559,-0.8627079725265503,-0.9774832129478456,42.062744140625,-35.35030746459961,20.888925552368164,0.04555797576904297,0.3849680423736572,0.03917193412780762,989.7379150390624,1,1.0,2,2
16.56,-9.391766,2.9182734,-2.4469585,0.7309184670448303,-0.8750908374786377,-0.9292821288108826,44.82037353515625,-32.821304321289055,21.23981475830078,0.2845745086669922,0.5391306877136229,-0.028763771057128906,989.7453002929688,1,1.0,2,2
16.6,-9.463475,2.7633607000000002,-2.5203428,0.5407629609107971,-0.7424646019935608,-0.7897351980209351,45.89320373535156,-33.343944549560554,20.41221809387207,0.832545280456543,0.6761233806610107,0.18611407279968264,989.7781982421876,1,1.0,2,2
16.64,-9.11695,2.710929,-2.2386467,0.17071713507175446,-0.4596371054649353,-0.35603976249694824,45.96133422851562,-31.962848663330078,19.78201484680176,0.2615194320678711,0.7767858505249023,0.02948880195617676,989.7831420898438,1,1.0,2,2
16.68,-9.16715,3.068421,-2.1344907,-0.009045973420143127,-0.3204870820045471,-0.11276015639305115,46.4132194519043,-31.17094612121582,19.66604423522949,-0.0378570556640625,0.21713829040527344,-0.11733567714691162,989.7657470703124,1,1.0,2,2
16.72,-10.553303999999999,2.4535353,-2.2457504,0.034896258264780045,-0.2555060088634491,-0.14857961237430573,46.2546272277832,-30.792665481567386,19.66834831237793,1.7797574996948242,0.9470338821411132,0.6248314380645752,989.7420043945312,1,1.0,2,2
16.76,-9.22214,3.3329651,-2.1084537999999995,0.12357956171035768,-0.4608355760574341,-0.1290053427219391,46.3647689819336,-31.426549911499023,18.918624877929688,-0.019317626953125,-0.15383052825927734,0.4097809791564941,989.8335571289062,1,1.0,2,2
16.8,-9.336867,3.7309732,-1.7817808000000002,-0.11304199695587157,-0.19625073671340945,0.2745964527130127,46.180824279785156,-31.86190986633301,18.510536193847656,0.5171937942504883,-0.32723188400268555,-0.11932921409606935,989.8765258789062,1,1.0,2,2
16.84,-9.281911000000001,3.6928410000000005,-0.61238396,-0.3545903563499451,-0.01249280385673046,0.3242643773555756,45.4841194152832,-32.356124877929695,18.41586303710937,0.2301845550537109,-0.2784769535064697,-1.0777593851089478,989.6965942382812,1,1.0,2,2
16.88,-9.520912,3.4807296,-1.4716794,-0.2223644256591797,-0.061628103256225586,0.19616647064685824,45.57450866699219,-31.79690361022949,17.599369049072266,0.6598424911499023,0.15054941177368164,-0.3929463624954224,989.6734008789062,1,1.0,2,2
16.92,-9.174388,3.3353498,-1.8622689,0.17324788868427274,-0.07574285566806792,0.08431386947631836,45.19764709472656,-32.15022659301758,18.370975494384766,0.16250228881835938,0.2273814678192139,0.07402360439300537,989.7489013671876,1,1.0,2,2
16.96,-9.504205,3.1661372,-1.6255496999999999,0.2325033098459244,-0.1560371071100235,0.044100217521190636,45.49615478515625,-32.45025634765625,18.49649810791016,0.4644308090209961,0.41938257217407227,0.009430527687072754,989.759521484375,1,1.0,2,2
17.0,-9.238938000000001,3.1828203,-1.5142921999999999,0.12704230844974518,-0.1789402961730957,0.10681765526533127,44.96693420410156,-32.313491821289055,18.26211166381836,0.17235851287841794,0.4924681186676026,-0.1181330680847168,989.7743530273438,1,1.0,2,2
17.04,-8.784867,3.6189609,-1.6042469,0.08496452122926712,-0.10836660116910933,0.2451687902212143,44.79045867919922,-32.847396850585945,18.166576385498047,-0.27898216247558594,0.09740781784057616,0.043760895729064934,989.7772216796876,1,1.0,2,2
17.08,-8.402495,4.1051497,-1.6397561,0.07977147400379181,-0.037526603788137436,0.3258625566959381,44.55115509033203,-33.38779067993164,18.6199951171875,-0.5613794326782227,-0.2326490879058838,-0.029133200645446774,989.7819213867188,1,1.0,2,2
17.12,-8.677346,3.9430870000000002,-1.4338104999999999,0.2048068791627884,-0.2187545746564865,0.18444888293743134,43.98470306396485,-33.44430923461914,19.01852798461914,-0.07054996490478516,0.05356526374816895,-0.26482295989990234,989.76708984375,1,1.0,2,2
17.16,-9.274833000000001,3.6618607000000005,-1.3296546999999999,-0.04313308373093605,-0.04032295569777489,0.06647098064422607,43.559967041015625,-33.209266662597656,18.06942749023437,0.4081869125366211,0.3264989852905273,-0.2664558887481689,989.7841796875,1,1.0,2,2
17.2,-8.882899,3.8096242,-1.4787894,-0.17429353296756744,0.08045127987861632,0.1243947371840477,43.83839416503906,-34.160587310791016,18.775047302246094,-0.007656097412109375,0.2072627544403076,-0.2427519559860229,989.7412719726562,1,1.0,2,2
17.24,-9.136241,3.7047602999999993,-1.1095068000000001,-0.020229697227478027,-0.08679511398077011,0.13811005651950836,43.25354766845703,-33.548736572265625,17.905559539794922,0.4240036010742188,0.4514439105987549,-0.24657618999481198,989.7791748046876,1,1.0,2,2
17.28,-8.9355,3.9645379000000003,-1.6255579,-0.08188171684741974,0.029185436666011814,0.16620640456676486,43.45751953125,-34.094661712646484,16.982257843017578,0.020303726196289062,0.04790401458740234,0.095658540725708,989.7384643554688,0,0.0,0,1
17.32,-9.050227,3.9025729,-1.2917836,-0.030615687370300293,-0.034464094787836075,0.2379786223173141,42.697853088378906,-34.70128631591797,18.13561248779297,0.2110538482666016,0.2522611618041992,-0.08153939247131348,989.7359619140624,0,0.0,0,1
17.36,-8.173144,4.3673124,-1.2752142,-0.030615687370300293,-0.034464094787836075,0.2379786223173141,42.697853088378906,-34.70128631591797,18.13561248779297,-0.20219707489013672,0.08244895935058594,-0.2937295436859131,989.7359619140624,0,0.0,0,1
17.4,-8.443214999999999,4.3482465999999995,-1.6989446,0.02158244326710701,-0.03100202418863773,-0.009561870247125627,42.31098937988281,-35.747596740722656,17.024700164794922,-0.009552955627441406,0.03186178207397461,0.05727982521057129,989.725830078125,0,0.0,0,1
17.44,-8.216187,4.4483440000000005,-1.4030452,-0.013304825872182846,-0.06788678467273712,-0.01914919354021549,42.10174560546875,-35.36402130126953,16.957515716552734,-0.581486701965332,-0.1723613739013672,0.13501882553100586,989.7662353515624,0,0.0,0,1
17.48,-8.96466,3.9716997000000003,-1.343905,-0.013304825872182846,-0.06788678467273712,-0.01914919354021549,42.10174560546875,-35.36402130126953,16.957515716552734,0.04185581207275391,0.2064452171325684,0.03655064105987549,989.7662353515624,0,0.0,0,1
17.52,-9.084617,3.6809506,-1.6138082,-0.140603706240654,0.03025059029459953,-0.12727339565753934,41.88533020019531,-34.249755859375,17.00265121459961,0.4413423538208008,0.5523700714111328,0.3513040542602539,989.7456665039062,0,0.0,0,1
17.56,-8.957997,4.062276399999999,-1.3841938,-0.14565803110599518,0.06913391500711441,0.18512292206287384,42.16693878173828,-35.09221649169922,16.854581832885742,0.22818374633789065,0.07619524002075195,-0.07805109024047853,989.7582397460938,0,0.0,0,1
17.6,-8.403585000000001,4.5174837,-1.1096025,-0.14086391031742096,0.1516917645931244,0.20536312460899356,41.548744201660156,-34.40685272216797,16.986724853515625,-0.3704185485839844,-0.234553337097168,-0.09832453727722168,989.733154296875,0,0.0,0,1
17.64,-8.028416,4.6509485,-1.5641096,-0.14086391031742096,0.1516917645931244,0.20536312460899356,41.93609237670898,-35.36139678955078,17.444795608520508,-0.5364551544189453,-0.20882320404052732,-0.044979095458984375,989.733154296875,0,0.0,0,1
17.68,-8.245942999999999,4.6914654,-1.2989868999999998,-0.16376663744449615,0.10442062467336656,0.07806432992219925,41.81787872314453,-35.89323043823242,17.0322265625,-0.3697023391723633,-0.21950817108154294,-0.08944594860076904,989.7506713867188,0,0.0,0,1
17.72,-8.8530245,4.2457933,-1.6611732,-0.11303302645683287,0.047029487788677216,-0.06388185918331146,42.46825408935547,-34.388870239257805,17.15191650390625,0.4298429489135742,0.26349353790283203,0.17009210586547852,989.7531127929688,0,0.0,0,1
17.76,-8.783763,4.233878,-1.7345606,-0.11303302645683287,0.047029487788677216,-0.06388185918331146,42.46825408935547,-34.388870239257805,17.15191650390625,0.4404611587524414,0.3088521957397461,0.2095785140991211,989.7531127929688,0,0.0,0,1
17.8,-8.802928,4.257712000000001,-2.2742867,-0.07614782452583313,0.09376785159111024,-0.16255168616771698,42.11628723144531,-35.08692169189453,16.785093307495114,-0.17040348052978516,0.03194427490234375,0.8349517583847046,989.7654418945312,0,0.0,0,1
17.84,-8.822092999999999,4.2982287,-1.4789112,-0.10890424251556396,0.12239674478769302,-0.011816713958978651,42.36124038696289,-35.2786865234375,16.296661376953125,0.4729900360107422,0.20803070068359372,-0.08771896362304688,989.7374877929688,0,0.0,0,1
17.88,-8.451703,4.503191999999999,-1.1191006000000001,-0.2568422853946686,0.16966773569583893,-0.03112442791461945,41.9272346496582,-35.15840530395508,16.51047134399414,-0.7506976127624512,-0.07149600982666016,-0.09623384475708008,989.7730712890624,0,0.0,0,1
17.92,-8.948848,4.357813,-1.6990693,-0.3094392120838165,-0.059497147798538215,0.10669422894716264,42.57396697998047,-34.9212646484375,15.935029983520508,0.7809419631958008,0.23644256591796875,0.2333173751831055,989.7476196289062,0,0.0,0,1
17.96,-7.985763,4.858302,-1.1001713,0.07632021605968475,-0.5081063508987427,0.07646774500608444,41.61445617675781,-34.923641204833984,15.15921401977539,-0.4627199172973633,-0.2877964973449707,0.0004966259002685547,989.7476196289062,0,0.0,0,1
18.0,-8.315616,4.791571599999999,-1.130949,-0.13140572607517242,-0.44765278697013855,0.08352531492710114,41.431495666503906,-34.989227294921875,14.57537078857422,-0.3450794219970703,-0.28897666931152344,0.1490299105644226,989.7349853515624,0,0.0,0,1
18.04,-7.8974285,5.118082,-0.22904916,-0.22301796078681946,-0.15577064454555511,0.001633365754969418,41.38372039794922,-35.5072135925293,13.227323532104492,-0.7171592712402344,-0.4636054039001465,-0.9781448841094972,989.7523193359376,0,0.0,0,1
18.08,-9.006389,4.2219706,-0.08465399,-0.07960641384124756,-0.2664249241352081,-0.10063174366950987,41.56407928466797,-34.706512451171875,13.691569328308105,0.3387870788574219,0.27561283111572266,-0.9208555817604064,989.75244140625,0,0.0,0,1
18.12,-8.330092,4.6604953,-0.5415281999999999,0.21347464621067047,-0.20610447227954865,-0.16428105533123016,41.903709411621094,-34.54646682739258,13.552885055541992,-0.4849042892456055,-0.3815293312072754,-0.11225080490112303,989.7523193359376,0,0.0,0,1
18.16,-8.939563,3.7024178999999995,-0.9321208000000001,0.21866825222969052,0.032514486461877816,-0.01833975873887539,41.188636779785156,-33.95201873779297,14.013213157653807,-0.23190021514892575,1.5566823482513428,0.08420854806900024,989.7572631835938,0,0.0,0,1
18.2,-8.311065,4.574699400000001,-0.768788,0.24796344339847565,-0.20450671017169952,0.11361994594335555,41.47633361816406,-34.78858184814453,13.55592441558838,-0.16087913513183594,-0.05857658386230469,-0.034775614738464355,989.76708984375,0,0.0,0,1
18.24,-8.370858,4.226742,-1.1641151,0.4467686712741852,-0.6413979530334473,0.06022379919886589,41.28369140625,-34.49472045898437,13.337461471557615,-0.3534841537475586,0.10071039199829103,0.851547360420227,989.737060546875,0,0.0,0,1
18.28,-8.081725,4.481753299999999,-1.0646966,0.4968365132808685,-0.5720227360725403,-0.00036287211696617305,41.021156311035156,-34.58300018310547,14.15292739868164,-0.6704063415527344,0.14562129974365234,0.3043026924133301,989.7597045898438,0,0.0,0,1
18.32,-8.942136,4.293476,-0.8114102,0.4859179854393005,-0.5178275108337402,0.07061050832271576,40.627967834472656,-34.634780883789055,13.677655220031738,0.3494873046875,0.13216686248779294,0.4234982132911682,989.7238159179688,0,0.0,0,1
18.36,-8.896773,3.8287375,-1.4103165000000002,0.5863195061683655,-0.03672799840569496,-0.15069781243801114,40.49513626098633,-33.91707229614258,14.887877464294435,0.012310028076171877,0.8599934577941895,0.6111915707588196,989.7391357421876,0,0.0,0,1
18.4,-8.884869,4.162397400000001,-1.1522957,0.3977683186531067,-0.002639641519635916,0.007893484085798264,40.55641174316406,-35.12432098388672,15.48796558380127,0.26351356506347656,0.02408599853515625,0.5344004631042479,989.7437744140624,0,0.0,0,1
18.44,-8.583787,4.164782499999999,-0.5036864000000001,0.029187589883804318,0.21041299402713776,0.2205469012260437,40.24517822265625,-34.4677734375,15.882431030273438,-0.18993282318115234,0.3757176399230957,-0.27869415283203125,989.7412109375,0,0.0,0,1
18.48,-8.422099000000001,4.6104164,-1.0882423,0.044900663197040565,-0.21183091402053836,0.20283709466457367,40.09819030761719,-34.92168426513672,16.239578247070312,-0.4275712966918945,-0.4544777870178223,0.6272985339164734,989.77685546875,0,0.0,0,1
18.52,-9.079303999999999,4.1599765,-0.87519234,0.2397053837776184,-0.3684237599372864,0.08112844079732895,39.51236343383789,-34.679595947265625,15.545843124389648,0.4249868392944336,0.8619306087493896,0.2409858107566833,989.7588500976562,0,0.0,0,1
18.56,-8.971739,4.8201447,-0.7662993,0.1587357223033905,-0.15057583153247833,0.044639036059379585,39.25202941894531,-35.028778076171875,15.68337631225586,0.574040412902832,-0.1686558723449707,-0.08987408876419067,989.7738647460938,0,0.0,0,1
18.6,-8.400533,5.1371199999999995,-0.8586184000000001,-0.013704182580113413,0.4812586605548858,0.05822098627686501,38.35577774047852,-35.07857131958008,16.979164123535153,0.3417081832885742,0.26202917098999023,-0.2645179033279419,989.78662109375,0,0.0,0,1
18.64,-8.950192,4.37447,-1.225533,-0.013704182580113413,0.4812586605548858,0.05822098627686501,38.35577774047852,-35.07857131958008,16.979164123535153,0.8519258499145508,0.9760446548461914,0.012376070022583008,989.78662109375,0,0.0,0,1
18.68,-8.704013,4.948840000000001,-1.1095383,0.16312937438488007,0.2680728435516357,0.12892776727676392,38.807472229003906,-36.025150299072266,16.810977935791016,-0.28715991973876953,-0.4711503982543945,0.2028997540473938,989.7656860351562,0,0.0,0,1
18.72,-9.174806,4.998888,-0.35913348,0.3001486957073212,-0.13060201704502106,0.00935186631977558,38.65581512451172,-35.37712860107422,17.027381896972653,1.070124626159668,-0.059992313385009766,-0.5829861164093018,989.7484741210938,0,0.0,0,1
18.76,-7.9296465,5.1990833,-1.7250075,0.496689647436142,-0.1602962166070938,-0.032459806650877006,38.79269409179688,-35.30182647705078,17.309822082519528,-0.6278386116027832,-0.9002752304077148,0.414167046546936,989.7255249023438,0,0.0,0,1
18.8,-8.479305,3.9144957000000002,-1.8575689999999998,0.724789023399353,0.07219758629798889,-0.17720258235931394,38.4110221862793,-34.659141540527344,18.63976287841797,-0.2322320938110352,0.6684284210205078,0.5992100238800049,989.7406005859376,0,0.0,0,1
18.84,-8.38608,4.0288925,-1.7818168,0.6076098680496216,-0.06681927293539047,-0.2359253019094467,39.09054565429688,-34.91918182373047,19.858999252319336,-0.08909416198730469,0.3224458694458008,0.3407331705093384,989.7534790039062,0,0.0,0,1
18.88,-8.213988,3.7500482,-2.226849,0.2283758372068405,0.14223872125148773,-0.0372537337243557,39.232826232910156,-34.575607299804695,20.432846069335934,-0.6764359474182129,0.5869395732879639,1.1164840459823608,989.7325439453124,0,0.0,0,1
