Timestamp,Ax,Ay,Az,Gx,Gy,Gz,Mx,My,Mz,LiAx,LiAy,LiAz,P,Value,Type,GroupType
0.0,0.097569525,-0.14706787,9.771834,-0.0007771157543174922,0.002864896086975932,0.0002970178320538253,-7.139693737030028,13.319149017333984,-17.257265090942386,-0.018098525702953342,-0.003104269504547119,0.04384899139404297,989.9727783203124,0,0.0,0
0.04,0.08560607,-0.14706752,9.750529,0.0005480969557538629,-0.00025285608717240393,-0.00020551774650812152,-7.034120082855225,12.68084716796875,-17.77507972717285,-0.013285420835018158,0.006472155451774597,0.05805301666259765,989.9594116210938,0,0.0,0
0.08,0.08798206,-0.13753408,9.76473,0.0005480969557538629,-0.00025285608717240393,-0.00020551774650812152,-7.034120082855225,12.68084716796875,-17.77507972717285,-0.008315950632095337,-0.007829815149307251,0.043849945068359375,989.9594116210938,0,0.0,0
0.12,0.09274787,-0.13991702,9.757628,1.5599769540131092e-05,-0.0002528779150452465,-0.0002054601209238172,-6.866099834442139,12.943540573120115,-17.81633949279785,-0.008425600826740265,0.0064786672592163095,0.034381866455078125,989.9638061523438,0,0.0,0
0.16,0.097513735,-0.14468321,9.7552595,0.0004152078181505203,0.00014657409337814895,-0.0006048762006685138,-7.1371941566467285,13.690387725830078,-17.51032829284668,-0.022436484694480896,-0.0072706788778305045,0.04859161376953125,989.9585571289062,0,0.0,0
0.2,0.09749979,-0.13753304,9.769461999999999,0.0006816583918407558,-0.0010518691269680858,-7.218681275844574e-05,-6.623348712921143,13.012672424316404,-17.626840591430664,-0.017415396869182587,0.002501994371414185,0.02965831756591797,990.0086669921876,0,0.0,0
0.24,0.09031612,-0.14468256,9.771828,0.0005486347945407033,-0.0005192593089304863,0.00019418657757341862,-6.928355693817139,13.78101921081543,-18.240671157836914,-0.002282150089740753,-0.002158164978027344,0.06752872467041016,989.9629516601562,0,0.0,0
0.28,0.08791229,-0.13514909,9.764724000000001,0.0002824531402438879,-0.0010519127827137706,0.00046056002611294383,-7.32570219039917,13.250614166259766,-17.68650245666504,-0.002338446676731109,-0.006909117102622986,0.04386043548583984,989.9749755859376,0,0.0,0
0.32,0.09506804,-0.14229858,9.776558999999999,1.6271951608359814e-05,-0.00011982904106844217,0.0005937755922786891,-6.358043193817139,12.892066955566404,-17.198762893676758,-0.011637575924396515,-0.006463184952735901,0.03913116455078125,989.9878540039062,0,0.0,0
0.36,0.090274304,-0.13514838,9.793128,1.6271951608359814e-05,-0.00011982904106844217,0.0005937755922786891,-6.358043193817139,12.892066955566404,-17.198762893676758,-0.001856975257396698,-0.01106339693069458,0.0107269287109375,989.9878540039062,0,0.0,0
0.4,0.0830906,-0.14468116,9.743414999999999,0.0010816698195412755,1.3307027984410526e-05,-0.00047143030678853387,-6.934878826141357,13.037073135375975,-17.657243728637695,-0.0020753368735313416,0.008370131254196167,0.058079719543457024,990.0006103515624,0,0.0,0
0.44,0.09263629,-0.14706412,9.752884,0.0002828564029186964,-0.0009188203257508576,0.00032757499138824636,-7.188283443450928,12.957630157470705,-17.305612564086914,0.0026453211903572087,0.0037679821252822885,0.06281661987304688,989.9800415039062,0,0.0,0
0.48,0.08067286,-0.13991395,9.741046,0.00041628349572420115,0.00027955742552876467,0.0007271639769896865,-6.718162059783936,12.554946899414062,-17.27750587463379,0.012162141501903534,0.004068344831466675,0.07229328155517578,989.9699096679688,0,0.0,0
0.52,0.09260839,-0.14229685,9.771818,0.00041628349572420115,0.00027955742552876467,0.0007271639769896865,-6.718162059783936,12.554946899414062,-17.27750587463379,-0.02605058252811432,-0.005421355366706847,0.029685020446777344,989.9699096679688,0,0.0,0
0.56,0.092594445,-0.12799683,9.771817,0.0008158915443345903,0.00014637767162639648,-7.172604091465472e-05,-7.073277950286865,12.960298538208008,-17.86237907409668,-0.0067110806703567505,-0.01967349648475647,0.039154052734375,989.985107421875,0,0.0,0
0.6,0.09019059,-0.14944604,9.762347,-0.00038226088508963596,-0.0009189295233227313,-0.0004710847279056906,-7.106349468231201,13.24563980102539,-18.25889778137207,-0.0013523474335670473,0.018597200512886047,0.0580902099609375,989.9852294921876,0,0.0,0
0.64,0.08300692,-0.13991258,9.757611,0.0005499789258465171,-0.0005194774712435901,-0.00020471110474318263,-6.939445018768311,13.03265380859375,-17.42533302307129,0.0032084435224533077,-0.00040413439273834234,0.03915691375732422,989.9771728515624,0,0.0,0
0.68,0.08777279,-0.14944533,9.767078999999999,-0.00011567620094865559,0.0009452379890717566,-0.00033781141974031925,-7.084336757659912,13.424192428588867,-18.118772506713867,-0.001697055995464325,-0.0005976259708404541,0.04862594604492188,989.982177734375,0,0.0,0
0.72,0.09492856,-0.13991186,9.759976,-0.00011554174125194551,-0.00012004737800452858,6.172002758830786e-05,-6.96960973739624,13.21502685546875,-17.277387619018555,-0.0161425918340683,-0.005319029092788696,0.02495574951171875,989.9923095703124,0,0.0,0
0.76,0.08864057,-0.13993350000000002,9.776627000000001,0.00015090848319232464,0.0006788784521631896,-0.0006040121661499143,-6.858190059661865,13.583038330078125,-17.77799415588379,0.0021158382296562195,-0.0004725158214569092,0.03907966613769531,989.9674072265624,0,0.0,0
0.8,0.08627218,-0.13755074,9.752957,-0.0005211409879848361,0.00014726289373356852,0.00032541071414016187,-7.323638439178468,12.883798599243164,-17.665353775024414,0.0020134970545768733,-0.0005621463060379028,0.07695198059082031,989.9999389648438,0,0.0,0
0.84,0.07912403,-0.14946768,9.764794,0.00027551024686545134,-0.0009176278254017234,-0.0003413631930015981,-6.8395209312438965,13.126510620117188,-17.90812873840332,0.006979256868362428,0.004274412989616394,0.04380893707275391,989.9674072265624,0,0.0,0
0.88,0.083925426,-0.14470166,9.757696000000001,0.0009410922648385168,0.0010797750437632203,0.00019117956981062892,-6.9178385734558105,13.685413360595705,-18.08273124694824,-0.007582604885101318,0.004447028040885925,0.03434181213378906,989.9594116210938,0,0.0,0
0.92,0.093506515,-0.13993564,9.776636,0.0008077266393229365,-0.00011861273378599436,0.0003242485108785331,-7.087380886077881,13.421245574951172,-17.96416664123535,-0.021957263350486755,-0.004700794816017151,0.015407562255859375,989.9496459960938,0,0.0,0
0.96,0.09113824,-0.13040301,9.769536,-0.00012458686251193285,0.00041405274532735353,-7.531431037932634e-05,-7.155618190765381,13.146492004394533,-17.70661735534668,-0.007623247802257538,-0.013927280902862549,0.04855155944824219,989.9750366210938,0,0.0,0
1.0,0.08160019,-0.13993672,9.755334,0.0009404692100360991,-0.0005180190782994032,-0.0006080351304262878,-7.040613651275635,13.149160385131836,-18.263383865356445,0.011881999671459198,-0.004197046160697937,0.06275081634521484,990.00244140625,0,0.0,0
1.04,0.08640152,-0.1494703,9.757703999999999,8.155708201229572e-06,-0.0010506169637665153,5.766551475971937e-05,-7.030778408050537,13.315927505493164,-17.504816055297848,0.002630986273288727,0.019525080919265747,0.0627450942993164,989.9771728515624,0,0.0,0
1.08,0.08403319,-0.13993779,9.776643,0.00014110596384853125,-0.00011847780842799692,-0.0004750551888719201,-6.989257335662843,13.301795959472654,-16.971498489379886,-0.011572234332561493,0.0006835460662841798,0.029605865478515625,989.9568481445312,0,0.0,0
1.12,0.08166477,-0.13755497,9.779012,0.0005403721006587149,-0.00038475991459563375,-0.0004751443048007785,-7.0026793479919425,13.500370025634766,-17.673906326293945,-0.001995719969272613,-0.004177853465080261,0.04380416870117188,989.9393920898438,0,0.0,0
1.16,0.084076285,-0.14232206,9.79085,-0.0001256252871826291,-0.00038472627056762576,-7.575948256999254e-05,-6.3808960914611825,12.449670791625975,-17.862211227416992,0.007635973393917085,0.0006676763296127318,0.02486610412597656,989.9694213867188,0,0.0,0
1.2,0.091267526,-0.13517275,9.757710000000001,-0.000525306910276413,1.4781238860450683e-05,0.00032362533966079354,-6.526767253875732,12.471443176269533,-18.379892349243164,-0.007060900330543519,-0.008893713355064392,0.05800724029541016,989.982177734375,0,0.0,0
1.24,0.09128907,-0.1423231,9.771915,0.0001402751076966524,0.001080078654922545,-7.593753980472684e-05,-6.833571910858153,13.026485443115234,-17.518266677856445,-0.011240608990192413,-0.0039363205432891854,0.029595375061035163,989.9694213867188,0,0.0,0
1.28,0.08175099,-0.14232364,9.76245,0.0002732253633439541,-0.0018493625102564688,0.0005897631635889411,-6.618781566619872,13.01708984375,-17.858755111694336,0.002918243408203125,-0.0038978457450866704,0.02486133575439453,989.9795532226562,0,0.0,0
1.32,0.08655238,-0.13994092,9.767186,0.0001398597378283739,0.000680672121234238,0.0001902003132272512,-6.66889238357544,12.654094696044922,-17.82979393005371,-0.01603085547685623,0.0006369948387145996,0.024854660034179688,989.9894409179688,0,0.0,0
1.36,0.08418405,-0.13755816,9.774289999999999,-0.0001266638282686472,-0.0005177156417630613,5.695337313227356e-05,-7.105507373809815,13.50948715209961,-17.73558235168457,0.012764081358909609,-0.003947257995605469,0.04852485656738281,989.9365234375,0,0.0,0
1.4,0.08420554,-0.15185833,9.760089,0.0005389180732890964,-0.001050313701853156,-7.629353785887359e-05,-6.714980602264403,12.663808822631836,-18.131196975708008,0.0036227405071258545,0.01049107313156128,0.05799102783203125,989.9795532226562,0,0.0,0
1.44,0.07944733,-0.13755924,9.755357,-0.0001272869994863868,-0.0003844565362669528,0.00018984425696544352,-6.674544811248778,13.38625717163086,-17.79477882385254,0.003922156989574432,-0.008453279733657837,0.05325126647949219,989.9617919921876,0,0.0,0
1.48,0.07707897,-0.1304099,9.760093,-0.0001272869994863868,-0.0003844565362669528,0.00018984425696544352,-6.56119966506958,13.281532287597654,-17.575162887573242,0.023228362202644348,-0.018190652132034302,0.06744861602783203,989.9617919921876,0,0.0,0
1.52,0.08188033,-0.14232686,9.771930000000001,-0.0001272869994863868,-0.0003844565362669528,0.00018984425696544352,-6.56119966506958,13.281532287597654,-17.575162887573242,-0.005273379385471344,0.000979393720626831,0.029572486877441406,989.9617919921876,0,0.0,0
1.56,0.084291786,-0.13756076,9.774299000000001,-0.0003955655847676098,-0.0011237621074542403,-0.00034623790998011833,-6.553046703338622,12.920612335205078,-17.863237380981445,0.009377464652061462,0.005674928426742554,0.034300804138183594,989.9640502929688,0,0.0,0
1.6,0.08431330000000001,-0.14709449,9.757731,3.7005374906584616e-06,-0.0009905704064294696,-0.0007458009058609606,-6.445109844207764,12.547622680664062,-17.935029983520508,0.009355202317237854,0.005471572279930115,0.06270217895507812,989.9617919921876,0,0.0,0
1.64,0.081945,-0.13994512,9.755365,-0.000662296952214092,-5.843105827807449e-05,-0.0003464160254225135,-6.969608783721924,13.21502685546875,-17.27738380432129,0.014359131455421446,-0.014010205864906313,0.05795669555664064,989.9617919921876,0,0.0,0
1.68,0.06523722400000001,-0.13279581,9.76957,-0.00039618875598534936,-0.00045787123963236814,-0.00034650508314371114,-6.572696208953857,13.00737762451172,-17.55735206604004,0.024065792560577396,-0.004634872078895569,0.06268501281738281,989.9390258789062,0,0.0,0
1.72,0.09333813,-0.13516495,9.778986999999999,-0.0006627124384976922,-0.00045783742098137736,-0.0003465941408649087,-6.326900959014893,13.079458236694336,-17.522462844848633,-0.003266066312789917,-0.00017346441745758057,0.03911590576171875,989.9390258789062,0,0.0,0
1.76,0.07838464,-0.13753316,9.778932000000001,-0.0006627124384976922,-0.00045783742098137736,-0.0003465941408649087,-6.326900959014893,13.079458236694336,-17.522462844848633,0.015941768884658813,-0.009465590119361876,0.053322792053222656,989.9390258789062,0,0.0,0
1.8,0.09508729,-0.13514924,9.76946,1.4362551155500116e-05,-0.0008591433870606124,-0.00047491537407040596,-5.911318302154541,12.415275573730467,-17.932558059692386,-0.012722253799438477,-0.019058510661125183,0.024919509887695312,989.9894409179688,0,0.0,0
1.84,0.07833132,-0.1422984,9.767089,1.4362551155500116e-05,-0.0008591433870606124,-0.00047491537407040596,-5.911318302154541,12.415275573730467,-17.932558059692386,0.011223107576370241,0.004549801349639893,0.029651641845703125,989.9894409179688,0,0.0,0
1.88,0.09503400000000001,-0.144681,9.755252,-0.0002514392253942788,0.0003391947248019278,-7.522135274484754e-05,-5.8202290534973145,13.132427215576172,-17.52665138244629,-0.02700593322515488,0.004395380616188049,0.03438568115234375,989.9642944335938,0,0.0,0
1.92,0.0854477,-0.13753054,9.786022,-0.000384340004529804,0.000205994991119951,-0.00020826910622417927,-5.790746212005615,13.21242904663086,-17.073968887329098,0.006012454628944397,0.004322275519371033,0.034392356872558594,989.9887084960938,0,0.0,0
1.96,0.08303112,-0.13991317,9.767082,-0.0006503989570774138,0.0006054271361790597,0.00032447281409986317,-5.455438137054443,12.367624282836914,-17.307161331176758,0.006076604127883911,0.004417136311531067,0.05806732177734375,989.991455078125,0,0.0,0
2.0,0.08061457,-0.13037941,9.755244,0.00014880583330523225,0.000205911579541862,-0.00020804884843528268,-5.488646030426025,12.547054290771484,-17.004602432250973,0.005735889077186585,-0.00982554256916046,0.06754207611083984,989.991455078125,0,0.0,0
2.04,0.08297777,-0.13991186,9.759975,0.00028222071705386037,7.271188951563091e-05,0.00032469307188875973,-5.543023586273193,12.811773300170898,-16.318857192993164,0.005357310175895691,-0.0001790821552276611,0.05808448791503906,989.9960327148438,0,0.0,0
2.08,0.07339156,-0.14944425,9.764708500000001,0.0002824777620844543,0.0011379336938261984,-0.00020782847423106432,-5.418046474456787,13.087127685546875,-16.816133499145508,0.01463182270526886,0.0044962018728256226,0.0628204345703125,989.9960327148438,0,0.0,0
2.12,0.10443359599999999,-0.13514397,9.774175,-0.00011673902918118985,0.0007384181371890007,0.00032491341698914766,-5.243937969207764,13.355712890625,-17.16661262512207,-0.01866554468870163,-0.0052550286054611215,0.034412384033203125,989.9940795898438,0,0.0,0
2.16,0.080507904,-0.14705968,9.774173,-0.0006491138483397663,0.0003389026678632945,-7.445027586072683e-05,-4.680663585662842,13.303367614746096,-16.711462020874027,0.014618486166000366,0.004214003682136536,0.04861640930175781,989.9788208007812,0,0.0,0
2.2,0.08287111,-0.14705908,9.767068,-0.0005156987463124096,-0.00019377087301108983,-7.434008875861764e-05,-4.7137322425842285,13.588706970214846,-17.107980728149414,0.0004055798053741455,-0.00047904253005981445,0.039154052734375,990.0040283203124,0,0.0,0
2.24,0.07567477,-0.13752523,9.759963,0.0005498217069543898,7.250325870700179e-05,-7.422990165650845e-05,-4.5375590324401855,13.490478515625,-17.437318801879886,0.01474256068468094,-0.0006039589643478394,0.05335712432861328,990.0040283203124,0,0.0,0
2.28,0.09476727,-0.15420762,9.783633,-0.00038202671566978097,-6.069641312933527e-05,0.00019219610840082169,-4.6479973793029785,13.492229461669922,-17.11246681213379,-0.014079891145229341,-0.005244925618171692,0.010752677917480469,989.9800415039062,0,0.0,0
2.32,0.08518106,-0.13514066,9.776529,0.0002840197994373739,0.0008713674615137278,-0.0006066414061933756,-4.523158550262451,13.661666870117188,-16.910669326782227,0.0002199262380599976,-0.014864936470985413,0.03915977478027344,989.9944458007812,0,0.0,0
2.36,0.09232408,-0.13752338,9.776525999999999,-0.00038151262560859317,-0.0005934116779826581,0.00032557436497882014,-4.290380954742432,13.458114624023438,-16.780656814575195,-0.008800894021987915,-0.01509179174900055,0.0202178955078125,989.9764404296876,0,0.0,0
2.4,0.0827378,-0.15182233,9.7623205,-0.000381255813408643,-0.0008597691194154322,-0.00020694732666015625,-4.430983066558838,13.64223861694336,-16.307855606079098,0.01026417315006256,0.013470813632011414,0.053360939025878906,990.00146484375,0,0.0,0
2.44,0.09227073,-0.14943847,9.767053,1.847515522968024e-05,7.229465700220318e-05,-0.000473152962513268,-4.8990397453308105,13.678104400634766,-16.314813613891598,-0.01345989853143692,-0.0007156431674957275,0.05336570739746094,989.9909057617188,0,0.0,0
2.48,0.08268449,-0.14467117,9.778887,0.00041820592014119034,7.225295121315867e-05,0.0011248523369431496,-4.4870429039001465,13.379268646240234,-16.668756484985348,-0.008684515953063965,0.008793696761131288,0.015489578247070312,989.9807739257812,0,0.0,0
2.52,0.07787797,-0.12798762,9.776517,1.8989245290867984e-05,7.221120176836848e-05,0.00019285699818283317,-4.8944735527038565,13.682525634765625,-16.54673194885254,0.005436278879642487,-0.01513431966304779,0.024962425231933597,989.9807739257812,0,0.0,0
2.56,0.08024123,-0.13752005,9.767046,-0.0007797014550305902,0.00100427505094558,0.00045928303734399384,-4.68577241897583,13.667240142822266,-16.577997207641598,0.004912532866001129,-0.0006811916828155518,0.05337810516357422,989.9756469726562,0,0.0,0
2.6,0.07782465,-0.13751945,9.759942,0.00015291808813344687,0.0007378757582046093,-0.0011383917881175876,-4.568839550018311,13.197174072265625,-16.414541244506836,0.009247399866580965,-0.0054301172494888314,0.04391860961914063,990.0029907226562,0,0.0,0
2.64,0.08735764,-0.14466855,9.767041,0.00015291808813344687,0.0007378757582046093,-0.0011383917881175876,-4.568839550018311,13.197174072265625,-16.414541244506836,-0.004573836922645569,-0.0006586909294128418,0.029712677001953125,990.0029907226562,0,0.0,0
2.68,0.08016124,-0.14228472,9.762303999999999,0.00015317513316404074,-0.0009932193206623194,-7.301825098693372e-05,-4.301332950592041,12.815666198730467,-16.664392471313473,-0.0045095235109329215,-0.0054179877042770394,0.024979591369628903,989.9983520507812,0,0.0,0
2.72,0.083414465,-0.14707237,9.776587,0.00015343206177931282,-0.0003274712071288377,0.0001934077008627355,-4.824171543121338,13.590461730957033,-16.78312873840332,0.008619703352451323,0.0040643513202667245,0.03910636901855469,989.980224609375,0,0.0,0
2.76,0.073863775,-0.14230606,9.771853,-0.0005163575406186284,0.0006052837707102299,-0.0003409382770769298,-5.343019008636475,13.52570343017578,-16.160497665405273,0.013550058007240295,0.0037773549556732173,0.0485687255859375,989.9879150390624,0,0.0,0
2.8,0.06909281,-0.139923,9.755282000000001,0.00014508962340187281,-0.00045927485916763533,0.00018983238260261717,-4.2400240898132315,12.820682525634766,-17.13603401184082,0.01818534731864929,-0.010431736707687378,0.04383659362792969,989.980224609375,0,0.0,0
2.84,0.07866132,-0.13515666,9.767119000000001,0.00014508962340187281,-0.00045927485916763533,0.00018983238260261717,-4.2400240898132315,12.820682525634766,-17.13603401184082,0.004005193710327149,-0.010610312223434448,0.02962779998779297,989.980224609375,0,0.0,0
2.88,0.076280296,-0.13277367,9.767121000000001,1.1760552297346296e-05,-0.0003260891535319388,0.0007223908323794602,-4.869173526763916,12.86359405517578,-16.887628555297848,0.023385219275951385,0.003765493631362915,0.058032035827636726,989.9827270507812,0,0.0,0
2.92,0.08823866,-0.14945671,9.783692,1.1760552297346296e-05,-0.0003260891535319388,0.0007223908323794602,-4.7021307945251465,12.756526947021484,-16.753137588500973,-0.01471983641386032,0.013315275311470032,0.010685920715332031,989.9827270507812,0,0.0,0
2.96,0.08346772,-0.1446904,9.767122,0.00027799076633527875,-5.9759371652035036e-05,0.0009886700427159667,-4.685527324676514,12.666810989379885,-16.904417037963867,-0.0003245249390602112,-0.0008862763643264769,0.029623985290527344,990.0078735351562,0,0.0,0
3.0,0.07391703,-0.14230734,9.760022,0.00014474747877102343,-0.0005923771532252432,0.0005891595501452683,-4.982081890106201,13.706371307373047,-17.38145637512207,0.009129643440246582,-0.0007088631391525269,0.03909492492675781,989.9901123046876,0,0.0,0
3.04,0.08348551400000001,-0.14945742,9.769492,0.0002778196358121932,0.00033974228426814085,0.00018964902847073967,-4.571202754974365,12.931854248046875,-16.860559463500973,0.013803079724311829,0.008418858051300049,0.03908824920654297,989.9976196289062,0,0.0,0
3.08,0.09066409,-0.14469111,9.764758,0.0002778196358121932,0.00033974228426814085,0.00018964902847073967,-4.571202754974365,12.931854248046875,-16.860559463500973,-0.01011543720960617,-0.001031726598739624,0.03909015655517578,989.9976196289062,0,0.0,0
3.12,0.085893154,-0.14469135,9.760024000000001,-0.0002523757284507156,0.0006150998524390161,0.0007589402957819402,-5.058471202850342,13.792539596557615,-16.835832595825195,-0.010250233113765715,-0.006105512380599976,0.04382038116455078,990.0050659179688,0,0.0,0
3.16,0.07156265,-0.13992491,9.776595,-0.00011930346954613923,0.00021564000053331256,0.0002262718044221401,-4.491907596588135,12.742713928222654,-16.861711502075195,0.013214193284511566,-0.006133928894996643,0.005947113037109375,990.0050659179688,0,0.0,0
3.2,0.07396144,-0.1446917,9.755291999999999,-0.00011930346954613923,0.00021564000053331256,0.0002262718044221401,-4.491907596588135,12.742713928222654,-16.861711502075195,0.008363425731658936,0.013080835342407228,0.04855823516845703,990.0050659179688,0,0.0,0
3.24,0.08352992,-0.14230868,9.750558,-0.00025254697538912296,0.0003488118527457118,-4.008074756711722e-05,-4.4714179039001465,12.919792175292967,-16.64427375793457,-0.010646626353263857,-0.010849490761756895,0.04855632781982422,989.9844360351562,0,0.0,0
3.28,0.09548825,-0.14707544,9.764762,-0.0001195600489154458,0.00048199758748523886,0.0006256356136873363,-4.822106838226318,13.223644256591795,-16.76198387145996,-0.006454966962337494,0.008096590638160706,0.04855728149414063,990.0000610351562,0,0.0,0
3.32,0.07637793,-0.13992587,9.771865,-0.0002528037875890732,0.0006151693523861468,-4.019076004624367e-05,-4.8997416496276855,13.52017593383789,-17.537214279174805,0.012686178088188171,0.008258536458015442,0.04856014251708984,989.9844970703124,0,0.0,0
3.36,0.07638687,-0.13515952,9.764764,0.0004129004664719105,-0.0007163962000049652,0.0002260884793940932,-4.138282299041748,13.54814910888672,-17.271265029907227,0.022291995584964752,-0.010677263140678406,0.06749820709228516,990.0121459960938,0,0.0,0
3.4,0.083565414,-0.14469275,9.76003,0.000146498903632164,0.00034888129448518157,-0.0003065799828618765,-4.893792629241943,13.420150756835938,-17.147356033325195,-0.006229788064956665,0.013191252946853638,0.043824195861816406,989.97119140625,0,0.0,0
3.44,0.0764046,-0.14945957,9.771867,0.0004127292195335031,-0.00031689449679106474,-0.00017345871310681105,-4.470576763153076,13.183635711669922,-16.120954513549805,0.0031972154974937443,0.013182416558265686,0.015417098999023438,989.97119140625,0,0.0,0
3.48,0.083583176,-0.13992670000000001,9.7695,0.0001463277731090784,0.0004820670292247087,0.0012912419624626634,-4.5300869941711435,13.391927719116213,-17.124765396118164,0.007399417459964751,-0.0009525418281555176,0.034361839294433594,989.989013671875,0,0.0,0
3.52,0.06925264,-0.13516039,9.774236,1.3084383681416513e-05,0.0010147127322852614,0.0004922576481476426,-4.084584712982179,13.545799255371096,-17.356389999389652,0.007623307406902312,0.008515521883964539,0.024888038635253903,989.989013671875,0,0.0,0
3.56,0.07882112,-0.14231044,9.774236,1.299858558923006e-05,-0.0005831687594763935,-0.0007062004879117013,-4.2211947441101065,12.890371322631836,-16.142221450805664,0.012427978217601776,-0.001039758324623108,0.04382610321044922,989.99951171875,0,0.0,0
3.6,0.08360982,-0.15899363,9.745830999999999,-0.0002534027444198728,0.000881582556758076,-4.044745583087206e-05,-4.115621089935304,12.252067565917967,-16.660028457641598,-0.002415314316749573,0.022731363773345947,0.06750011444091797,989.989013671875,0,0.0,0
3.64,0.0836187,-0.1375443,9.774238,-0.0002534881932660937,-0.0004499830247368664,-0.0003068000078201294,-3.9982523918151855,12.52005386352539,-16.770784378051758,0.006892062723636627,-0.010753959417343141,0.05329608917236328,989.9864501953124,0,0.0,0
3.68,0.078362346,-0.14229912,9.776562,-0.00012041616719216108,0.0010147682623937726,9.263702668249608e-05,-4.034068584442139,13.434589385986328,-16.587823867797848,0.002110205590724945,-0.0012963861227035522,0.024888038635253903,989.9841918945312,0,0.0,0
3.72,0.08263624,-0.13513687,9.771780999999999,1.26564409583807e-05,0.00021583447232842443,0.0008915481157600881,-4.054015636444092,12.889219284057615,-16.70680809020996,0.0031631886959075928,-0.015695959329605103,0.02024364471435547,989.9763793945312,0,0.0,0
3.76,0.08977547,-0.13513616,9.778880000000001,-0.0005131372017785907,-0.0003165707748848945,0.00023231087834574282,-4.248178005218507,13.181610107421875,-16.847963333129886,-0.011275291442871094,-0.010974138975143431,0.03444766998291016,990.009033203125,0,0.0,0
3.8,0.08257532,-0.14228529,9.767041,-0.00024536417913623154,-0.0003168073017150164,0.00023293535923585298,-4.306304454803467,13.28545379638672,-17.230005264282227,0.0035076513886451717,-0.005991876125335693,0.04865550994873047,989.97607421875,0,0.0,0
3.84,0.092104495,-0.147051,9.762303,0.0004207191232126206,-0.0004500129143707454,0.0003662190574686975,-4.544327259063722,13.746959686279295,-16.527471542358402,-0.0012243911623954773,-0.0061131566762924186,0.07232856750488281,989.97607421875,0,0.0,0
3.88,0.09685388,-0.14466703,9.778871,2.153843524865806e-05,0.0002157291601179168,0.00010002890485338868,-4.524137020111084,13.29190444946289,-16.73491096496582,-0.02025771141052246,-0.01071247458457947,0.029722213745117188,989.9862060546876,0,0.0,0
3.92,0.08726379,-0.14466631,9.776502,-0.00011132567306049168,-0.00031695025973021984,-0.00029931915923953056,-5.279510021209717,13.269821166992188,-17.310075759887695,-0.010321304202079771,-0.010934174060821531,0.015517234802246094,989.9912719726562,0,0.0,0
3.96,0.075283885,-0.12798259,9.774131,0.00015528322546742857,-0.0005833137547597289,0.00010028044926002622,-4.931321620941162,12.594730377197266,-16.939306259155273,0.013405628502368929,-0.015786364674568176,0.048659324645996094,990.0006713867188,0,0.0,0
4.0,0.089592814,-0.1327484,9.767027,-0.0002438968804199249,0.0008813759195618333,0.0003667220589704812,-4.85713529586792,12.76946258544922,-16.80699348449707,-0.015247292816638947,-0.020393237471580502,0.02025699615478516,989.979736328125,0,0.0,0
4.04,0.08239269,-0.14228079,9.776492,-0.0006427840562537313,0.0010144386906176805,0.000899605336599052,-5.238830089569092,12.991844177246096,-17.300081253051758,0.01279892772436142,0.007931172847747803,0.03920173645019531,990.016845703125,0,0.0,0
4.08,0.09670162,-0.13989672,9.778857,-0.0006427840562537313,0.0010144386906176805,0.000899605336599052,-5.238830089569092,12.991844177246096,-17.300081253051758,-0.01120419055223465,-0.006375253200531006,0.025000572204589844,990.016845703125,0,0.0,0
4.12,0.07994187,-0.13989595,9.762284,2.3592350771650672e-05,-0.0005835518823005259,-0.00029856449691578746,-5.445464611053467,12.640308380126953,-17.24766731262207,0.0036144778132438655,-0.01579289138317108,0.029737472534179688,990.0015258789062,0,0.0,0
4.16,0.087081134,-0.13989526,9.774117,2.3592350771650672e-05,-0.0005835518823005259,-0.00029856449691578746,-5.445464611053467,12.640308380126953,-17.24766731262207,0.003472134470939636,-0.010913208127021791,0.058148384094238274,990.0015258789062,0,0.0,0
4.2,0.10139012,-0.15181094,9.76938,2.3886299459263682e-05,8.219013398047537e-05,0.00010103496606461704,-5.078172206878662,12.246744155883787,-17.28123664855957,-0.024733342230319973,0.012563690543174744,0.02973651885986328,990.01416015625,0,0.0,0
4.24,0.091800034,-0.13989371,9.769378,-0.0005084524163976312,-0.0009831211064010859,-0.00016515509923920035,-5.614029407501222,12.745906829833984,-17.30485725402832,-0.010561615228652954,-0.00650729238986969,0.020270347595214844,990.0062255859376,0,0.0,0
4.28,0.08459991,-0.14465955,9.778844,-0.0005084524163976312,-0.0009831211064010859,-0.00016515509923920035,-5.652644634246826,12.65707015991211,-17.293710708618164,-0.001444503664970398,0.012658312916755676,0.029748916625976562,990.0062255859376,0,0.0,0
4.32,0.08934924,-0.14465883,9.759903,0.0008234207052737473,0.0015468322671949866,-0.00016502931248396635,-5.444348812103272,13.115989685058596,-18.122499465942386,0.0032762214541435237,-0.006034776568412782,0.06763267517089844,990.0062255859376,0,0.0,0
4.36,0.07975921,-0.14465806,9.764634,0.0004245334712322802,-0.0005837901262566447,0.00023469599545933306,-5.39369535446167,13.110694885253904,-18.053014755249023,0.008263900876045227,-0.0013152658939361572,0.02975940704345703,990.01318359375,0,0.0,0
4.4,0.08689844599999999,-0.13274089,9.759898,0.0004245334712322802,-0.0005837901262566447,0.00023469599545933306,-5.39369535446167,13.110694885253904,-18.053014755249023,-0.001264922320842743,-0.006192907691001892,0.03449249267578125,990.01318359375,0,0.0,0
4.44,0.09164786,-0.13750675,9.766995,2.5646499125286937e-05,-5.125362076796591e-05,-3.1368457712233067e-05,-5.375844478607178,12.810623168945312,-16.883440017700195,0.0033943131566047673,-0.0015235096216201782,0.05343437194824219,989.9906616210938,0,0.0,0
4.48,0.10117701,-0.13988933,9.776461999999999,2.5646499125286937e-05,-5.125362076796591e-05,-3.1368457712233067e-05,-5.375844478607178,12.810623168945312,-16.883440017700195,-0.010996140539646149,-0.006456032395362854,0.04396629333496094,989.9906616210938,0,0.0,0
4.52,0.09158695,-0.15418819,9.771726,-0.0006395562086254357,0.0004812828847207129,0.0002351989678572864,-5.650281429290772,12.922388076782227,-16.847688674926758,-0.011446557939052582,-0.002058863639831543,0.02503204345703125,989.9832763671876,0,0.0,0
4.56,0.0867767,-0.14227107,9.764621,-0.0007724207825958729,0.0008807091508060694,-0.0002973070368170738,-5.3221468925476065,12.808273315429688,-16.968561172485348,-0.00652322918176651,0.002696558833122253,0.04396820068359375,990.0054321289062,0,0.0,0
4.6,0.08435637,-0.14465365,9.76225,0.000651476439088583,0.0013354669790714981,-0.00023540967958979306,-5.001485347747803,12.79271125793457,-17.401987075805664,0.0027811527252197266,0.002961635589599609,0.05344867706298828,990.0004272460938,0,0.0,0
4.64,0.081936,-0.14465281,9.769349,0.00011913766502402724,-0.0005287919193506241,-0.00023528395104222002,-5.2564120292663565,12.7117919921875,-16.973047256469727,0.01767691969871521,0.0026847124099731445,0.04870796203613281,989.9799194335938,0,0.0,0
4.68,0.088995755,-0.14226684,9.774074,-0.0006795161170884968,-0.0011946291197091339,-0.0001020001363940537,-4.954174518585205,12.152332305908205,-17.602758407592773,-0.006048589944839478,0.0024727582931518555,0.02978515625,990.0004272460938,0,0.0,0
4.72,0.08410123,-0.12081453,9.766961,-0.0004125286650378257,0.0001368410885334015,-0.000368028151569888,-4.919283390045166,12.500598907470705,-16.858667373657227,-0.015452720224857332,-0.021283581852912903,0.02031993865966797,990.0004272460938,0,0.0,0
4.76,0.084064424,-0.1541796,9.769325,-0.0005459365202113986,-0.0005282594356685877,-0.0007631679181940854,-4.813953876495361,12.86271858215332,-17.050058364868164,-0.005852155387401582,0.012045666575431824,0.048727989196777344,989.9775390625,0,0.0,0
4.8,0.08880746,-0.14464548,9.771689,-0.00014610806829296052,0.0002706307277549058,-0.0014288057573139668,-4.757213115692139,12.86331558227539,-17.289789199829098,-0.010783828794956207,-0.0022750943899154663,0.029794692993164062,989.9775390625,0,0.0,0
4.84,0.08638078,-0.1374948,9.778787,0.0005200360901653767,0.0008032049518078567,-0.00023023219546303153,-4.726207256317139,12.944791793823242,-16.91441535949707,0.01330631971359253,0.007598131895065308,0.044007301330566406,989.9950561523438,0,0.0,0
4.88,0.086344,-0.15179357,9.778785000000001,0.0005203905748203397,-0.0006615900201722981,-0.0006295540952123703,-4.707239627838135,13.120393753051758,-16.61967658996582,0.0035424977540969853,0.007519051432609558,0.03453826904296875,989.9950561523438,0,0.0,0
4.92,0.08152741,-0.14225951,9.778781,0.00012127126683481038,0.00040361590799875563,-0.0006294021150097251,-3.927110195159912,12.691837310791016,-16.483858108520508,0.008050538599491121,0.007626935839653016,0.04875087738037109,990.0003051757812,0,0.0,0
4.96,0.07910073,-0.13749209,9.762207,-1.1532072676345704e-05,0.0008030321914702653,-9.66184597928077e-05,-4.54182767868042,14.11819839477539,-16.78053092956543,-0.0012353435158729553,0.0030381083488464355,0.0440216064453125,990.0050659179688,0,0.0,0
5.0,0.08862358,-0.14225772,9.764571,0.0003882964665535837,0.0002703429199755192,-0.0003627823898568749,-4.179099559783936,13.720211029052734,-16.582185745239258,-0.0064074769616127005,0.002854570746421814,0.03455543518066406,990.0050659179688,0,0.0,0
5.04,0.081417024,-0.14225683,9.766935,-0.00014398092753253877,-0.00026234635151922703,3.68434120900929e-05,-4.073228359222412,13.714040756225586,-16.675127029418945,-0.0011418089270591734,-0.011346697807312012,0.020353317260742188,990.0026245117188,0,0.0,0
5.08,0.09332982,-0.14463922,9.776401,0.000255847378866747,3.911933163180947e-06,-0.0011614260729402304,-4.270433902740479,14.003482818603516,-16.661672592163086,-0.006034605205059052,0.00782613456249237,0.029829025268554688,989.979736328125,0,0.0,0
5.12,0.08612329,-0.15655467,9.762194000000001,-1.011413405649364e-05,0.0002701702469494194,0.00017030522576533258,-4.253830432891847,13.913768768310547,-16.812952041625973,-0.010907016694545746,0.012471541762351991,0.01562976837158203,990.0023803710938,0,0.0,0
5.16,0.08608657,-0.14702073,9.776394,-0.00027607541414909065,0.00027011267957277596,0.00043677302892319863,-3.822323322296143,13.422250747680664,-16.773698806762695,-0.01038029044866562,-0.002090871334075928,0.034560203552246094,989.9796752929688,0,0.0,0
5.2,0.07171032,-0.14701977,9.771655,-0.00014256287249736488,-0.0009283663239330052,-9.570681140758096e-05,-3.9639058113098153,13.236610412597654,-16.125146865844727,0.013500824570655823,0.0031040757894515987,0.058246612548828125,989.9796752929688,0,0.0,0
5.24,0.09557259,-0.14463559,9.769286,0.0006567393429577352,0.00026999766123481095,-0.00022871280089020732,-4.16858434677124,13.624603271484375,-16.424245834350586,-0.015333257615566254,0.017390847206115726,0.04404640197753906,990.007080078125,0,0.0,0
5.28,0.08597615,-0.14940128,9.781117,0.0003907778591383249,0.00013678212417289617,0.00017091294284909964,-4.135812282562257,12.707122802734375,-16.452592849731445,-0.000973530113697052,0.008148908615112305,0.029850006103515625,990.0025634765624,0,0.0,0
5.32,0.0931091,-0.13748392,9.7669115,0.00012481657904572782,-0.00026274926494807,0.00017106492305174467,-4.234755992889403,12.9830322265625,-16.14555549621582,-0.0056294575333595285,0.003091976046562195,0.058254241943359375,989.9819946289062,0,0.0,0
5.36,0.093072295,-0.14224967,9.771642,-0.0005406186683103441,0.00013666701852343976,0.00017121684504672882,-4.294265270233153,13.191324234008787,-17.149370193481445,-0.005535304546356201,0.007979348301887512,0.04405498504638672,990.0145874023438,0,0.0,0
5.4,0.08347595,-0.13509884,9.771638000000001,0.000791315222159028,0.0004029253905173391,-9.494708501733841e-05,-4.219100475311278,13.735816955566404,-17.192811965942386,-0.010152742266654968,-0.006065472960472107,0.02985858917236328,990.01220703125,0,0.0,0
5.44,0.08821893,-0.14463109,9.783472,0.0007916698232293129,0.00013655191287398338,0.0005709945689886807,-4.54171895980835,13.011852264404295,-16.40787696838379,-0.010539710521697998,-0.010673254728317259,0.015664100646972656,990.01220703125,0,0.0,0
5.48,0.09057209,-0.13986364,9.783467,-6.568589014932512e-06,-0.0010619846871122718,-0.00036080711288377637,-4.3323378562927255,12.734193801879885,-17.039770126342773,-0.010010741651058195,-0.005615070462226868,0.02987384796142578,990.0095825195312,0,0.0,0
5.52,0.08097565,-0.14224598,9.773995,-0.0002725299855228513,0.00013637923984788358,-0.00022749725030735132,-5.300136089324951,12.986824035644533,-16.828432083129886,0.004303649067878722,-0.000954747200012207,0.02514076232910156,990.0020141601562,0,0.0,0
5.56,0.07376918,-0.14462844,9.757422,-0.0002725299855228513,0.00013637923984788358,-0.00022749725030735132,-5.013523578643799,12.886842727661133,-17.48262596130371,0.013474933803081512,-0.0007082074880599977,0.04882335662841797,990.0020141601562,0,0.0,0
5.6,0.085681885,-0.14462748,9.76452,0.0007930878782644867,0.0009352692868560553,0.0005716023151762785,-4.917081356048584,12.239696502685547,-17.53660011291504,0.009013310074806212,0.00886012613773346,0.05829429626464844,989.9993286132812,0,0.0,0
5.64,0.08086532,-0.15415964,9.783455,0.0005271265981718899,-0.0005295255687087773,0.00043859635479748254,-4.908332347869873,13.143047332763672,-16.974931716918945,0.008511029183864594,0.008737698197364805,0.034628868103027344,989.9993286132812,0,0.0,0
5.68,0.0890221,-0.14703408,9.778811,0.0005271265981718899,-0.0005295255687087773,0.00043859635479748254,-4.908332347869873,13.143047332763672,-16.974931716918945,0.002729855477809906,0.008733302354812622,0.04873943328857422,989.9993286132812,0,0.0,0
5.72,0.07946631,-0.1446509,9.774075999999999,-0.00027146641514264047,0.001201470149680972,-0.00022704148432239893,-5.391469478607178,13.270097732543945,-16.907915115356445,0.01213972270488739,0.008756965398788452,0.03453826904296875,990.0120849609376,0,0.0,0
5.76,0.0794701,-0.14703423,9.766975,-1.2105767382308839e-05,0.00013733570813201368,-0.00036318018101155763,-4.715148448944092,12.48089599609375,-16.658021926879886,-0.007263034582138061,0.003720030188560486,0.03927040100097656,990.0020141601562,0,0.0,0
5.8,0.077084005,-0.14941764,9.755139,-1.4529883628711106e-05,0.0009366769809275868,-9.790324838832021e-05,-5.180022716522217,12.62562370300293,-17.51866340637207,-0.002511627972126007,0.0035321116447448726,0.03453350067138672,990.0068969726562,0,0.0,0
5.84,0.09142718,-0.13988462,9.788280499999999,-0.0005471983458846806,0.0002708930405788124,0.0003015548863913864,-5.527803897857666,12.82650375366211,-17.09190559387207,-0.007469385862350464,-0.01045498251914978,0.020336151123046875,990.0068969726562,0,0.0,0
5.88,0.08187139,-0.14226797,9.769343,0.00011851827730424702,-0.00026172676007263357,0.00030152354156598454,-5.398696422576903,12.36822509765625,-17.546892166137695,0.006669983267784119,0.003973439335823059,0.04401111602783203,990.0233154296876,0,0.0,0
5.92,0.08665499,-0.13035163,9.762242,0.00011851827730424702,-0.00026172676007263357,0.00030152354156598454,-5.398696422576903,12.36822509765625,-17.546892166137695,-0.002493284642696381,-0.010185271501541138,0.06294631958007812,990.0233154296876,0,0.0,0
5.96,0.07709914400000001,-0.13273504,9.764609,0.0005179556319490075,4.5950437197461724e-06,-0.00023112387862056494,-5.570847988128662,12.839162826538086,-17.547922134399414,0.002457946538925171,-0.014608487486839294,0.03454399108886719,989.995361328125,0,0.0,0
6.0,0.07710296,-0.14703485,9.764610000000001,0.0003847242624033242,0.0006703967228531837,-0.00023115525254979732,-5.4808993339538565,12.660335540771484,-18.0902042388916,0.012228839099407196,-0.0005974322557449341,0.05347442626953125,989.9995727539062,0,0.0,0
6.04,0.09144619,-0.13750178,9.766977,-0.0004142597026657313,-0.0010606505675241351,-0.00023117091041058305,-5.7237868309021,12.48528289794922,-17.580629348754886,-0.016497820615768433,-0.005252912640571593,0.044007301330566406,990.0349731445312,0,0.0,0
6.08,0.081890345,-0.12796882,9.774078999999999,0.00011833550524897871,-0.0002616971032693982,0.00030144519405439496,-5.502068996429443,12.745628356933596,-17.70701026916504,0.007127143442630769,-0.009857624769210815,0.053481101989746094,990.0043334960938,0,0.0,0
6.12,0.08428407,-0.14703509,9.774078999999999,0.00027808875893242657,0.0010078398045152426,3.317173104733229e-05,-5.215051174163818,12.171438217163086,-17.563676834106445,-0.0023878514766693115,0.009079426527023315,0.039275169372558594,990.0037841796876,0,0.0,0
6.16,0.08667776,-0.14226863,9.778815,-0.0003877373819705099,-0.00032373360591009265,0.00016631392645649612,-5.4363322257995605,12.649147033691404,-17.711496353149414,0.0025585442781448364,-0.010271787643432615,0.04400348663330078,990.0037841796876,0,0.0,0
6.2,0.07951182,-0.14703529999999998,9.769346,-0.0006540896138176322,-5.7411787565797574e-05,0.0005657721194438636,-5.702617168426514,12.39999008178711,-17.963823318481445,0.003040611743927002,0.003688901662826538,0.04399299621582031,990.0316772460938,0,0.0,0
6.24,0.09624493,-0.13988551,9.76698,-0.0005209685768932103,-0.0012558273738250134,-0.00023319124011322856,-5.758379459381104,12.769155502319336,-17.89984703063965,-0.01161925494670868,0.003394171595573425,0.04872608184814453,990.0416870117188,0,0.0,0
6.28,0.086689115,-0.14703548,9.771714,-0.0009204789530485867,0.001007863669656217,3.310895408503711e-05,-6.0795836448669425,13.15300750732422,-17.564874649047848,-0.011416077613830566,0.0031639933586120605,0.029783248901367188,990.0416870117188,0,0.0,0
6.32,0.07713333,-0.15418538,9.76698,-0.0006541995098814367,-0.0003237098571844399,-0.0002332225558348,-5.730418682098389,12.84768295288086,-17.369863510131836,-0.006701752543449403,-0.0016086101531982422,0.03925228118896485,989.9805908203124,0,0.0,0
6.36,0.09147656,-0.14703566,9.759879,-0.00012160427286289631,-0.00019054590666200966,0.0004325514892116189,-5.152359485626222,12.072013854980467,-17.413549423217773,0.0028760358691215515,0.0030861198902130127,0.05818843841552735,990.01513671875,0,0.0,0
6.4,0.08909041,-0.13273612,9.762246000000001,0.00041099070222117007,0.00034209166187793016,0.0005656937137246133,-5.240649700164795,12.358230590820312,-17.647645950317386,-0.016024067997932434,-0.020763620734214783,0.03451347351074219,990.0119018554688,0,0.0,0
6.44,0.07714468,-0.14226928,9.783552,-0.0006543092895299196,-0.0005900079850107431,-0.0004995854687876999,-5.597968578338623,13.02448272705078,-17.554582595825195,0.007993564009666445,-0.001760244369506836,0.03451061248779297,990.0119018554688,0,0.0,0
6.48,0.09626773,-0.13750276,9.769349,0.0002777598856482655,-0.000590001989621669,-0.00036644324427470565,-5.359645366668701,13.195114135742188,-17.832246780395508,-0.010945327579975128,-0.0013033002614974976,0.043984413146972656,990.0214233398438,0,0.0,0
6.52,0.07954222,-0.12796980000000002,9.764615,0.0009435128886252643,-0.00045683811185881495,-0.0004996167845092714,-5.690280437469482,12.937992095947266,-17.458314895629886,0.00832616537809372,-0.01077157258987427,0.05818748474121094,990.0011596679688,0,0.0,0
6.56,0.08671569999999999,-0.15895253,9.769349,0.0001445286034140736,-0.0003236742340959609,-0.00023331650299951437,-5.611963748931885,12.37908935546875,-17.28371238708496,-0.005712322890758514,0.008222952485084534,0.02504253387451172,990.0011596679688,0,0.0,0
6.6,0.096279085,-0.13988635,9.766982,-0.00025498177274130285,-0.0003236682969145477,0.0013645628932863474,-6.138687610626222,12.887090682983398,-17.77115821838379,-0.024294838309288025,-0.006251871585845947,0.0297698974609375,990.0164794921876,0,0.0,0
6.64,0.07931709,-0.125581,9.766961,1.1297786841169e-05,-0.0012557678855955599,-0.00023334793513640761,-5.4248385429382315,12.92330551147461,-17.729310989379886,0.004370860755443573,-0.020361244678497314,0.043974876403808594,990.0159912109376,0,0.0,0
6.68,0.08146006,-0.13987460000000002,9.778774,-0.0002544909657444805,-0.00019059005717281247,0.0002995098766405136,-6.223093509674072,13.440103530883787,-17.636545181274414,0.014747999608516691,-0.0012564212083816528,0.04401683807373047,989.9884033203124,0,0.0,0
6.72,0.09100437,-0.13510764,9.738531,0.000415314018027857,-0.0008570315549150108,0.00016807272913865745,-5.987271785736084,13.239498138427734,-17.661142349243164,-0.009004466235637665,-0.0011810213327407837,0.08189201354980469,989.9934692382812,0,0.0,0
6.76,0.08381942,-0.14464042,9.769303,-0.0005166443297639488,0.000341365986969322,0.00016813579713925717,-5.6365838050842285,12.935644149780273,-17.54343605041504,0.005291946232318878,-0.010921046137809752,0.029814720153808594,990.0133056640624,0,0.0,0
6.8,0.08380413,-0.14940661,9.764567,0.0001492925512138754,-5.81316853640601e-05,-0.0003644329262897372,-5.646556377410889,12.662960052490234,-17.60292625427246,-0.004115186631679535,-0.0010775178670883179,0.034552574157714844,990.0107421875,0,0.0,0
6.84,0.08617878,-0.1446397,9.7764015,0.000548913492821157,0.0002081602724501863,-0.0010301596485078337,-5.702617168426514,12.39999008178711,-17.963823318481445,-0.004214592278003693,0.0036758333444595337,0.020353317260742188,989.9981079101562,0,0.0,0
6.88,0.08616346,-0.13987270000000002,9.764565,0.000548913492821157,0.0002081602724501863,-0.0010301596485078337,-5.702617168426514,12.39999008178711,-17.963823318481445,0.0002660751342773437,0.008392244577407837,0.053496360778808594,989.9981079101562,0,0.0,0
6.92,0.08375835400000001,-0.13987237,9.7835,1.6428792150691148e-05,-0.0004576533101499081,-0.0004974647308699787,-6.005397319793701,13.327739715576172,-17.432561874389652,0.005030483007431029,-0.010277971625328064,0.006159782409667969,990.0057983398438,0,0.0,0
6.96,0.074183434,-0.13272217,9.769296,0.0006825128803029656,-5.822726234328002e-05,3.529316745698452e-05,-5.533753871917725,12.926528930664062,-17.48176383972168,-0.013730712234973907,-0.0195503830909729,0.020363807678222656,990.0235595703124,0,0.0,0
7.0,0.0908975,-0.1398716,9.764560000000001,0.0006825128803029656,-5.822726234328002e-05,3.529316745698452e-05,-6.153228282928468,12.609989166259766,-17.59873390197754,-0.009088173508644104,0.004062637686729431,0.025098800659179688,990.0235595703124,0,0.0,0
7.04,0.06937307,-0.13987121,9.776394999999999,-0.0009150881087407471,-0.0005909068277105688,-0.0004972124588675797,-6.177303791046143,12.798254013061525,-17.760011672973633,0.01033598929643631,-0.0009953975677490234,0.025094985961914062,990.00830078125,0,0.0,0
7.08,0.07891747,-0.15178728,9.766925,-0.0006486250786110759,-5.82989159738645e-05,0.00043495622230693703,-6.278205394744872,12.334636688232422,-17.101457595825195,0.005452685058116914,0.01334558427333832,0.048768043518066406,990.00537109375,0,0.0,0
7.12,0.078902185,-0.15417013,9.745619999999999,-0.0006486250786110759,-5.82989159738645e-05,0.00043495622230693703,-6.278205394744872,12.334636688232422,-17.101457595825195,0.0008005797863006593,0.01340310275554657,0.0629730224609375,990.00537109375,0,0.0,0
7.16,0.07410711,-0.13272029,9.769289,0.00015061677549965682,0.0003411271027289331,0.0004350823001004756,-6.018712520599365,12.419971466064453,-17.76231575012207,0.010600194334983827,0.0038842558860778813,0.048770904541015625,990.0106811523438,0,0.0,0
7.2,0.08843127,-0.13986975,9.781124,-0.000115551840281114,-0.0007241603452712297,-0.0006301181274466218,-6.054826259613037,12.702371597290039,-18.004228591918945,-0.008577398955821991,-0.0010606348514556883,0.020361900329589844,989.9852294921876,0,0.0,0
7.24,0.08363622400000001,-0.13510278,9.790591000000001,-0.00038172068889252836,7.476344762835652e-05,-0.0003637392655946313,-6.103116512298584,12.972984313964846,-17.627695083618164,0.0057818591594696045,-0.024537533521652218,0.02983856201171875,989.9852294921876,0,0.0,0
7.28,0.07884115,-0.14463553,9.76455,1.7900398233905435e-05,-0.0001915763277793303,-0.00023051811149343848,-6.0844483375549325,12.51645278930664,-17.757829666137695,0.014979101717472075,-0.0005107372999191284,0.05351734161376953,990.0006103515624,0,0.0,0
7.32,0.08121577,-0.13510206,9.759814,0.0008169951615855098,0.000607347465120256,-0.00023045513080433008,-5.651963710784912,12.394695281982422,-17.89433479309082,0.005259484052658081,-0.014802321791648863,0.05352115631103516,990.0157470703124,0,0.0,0
7.36,0.076420695,-0.15178469,9.771649,0.00015135263674892482,0.0004741656011901796,0.00030223975772969425,-5.645875453948975,12.400588989257812,-18.203554153442386,-0.01369737833738327,0.004332318902015686,0.015645980834960938,990.002685546875,0,0.0,0
7.4,0.09074485,-0.13510129,9.762179,0.00028465784271247685,-0.00045796384802088136,0.0007017766474746168,-6.02023458480835,12.418498992919922,-17.685007095336914,0.0010203570127487183,-0.005169793963432312,0.03931808471679688,990.0079345703124,0,0.0,0
7.44,0.08833966,-0.16846687,9.762177000000001,1.8488994101062414e-05,-0.0004579877713695169,0.0004355238052085042,-5.920609951019287,11.880216598510742,-18.592676162719727,-0.0036677941679954533,0.032899901270866394,0.05352020263671875,990.0003662109376,0,0.0,0
7.48,0.08593452,-0.13510051,9.7550745,1.863625948317349e-05,-0.0007243275176733732,-0.0006296765641309321,-5.88419771194458,12.229955673217773,-17.925893783569336,-0.0038182213902473454,-0.005056872963905335,0.06772899627685547,990.0280151367188,0,0.0,0
7.52,0.07874951,-0.15178314,9.750339,0.0005514150252565743,0.0007403859635815023,-0.00023013976169750092,-6.167086124420166,12.070512771606445,-18.02694129943848,0.0060299262404441825,0.01880696415901184,0.05825901031494141,990.0280151367188,0,0.0,0
7.56,0.07395446,-0.12556672,9.766908,0.0006847202312201263,-0.0003249014262109995,0.0003025550686288625,-6.130534648895264,12.526168823242188,-18.059236526489254,0.0013686642050743105,-0.019055813550949097,0.029857635498046875,990.0240478515624,0,0.0,0
7.6,0.09305841,-0.13986602,9.759805,-8.709641406312585e-06,-0.0012285207631066444,-0.00048212197725661104,-5.835066318511963,12.223188400268555,-17.77910041809082,-0.008146852254867555,-0.0047640353441238395,0.04406166076660156,990.0240478515624,0,0.0,0
7.64,0.08345294,-0.14463139,9.776372,-0.00014172031660564244,0.00010303484305040912,0.000716362614184618,-6.178283214569093,12.428489685058596,-17.584253311157227,0.010971516370773315,0.009764090180397034,0.05353832244873047,990.0081787109376,0,0.0,0
7.68,0.08582631,-0.13986447,9.752697999999999,0.00039120492874644697,-0.00029648662894032896,0.0007164884591475129,-6.3663573265075675,12.726774215698242,-18.034631729125977,-0.002941302955150604,-0.009538307785987854,0.07247066497802734,990.0081787109376,0,0.0,0
7.72,0.08341992,-0.1470139,9.771633999999999,-0.000408769934438169,-0.00016255280934274197,0.00018623855430632832,-6.214939594268799,13.079177856445312,-17.92461585998535,-0.0030656158924102783,-0.0001841336488723755,0.02512645721435547,990.005615234375,0,0.0,0
7.76,0.07145393,-0.14224693,9.762164,-9.13710391614586e-06,0.000503211107570678,-0.0003463250759523362,-6.775010585784912,13.66069221496582,-17.410432815551758,0.0155203714966774,0.0044843703508377075,0.06300735473632812,990.0433959960938,0,0.0,0
7.8,0.09055665,-0.13986328,9.757427,-0.0005416098283603787,0.0005031852633692324,0.0001863748475443572,-6.464321613311768,13.372444152832033,-17.903352737426758,-0.008386343717575073,-0.005136072635650635,0.039336204528808594,990.0433959960938,0,0.0,0
7.84,0.08815026,-0.13986279999999998,9.766894,-0.0006746088620275259,0.0002368436544202268,0.0001864429796114564,-6.264506816864014,12.347892761230467,-17.797204971313477,-0.008389182388782501,-0.009976565837860107,0.025133132934570312,989.9912719726562,0,0.0,0
7.88,0.07857415,-0.14462903,9.766893,-8.660150342620911e-06,0.0005031336331740022,-7.980476948432624e-05,-6.159614086151122,11.971961975097654,-17.714387893676758,0.005790151655673982,0.004624158143997192,0.03460979461669922,990.028564453125,0,0.0,0
7.92,0.07855767,-0.13271222,9.752688000000001,0.00012481560406740758,0.0014351877616718411,0.0008524370496161282,-6.417691707611084,12.994440078735352,-17.503496170043945,0.009927898645401,-0.014555886387825012,0.06302165985107422,989.9926147460938,0,0.0,0
7.96,0.073761344,-0.1303285,9.773992,0.00012481560406740758,0.0014351877616718411,0.0008524370496161282,-6.417691707611084,12.994440078735352,-17.503496170043945,0.00046128034591674805,-0.010054633021354677,0.010938644409179688,989.9926147460938,0,0.0,0
8.0,0.083304524,-0.13509467,9.785827000000001,-0.0010734469396993518,0.00010358244617236778,5.3557479986920946e-05,-6.472228527069093,12.732942581176758,-17.94169807434082,0.009862981736660005,-0.01944141089916229,0.02514743804931641,989.9926147460938,0,0.0,0
8.04,0.0785082,-0.13986078,9.769254,0.0001251335343113169,0.00010355666017858312,-0.0010116379708051682,-6.921617031097412,12.312274932861328,-18.07878303527832,0.009893864393234251,0.008955627679824829,0.0582876205444336,990.0078735351562,0,0.0,0
8.08,0.080881625,-0.14224371,9.769252999999999,-0.0006734963972121477,0.0005029789172112942,0.00045323566882871086,-6.963382244110107,13.326833724975586,-18.285680770874023,-0.0047078579664230355,-0.0009899288415908813,0.0440826416015625,990.0176391601562,0,0.0,0
8.12,0.080865115,-0.13985999999999998,9.764517,-7.547569111920892e-06,-0.00029599457047879696,-0.00021248593111522496,-6.775744915008545,12.29050064086914,-17.561098098754886,0.009702168405056,-0.0010294616222381592,0.05355167388916016,990.0202026367188,0,0.0,0
8.16,0.0880183,-0.14462617,9.766883,-7.547569111920892e-06,-0.00029599457047879696,-0.00021248593111522496,-7.005478382110597,12.496999740600586,-17.845720291137695,0.009970441460609436,0.017916247248649597,0.05354881286621094,990.0202026367188,0,0.0,0
8.2,0.080832124,-0.14939234,9.773982,-7.547569111920892e-06,-0.00029599457047879696,-0.00021248593111522496,-7.005478382110597,12.496999740600586,-17.845720291137695,0.009982660412788393,0.003735288977622986,0.029880523681640625,990.0202026367188,0,0.0,0
8.24,0.078425735,-0.132709,9.759778,0.0001260869757970795,0.0010355074191465974,5.403428804129362e-05,-6.930610179901122,12.40935516357422,-18.314027786254886,0.00036951154470443726,-0.0008210092782974242,0.044089317321777344,990.0249633789062,0,0.0,0
8.28,0.08318907,-0.14462498,9.752675,0.0001260869757970795,0.0010355074191465974,5.403428804129362e-05,-6.930610179901122,12.40935516357422,-18.314027786254886,0.009890727698802948,0.013251110911369324,0.06302452087402344,990.0249633789062,0,0.0,0
8.32,0.087952375,-0.13985795,9.757407,0.0001260869757970795,0.0010355074191465974,5.403428804129362e-05,-6.912484645843506,12.32111358642578,-18.54261589050293,-0.01402004808187485,-0.005512580275535584,0.044094085693359375,990.0249633789062,0,0.0,0
8.36,0.075986385,-0.15415728,9.766875,-0.0004063857486471534,0.0003696919302456081,0.0003204183012712747,-7.402390956878662,12.704647064208984,-17.565752029418945,0.004465267062187196,0.008862346410751345,0.03463172912597656,989.9668579101562,0,0.0,0
8.4,0.08552948,-0.13985720000000001,9.766873,0.0009253526804968717,0.0009022979065775873,0.0005868022562935947,-6.6924262046813965,12.474069595336914,-17.89261817932129,0.0047193169593811035,-0.005520820617675781,0.04409980773925781,989.9668579101562,0,0.0,0
8.44,0.09268272,-0.13270691,9.764503999999999,-0.00040590891148895036,-0.0004293331294320524,0.0005869385204277933,-6.816967487335205,12.936771392822266,-17.66954231262207,-0.01924231648445129,-0.01052914559841156,0.029895782470703125,989.9945068359376,0,0.0,0
8.48,0.07832682,-0.14700624,9.769238,-0.0004057500045746565,0.0009022204903885722,0.0005870066815987228,-6.714979648590088,12.663806915283205,-18.131196975708008,-0.005168341100215912,0.003845691680908203,0.04410457611083984,989.9871826171876,0,0.0,0
8.52,0.095039636,-0.15653887,9.752665499999999,0.00026019872166216373,0.000236404943279922,0.0011197065468877554,-7.083251476287843,12.687612533569336,-17.9218692779541,-0.024118050932884216,0.003966107964515686,0.05357456207275391,989.989501953125,0,0.0,0
8.56,0.083073616,-0.1398556,9.766867999999999,0.0005266735097393394,0.0003695370978675783,-0.0012770682806149125,-6.642613887786865,12.20492935180664,-18.34644889831543,0.009522244334220886,-0.0008832961320877074,0.05357265472412109,989.99462890625,0,0.0,0
8.6,0.089960754,-0.13508204,9.781044999999999,-0.00013895730080548674,-0.0012283839751034975,0.0005872109904885293,-6.85740327835083,12.214324951171875,-18.00596046447754,-0.008785918354988098,-0.010443136096000671,0.015745162963867188,989.9996337890624,0,0.0,0
8.64,0.089661956,-0.14222464,9.766814,-0.00013879839389119297,-2.9988303140271448e-05,5.4647302022203796e-05,-6.8552002906799325,11.95342254638672,-18.68389320373535,-0.008589103817939758,-0.0005913972854614258,0.029956817626953125,990.0171508789062,0,0.0,0
8.68,0.08484411,-0.13269055,9.747873,0.0005294699803926051,-0.0005619976436719298,-0.0006053321412764491,-7.0680317878723145,12.702342987060547,-18.69492530822754,-0.008617244660854341,-0.005372434854507446,0.06309890747070312,990.0274047851562,0,0.0,0
8.72,0.07524651,-0.14222273,9.764439999999999,0.0005304748774506153,0.0003699447843246162,-0.0003385856980457902,-7.418315410614014,12.531990051269533,-18.015100479125977,-0.008129440248012544,-0.0006704777479171753,0.020488739013671875,990.0274047851562,0,0.0,0
8.76,0.087157905,-0.14222178,9.754968,-0.00026810617418959737,-0.0008285362273454666,-0.0008710603578947483,-7.301925182342528,12.430212020874025,-17.950098037719727,-0.008285477757453918,0.003962099552154541,0.058368682861328125,990.0214233398438,0,0.0,0
8.8,0.08472997,-0.13507098,9.776269000000001,-0.0006672132876701652,-2.964808300021105e-05,-7.195543730631471e-05,-7.135831356048584,13.165637969970705,-18.711584091186523,0.010906882584095,-0.0008323192596435548,0.0536346435546875,990.0214233398438,0,0.0,0
8.84,0.08708185,-0.14221987,9.771531,-0.000666846230160445,-0.0002960235869977623,0.000194517633644864,-6.900989055633545,12.595272064208984,-18.560426712036133,0.0012159347534179688,0.003907755017280579,0.05363941192626953,989.9905395507812,0,0.0,0
8.88,0.07987404,-0.14221892,9.754958,0.0003987837699241936,0.0009023383026942613,0.0003278327058069408,-7.043411731719972,12.14578628540039,-18.435197830200195,0.0011606886982917786,0.003940746188163757,0.06311321258544922,990.0224609375,0,0.0,0
8.92,0.087005705,-0.14221802,9.766789,0.00026599265402182937,0.00036964711034670467,0.00046114789438433945,-7.236190319061278,12.333732604980467,-17.954580307006836,0.010903090238571169,0.008661404252052305,0.05838203430175781,990.0072631835938,0,0.0,0
8.96,0.077408075,-0.149367,9.78099,-0.00013311432849150148,-2.9886254196753722e-05,-7.132667815312743e-05,-7.162003040313722,12.508460998535154,-17.822267532348633,-0.0033429935574531555,0.018042296171188358,0.015771865844726562,989.9765014648438,0,0.0,0
9.0,0.08692959,-0.12553325,9.780987,0.0001335682609351352,-0.0005625775083899498,-0.00033748539863154287,-6.981944561004639,12.677024841308596,-17.782896041870114,0.0014073178172111511,-0.014982983469963075,0.034717559814453125,989.9892578125,0,0.0,0
9.04,0.08450165400000001,-0.13983199,9.764413000000001,-0.00039869657484814525,-0.00016316330584231764,0.00032846155227161944,-6.96327543258667,12.22049331665039,-17.913022994995114,-0.013218984007835388,-0.010172262787818907,0.03946113586425781,989.9996337890624,0,0.0,0
9.08,0.08446360000000001,-0.1422143,9.764408,0.0005337759503163396,0.0010351985692977905,-0.0008698027231730522,-6.577559947967528,12.370820999145508,-17.750307083129886,-0.003374010324478149,-0.0008178800344467162,0.044193267822265625,989.9996337890624,0,0.0,0
9.12,0.07486594,-0.13268027,9.778609,-0.0005980197456665338,-0.0008003577822819352,2.7532572858035564e-05,-6.659898281097412,12.557014465332033,-17.594545364379886,0.0015993192791938784,-0.0008410364389419557,0.02052211761474609,990.022216796875,0,0.0,0
9.16,0.09633702,-0.14459571,9.7809725,0.00033445301232859487,-0.00026778559549711645,-0.0005049419123679401,-6.996047496795653,13.137971878051758,-17.884675979614258,-0.012495905160903929,-0.000597730278968811,0.011058807373046877,990.0015869140624,0,0.0,0
9.2,0.081959546,-0.13267836,9.792805,-0.0007300772122107446,-0.00040106254164129496,-0.00037146962131373584,-6.6522889137268075,12.564380645751953,-17.981069564819336,0.0070780813694000235,-0.005519747734069824,0.006323814392089844,989.9866943359376,0,0.0,0
9.24,0.074751765,-0.13744402,9.757292999999999,6.923737237229943e-05,0.00026466761482879514,0.0005607932107523084,-6.65976095199585,12.662933349609375,-18.29361915588379,-0.00265570729970932,-0.010286450386047363,0.044205665588378906,990.0042114257812,0,0.0,0
9.28,0.08905315400000001,-0.1374431,9.764391999999999,-0.0003298698575235903,-0.0005343395750969648,-0.00023799735936336222,-6.6471800804138175,12.200510025024414,-18.11453437805176,0.007131867110729218,0.003856271505355835,0.04893779754638672,990.0269775390624,0,0.0,0
9.32,0.079455435,-0.1493586,9.773856,-0.0003298698575235903,-0.0005343395750969648,-0.00023799735936336222,-6.6471800804138175,12.200510025024414,-18.11453437805176,-0.002136565744876861,0.0036720186471939096,0.02526378631591797,990.0269775390624,0,0.0,0
9.36,0.09136692,-0.14459106,9.778587,-0.00019597826758399606,-0.0005344587843865156,2.8632988687604662e-05,-6.759683132171631,12.56907844543457,-17.81083106994629,-0.001964360475540161,0.008205309510231018,0.029998779296875,990.0116577148438,0,0.0,0
9.4,0.09132886,-0.13505699999999998,9.764380000000001,-0.00019597826758399606,-0.0005344587843865156,2.8632988687604662e-05,-6.759683132171631,12.56907844543457,-17.81083106994629,0.0028305575251579285,-0.00598442554473877,0.04893970489501953,990.0116577148438,0,0.0,0
9.44,0.08173117,-0.14935574,9.754909,0.00020422908710315826,0.0015959490556269884,0.00016210530884563923,-6.738513469696045,12.483783721923828,-18.194021224975586,0.002446159720420837,-0.005978211760520935,0.03948020935058594,990.0125732421876,0,0.0,0
9.48,0.08169314,-0.13743839,9.757272,0.00020422908710315826,0.0015959490556269884,0.00016210530884563923,-6.738513469696045,12.483783721923828,-18.194021224975586,0.002460785210132599,0.003265798091888428,0.048946380615234375,990.0125732421876,0,0.0,0
9.52,0.081655115,-0.14697054,9.762004,0.0004712785012088716,0.0005305667873471974,0.0005618934519588947,-6.133578777313232,12.52322006225586,-17.904626846313477,0.016679927706718445,0.003720521926879883,0.048958778381347656,990.0498657226562,0,0.0,0
9.56,0.09117663,-0.14220312,9.752531,0.0004712785012088716,0.0005305667873471974,0.0005618934519588947,-6.133578777313232,12.52322006225586,-17.904626846313477,-0.007178694009780885,-0.010564520955085754,0.058430671691894524,990.0498657226562,0,0.0,0
9.6,0.08227885,-0.14460263,9.757325,0.0004712785012088716,0.0005305667873471974,0.0005618934519588947,-6.4161696434021,12.995914459228516,-17.58079719543457,0.00741240382194519,-0.0056772083044052115,0.05843353271484375,990.0498657226562,0,0.0,0
9.64,0.087762356,-0.13508677,9.766859,7.21715041436255e-05,-0.000801072281319648,0.0005620507290586829,-6.415626049041747,12.62762451171875,-17.48234748840332,-0.008490793406963348,-0.0009835809469223022,0.05357170104980469,990.0234985351562,0,0.0,0
9.68,0.090170056,-0.14462036,9.766862,-6.395060336217284e-05,-0.00013480137567967176,-0.0002381672675255686,-6.36124849319458,12.362899780273438,-18.1680965423584,-0.013144753873348236,0.0038906335830688477,0.03463268280029297,990.00537109375,0,0.0,0
9.72,0.083018064,-0.14462072,9.757394,-0.00020724168280139563,0.0002663174527697265,0.00015696365153416989,-6.225348949432372,12.068441390991213,-17.70990562438965,0.005785137414932251,0.00865592062473297,0.06777286529541016,990.0244140625,0,0.0,0
9.76,0.07586616,-0.13270479999999998,9.764497,-0.00020724168280139563,0.0002663174527697265,0.00015696365153416989,-6.225348949432372,12.068441390991213,-17.70990562438965,0.02011081576347351,-0.01023896038532257,0.048836708068847656,990.0244140625,0,0.0,0
9.8,0.08305359,-0.14938822,9.75503,0.00045837677316740155,0.0005326610989868642,-0.00024258354096673432,-6.002109050750732,12.330259323120115,-17.913591384887695,0.011042870581150057,0.00895516574382782,0.06303596496582031,990.0170288085938,0,0.0,0
9.84,0.09263098,-0.14700529,9.762134,-0.00020775554003193972,-0.0011983364820480347,0.0001567435683682561,-6.082926273345947,12.517927169799805,-17.835134506225586,-0.012807413935661316,0.013690784573554993,0.034626007080078125,990.0062255859376,0,0.0,0
9.88,0.08547902,-0.14700577,9.766869,-0.00020775554003193972,-0.0011983364820480347,0.0001567435683682561,-6.082926273345947,12.517927169799805,-17.835134506225586,-0.008064620196819305,0.018230438232421875,0.02988910675048828,990.0062255859376,0,0.0,0
9.92,0.08788669,-0.14223969,9.764503,0.000591021089348942,-0.00039936113171279436,-0.00037596162292175,-6.6724791526794425,13.019439697265625,-17.773630142211914,-0.008342757821083069,-0.0008912533521652223,0.029888153076171875,990.0062255859376,0,0.0,0
9.96,0.07834485,-0.13270691,9.771607000000001,0.0008569947094656527,0.0007991159218363464,2.3365573724731806e-05,-6.004312038421631,12.59115982055664,-17.235662460327152,-0.003989167511463164,-0.015125021338462831,0.03462409973144531,989.9884643554688,0,0.0,0
10.0,0.08314239999999999,-0.13509071,9.771607000000001,-0.0008742298814468086,0.00039966992335394025,-0.0005093396175652742,-6.2164626121521,13.077707290649414,-17.847314834594727,-0.004251517355442047,0.004018515348434447,0.04409503936767578,989.9884643554688,0,0.0,0
10.04,0.08316016,-0.13747445,9.752672,5.770445568487048e-05,0.000266539806034416,0.0008221664465963839,-6.108524799346924,12.704719543457033,-17.91910743713379,0.0006395876407623291,-0.0005025267601013184,0.04409503936767578,990.0413818359376,0,0.0,0
10.08,0.083177924,-0.14462462,9.766877000000001,0.00045700737973675126,0.00013340961595531553,0.00028946140082553034,-5.6785407066345215,12.21172332763672,-17.80254554748535,-0.0040359199047088614,-0.005749419331550597,0.02514839172363281,990.0413818359376,0,0.0,0
10.12,0.085585594,-0.14700839,9.762145,-0.0010079012718051672,-0.00026603642618283635,0.0006888617645017803,-6.00819730758667,12.324365615844727,-17.604372024536133,-0.008983045816421509,0.008572205901145935,0.029882431030273438,990.0238647460938,0,0.0,0
10.16,0.08560336,-0.15415871,9.776349,0.0003235070616938174,-0.00013285067689139396,0.0004224724834784866,-6.005152225494385,12.327312469482422,-17.758981704711914,0.005044572055339813,0.0038694292306900016,0.02515125274658203,990.0111694335938,0,0.0,0
10.2,0.08562112,-0.14700928,9.769249,-0.0003424540045671165,0.0010655985679477453,0.0002892413176596165,-6.24181604385376,12.26407241821289,-18.257699966430664,0.009862586855888368,0.0036683380603790283,0.058285713195800774,990.023193359375,0,0.0,0
10.24,0.08324897,-0.14939296,9.764517,-0.0003426253679208457,-0.0005322689539752902,-0.0002434638736303896,-6.258963108062744,12.722074508666992,-18.20487403869629,0.0100877583026886,-0.0011925995349884033,0.03934192657470703,989.9830322265624,0,0.0,0
10.28,0.07609704,-0.14224360000000003,9.762151,5.6677556131035096e-05,-0.00013276732352096587,-0.00011037939111702144,-6.058413982391357,13.06771469116211,-17.948068618774414,0.015029676258563997,-0.005957886576652528,0.034605979919433594,989.9830322265624,0,0.0,0
10.32,0.0832845,-0.15416041,9.769254,0.0001896643661893904,-0.00039905542507767683,-0.00011045261635445058,-6.07599687576294,12.787664413452148,-17.621034622192386,-0.013521961867809296,0.017833411693572998,0.02040004730224609,990.0213012695312,0,0.0,0
10.36,0.08330226,-0.13271132,9.764522,-0.0004762964672408998,-0.0005321855423972012,-0.00011052595800720157,-5.872840404510497,12.398195266723633,-17.244630813598633,-0.008763715624809265,0.0031093209981918326,0.03932762145996094,990.0032348632812,0,0.0,0
10.4,0.080930114,-0.15177801,9.755054,-0.0007427837117575108,0.00013363194011617452,0.00042203234625048935,-5.815417766571045,12.13642120361328,-18.08498954772949,0.0004452019929885863,-0.0018957555294036863,0.04405975341796875,990.0438842773438,0,0.0,0
10.44,0.07616806,-0.1470119,9.764524,-0.0004766390775330365,0.0006662913947366178,0.00028880106401629746,-6.268094539642334,12.713237762451172,-17.741044998168945,0.0049028173089027405,-0.0021569430828094482,0.039322853088378906,990.0235595703124,0,0.0,0
10.48,0.06423631,-0.16131198,9.769261,-0.000609968148637563,0.00040000333683565264,-0.0003770618641283363,-6.064256191253662,12.061395645141602,-17.965269088745114,0.019285693764686584,0.02170178294181824,0.06299400329589844,990.0130004882812,0,0.0,0
10.52,0.088153124,-0.14224622,9.783465,0.004449862986803055,-0.0019968117121607065,-0.0007766091730445622,-5.90523099899292,12.42116928100586,-18.241777420043945,-0.013805508613586426,-0.001469731330871582,0.039325714111328125,989.9976806640624,0,0.0,0
10.56,0.08578098,-0.13748005,9.766896000000001,-0.0023415349423885345,6.128830136731267e-07,0.00015534978592768314,-5.644055843353272,13.034198760986328,-17.855989456176758,-0.008765801787376406,-0.011582016944885254,0.03457927703857422,989.959716796875,0,0.0,0
10.6,0.082544655,-0.14222589,9.764451,-0.0023415349423885345,6.128830136731267e-07,0.00015534978592768314,-5.644055843353272,13.034198760986328,-17.855989456176758,-0.0033428966999053955,0.0027244240045547485,0.04886245727539063,989.959716796875,0,0.0,0
10.64,0.08730799,-0.14460874,9.771552,0.00045941051212139433,2.7747591957449913e-07,0.00042676334851421416,-5.869797229766847,12.401142120361328,-17.399240493774414,0.006465040147304535,0.0175972580909729,0.04413509368896485,989.9552001953124,0,0.0,0
10.68,0.08729148,-0.13984177,9.764449,0.0024589539971202608,-0.0018642866052687168,0.0005608530482277273,-5.56946325302124,12.734722137451172,-16.926149368286133,-0.01670403033494949,0.0034533590078353877,0.039399147033691406,989.9622192382812,0,0.0,0
10.72,0.0777154,-0.13745806,9.757346,-0.002467731246724725,0.000798846420366317,0.0006940790917724371,-5.9049315452575675,13.053306579589846,-17.816904067993164,0.0069480761885643005,-0.011556804180145264,0.05359649658203125,990.116943359375,0,0.0,0
10.76,0.080088794,-0.13745770000000002,9.790485,-0.0006033609388396144,-0.00026644289027899504,-0.00023795838933438065,-5.937596797943115,12.86444091796875,-17.415899276733402,-0.0030253380537033077,-0.016352549195289612,0.010990142822265623,989.9672241210938,0,0.0,0
10.8,0.08724207,-0.13745728,9.752608,-0.00020372829749248922,0.0005324789090082049,2.8425565687939528e-05,-6.0483336448669425,12.234054565429688,-17.51591682434082,0.01120740920305252,-0.0019324570894241333,0.06780815124511719,989.9951171875,0,0.0,0
10.84,0.08244574,-0.14222345,9.759708999999999,0.0005955372471362352,-0.00013336243864614516,0.00029487774008885026,-6.01550817489624,12.949138641357422,-16.792974472045902,-0.00290796160697937,-0.0016737431287765505,0.0488739013671875,989.9976806640624,0,0.0,0
10.88,0.08959895,-0.14937285,9.762074,0.0005955372471362352,-0.00013336243864614516,0.00029487774008885026,-6.01550817489624,12.949138641357422,-16.792974472045902,-0.012581124901771544,0.0030682682991027828,0.039406776428222656,989.9976806640624,0,0.0,0
10.92,0.09197235,-0.14698917,9.766807,0.0005956962704658508,0.0009318753145635127,-0.00010452797869220376,-6.215077877044678,12.973262786865234,-17.225542068481445,-0.0127960667014122,-0.0015890002250671387,0.02047443389892578,990.0307006835938,0,0.0,0
10.96,0.08239627,-0.13745570000000001,9.764439,0.0005956962704658508,0.0009318753145635127,-0.00010452797869220376,-6.216599941253662,12.97178840637207,-17.14823341369629,0.0020982027053833008,-0.006656035780906677,0.05360698699951172,990.0307006835938,0,0.0,0
11.0,0.084769666,-0.13745522,9.754968,-0.0010018812026828527,-0.0011987033067271113,2.8766226023435596e-05,-5.79669713973999,13.31245231628418,-17.46382713317871,-0.0021848157048225407,-0.006646960973739624,0.034668922424316406,990.0077514648438,0,0.0,0
11.04,0.08236331,-0.15652111,9.759702,0.0003298571391496808,-0.0006660973303951322,-0.00010432361159473659,-5.7953124046325675,13.208009719848633,-16.84205436706543,0.0027580708265304565,0.0075501948595047,0.04887008666992188,990.0001831054688,1,1.0,1
11.08,0.08234680000000001,-0.13983771,9.769167999999999,-6.945765926502645e-05,-0.000399807293433696,-0.00010425550863146782,-5.42236852645874,12.082281112670898,-16.910638809204098,0.007645741105079652,0.002671465277671814,0.058339118957519524,989.9976806640624,1,1.0,1
11.12,0.084720194,-0.13983729999999997,9.778636,-6.945765926502645e-05,-0.000399807293433696,-0.00010425550863146782,-5.42236852645874,12.082281112670898,-16.910638809204098,-0.006718754768371582,-0.0020501911640167236,0.006261825561523438,989.9976806640624,1,1.0,1
11.16,0.08470374,-0.15175334,9.769165,-0.00020245657651685176,-0.00013351724192034453,0.00016212850459851325,-5.17627477645874,12.7864990234375,-16.450876235961914,0.012411601841449738,-0.0017947107553482056,0.044142723083496094,989.99267578125,1,1.0,1
11.2,0.07751751,-0.13268664,9.769164,-0.0003352967032697052,0.0006653788150288165,-0.00010405108332633972,-5.396876811981201,13.001832962036133,-17.19932746887207,0.007283434271812439,-0.01622818410396576,0.02047348022460937,990.0001220703124,1,1.0,1
11.24,0.08706063,-0.13745287,9.757327,-0.0004682958533521741,0.00026587920729070896,-0.0005034568021073936,-5.257934093475342,12.710317611694336,-16.89573860168457,-0.002297990024089813,-0.0017115175724029539,0.053619384765625,990.0051879882812,1,1.0,1
11.28,0.08226433400000001,-0.14221898,9.773894,0.0005971267819404602,0.0005321693024598062,0.00016240100376307964,-5.979799747467041,13.140945434570312,-17.348596572875973,0.011940918862819672,-0.010841801762580872,0.044159889221191406,990.0279541015624,1,1.0,1
11.32,0.079857945,-0.14221856,9.771526,0.0011299174511805177,0.00013266962196212262,-0.0002370047732256353,-5.340272426605225,12.896514892578125,-16.739980697631836,0.0023821815848350525,0.003379419445991516,0.02522182464599609,990.0204467773438,1,1.0,1
11.36,0.08462125,-0.14221817,9.764424,-0.0002015031350310892,0.0002658017911016941,0.00029569517937488854,-5.535956859588623,13.187427520751953,-16.803831100463867,-0.0120595321059227,-0.0013054758310317993,0.03469371795654297,989.9796752929688,1,1.0,1
11.4,0.08460477,-0.13268468,9.759686,0.00019812971004284918,-0.00026685575721785426,0.0006952371331863105,-5.252526760101318,12.978582382202148,-16.604333877563473,-0.002212278544902801,-0.01991742849349976,0.02523231506347656,990.0152587890624,1,1.0,1
11.44,-0.058805823,0.060361295999999995,9.773889,0.0012635521125048401,-0.0006663553067483008,-0.0006362742278724909,-5.86506986618042,12.931781768798828,-16.507204055786133,0.0022517889738082886,-0.010951459407806395,0.025226593017578125,990.0530395507812,1,1.0,1
11.48,-0.63956845,-0.4448934,9.885146,-0.003396816551685333,0.0015973036643117664,-0.0005030481261201203,-5.440057277679443,12.908575057983398,-16.956262588500973,1.3935675621032717,-0.8307160139083862,-0.10282230377197266,990.0330810546876,1,1.0,1
11.52,0.6605217,-0.5402241,9.911183,-0.12337196618318558,-0.03368957713246345,-0.257897287607193,-5.438674449920653,12.804134368896484,-16.334489822387695,-0.14487481117248535,0.6929373145103455,-0.07215023040771484,990.0253295898438,1,1.0,1
11.56,0.12516713,0.19144288,10.197614,-0.15532970428466794,0.02396778576076031,-0.0010355435078963637,-5.592017650604248,12.924457550048828,-17.164728164672848,-0.1230323687195778,0.641800045967102,-0.5108184814453125,989.8984985351562,1,1.0,1
11.6,0.32590240000000004,-0.5259235999999999,10.150267999999999,-0.4943496584892273,-0.026898570358753204,0.03824611380696297,-5.725255489349365,14.116374969482422,-16.75203514099121,0.16334235668182373,-1.2875101566314695,-0.6388254165649414,989.9133911132812,1,1.0,1
11.64,0.251799,-0.7094357,9.511123,-0.9103349447250366,0.02103825844824314,-0.2875913083553314,-5.725094318389893,14.642593383789062,-15.628084182739258,-0.5167992115020752,-0.4107881784439087,0.4397068023681641,989.9442138671876,1,1.0,1
11.68,-0.49625683,-1.2528226,10.500611,-1.0195242166519165,0.003994017373770475,0.014277823269367218,-5.401336193084717,16.262540817260742,-15.464826583862305,0.5594266653060913,0.12263989448547365,-0.4011964797973633,989.9920654296876,1,1.0,1
11.72,0.46446729999999997,-2.5898416,8.519261,-0.8665255904197693,0.17004194855690002,-0.1592268943786621,-5.19396448135376,17.984262466430664,-15.366571426391602,-0.4874461889266968,0.1811087131500244,-0.02800273895263672,989.989501953125,1,1.0,1
11.76,-0.24774003,-1.8939238,10.11002,-0.6641253232955933,0.8263773322105408,-0.4696179926395416,-4.74884557723999,19.03264617919922,-14.572698593139648,0.2708215415477753,-0.6708345413208008,-1.2280378341674805,989.9818725585938,1,1.0,1
11.8,-0.07807346,-2.7161543,8.784385,-0.90913587808609,-0.057924505323171616,0.18445387482643127,-4.326579570770264,19.638629913330078,-14.44227409362793,-0.4832655787467957,0.3869619369506836,1.0995159149169922,990.0018310546876,1,1.0,1
11.84,-0.6229876,-2.5397916,9.245988,-0.7826356291770935,0.3138524293899536,0.11414654552936555,-3.653790473937988,20.847332000732425,-13.384920120239258,0.1732698678970337,-0.419529914855957,-0.8276739120483398,990.0275268554688,1,1.0,1
11.88,-0.527408,-2.8353175999999998,7.439810799999999,-0.5996764898300171,-0.16445091366767886,0.29271140694618225,-3.5723772048950195,21.923938751220703,-12.613641738891602,0.08143872022628784,-0.08530807495117188,1.4306402206420898,990.0477905273438,1,1.0,1
11.92,0.71293455,-2.7971847000000003,12.593209,-0.6498767733573914,-0.4946826100349426,0.17952723801136014,-4.078750133514403,22.50310516357422,-12.184579849243164,0.4873227477073669,-0.012647390365600586,-4.2622337341308585,990.0274658203124,1,1.0,1
11.96,0.810904,-4.053172,7.854068300000001,-6.5951346186921e-05,-1.7176051139831543,-0.14830753207206726,-5.912197589874268,23.26162338256836,-11.099603652954102,-1.3250348567962646,-0.1991419792175293,-0.20555400848388672,990.0350952148438,1,1.0,1
12.0,-0.32192594,-3.021212,10.067401,-1.2164634466171265,1.0592705011367798,0.3648832142353058,-5.516646862030028,23.578723907470703,-10.178316116333008,0.5206581354141235,-0.8773648738861084,-0.6733636856079102,990.0449829101562,1,1.0,1
12.04,-0.042323872,-3.67423,8.916939999999999,-0.5506736636161804,-0.3177157938480377,0.5268033742904663,-4.706841945648193,24.96864318847656,-9.537607192993164,0.17535029351711273,-0.21799755096435547,-0.050479888916015625,990.102783203125,1,1.0,1
12.08,-0.011271656000000001,-4.0245714,9.018727,-0.8932889699935913,-0.109323650598526,0.23212489485740664,-3.9757914543151855,26.17942047119141,-8.797296524047852,0.17417925596237185,-0.3098878860473633,-0.0996541976928711,990.0370483398438,1,1.0,1
12.12,0.22770208,-4.734788,8.561856,-0.9422909021377563,-0.035687334835529334,0.08045807480812073,-3.8307061195373535,27.52635955810547,-8.051641464233397,-0.10340844839811324,0.014998435974121094,-0.2145233154296875,990.0296630859376,1,1.0,1
12.16,-0.0041348934,-4.668056,8.00793,-1.160137176513672,-0.02769788168370724,0.05715549737215043,-4.141777515411377,28.70911407470703,-6.533224105834961,-0.06998652964830399,-0.05529451370239258,0.6929330825805664,990.0167846679688,1,1.0,1
12.2,-0.93621314,-3.6384792,8.486102,-0.9100663661956788,-0.1335584670305252,0.22067350149154666,-4.179797649383545,29.884552001953125,-5.672334671020508,1.0082564353942869,-1.3220958709716797,-0.2332191467285156,989.9660034179688,1,1.0,1
12.24,0.29456985,-5.0231639999999995,8.019762,-0.9100663661956788,-0.1335584670305252,0.22067350149154666,-3.9755005836486816,30.391071319580078,-4.347736358642578,-0.009778723120689392,-0.4084806442260742,0.4718923568725586,989.9660034179688,1,1.0,1
12.28,-0.16908762,-6.138537400000001,9.6507635,-0.29088181257247925,-0.2944132685661316,0.4899189472198486,-2.916614055633545,30.8555908203125,-4.153165817260741,-0.11732592433691025,1.5178046226501465,-0.6272754669189453,990.102783203125,1,1.0,1
12.32,-1.1776427,-3.3072019999999998,9.638926,0.5908902883529663,-0.6424881815910339,1.0932576656341553,-1.9834084510803225,30.88683319091797,-4.6837196350097665,1.2336910963058472,-0.346282958984375,-1.0766515731811523,990.1106567382812,1,1.0,1
12.36,-0.54194534,-2.9640098,9.972699,0.7406931519508362,-0.5277060866355896,1.0800750255584717,-1.6742405891418457,30.59710693359375,-5.099328994750977,0.7438358068466187,-1.0844230651855469,-1.1312236785888672,990.2473754882812,1,1.0,1
12.4,-0.013793498000000001,-3.1808877,9.75965,0.8778460025787354,-0.1776338517665863,0.9429224133491516,-1.2084107398986816,30.401840209960934,-6.237466812133789,0.8806955814361572,-0.5795490741729736,-0.8259153366088867,990.1865234375,1,1.0,1
12.44,0.9015224000000001,-3.076023,13.265475,1.230581521987915,-0.8757809400558472,0.35729390382766724,-2.372787952423096,29.048980712890625,-7.3645973205566415,-0.022165298461914062,0.04240751266479492,-2.538105010986328,990.1357421875,1,1.0,1
12.48,0.58165383,-3.4597402,11.075847999999999,1.2846437692642212,-1.3132048845291138,0.16408179700374606,-4.030956745147705,27.81285858154297,-7.883577346801758,0.2580891251564026,0.9510226249694824,-2.25338077545166,990.0723266601562,1,1.0,1
12.52,0.9022914000000001,-1.774772,9.925423,0.5470813512802124,1.03317129611969,0.3415810465812683,-3.08853530883789,26.32628631591797,-10.328332901000977,-0.5285977721214294,-0.9615347385406494,-0.07802772521972656,990.0416870117188,1,1.0,1
12.56,0.88795197,-1.8224375,10.862834,1.13802969455719,0.27110955119133,0.2767303287982941,-3.055243015289306,24.620216369628906,-12.081254959106445,-0.22016370296478271,-0.7546924352645874,-0.9233989715576172,989.9700317382812,1,1.0,1
12.6,0.84015393,-2.7852821,12.065373,1.3243176937103271,-0.5270392298698425,-0.006230283528566361,-3.365740299224853,22.275470733642575,-12.666048049926758,-0.3269718289375305,1.3452212810516355,-2.5776662826538086,989.980224609375,1,1.0,1
12.64,0.26657748,-1.2599837999999999,9.960931,0.8920869827270508,0.4600606560707092,0.09696712344884872,-2.6585440635681152,22.253780364990234,-14.236459732055664,-0.27187287807464605,-0.4300496578216553,-0.004254341125488281,990.0081787109376,1,1.0,1
12.68,0.45537972,-1.1289035,10.526692,0.6547995805740356,1.1789802312850952,0.4248019754886627,-1.209725856781006,20.608348846435547,-15.287248611450195,-0.5663541555404663,0.5451112389564514,-0.8785734176635742,989.9345703125,1,1.0,1
12.72,0.64657193,-1.474479,11.847591,0.9104627966880798,0.2394179254770279,0.2355845421552658,-0.3623933792114258,18.45222282409668,-15.984514236450195,-1.0708646774291992,0.9001665711402893,-2.007898330688477,989.9549560546876,1,1.0,1
12.76,-0.39064556,-1.0168893,9.818897999999999,0.6944806575775146,0.4934832751750946,0.12719398736953735,0.4499955177307129,18.68673324584961,-17.047235488891598,0.15101444721221924,0.9338966608047484,0.31049346923828125,989.9827880859376,1,1.0,1
12.8,-0.6009569,-0.43536946,9.504061,0.7104595303535461,0.8926907777786255,-0.04045186936855316,1.4959487915039062,17.348979949951172,-18.207918167114254,-0.3542985022068024,0.8062059283256531,1.3206253051757812,989.88623046875,1,1.0,1
12.84,-0.5340397,-0.99782324,10.756310000000001,0.8024716973304749,0.08921577781438828,-0.23259878158569336,1.4708404541015625,15.534915924072266,-18.944726943969727,-0.3363561034202576,1.5060033798217771,-0.4893932342529297,989.9216918945312,1,1.0,1
12.88,-1.3872346000000002,-0.54261696,8.867284,1.009399175643921,-0.0511326901614666,-0.4131609499454498,0.857264518737793,13.48578643798828,-19.423131942749023,0.4008394479751587,1.5968673229217532,0.8220977783203125,990.0484619140624,1,1.0,1
12.92,-1.7624493000000003,-0.3233553,11.274728,1.352946639060974,-0.4342280626296997,-0.4680220484733582,-0.1203160285949707,10.832744598388672,-20.349000930786133,0.5206092596054077,1.6114439964294434,-2.501291275024414,989.9924926757812,1,1.0,1
12.96,0.18293092,1.2067093,10.150308,0.4603889286518097,0.2443447560071945,-0.06695029884576797,-0.1358342170715332,10.185874938964844,-20.00081825256348,-0.6668121218681335,-0.11366868019104005,0.3288383483886719,989.8934326171876,1,1.0,1
13.0,0.20682994,1.9836581000000002,9.267341,1.424718737602234,-0.09440901130437852,0.08897765725851059,-0.457390308380127,8.305030822753906,-20.842012405395508,-0.7549092769622803,-0.008591651916503906,-0.05045032501220703,990.0332641601562,1,1.0,1
13.04,0.21399963,1.4092879999999999,10.013009,1.8670694828033447,-0.9418261647224426,-0.4324688613414765,-2.7259316444396973,5.548945426940918,-20.870058059692386,-0.07090230286121367,1.615506649017334,-0.7940034866333008,989.8804321289062,1,1.0,1
13.08,0.3072058,2.3149338,9.861508,1.3916956186294556,-0.5970802307128906,-0.7475205659866333,-3.799547672271729,3.0688371658325195,-20.94442176818848,-0.6918762922286987,0.7748143672943115,-1.0474576950073242,989.8831787109376,1,1.0,1
13.12,-1.1697536,2.4650805,8.779696000000001,1.050678014755249,0.2781668901443481,-0.5476505160331726,-3.3519287109375,0.1169881820678711,-21.53353309631348,0.927735447883606,1.0837867259979248,0.18052291870117188,989.8700561523438,1,1.0,1
13.16,-1.086107,2.7844398,8.505101,0.9512091279029846,0.33276161551475525,-0.4949199259281158,-2.96488094329834,-1.4696912765502932,-21.50032997131348,0.7484867572784424,1.1917767524719238,0.20110034942626956,989.8497314453124,1,1.0,1
13.2,-1.1458546,3.3111443999999994,8.166591,1.198350191116333,-0.2978743612766266,-0.19824402034282684,-3.492370128631592,-3.5441379547119136,-21.066709518432614,0.9470834732055664,0.9092583656311036,0.6056251525878906,989.8799438476562,1,1.0,1
13.24,-0.34045759999999997,4.028511,7.953542,0.8718469738960266,-0.5297023653984071,0.0884450152516365,-4.2857089042663565,-5.129690170288086,-21.159616470336914,0.4208352267742157,0.3700194358825684,0.985361099243164,989.8748168945312,1,1.0,1
13.28,-0.89013505,3.1037988999999997,11.113759,0.2069893628358841,-0.2458095997571945,0.3028292953968048,-4.929286479949951,-6.470231056213379,-20.36612892150879,0.8781444430351257,0.9816293716430664,-0.9020700454711914,989.9306640625,1,1.0,1
13.32,0.5557555999999999,4.1095424,9.347825,-0.4249782264232636,0.11904316395521165,0.2929756045341492,-4.706590175628662,-5.840121269226074,-20.66826820373535,-0.3274151682853699,1.1657931804656982,-2.9137887954711914,989.9608764648438,1,1.0,1
13.36,-1.1386847,4.235856,8.069536,1.0430880784988403,0.7271754741668701,0.41654616594314575,-3.5754976272583012,-6.360698223114014,-21.812902450561523,0.4348455369472504,0.02402639389038086,2.176882266998291,990.0852661132812,1,1.0,1
13.4,-0.7252318,4.142908,8.988010000000001,1.2619996070861816,-0.03102584183216095,-0.2423193007707596,-3.883632183074951,-8.44012451171875,-21.95168113708496,0.7052570581436157,1.742719650268555,-1.8095197677612305,989.889892578125,1,1.0,1
13.44,-0.78497934,4.619564,8.015091,1.3826408386230469,0.2339584529399872,0.045434996485710144,-3.5619149208068848,-10.40452480316162,-21.11646842956543,0.13441640138626101,0.8984980583190918,0.2698702812194824,989.9761962890624,1,1.0,1
13.48,-0.5592090999999999,4.986619999999999,7.778253,1.0308375358581543,0.5838975310325623,0.08032237738370895,-2.7364325523376465,-12.21298885345459,-20.82991600036621,0.23269110918045044,1.2819547653198242,0.1847372055053711,989.8948974609376,1,1.0,1
13.52,0.16488045,5.6181903,10.074435000000001,0.5113918781280518,0.9399621486663818,0.3304004669189453,-1.9355692863464355,-13.464892387390135,-20.80308723449707,-0.9136638045310974,0.5986313819885254,-2.4163193702697754,989.8843383789062,1,1.0,1
13.56,0.4324987,6.428506,7.470508000000001,0.9544147849082948,0.6230452060699463,0.3834000527858734,-0.9197797775268556,-14.62027645111084,-21.815820693969727,-1.2810364961624146,0.3781027793884277,-0.7379603385925293,989.9120483398438,1,1.0,1
13.6,0.06440312,6.185413,7.5131125,0.9544147849082948,0.6230452060699463,0.3834000527858734,-0.09541559219360353,-16.904411315917972,-20.654436111450195,-1.144500732421875,1.1239399909973145,-0.9313955307006836,989.9120483398438,1,1.0,1
13.64,-0.6215495,6.3141110000000005,6.0146690000000005,2.0001051425933842,0.026097945868968964,-0.16787338256835938,0.1953425407409668,-22.481151580810547,-17.678468704223633,-0.2982046604156494,1.5642352104187012,0.6573419570922852,989.8460083007812,1,1.0,1
13.68,-0.31330290000000005,7.6272984,4.935220200000001,1.9768029451370241,0.5323643088340759,-0.09223946928977966,0.9457664489746094,-25.940452575683594,-16.97581672668457,-1.011326551437378,0.6773524284362793,-0.8469405174255371,989.8358154296876,1,1.0,1
13.72,-1.6301895,6.5309919999999995,5.6430087,1.9822628498077397,0.1633836328983307,-0.17746034264564514,1.0897574424743652,-29.02035903930664,-14.662225723266602,0.498442530632019,2.1167879104614262,-0.8515925407409668,989.8433837890624,1,1.0,1
13.76,-1.9289781000000004,7.217377000000001,3.3065758,1.9822628498077397,0.1633836328983307,-0.17746034264564514,1.0897574424743652,-29.02035903930664,-14.662225723266602,0.5858500003814697,1.9298963546752932,0.05013895034790039,989.8433837890624,1,1.0,1
13.8,-0.9085407,8.270788,1.8057647000000001,2.1570999622344966,0.4416835904121399,-0.2496315240859985,2.39319920539856,-33.80847930908203,-9.270990371704102,-1.1667404174804688,0.7874259948730469,1.3619167804718018,989.853271484375,1,1.0,1
13.84,-1.9601482,8.001478,1.4175388999999998,2.1570999622344966,0.4416835904121399,-0.2496315240859985,2.39319920539856,-33.80847930908203,-9.270990371704102,0.0082244873046875,1.0452842712402344,1.2228612899780271,989.853271484375,1,1.0,1
13.88,-0.44500124,9.276534,1.9028108,1.2554888725280762,-0.019043078646063805,-0.721276581287384,4.220490455627441,-37.78936767578125,-5.0085105895996085,-1.5754754543304443,0.25789737701416016,-0.2734999656677246,989.8300170898438,1,1.0,1
13.92,-3.9247494,7.4652433,1.4269983999999998,0.7205938100814819,0.003726854454725981,-0.7617563009262085,5.652726650238037,-38.924781799316406,-4.0849971771240225,0.6097607612609863,1.9122533798217771,0.9020929336547852,989.8098754882812,1,1.0,1
13.96,-3.4300904,8.644967,0.76180995,0.9265895485877992,-0.5874944925308228,-1.4310078620910645,6.81289005279541,-39.68310928344727,-2.6797122955322266,0.8569133281707764,0.6672086715698242,0.7109674215316772,989.8602905273438,1,1.0,1
14.0,-3.3393245000000005,8.995311000000001,1.0884793,0.8629407286643982,-0.6066693067550659,-0.8613580465316772,8.012209892272951,-40.72087860107422,-1.1871280670166016,0.1259927749633789,-0.02345180511474609,-0.2745624780654907,989.855224609375,1,1.0,1
14.04,-4.0467863,8.363744,0.6789485,0.3710556924343109,0.06444664299488068,-0.7531003952026367,9.221098899841307,-41.01177215576172,-0.43258094787597656,0.943373203277588,1.1257972717285156,1.192510724067688,989.8575439453124,1,1.0,1
14.08,-3.1554036,8.866616,2.5727057,0.055338717997074134,0.28016242384910583,-0.5859870910644531,10.529504776000977,-40.734596252441406,-0.9583568572998048,-0.3877997398376465,0.2886199951171875,-1.1708500385284424,989.8728637695312,1,1.0,1
14.12,-3.3394769999999996,8.709321000000001,1.9832678,0.12644554674625394,0.2471391707658768,-0.3317883014678955,11.352134704589846,-40.807525634765625,-0.4649791717529297,-0.3804948329925537,0.3916521072387695,-1.4897798299789429,989.8424072265624,1,1.0,1
14.16,-3.2988991999999997,8.938117,0.14394692,0.5352408885955809,0.7263745069503784,-0.426463395357132,12.461645126342773,-41.56056213378906,0.8708133697509766,-0.8894064426422119,-0.21650218963623047,0.8344322443008423,989.872314453125,1,1.0,1
14.2,-3.5952977999999995,8.613992999999999,1.0884559999999999,0.7457640767097473,0.6066654920578003,-0.6493695378303528,14.565122604370115,-41.90904235839844,1.1059551239013672,-0.4540395736694336,0.30579090118408203,-1.0613887310028076,989.8572998046876,1,1.0,1
14.24,-3.6885547999999995,8.409032,-0.114087425,0.9690703749656676,0.15406152606010434,-0.7689452171325684,16.11238670349121,-42.621482849121094,3.29572868347168,-1.6739697456359863,-0.055957794189453125,-0.35034292936325073,989.8873291015624,1,1.0,1
14.28,-4.3745074,8.618762,-1.3687093000000001,0.8995624780654907,0.6838968992233276,-0.848173975944519,17.698266983032227,-43.24508666992188,5.474355697631836,-0.17310380935668945,-0.4624242782592773,1.2251343727111816,989.8545532226562,1,1.0,1
14.32,-4.006513,8.246971,-0.9946959999999999,1.128727912902832,0.0926755666732788,-0.8608237504959106,19.147268295288086,-43.943992614746094,7.370542526245117,-1.6572828292846682,-0.08332347869873047,-0.4842453002929688,989.8846435546876,1,1.0,1
14.36,-5.027051999999999,7.7321843999999995,-1.8942376,0.9138113260269164,0.1944081336259842,-1.0343283414840698,21.162723541259766,-44.586387634277344,8.868196487426758,-0.5379567146301271,0.2182879447937012,0.9436835050582886,989.8795776367188,1,1.0,1
14.4,-5.684326,7.322261999999999,-1.4397393,0.6757254004478455,0.3408818244934082,-1.1033039093017578,23.322723388671875,-43.51354217529297,11.013053894042967,-0.4073128700256348,0.3044924736022949,-0.5159953832626343,989.864501953125,1,1.0,1
14.44,-6.3936605,6.8193784,-2.4457579,0.6721306443214417,0.29054802656173706,-1.0170173645019531,25.02447891235352,-42.65837097167969,12.086498260498047,0.327700138092041,0.5336260795593262,1.0413745641708374,989.8795776367188,1,1.0,1
14.48,-5.7454996,6.8122163,-2.0716944,0.6521574258804321,0.142209991812706,-0.8361886739730835,26.903057098388672,-43.376068115234375,13.301712989807127,-0.5409188270568848,0.4257011413574219,-0.26631784439086914,989.8842163085938,1,1.0,1
14.52,-5.4969589999999995,6.862265600000001,-2.72741,0.5201895833015442,0.28535616397857666,-0.6389853954315186,28.44287872314453,-42.77769470214844,14.107199668884276,-1.0446343421936035,0.11884021759033205,0.3680350780487061,989.8739013671876,1,1.0,1
14.56,-5.982118,6.3975267,-3.1132646,0.6023468971252441,0.3233063519001007,-0.7272695899009705,29.90489959716797,-43.20097351074219,15.908267974853516,-0.6865549087524414,0.32935190200805664,0.6193575859069824,989.9017944335938,1,1.0,1
14.6,-6.182879,6.163965,-3.548831,0.5814412236213684,0.2025320529937744,-0.8873254656791687,31.58366394042969,-42.89411926269531,17.017337799072266,-0.8910794258117676,0.09110355377197266,0.9150660037994384,989.8560791015624,1,1.0,1
14.64,-6.2378554,5.906571400000001,-3.02568,0.5653291940689087,-0.002531162928789854,-0.923411190509796,32.863479614257805,-40.80052947998047,17.313493728637695,-0.9144721031188964,0.11285734176635742,0.1300485134124756,989.8736572265624,1,1.0,1
14.68,-6.421887,5.422766,-4.2045474,0.4288424253463745,0.03954673558473587,-0.8814663290977478,34.45547866821289,-40.20598220825195,18.111164093017575,-1.0101180076599119,0.2696466445922852,1.3270528316497805,989.8785400390624,1,1.0,1
14.72,-6.718242999999999,5.0986404,-3.6908654999999997,0.4757140576839447,-0.11025596410036087,-0.9544368982315063,36.55430603027344,-39.03224182128906,20.02859115600586,-1.0828757286071775,0.2595829963684082,0.7908115386962891,989.8582763671876,1,1.0,1
14.76,-7.722011,4.707783,-3.4991226,0.41552674770355225,-0.3376897275447845,-1.0194178819656372,38.367042541503906,-38.54711151123047,20.875633239746094,-0.386782169342041,0.226900577545166,0.5813608169555664,989.8937377929688,1,1.0,1
14.8,-7.769817999999999,4.500438,-3.278974,0.30580469965934753,-0.3121234178543091,-0.9905226230621338,39.976219177246094,-37.19830703735352,20.54874038696289,-0.1456313133239746,0.2940640449523926,0.6932334899902344,989.9010009765624,1,1.0,1
14.84,-8.156991,3.8569531,-3.3547251000000005,0.18356582522392276,-0.3082618713378906,-0.8018378615379333,41.38927459716797,-36.29663848876953,20.43220329284668,-0.3792314529418945,0.3905067443847656,0.4143524169921875,989.9111328125,1,1.0,1
14.88,-8.051845,3.501845,-2.9641376,0.10593479126691817,-0.1814955323934555,-0.7453787922859192,42.06067657470703,-34.98348999023437,20.86777877807617,-0.2214508056640625,0.7511038780212402,0.4914867877960205,989.9213256835938,1,1.0,1
14.92,-8.474866,3.2682838,-3.0114822,0.10593479126691817,-0.1814955323934555,-0.7453787922859192,43.29019165039063,-34.991382598876946,21.140682220458984,-0.3422212600708008,0.7317171096801758,0.2418961524963379,989.9213256835938,1,1.0,1
14.96,-9.182284,3.3874480000000005,-3.2197971,0.1729133278131485,-0.3283687233924866,-0.6118213534355164,44.332916259765625,-33.699092864990234,21.21232414245605,0.2448883056640625,0.29097414016723633,0.6499896049499512,989.8854370117188,1,1.0,1
15.0,-9.662664,3.4446468,-3.0493593,0.4217855930328369,-0.4074645936489105,-0.6156828999519348,45.12802124023438,-33.11248779296875,20.901508331298828,0.8388681411743164,0.2042672634124756,0.5110228061676025,989.8959350585938,1,1.0,1
15.04,-9.256391,3.587644,-3.409175,0.5683925747871399,-0.5418209433555603,-0.5417801737785339,45.67634963989258,-32.967735290527344,20.731557846069336,0.5812749862670898,-0.13009166717529294,1.3207709789276123,989.90576171875,1,1.0,1
15.08,-9.062818,3.504229,-2.6848116,0.09288574010133743,-0.10466346889734268,-0.1846504807472229,46.40642166137695,-32.126724243164055,21.647624969482425,0.5024642944335938,-0.117783784866333,1.0497415065765379,989.8600463867188,1,1.0,1
15.12,-9.067605,3.0347237999999996,-3.0114862999999996,0.09288574010133743,-0.10466346889734268,-0.1846504807472229,46.40642166137695,-32.126724243164055,21.647624969482425,0.6551237106323242,0.3104383945465088,0.7966732978820801,989.8600463867188,1,1.0,1
15.16,-8.240708,3.223003,-3.0683002,0.010727383196353912,0.2434113770723343,-0.27186888456344604,46.37335205078125,-31.84138298034668,21.2511043548584,-0.5388107299804688,0.12691831588745114,0.8890542984008789,989.8573608398438,1,1.0,1
15.2,-8.972027,2.9989748,-2.2208424,0.018317559733986855,-0.08815190941095352,-0.014075055718421938,46.81482696533203,-32.06021881103516,21.3498477935791,-0.4035911560058594,0.17366456985473633,-0.2375943660736084,989.9992065429688,1,1.0,1
15.24,-9.37593,2.7725635,-2.2634529999999997,-0.09886134415864943,0.06844180822372438,-0.07665925472974777,46.64031219482422,-31.85459899902344,20.902801513671875,0.30072498321533203,0.4709007740020752,-0.25968575477600103,989.8086547851562,1,1.0,1
15.28,-9.390278,2.8440623,-2.6303701,0.13256724178791046,-0.2482077926397324,-0.006884453352540731,46.83683776855469,-31.88166809082031,21.48997688293457,0.4032888412475586,0.43666672706604,0.1525893211364746,989.8087158203124,1,1.0,1
15.32,-9.390286,2.8750447999999995,-2.3770804,0.2321694642305374,-0.3956136405467987,0.052504021674394614,46.78077697753906,-32.144638061523445,21.129079818725586,0.4957065582275391,0.3624954223632813,-0.0738978385925293,989.8671264648438,1,1.0,1
15.36,-9.091558000000001,3.187255,-2.0433056,-0.06796845048666,-0.23862044513225555,0.06795038282871246,46.80956268310547,-32.22256851196289,20.359363555908203,0.36752986907958973,0.1792607307434082,-0.3910942077636719,989.8644409179688,1,1.0,1
15.4,-8.711572,3.411283,-2.3036985,-0.05278835445642471,-0.07164039462804794,0.16156046092510226,46.56376647949219,-32.29464340209961,20.324472427368164,-0.1558389663696289,-0.0918419361114502,-0.11265373229980467,989.8745727539062,1,1.0,1
15.44,-9.281189999999999,3.25639,-1.8753102,0.032033339142799384,-0.24154995381832126,0.08073361217975616,46.419960021972656,-32.63969039916992,19.827932357788086,0.18991756439208984,-0.035891056060791016,-0.3059266805648804,989.9046020507812,1,1.0,1
15.48,-9.040677,3.2564116000000003,-1.9629762,-0.016165889799594883,-0.0964084267616272,0.01855054870247841,45.87138366699219,-31.784019470214844,20.324302673339844,0.17563247680664062,0.08609962463378906,-0.11313533782958984,989.881591796875,1,1.0,1
15.52,-8.918866,3.075284,-2.0174286,-0.08353601396083833,0.01717532426118851,0.062106251716613776,46.05375289916992,-32.98270034790039,20.05840301513672,-0.03779125213623047,0.3207049369812012,0.08217883110046388,989.8641967773438,1,1.0,1
15.56,-9.160321000000001,2.9585052000000003,-1.8943408,-0.12761057913303375,-0.009855854324996471,0.010707584209740162,45.67127227783203,-31.3916072845459,19.79328727722168,0.005860328674316406,0.3365347385406494,-0.07901942729949951,989.8790283203124,1,1.0,1
15.6,-9.552338,2.839343,-1.9345900000000003,0.011939645744860172,-0.2211776226758957,-0.03429949283599853,45.66738510131836,-31.65839767456055,19.424575805664066,0.4932804107666016,0.4682116508483887,0.039484620094299316,989.9166259765624,1,1.0,1
15.64,-9.418576,3.0919724,-1.7901973999999998,-0.06981862336397171,-0.17497192323207855,0.04546241834759712,45.84660339355469,-31.753684997558594,18.94062805175781,0.4539394378662109,0.3317971229553223,-0.09310591220855713,989.8711547851562,1,1.0,1
15.68,-8.565455,3.6019957000000002,-1.7570633000000002,-0.2702206075191498,0.058586984872817986,0.1896727681159973,45.71415328979492,-31.930482864379886,19.12535095214844,-0.16265487670898438,0.0484156608581543,0.12743628025054932,989.893798828125,1,1.0,1
15.72,-8.536850999999999,3.4566178,-1.5629594,-0.2361314743757248,-0.026767369359731674,0.2867451906204224,45.08291625976562,-31.941059112548828,17.529586791992188,-0.5436372756958008,0.13035058975219727,-0.3547234535217285,989.8633422851562,0,0.0,0
15.76,-8.37919,3.7187803,-2.0340395,-0.18193547427654266,0.14260941743850708,0.20085863769054413,45.2835693359375,-32.701766967773445,18.159053802490234,-0.29022979736328125,0.08422255516052246,0.05700063705444336,989.8732299804688,0,0.0,0
15.8,-8.247819999999999,3.8736949999999997,-2.4577754,-0.12254633754491805,0.18055932223796844,0.21271000802516934,45.05119705200195,-32.97241973876953,18.82657241821289,-0.7622184753417969,-0.007374286651611328,0.6775953769683838,989.921630859375,0,0.0,0
15.84,-9.005492,3.6711183,-1.508534,-0.18473036587238312,-2.9762013582512736e-06,0.09526500105857848,45.16468048095703,-32.971221923828125,18.347110748291016,0.2731037139892578,0.2837080955505371,-0.3279136419296265,989.8961181640624,0,0.0,0
15.88,-9.0629225,3.8331828000000003,-2.0056534,-0.2499770671129227,-0.07457152009010315,0.030683707445859913,44.764564514160156,-33.292739868164055,17.657737731933594,0.31984996795654297,0.06286787986755371,0.2471892833709717,989.92138671875,0,0.0,0
15.92,-8.847905,3.6925712,-1.8115493999999999,-0.28459739685058594,0.13182316720485687,0.090205617249012,44.48860931396485,-33.182445526123054,17.770790100097656,0.13701534271240234,0.34802937507629395,0.05649650096893311,989.9239501953124,0,0.0,0
15.96,-8.499053,3.9642668,-1.9677914,-0.1529035121202469,-0.07949861139059068,0.05824800953269005,44.47116088867188,-33.356582641601555,17.398746490478516,-0.35413265228271484,0.0411224365234375,0.2222261428833008,989.8984985351562,0,0.0,0
16.0,-8.628182,4.152548,-1.4470136,-0.2353275716304779,0.02542973682284355,0.04107094183564186,44.25444412231445,-32.874454498291016,17.01900863647461,-0.112213134765625,-0.09746313095092772,-0.11149728298187256,989.8656005859376,0,0.0,0
16.04,-8.405994,4.4170932999999994,-1.7594912,-0.4041703641414641,0.3400817513465881,0.026690486818552017,43.82196044921875,-32.752696990966804,17.155513763427734,-0.4615936279296875,-0.5277614593505859,0.1066046953201294,989.8927612304688,0,0.0,0
16.08,-7.908967999999999,4.5743914000000006,-1.8186779,-0.20549805462360385,0.14393997192382812,-0.0891566202044487,44.548526763916016,-33.07299041748047,16.677371978759766,-0.9558038711547852,-0.580369234085083,0.3547160625457764,989.88037109375,0,0.0,0
16.12,-8.420482000000002,4.3169994,-2.3442035,-0.20549805462360385,0.14393997192382812,-0.0891566202044487,44.548526763916016,-33.07299041748047,16.677371978759766,-0.8110251426696777,-0.4955530166625977,0.4681321382522583,989.88037109375,0,0.0,0
16.16,-8.458793,4.2335863,-2.4057577,-0.2358566224575043,0.20039868354797366,-0.2798382043838501,44.82756042480469,-31.968074798583984,15.337970733642578,-0.5302419662475586,-0.4106879234313965,0.6742242574691772,989.8496704101562,0,0.0,0
16.2,-9.551051,3.6925839999999996,-2.5833044,-0.2358566224575043,0.20039868354797366,-0.2798382043838501,44.82756042480469,-31.968074798583984,15.337970733642578,0.20512866973876956,-0.042543888092041016,0.8392939567565918,989.8496704101562,0,0.0,0
16.24,-9.694519999999999,3.621087,-2.7064056,-0.26488435268402105,0.2592543959617615,-0.310730516910553,45.44374465942383,-30.654052734375,15.93597412109375,0.5392684936523438,0.12997126579284668,0.9888701438903807,989.8724975585938,0,0.0,0
16.28,-8.987182,3.7617025,-2.3655353,-0.2007015198469162,0.011846817098557949,-0.014453797601163387,45.35569763183594,-31.36825942993164,15.375457763671875,-0.08364009857177734,-0.050841569900512695,0.4560343027114868,989.8592529296876,0,0.0,0
16.32,-8.287014,4.409956,-2.0293992,-0.2354550361633301,-0.1320970207452774,0.17329920828342438,45.16817092895508,-31.438268661499023,15.023530960083008,-0.7778787612915039,-0.6929059028625488,0.39825284481048573,989.8643188476562,0,0.0,0
16.36,-8.48067,4.4099580000000005,-1.5086215,-0.04903321340680122,-0.3551366925239563,0.1302894949913025,45.0754508972168,-31.050552368164066,14.322273254394533,-0.2892322540283203,-0.4727339744567871,-0.03404951095581055,989.88427734375,0,0.0,0
16.4,-8.064900999999999,4.0786843,-1.4139402,-0.17060571908950806,-0.16884885728359222,-0.029899204149842262,44.86316299438477,-30.669923782348636,14.409698486328125,-0.9528360366821288,0.06216096878051758,-0.2183539867401123,989.8994750976562,0,0.0,0
16.44,-7.688447,3.2373564,-0.31071043,-0.17060571908950806,-0.16884885728359222,-0.029899204149842262,44.86316299438477,-30.669923782348636,14.409698486328125,-1.430633544921875,0.24521517753601074,-1.042144536972046,989.8994750976562,0,0.0,0
16.48,-8.491475999999999,2.9823459999999997,-0.43617412,-0.2184087038040161,-0.0428815521299839,-0.01471889577805996,44.31040954589844,-30.71318435668945,14.112485885620115,-0.6909551620483398,1.0344038009643557,-0.9409382343292236,989.88427734375,0,0.0,0
16.52,-10.047323,3.5090513,-1.7144654,0.3739983439445496,-0.19774183630943296,0.02522561140358448,44.22624969482422,-31.16059875488281,13.920681953430176,1.1034345626831057,0.5148229598999023,0.1342219114303589,989.9044189453124,0,0.0,0
16.56,-8.847614,4.1501536,-0.8172976,0.2180705815553665,0.0560571514070034,0.16797101497650144,44.25489044189453,-31.34444236755371,13.850040435791016,0.3089017868041992,-0.06019663810729981,-0.3712936043739319,989.9019165039062,0,0.0,0
16.6,-8.113935000000001,4.712608,-1.5771716,0.06973285973072052,-0.29068616032600403,0.4274958968162537,42.99727249145508,-31.52099609375,13.746228218078613,-0.7541875839233398,-0.5516314506530762,0.03851056098937988,989.858642578125,0,0.0,0
16.64,-8.204774,4.4647474,-1.6979009999999999,0.2178046852350235,-0.1692461520433426,0.4152454435825348,42.614166259765625,-32.40643310546875,13.703105926513672,-0.4993257522583008,-0.09406232833862303,0.462041974067688,989.8612670898438,0,0.0,0
16.68,-8.725794,3.9428099999999997,-1.2954783,0.16094647347927096,-0.2456788420677185,0.18674655258655548,42.05879592895508,-31.714584350585934,13.286296844482422,-0.2378530502319336,0.1159663200378418,0.3283611536026001,989.8635864257812,0,0.0,0
16.72,-9.34958,3.8903785,-0.33202909999999997,0.08398139476776123,-0.3399547040462494,0.0011244707275182009,41.90585708618164,-32.06846237182617,13.25358772277832,0.5648193359375,0.2288503646850586,-0.7829271554946899,989.8609008789062,0,0.0,0
16.76,-8.840552,3.9189781999999997,-0.23734294,0.11767054349184035,-0.5058695077896118,0.1080503836274147,41.415931701660156,-32.10523223876953,12.40742301940918,0.15448284149169922,0.3882415294647217,-0.6911417841911316,989.8683471679688,0,0.0,0
16.8,-9.093904,4.2168884,-0.002991883,0.04656442627310753,-0.252336859703064,0.2900773584842682,40.81999206542969,-32.24175262451172,12.353275299072266,0.4226484298706055,0.18491744995117188,-0.9842574000358582,989.88818359375,0,0.0,0
16.84,-9.046127,4.3312864,0.54146266,0.17146678268909454,-0.06351891160011293,0.3341527283191681,40.226951599121094,-32.481231689453125,12.84359359741211,0.5361900329589844,0.17444276809692386,-1.2006127834320068,989.8905639648438,0,0.0,0
16.88,-8.933824000000001,5.0009879999999995,-1.3002228,0.4411118030548096,0.0884142592549324,0.2947380542755127,39.79914093017578,-33.46140289306641,13.120840072631836,0.1476879119873047,-0.6174101829528809,0.4894109964370728,989.8857421875,0,0.0,0
16.92,-9.378366999999999,4.8889747,-2.7536869999999998,1.0298032760620115,-0.2142537534236908,0.1903423517942429,39.735877990722656,-34.205944061279304,13.943998336791992,0.7019433975219727,-0.3412356376647949,1.6186726093292236,989.8804321289062,0,0.0,0
16.96,-8.895627000000001,4.836543,-1.9961841,0.8163512349128723,-0.280300110578537,0.04520028457045555,39.47899627685547,-35.026390075683594,14.724449157714846,0.5925531387329102,-0.2515573501586914,0.863511323928833,989.8599853515624,0,0.0,0
17.0,-8.40811,4.438536,-1.0777116000000002,0.1269928514957428,-0.05672799423336983,0.18581515550613406,39.19488525390625,-34.55516815185547,15.12557888031006,-0.04711723327636719,0.3753504753112793,-0.4149075746536255,989.8447265625,0,0.0,0
17.04,-8.898061,3.9571142,-0.6326795999999999,-0.14411650598049164,-0.04594223201274872,0.13148680329322815,38.593833923339844,-34.32781219482422,15.20489501953125,0.38698387145996094,0.6143755912780762,-0.4870543479919434,989.8822631835938,0,0.0,0
17.08,-9.163362,3.7736025,-0.41489893,-0.02786940708756447,-0.08522386103868483,0.06544055044651031,38.55978393554688,-34.4122314453125,14.984128952026367,0.4093313217163086,1.0059173107147217,-0.6877577304840088,989.8624877929688,0,0.0,0
17.12,-8.487041,3.830802,-0.8244269000000001,0.107552632689476,-0.5771093964576721,0.5124518871307373,37.18646240234375,-34.7493896484375,14.214685440063475,-0.38669681549072266,1.0362424850463867,-0.0861625075340271,989.87451171875,0,0.0,0
17.16,-8.32216,4.3551235,-0.19475304,0.107552632689476,-0.5771093964576721,0.5124518871307373,37.18646240234375,-34.7493896484375,14.214685440063475,-0.2785072326660156,0.8119740486145021,-0.5289334058761597,989.87451171875,0,0.0,0
17.2,-8.453626,4.874678599999999,-0.09769974,-0.05742984637618065,-0.3282372057437897,0.3718372583389282,36.52546691894531,-35.05179214477539,13.564393997192385,0.15758991241455078,0.3459510803222656,-0.3479360938072205,989.8745727539062,0,0.0,0
17.24,-8.950747,4.7817316,-0.7013383000000001,0.009149331599473952,-0.049404505640268326,0.20219412446022034,36.00425720214844,-35.38187026977539,13.741008758544922,0.461338996887207,0.410459041595459,-0.4794324636459351,989.8768310546876,0,0.0,0
17.28,-8.558824000000001,5.065342,-1.0824599,-0.10829555988311768,0.044604931026697166,0.10046163946390152,35.579383850097656,-35.25274658203125,13.490987777709961,0.17760276794433594,0.03161287307739258,0.17696142196655273,989.8661499023438,0,0.0,0
17.32,-9.046386,4.796032,-0.55457574,-0.10829555988311768,0.044604931026697166,0.10046163946390152,35.579383850097656,-35.25274658203125,13.490987777709961,0.6771774291992188,0.2020864486694336,-0.16126012802124026,989.8661499023438,0,0.0,0
17.36,-8.169313,4.722151,-0.42438155,-0.2688838243484497,0.15659071505069733,0.012577477842569351,35.616477966308594,-35.165382385253906,13.557144165039062,0.2583103179931641,0.6603436470031738,-0.1090693473815918,989.8788452148438,0,0.0,0
17.4,-8.021239999999999,5.077262,-0.59246206,-0.07433988153934479,-0.17284205555915833,0.09513548761606216,35.93463897705078,-35.55218505859375,13.37678050994873,-0.5174574851989746,0.1341390609741211,-0.04317837953567505,989.9117431640624,0,0.0,0
17.44,-8.602091999999999,4.8174872,0.013532068999999999,0.033651620149612434,-0.15459947288036344,-0.03296227753162384,35.94018173217773,-35.17799758911133,12.969109535217285,0.4607477188110352,0.3886442184448242,-0.6537660360336304,989.8756103515624,0,0.0,0
17.48,-7.911438,4.9604845,-0.5167239,0.09903255850076677,-0.25020647048950195,0.046536460518836975,36.00798034667969,-35.64129638671875,12.98577117919922,-0.2940540313720703,0.2904691696166992,-0.041009634733200066,989.8658447265624,0,0.0,0
17.52,-8.743151,4.8341712999999995,-0.9073148000000001,0.09903255850076677,-0.25020647048950195,0.046536460518836975,35.91178512573242,-35.99457931518555,12.713329315185547,0.6353225708007812,0.2933926582336426,0.7500534653663635,989.8658447265624,0,0.0,0
17.56,-9.020408,4.552944999999999,-0.28711033,0.09903255850076677,-0.25020647048950195,0.046536460518836975,35.91178512573242,-35.99457931518555,12.713329315185547,0.6008358001708984,0.293093204498291,0.20808380842208865,989.8658447265624,0,0.0,0
17.6,-8.967858,4.7007093,-0.3249881,-0.11362040787935256,0.0940067321062088,-0.07503662258386612,36.07219696044922,-35.73925018310547,13.058592796325685,0.7379779815673828,0.6947245597839355,-0.1733420491218567,989.86572265625,0,0.0,0
17.64,-8.762353,5.456208999999999,-0.04566077,-0.3977791666984558,0.08029141277074814,-0.022971749305725098,36.5363655090332,-36.041908264160156,12.69683837890625,0.5297174453735352,-0.2946186065673828,-0.4448792934417725,989.8804931640624,0,0.0,0
17.68,-8.659616,5.0510526,-0.32972762,-0.3812670409679413,0.4239719808101654,0.04800165817141533,36.74933624267578,-36.684913635253906,12.00878620147705,0.34395694732666016,0.2053475379943848,-0.2748584747314453,989.89599609375,0,0.0,0
17.72,-8.093237,5.2297993,0.013514183,-0.3812670409679413,0.4239719808101654,0.04800165817141533,36.74933624267578,-36.684913635253906,12.00878620147705,0.08699321746826172,0.2535519599914551,-0.6212763786315918,989.89599609375,0,0.0,0
17.76,-8.999038,4.6792625999999995,-0.48360088,-0.2363909631967545,0.3355550765991211,-0.1056624799966812,37.51109313964844,-36.02479934692383,12.699604034423828,0.0406484603881836,-0.12549257278442386,-0.3160470724105835,989.9209594726562,0,0.0,0
17.8,-8.967998,4.82226,-0.7463628999999999,0.06028520688414574,-0.008525106124579906,-0.17570343613624573,37.81460571289063,-35.582359313964844,12.319005966186525,0.8063592910766602,0.2601470947265625,0.17235827445983887,989.8928833007812,0,0.0,0
17.84,-8.678847,4.490985,-0.43152749999999995,0.09091207385063173,-0.013452038168907166,-0.14813953638076782,38.55696105957031,-35.83591079711914,12.98929214477539,0.3594474792480469,0.4598221778869629,-0.5072162747383118,989.8754272460938,0,0.0,0
17.88,-8.157876,4.7841287,-0.70375836,0.08039286732673645,-0.109858438372612,-0.0551951676607132,38.667945861816406,-36.20595169067383,12.762889862060547,-0.339777946472168,0.11652040481567386,0.006308019161224365,989.8770751953124,0,0.0,0
17.92,-8.239161,4.827028299999999,-0.07408508,-0.01867637783288956,-0.11744847893714905,-0.018443457782268524,38.85906219482422,-36.50128936767578,13.0586576461792,-0.3166122436523437,-0.006428718566894531,-0.4695042371749878,989.889892578125,0,0.0,0
17.96,-8.191391000000001,4.9152107,-0.37472236,9.916260023601353e-05,-0.34328436851501465,-0.041346509009599686,38.733680725097656,-36.302433013916016,12.758405685424805,-0.14730358123779294,0.18598031997680664,-0.05182477831840515,989.9021606445312,0,0.0,0
18.0,-7.9380894,4.8842287,-0.045683764,0.09477472305297853,-0.3805686235427856,-0.06944271922111511,38.42559814453125,-36.749290466308594,13.370916366577148,-0.7483386993408203,-0.07498741149902344,-0.26775094866752625,989.8720092773438,0,0.0,0
18.04,-7.8377414000000005,5.0701246,-0.07172555,0.03671814128756523,-0.285493940114975,-0.029628381133079532,38.44041442871094,-36.26035690307617,11.800338745117188,-0.517519474029541,-0.11626386642456055,-0.3341355621814728,989.8720092773438,0,0.0,0
18.08,-8.131727,4.893763,0.09160886,-0.05595952272415161,-0.08855338394641876,-0.0976719781756401,38.86278533935547,-36.76071548461914,12.303421020507812,-0.3499078750610352,-0.027784347534179688,-0.23235201835632324,989.889404296875,0,0.0,0
18.12,-8.399424,4.858014,-0.040957026,-0.03318924829363823,0.0005292407004162669,-0.14827188849449158,39.117034912109375,-36.417423248291016,12.475107192993164,-0.205078125,-0.03641462326049805,-0.3034864366054535,989.8916625976562,0,0.0,0
18.16,-8.681460000000001,4.757917400000001,-0.2895158,0.08612054586410522,-0.046076081693172455,-0.13695332407951355,39.3379135131836,-36.42092514038086,11.825401306152346,0.11699962615966795,0.02028894424438477,0.018510043621063232,989.8714599609376,0,0.0,0
18.2,-8.440108,4.8032007000000005,-0.5120354,0.13245975971221924,-0.051801912486553185,-0.10925635695457457,39.53984069824219,-36.17973327636719,12.703983306884766,-0.24486446380615234,-0.0856771469116211,0.23166853189468384,989.8865356445312,0,0.0,0
18.24,-8.236995,4.748385400000001,-0.5215068,0.1256689727306366,-0.02210774086415768,-0.03415517508983612,39.180702209472656,-36.1470832824707,12.449478149414062,-0.40029144287109375,0.01471710205078125,0.20916512608528134,989.870849609375,0,0.0,0
18.28,-8.072119,4.7793694,-0.388946,0.13086239993572235,-0.07736832648515701,-0.014847157523036003,39.24491882324219,-36.24504089355469,12.522298812866213,-0.5412883758544922,-0.051355838775634766,0.2278163731098175,989.8784790039062,0,0.0,0
18.32,-8.153404,4.667356,-0.4197222,0.13432477414608002,-0.08602364361286162,-0.0044607226736843595,39.39407730102539,-37.26429748535156,12.558954238891602,-0.5314512252807617,0.02653646469116211,0.2520061433315277,989.8834228515624,0,0.0,0
18.36,-8.404372,4.419495599999999,-0.55228806,0.15389926731586456,-0.11931316554546355,-0.04627219960093498,39.26565170288086,-37.06838607788086,12.413311958312988,-0.20687580108642575,0.22787857055664065,0.1361648440361023,989.8832397460938,0,0.0,0
18.4,-8.481511,4.407595,-0.75119376,0.2380553483963013,-0.12490584701299667,-0.023368919268250462,39.19977569580078,-37.07782745361328,13.11687469482422,-0.15085411071777344,0.3701815605163574,0.4701042473316193,989.8832397460938,0,0.0,0
18.44,-8.648858,4.738872,-0.8482539000000001,0.24924392998218536,-0.07856742292642592,0.048138312995433814,39.10042572021485,-36.32770919799805,12.626385688781738,0.024687767028808597,0.05866813659667969,0.5083909034729004,989.8628540039062,0,0.0,0
18.48,-8.7277775,5.1535645,-0.8316884,0.262160986661911,-0.09960565716028214,0.08170069754123688,38.83843231201172,-36.78428268432617,13.540301322937012,0.14347362518310547,-0.2898545265197754,0.5396360754966736,989.880126953125,0,0.0,0
18.52,-8.8951235,5.2608128,-0.94058454,0.13353145122528076,0.014111060649156569,0.09967745840549468,38.625953674316406,-38.14213180541992,13.575512886047365,0.3989200592041016,-0.4380588531494141,0.5222893953323364,989.8927612304688,0,0.0,0
18.56,-8.639458,5.2560472,-0.81512773,0.13353145122528076,0.014111060649156569,0.09967745840549468,38.625953674316406,-38.14213180541992,13.575512886047365,0.35466480255126953,-0.37351322174072266,0.2851684987545013,989.8927612304688,0,0.0,0
18.6,-7.752857700000001,5.377596,-1.2862058,0.0581645555794239,0.10918574780225754,0.13882611691951752,38.71356201171875,-38.165977478027344,14.410235404968262,-0.6415915489196777,-0.5517549514770508,0.7732630372047424,989.9076538085938,0,0.0,0
18.64,-7.8222179999999994,5.055855,-1.0305529,-0.03997182101011276,0.0977339893579483,-0.10791511088609697,38.423500061035156,-37.59473419189453,14.421506881713867,-0.5623087882995605,-0.10044097900390624,0.38239747285842896,989.8896484375,0,0.0,0
18.68,-8.305032,4.71743,-0.9240337,-0.03997182101011276,0.0977339893579483,-0.10791511088609697,38.423500061035156,-37.59473419189453,14.421506881713867,-0.3379201889038086,0.012384891510009766,0.3524996042251587,989.8896484375,0,0.0,0
18.72,-8.685079,4.5887345999999996,-1.222306,-0.04383288323879242,0.054457582533359535,-0.20272333920001984,38.47719955444336,-37.59708786010742,14.336385726928713,0.04897308349609375,0.18344879150390625,0.613605797290802,989.8873901367188,0,0.0,0
18.76,-8.787898,4.5553703,-0.9950595,-0.09469819813966752,0.04793267324566841,-0.13494551181793213,39.20102310180664,-37.288185119628906,14.437725067138672,0.18352413177490234,0.17595243453979492,0.3825556039810181,989.8845825195312,0,0.0,0
18.8,-8.7616625,4.48149,-1.1773388,0.0029070964083075523,0.08508365601301192,-0.14306791126728058,39.34246826171875,-37.20846176147461,14.488248825073242,0.1336507797241211,0.18041467666625974,0.6874893307685852,989.8892822265624,0,0.0,0
18.84,-8.854922,4.3027453,-1.5821353999999999,0.0029070964083075523,0.08508365601301192,-0.14306791126728058,39.62839889526367,-37.04606628417969,14.434684753417967,0.20633411407470706,0.2730641365051269,1.021581530570984,989.8892822265624,0,0.0,0
18.88,-9.029438,4.283680400000001,-1.3264825,0.0029070964083075523,0.08508365601301192,-0.14306791126728058,39.62839889526367,-37.04606628417969,14.434684753417967,0.32690906524658203,0.23035573959350586,0.789313018321991,989.8892822265624,0,0.0,0
18.92,-8.964964,4.20265,-1.1394784,0.01462550926953554,0.07256673276424408,-0.176224023103714,40.03129196166992,-36.14148330688477,13.472841262817385,0.30692100524902344,0.28031110763549805,0.6275655031204224,989.9197998046876,0,0.0,0
18.96,-8.711687,4.2384010000000005,-0.88619256,-0.06873084604740143,-0.030364442616701126,-0.17848749458789825,40.436222076416016,-36.81598281860352,13.603879928588867,0.05333900451660156,0.20226526260375974,0.243805468082428,989.8740844726562,0,0.0,0
19.0,-8.687841,4.1716704,-0.5453203000000001,-0.2084130048751831,0.06271287053823471,-0.10445145517587663,40.96033477783203,-36.58887481689453,13.97173309326172,-0.12745952606201172,0.2405896186828613,0.1302770972251892,989.9091796875,0,0.0,0
