Timestamp,Ax,Ay,Az,Gx,Gy,Gz,Mx,My,Mz,LiAx,LiAy,LiAz,P,Value,Type,GroupType,Activities
0.0,0.081786394,-0.15835,9.75836,0.004173843655735254,-0.0017822034424170852,0.0007772526005282997,-8.914987564086914,21.93732261657715,-37.994285583496094,1.676619291305542,1.1400309801101685,-0.15218067169189453,988.4219360351562,0,13.0,1,1
0.04,0.07215446,-0.16549815,9.782024,0.004173843655735254,-0.0017822034424170852,0.0007772526005282997,-4.470494270324707,27.151166915893555,-36.44377136230469,1.6790587902069092,1.15266752243042,-0.17996978759765625,988.4219360351562,0,13.0,1,1
0.08,0.06969225400000001,-0.15357994,9.763081,0.0014442398678511381,0.0011762457434087992,-0.00021656282478943467,-4.26665735244751,26.499326705932614,-36.66798400878906,1.6758782863616943,1.1369026899337769,-0.14134597778320312,988.4219360351562,0,13.0,1,1
0.12,0.06484014,-0.15357818,9.770177,0.00024651538114994764,0.0006435007089748979,-0.00021626421948894856,-4.295543670654297,27.6835994720459,-36.27092742919922,1.6826438903808594,1.1299304962158203,-0.17373371124267578,988.4330444335938,0,13.0,1,1
0.16,0.079107225,-0.14642657,9.774904,0.001179317943751812,0.0009097035508602858,0.0007161402609199287,-4.222091674804688,26.48813819885254,-36.28927993774414,1.65593159198761,1.1329110860824585,-0.16828632354736328,988.4481811523438,0,13.0,1,1
0.2,0.08381474,-0.14880810000000003,9.774898,-0.0009505121270194651,0.00037695851642638445,0.00018380704568699,-4.7293057441711435,26.80345726013184,-36.38353729248047,1.6628473997116089,1.1262272596359253,-0.1817951202392578,988.4378662109376,0,13.0,1,1
0.24,0.078962564,-0.16072269,9.789094,0.00024860620032995945,-2.2628402803093195e-05,0.0005835796473547816,-4.306657314300537,26.51493263244629,-37.27861022949219,1.646202564239502,1.1384210586547852,-0.16694164276123047,988.4474487304688,0,13.0,1,1
0.28,0.0717206,-0.14642127,9.777251,-0.0009484211914241314,-0.0008218023576773702,0.0007173349731601776,-4.044800758361816,26.865591049194336,-37.493446350097656,1.651329755783081,1.1163511276245115,-0.18001079559326172,988.4855346679688,0,13.0,1,1
0.32,0.07881802,-0.14641948,9.784346000000001,0.0005170130170881748,0.000642821891233325,-0.0002144718891941011,-4.289754390716554,27.057355880737305,-37.00502014160156,1.6550288200378418,1.119801044464111,-0.17493820190429688,988.4903564453124,0,13.0,1,1
0.36,0.08113560000000002,-0.14165117,9.770136,-0.0005475536454468966,-0.000955186551436782,0.00045161650632508094,-4.547043800354004,26.71111488342285,-37.0220947265625,1.6522927284240725,1.108349323272705,-0.16949844360351562,988.4724731445312,0,13.0,1,1
0.4,0.076283485,-0.14403267,9.772497,-0.00014738296158611774,-0.0006889838259667157,-8.0716738011688e-05,-4.085916996002196,26.40551567077637,-37.22924041748047,1.6490572690963743,1.106081485748291,-0.1686687469482422,988.4872436523438,0,13.0,1,1
0.44,0.076211214,-0.14403088,9.7748575,-0.0009456336265429853,0.0013082721270620825,0.0005853717448189856,-4.49359130859375,27.70919609069824,-36.78079223632813,1.6412363052368164,1.1132497787475586,-0.15366268157958984,988.4618530273438,0,13.0,1,1
0.48,0.06896919,-0.15832873,9.774851,-0.00027914729434996843,0.00024289556313306093,0.0013846179936081169,-4.440330505371094,26.968793869018555,-36.591712951660156,1.6523349285125732,1.124907612800598,-0.16226673126220706,988.469482421875,0,13.0,1,1
0.52,0.073676705,-0.15356044,9.781946000000001,-0.001077397959306836,-0.00015669144340790808,-0.0006124524516053497,-4.242687225341797,27.41740226745605,-36.879371643066406,1.649006485939026,1.1130558252334597,-0.17562484741210938,988.47412109375,0,13.0,1,1
0.56,0.073604345,-0.1487921,9.7772045,-0.0001445953967049718,0.00024266925174742934,-7.952208397909999e-05,-4.410846710205078,27.04879570007324,-36.13903045654297,1.622104287147522,1.1015018224716189,-0.1701335906982422,988.46435546875,0,13.0,1,1
0.6,0.06636238,-0.14640708,9.779566,-0.0002770565915852785,-0.0006895494880154729,-0.00047869718400761485,-4.3705716133117685,27.24501991271973,-36.92655944824219,1.6431939601898191,1.1084736585617063,-0.1693592071533203,988.4591064453124,0,13.0,1,1
0.64,0.06390017,-0.15117185,9.784292,-0.0005426756106317043,0.0005087588215246797,0.0004537070053629577,-4.680717468261719,27.164979934692386,-36.3351936340332,1.639922022819519,1.0968316793441772,-0.168548583984375,988.461669921875,0,13.0,1,1
0.68,0.07577741,-0.14640354,9.7771845,-0.0001425048103556037,-0.00015714397886767983,0.0007203216082416475,-3.994147300720215,26.860292434692386,-37.4239616394043,1.6318008899688718,1.0945259332656858,-0.15350627899169922,988.45361328125,0,13.0,1,1
0.72,0.0804849,-0.1392519,9.772444,-0.0002749660052359104,0.00010905880481004715,-7.832754636183381e-05,-4.3048362731933585,27.148542404174805,-36.93104553222656,1.6189943552017212,1.0871300697326658,-0.15265274047851562,988.4484252929688,0,13.0,1,1
0.76,0.06607318,-0.15593304,9.77007,-0.00014111131895333529,-2.4212233256548647e-05,5.512911593541503e-05,-3.820857048034668,27.285329818725586,-36.47473907470703,1.615729570388794,1.1037025451660156,-0.15181255340576172,988.4609985351562,0,13.0,1,1
0.8,0.07556051,-0.14878143,9.77243,-0.0001404142240062356,-0.00029064121190458536,0.00045490160118788475,-4.263314723968507,27.134408950805664,-36.397727966308594,1.617177128791809,1.0872403383255005,-0.1604623794555664,988.4534301757812,0,13.0,1,1
0.84,0.06879485,-0.16547431,9.770100999999999,0.00025975645985454315,0.00010871945414692165,0.0009878320852294564,-4.764142990112305,28.08775520324707,-36.37633514404297,1.6187691688537598,1.1040369272232056,-0.1501913070678711,988.4584350585938,0,13.0,1,1
0.88,0.08117688,-0.16071834,9.779608,-8.129631169140339e-06,-0.0009562892373651266,0.00032136947265826166,-4.611502170562744,27.80949592590332,-36.76849365234375,1.614693284034729,1.096978783607483,-0.15422344207763672,988.4354858398438,0,13.0,1,1
0.92,0.07875281599999999,-0.15595098,9.777239,0.0005153920501470567,-0.00015332276234403253,0.000587419082876295,-4.158825874328613,27.23267936706543,-37.11243438720703,1.6018818616867063,1.0802136659622192,-0.14867115020751953,988.4705200195312,0,13.0,1,1
0.96,0.057209432000000005,-0.16309996,9.779602,-0.000549541087821126,-2.0218372810631987e-05,-7.822905899956822e-05,-3.970752239227295,26.93440055847168,-36.66205978393555,1.6219878196716309,1.1013610363006592,-0.1808786392211914,988.4526977539062,0,13.0,1,1
1.0,0.07629439,-0.16548242,9.781966,0.00024973636027425533,0.00037920178147032857,0.0004545440897345543,-4.762919425964356,27.457090377807614,-36.878509521484375,1.6085015535354614,1.1039156913757324,-0.1515636444091797,988.4453735351562,0,13.0,1,1
1.04,0.07626015,-0.16548158,9.772495,0.000383224687539041,0.0014444120461121204,0.00018836971139535308,-4.092548370361328,26.767911911010746,-37.018470764160156,1.599819540977478,1.1062861680984497,-0.14117717742919922,988.432373046875,0,13.0,1,1
1.08,0.06905615,-0.15118106,9.7819605,-0.00041539303492754703,0.00011277879821136594,0.0004548270080704242,-4.300408363342285,27.04704093933105,-36.46388626098633,1.6008642911911009,1.074881076812744,-0.15445232391357422,988.4625244140624,0,13.0,1,1
1.12,0.08097145,-0.15118022,9.774855,-0.0004150628810748458,0.0007785150082781911,-0.00047713721869513387,-4.545766353607178,27.7130184173584,-36.77297973632813,1.5827572345733645,1.0676651000976562,-0.15828895568847656,988.4578857421876,0,13.0,1,1
1.16,0.06898767,-0.15117939,9.767752,0.0009168465621769428,-0.0009525918867439033,-0.000743311655241996,-4.483075141906738,27.613588333129886,-36.62285232543945,1.584225058555603,1.0746817588806152,-0.13852977752685547,988.4448852539062,0,13.0,1,1
1.2,0.08568275,-0.15356185,9.79142,-0.00014808692503720522,-0.0004200137336738408,0.0004552514292299748,-4.6575894355773935,27.81921195983887,-37.06990051269531,1.5665338039398191,1.0817288160324097,-0.1755809783935547,988.44970703125,0,13.0,1,1
1.24,0.066529274,-0.15356101,9.765377,-0.00041407253593206406,-0.000553225283510983,-0.00047671265201643115,-4.166979789733887,27.593610763549805,-36.824363708496094,1.581755518913269,1.074233889579773,-0.13676738739013672,988.4822998046876,0,13.0,1,1
1.28,0.08083445,-0.14402707,9.767742,-0.0002805847907438874,-0.00015380501281470058,-0.0006097291479818523,-4.155782699584962,27.23562812805176,-37.26704406738281,1.5682697296142578,1.0526167154312134,-0.13110923767089844,988.4517822265624,0,13.0,1,1
1.32,0.08319014,-0.16070910000000002,9.760637,-0.00014709634706377983,-0.00015385865117423234,-0.000210113765206188,-4.78330135345459,26.17366600036621,-36.723289489746094,1.564411997795105,1.0642298460006714,-0.13018417358398438,988.4644165039062,0,13.0,1,1
1.36,0.07120639,-0.14164208,9.7701025,0.0005190231604501605,0.0003787195309996605,5.63435023650527e-05,-4.634897232055664,27.735387802124023,-37.5303955078125,1.5650594234466553,1.0518988370895386,-0.13867473602294922,988.4746704101562,0,13.0,1,1
1.4,0.08312163,-0.16070743,9.784303999999999,0.0005190231604501605,0.0003787195309996605,5.63435023650527e-05,-4.415573120117188,26.518156051635746,-37.03105926513672,1.5615335702896118,1.0684465169906616,-0.16150188446044922,988.4746704101562,0,13.0,1,1
1.44,0.06874797,-0.15355678,9.774832,-0.0002795940963551402,0.000511823920533061,0.0004559587687253952,-3.8697435855865483,26.29167366027832,-36.94795227050781,1.5718498229980469,1.065766215324402,-0.12741661071777344,988.4669799804688,0,13.0,1,1
1.48,0.078273356,-0.16070576,9.781929,-0.0004124222323298455,-0.0006866511539556086,-0.00034284737193956966,-4.692617416381836,27.365026473999023,-37.11491394042969,1.5535271167755127,1.058305740356445,-0.15488719940185547,988.4592895507812,0,13.0,1,1
1.52,0.07345924,-0.1583217,9.77009,-3.1785282772034413e-05,0.000322020088788122,-0.00023322948254644868,-4.7025909423828125,27.092344284057614,-37.174400329589844,1.5498673915863037,1.0457758903503418,-0.13977718353271484,988.4668579101562,0,13.0,1,1
1.56,0.08059469,-0.14878769,9.784289999999999,0.00023486040299758315,-0.00021066516637802124,0.0002995437534991652,-4.45236873626709,27.062929153442386,-36.67234802246094,1.5264900922775269,1.0384918451309204,-0.15775585174560547,988.4640502929688,0,13.0,1,1
1.6,0.06861091,-0.16070323,9.772451,0.00023519067326560616,0.0005882289842702447,3.336934605613351e-05,-4.3409509658813485,27.43093681335449,-37.17295837402344,1.5370025634765625,1.0498651266098022,-0.14736080169677734,988.4765014648438,0,13.0,1,1
1.64,0.07574636,-0.16070239,9.772447999999999,0.0003690089215524495,-0.0008766155806370081,3.3652293495833874e-05,-4.421523571014403,26.61817741394043,-37.4209213256836,1.5334645509719849,1.0473556518554688,-0.12285614013671875,988.4613037109376,0,13.0,1,1
1.68,0.08049193,-0.15116848,9.765343,-3.013497916981578e-05,-0.0014093008358031511,-0.0007651539635844529,-4.509514808654785,27.536535263061523,-37.23014831542969,1.5386743545532229,1.039813995361328,-0.1313323974609375,988.4534912109376,0,13.0,1,1
1.72,0.073287964,-0.13925125,9.777175999999999,-2.9804825317114588e-05,0.0008543304284103215,-0.0003655385808087885,-4.546607971191406,27.44917106628418,-37.296302795410156,1.539328932762146,1.0178513526916504,-0.13983917236328125,988.4865112304688,0,13.0,1,1
1.76,0.0756436,-0.15355004,9.781907,0.00036999915027990937,-0.0004773025284521281,-0.00023223907919600611,-4.375841140747069,27.08267021179199,-37.91704559326172,1.5354256629943848,1.0485894680023191,-0.15314292907714844,988.4635620117188,0,13.0,1,1
1.8,0.08516896,-0.16784884,9.770067999999998,0.00023717136355116963,-0.0006105140782892704,-0.0010310453362762928,-4.339428901672363,27.43241310119629,-37.25026321411133,1.5218954086303709,1.055486798286438,-0.12856388092041016,988.4534912109376,0,13.0,1,1
1.84,0.07796502,-0.14878179,9.7819,0.0002375015174038708,0.0003215378965251148,0.00016751763178035614,-4.343015670776366,27.79775810241699,-37.1941032409668,1.5180342197418213,1.0289719104766846,-0.13240528106689453,988.4383544921876,0,13.0,1,1
1.88,0.06359136,-0.15593083,9.779530000000001,0.0004989940789528191,-0.001671583391726017,0.00017100889817811551,-4.476987838745117,27.619482040405273,-36.93207550048828,1.5171175003051758,1.0200532674789429,-0.1452789306640625,988.4685668945312,0,13.0,1,1
1.92,0.07550663,-0.1440136,9.770059,0.000632482289802283,-0.0010058472398668528,3.7992489524185664e-05,-4.339428901672363,27.432409286499023,-37.25026321411133,1.500599384307861,0.9994721412658693,-0.14478015899658206,988.4356079101562,0,13.0,1,1
1.96,0.075472355,-0.15116258,9.765322,0.00023333862191066143,0.00032567849848419433,0.00017129193292930722,-4.617888450622559,27.17146873474121,-36.88414764404297,1.4962050914764404,1.0254195928573608,-0.12487316131591795,988.45849609375,0,13.0,1,1
2.0,0.07543808,-0.15592833,9.774786,0.00010051083518192172,-7.384881610050797e-05,-0.0007606722647324204,-4.586882591247559,27.252939224243164,-36.50877380371094,1.504515528678894,1.0307005643844604,-0.12349224090576172,988.4655151367188,0,13.0,1,1
2.04,0.07301396,-0.14639433,9.765315,0.00036715663736686116,-0.0003402183065190912,-0.0002278989413753152,-4.203827857971191,26.505815505981445,-37.21693801879883,1.4976749420166016,1.0054305791854858,-0.11828899383544922,988.4533081054688,0,13.0,1,1
2.08,0.07775950400000001,-0.14639349999999998,9.784249,0.00010117102647200228,-0.0006065877387300134,-0.00022775749675929546,-4.327826499938965,26.6002254486084,-36.895416259765625,1.491528868675232,1.0013107061386108,-0.14531517028808594,988.4658203125,0,13.0,1,1
2.12,0.07533541,-0.16545887,9.779511,0.0003678169450722635,-0.0007397993467748165,-0.0004939319333061576,-4.561147212982178,27.172067642211914,-37.123878479003906,1.4893505573272705,1.023534893989563,-0.1353445053100586,988.4603881835938,0,13.0,1,1
2.16,0.082470834,-0.15115838,9.765305999999999,0.0003681470989249647,0.00019225262803956864,0.000305157242109999,-4.613758087158203,26.437833786010746,-36.84185791015625,1.4753899574279783,1.0112586021423342,-0.11070919036865234,988.44775390625,0,13.0,1,1
2.2,0.077656806,-0.14877428,9.784239999999999,0.0002353190793655813,5.9041194617748254e-05,-0.0008931227494031191,-4.138092517852783,26.409337997436523,-37.22142791748047,1.4808571338653564,1.0084234476089478,-0.13346004486083984,988.4379272460938,0,13.0,1,1
2.24,0.07284272,-0.16068979,9.788971,-0.00016382435569539666,-0.0006068021757528187,-0.0012924550101161005,-4.103064060211182,26.86351585388184,-37.176414489746094,1.4906909465789795,1.0102964639663696,-0.12300395965576172,988.4755249023438,0,13.0,1,1
2.28,0.07758826,-0.15353908,9.777132,0.0005022952682338655,0.0003252497990615666,-0.00022705004084855323,-4.346495628356934,27.056753158569336,-36.76528549194336,1.4719436168670654,0.997786819934845,-0.14096546173095706,988.4677124023438,0,13.0,1,1
2.32,0.07277423,-0.15115501,9.765293,-3.000622382387519e-05,-0.0007400672766380013,3.94072849303484e-05,-4.495656490325928,28.07601356506348,-36.80194091796875,1.4629491567611694,0.994428813457489,-0.11631488800048828,988.4652099609376,0,13.0,1,1
2.36,0.07273996,-0.1392378,9.767656,-0.0002959921839646995,-0.00020748909446410835,3.954872954636812e-05,-5.023796081542969,27.4762020111084,-36.83942794799805,1.4684970378875732,0.9771758317947388,-0.12014389038085938,988.4652099609376,0,13.0,1,1
2.4,0.08226532,-0.15591992,9.7747555,-0.0005619776784442365,-0.0014059641398489475,-0.00035978353116661316,-4.816754341125488,27.3535213470459,-36.09431076049805,1.454570770263672,0.9979052543640136,-0.1191720962524414,988.460205078125,0,13.0,1,1
2.44,0.07506138,-0.16068561,9.791323,-2.9015995096415278e-05,0.0003250353620387614,-0.0003596420865505934,-4.746315002441406,27.36737632751465,-37.02978515625,1.4546451568603516,0.995186984539032,-0.12291622161865234,988.4598388671876,0,13.0,1,1
2.48,0.0726372,-0.15353496,9.758179,0.0007702618022449316,0.00019182392861694098,-0.00035950075834989553,-4.214588642120361,27.60184669494629,-37.0484619140625,1.4500917196273804,0.968585729598999,-0.1030120849609375,988.4747924804688,0,13.0,1,1
2.52,0.06782317,-0.15830062,9.772378999999999,0.0010369077790528538,-7.454556180164218e-05,-9.304331615567209e-05,-4.663677215576172,27.81331825256348,-36.76068115234375,1.4506239891052246,0.9844042658805848,-0.12572574615478516,988.45751953125,0,13.0,1,1
2.56,0.072568715,-0.14876671,9.765274,-0.0004274993552826345,-0.00034091499401256437,-0.0004923756932839751,-4.703271865844727,27.354719161987305,-36.57377624511719,1.441377878189087,0.971729815006256,-0.11527824401855467,988.4547119140624,0,13.0,1,1
2.6,0.08448398,-0.15591569,9.779474,-0.0005603273748420179,0.0007242948631756008,-0.00022591825108975167,-4.187063217163087,26.94231986999512,-36.24427032470703,1.426993489265442,0.9828808903694152,-0.12371444702148438,988.4649047851562,0,13.0,1,1
2.64,0.07250023,-0.14876504,9.772369,-0.000426839163992554,0.00032476754859089846,-0.0007584085687994957,-4.815093994140625,27.46091270446777,-36.87069320678711,1.4273862838745115,0.960540771484375,-0.10853958129882812,988.4746704101562,0,13.0,1,1
2.68,0.07485592,-0.16068055,9.7771,0.00010612263577058913,-0.0008737075258977711,0.0005733123398385942,-4.565712928771973,27.16764640808105,-36.89196395874024,1.4224735498428345,0.9765089154243468,-0.12644290924072266,988.4546508789062,0,13.0,1,1
2.72,0.07482165,-0.14638005,9.784199000000001,0.00010612263577058913,-0.0008737075258977711,0.0005733123398385942,-4.666338920593262,26.915861129760746,-37.631568908691406,1.4178622961044312,0.9543137550354004,-0.13019084930419922,988.4546508789062,0,13.0,1,1
2.76,0.07000759,-0.14637919,9.769993,0.00010645267320796849,0.0008572920341975987,-0.0007581255631521344,-4.520466327667236,26.894086837768555,-37.11388397216797,1.4172194004058838,0.9466994404792786,-0.1101665496826172,988.439208984375,0,13.0,1,1
2.8,0.07715887,-0.15114535,9.777092,0.0003730988246388733,0.00019144889665767548,-0.00022535235621035096,-4.48685359954834,26.24045372009277,-36.6189079284668,1.3981914520263672,0.9576391577720642,-0.1186237335205078,988.4797973632812,0,13.0,1,1
2.84,0.07953131,-0.13922848,9.774724,-2.604495966807008e-05,0.0021887645125389103,-9.205297101289034e-05,-4.650553226470947,26.98261070251465,-36.48313903808594,1.4080708026885986,0.9308220744132996,-0.1034870147705078,988.4721069335938,0,13.0,1,1
2.88,0.086668044,-0.15829392,9.777088000000001,-0.0002920306869782508,-0.0004744480247609316,-0.0004913853481411934,-4.483916282653809,27.34974479675293,-37.14617156982422,1.3842483758926392,0.9466763138771056,-0.11196231842041016,988.4722290039062,0,13.0,1,1
2.92,0.06990576,-0.15352653,9.767616,-0.00029508420266211033,6.07468537054956e-05,-0.0004893774166703223,-4.389538764953613,27.069414138793945,-37.22129821777344,1.4036624431610107,0.9481930136680604,-0.1015329360961914,988.461669921875,0,13.0,1,1
2.96,0.08421218400000001,-0.14637597,9.777082,0.0005041810218244791,-7.246265886351466e-05,0.0005760223139077425,-4.26554012298584,26.97500419616699,-37.54281997680664,1.3891834020614624,0.940125286579132,-0.10997486114501953,988.4566040039062,0,13.0,1,1
3.0,0.06505999,-0.15114166,9.774712,-0.0003938970039598644,0.0008476307266391814,-0.00025231135077774525,-4.181816577911377,26.684370040893555,-37.07681274414063,1.398714542388916,0.941892385482788,-0.10899162292480467,988.4591064453124,0,13.0,1,1
3.04,0.067416936,-0.16305722,9.779444,5.894748028367758e-06,4.863133653998375e-05,-0.00011901726247742771,-4.544841289520264,26.45021629333496,-37.70002746582031,1.3939714431762695,0.943349540233612,-0.10326290130615234,988.4562377929688,0,13.0,1,1
3.08,0.07216376,-0.15590663,9.762869,0.0006720020319335163,0.0008475273498333992,1.4276825822889805e-05,-4.2892112731933585,26.689062118530273,-36.90656661987305,1.3935959339141846,0.9449874758720398,-0.09749126434326172,988.4713745117188,0,13.0,1,1
3.12,0.076910615,-0.15113921,9.769967999999999,6.529910024255514e-06,0.0005811598966829479,0.00041388696990907187,-4.118145942687988,26.954702377319336,-37.102439880371094,1.3792718648910522,0.9274067878723145,-0.09650325775146484,988.4588012695312,0,13.0,1,1
3.16,0.06970787,-0.15113841,9.784168,0.00014000601368024943,-0.0004841551999561489,0.0005471811164170504,-4.666177749633789,27.44208335876465,-36.50762176513672,1.3743257522583008,0.9337556958198548,-0.1333751678466797,988.4765014648438,0,13.0,1,1
3.2,0.074454725,-0.14398782,9.781797000000001,-0.00012599182082340119,0.0008473725174553692,-0.0007842620834708214,-4.714766502380371,27.0805606842041,-36.55596160888672,1.3650437593460083,0.9114952683448792,-0.10876750946044922,988.4286499023438,0,13.0,1,1
3.24,0.06486213,-0.1511368,9.772326,-0.0003919901209883392,-0.0007505742833018303,-0.0005178099963814019,-3.955073833465576,28.10748863220215,-35.88629150390625,1.3699761629104614,0.9131484627723694,-0.08888721466064453,988.4789428710938,0,13.0,1,1
3.28,0.06960893,-0.14160289,9.76759,0.0006735909846611321,0.00018147967057302594,0.0010802214965224266,-4.218611240386963,27.229135513305664,-36.71809387207031,1.345908522605896,0.9099931120872498,-0.08316326141357422,988.4788818359376,0,13.0,1,1
3.32,0.07435578,-0.15113519,9.784157,0.0005407510907389224,0.000980375800281763,0.0005477259401232004,-4.303857326507568,27.51830101013184,-37.10680389404297,1.3407564163208008,0.906852126121521,-0.10108375549316406,988.4686889648438,0,13.0,1,1
3.36,0.06237328,-0.15113439,9.760481,0.0006742270779795946,0.0005808503483422102,0.0006810200866311789,-4.477423667907715,26.88142967224121,-36.65786743164063,1.3502321243286133,0.8990323543548584,-0.0906524658203125,988.4713134765624,0,13.0,1,1
3.4,0.067120135,-0.14875032,9.774681,0.0005413868348114191,-0.00021814889623783532,-0.0002509491750970483,-4.627723693847656,27.00470542907715,-37.64271545410156,1.3549935817718506,0.9010276794433594,-0.09919261932373047,988.473876953125,0,13.0,1,1
3.44,0.07186696,-0.1582826,9.769944,0.0009411782375536859,0.0001812732662074268,0.0001486607943661511,-4.368506908416748,26.87820243835449,-36.90541458129883,1.3311398029327393,0.9167149662971495,-0.09349632263183594,988.4436645507812,0,13.0,1,1
3.48,0.06944409,-0.14636542,9.779409,-0.00012376724043861032,-8.50941869430244e-05,0.001214060466736555,-4.438670158386231,27.07618522644043,-37.36809539794922,1.340701460838318,0.8990951776504517,-0.09727096557617188,988.4637451171876,0,13.0,1,1
3.52,0.06941110000000002,-0.14636455,9.77704,-0.0003897651913575828,-0.0007509354618377984,0.00014893320621922612,-4.1698856353759775,27.696577072143555,-37.36882781982422,1.3312535285949707,0.9005164504051208,-0.10579586029052734,988.4813232421876,0,13.0,1,1
3.56,0.07415795,-0.16304670000000002,9.772302999999999,-0.00025628943694755435,0.0007137501961551608,-0.0001172464108094573,-4.582179069519043,27.36327934265137,-37.43976593017578,1.312030792236328,0.9067729115486144,-0.09536266326904297,988.4711303710938,0,13.0,1,1
3.6,0.06695527,-0.14397968,9.777035,0.00040981784695759416,-0.0007510386640205978,-0.00011711026309058072,-4.683485984802246,27.373868942260746,-37.57873916625977,1.3219115734100342,0.8798230886459351,-0.08026981353759766,988.476318359375,0,13.0,1,1
3.64,0.06214249,-0.15112872,9.762827,-0.00012249598512426021,-0.00021845853189006448,-0.0003832898801192641,-4.442395210266113,27.335607528686523,-36.61285781860352,1.3170347213745115,0.8953778743743896,-0.07456111907958984,988.4685668945312,0,13.0,1,1
3.68,0.07644892,-0.14397807,9.767558,0.00014413805911317468,0.00018096377607434988,0.0006821098504588008,-4.364483833312988,27.25091361999512,-37.235782623291016,1.297848343849182,0.8682922720909119,-0.08308219909667969,988.4758911132812,0,13.0,1,1
3.72,0.07163614,-0.15589364,9.774656,0.0006770875188522041,-0.0007511934381909668,-0.0002498595276847481,-4.8286542892456055,27.553571701049805,-36.87402725219727,1.312398910522461,0.879537045955658,-0.09639549255371094,988.46826171875,0,13.0,1,1
3.76,0.06921321,-0.14874302,9.772287,0.00014477333752438426,-0.0003517712466418743,0.0009486981434747577,-4.806100368499756,27.36383628845215,-36.63544464111328,1.3029751777648926,0.8810977935791016,-0.08601951599121094,988.4783935546876,0,13.0,1,1
3.8,0.0817633,-0.151141,9.767608000000001,0.0005445649730972947,-0.00048498075921088457,-0.00011642917525023223,-4.447258949279785,26.69905662536621,-36.80581665039063,1.292419195175171,0.8781856298446655,-0.08038711547851562,988.4783935546876,0,13.0,1,1
3.84,0.08175564,-0.16067393,9.753404,0.0006750107859261334,0.0007138810469768941,0.00014872441533952951,-4.522830009460449,26.628767013549805,-37.55989837646485,1.2872889041900637,0.8845760226249695,-0.060490608215332024,988.4859008789062,0,13.0,1,1
3.88,0.08174807,-0.14875738,9.760505,0.0009338975651189684,0.0007182280533015728,0.00015080638695508242,-4.539977073669434,27.086774826049805,-37.5070686340332,1.277698993682861,0.8626956939697266,-0.06907367706298828,988.48095703125,0,13.0,1,1
3.92,0.06740105,-0.16067357,9.760504,0.001466602785512805,-0.00048020522808656096,-0.00011547806207090615,-4.525576114654541,27.25796318054199,-36.98041534423828,1.2872309684753418,0.8737547993659973,-0.0870981216430664,988.4736938476562,0,13.0,1,1
3.96,0.06978333,-0.15114023,9.760503,-0.0002643772168084979,0.00018557245493866503,-0.000248604454100132,-4.599326133728027,27.8212833404541,-37.38693618774414,1.277259349822998,0.8703802824020386,-0.08138847351074219,988.4780883789062,0,13.0,1,1
4.0,0.074555516,-0.1439903,9.77944,-0.00013114581815898418,0.0008513502543792129,0.00015090074157342317,-4.649872779846191,26.72023200988769,-37.08376693725586,1.2677358388900757,0.8383498787879944,-0.08994770050048828,988.4705200195312,0,13.0,1,1
4.04,0.088887274,-0.14875661,9.777073,-0.00013114581815898418,0.0008513502543792129,0.00015090074157342317,-4.65179967880249,27.192968368530273,-37.803993225097656,1.2392722368240356,0.8592048287391663,-0.07489395141601562,988.4705200195312,0,13.0,1,1
4.08,0.076930225,-0.15113969,9.762869,-0.00013107247650623322,-0.0008797147311270238,0.0010830378159880636,-4.74965763092041,26.732290267944336,-37.300048828125,1.253122329711914,0.8460954427719116,-0.0644378662109375,988.4781494140624,0,13.0,1,1
4.12,0.06736299400000001,-0.15113954,9.769969999999999,0.00026847468689084053,5.237883306108415e-05,-0.00011535210069268943,-4.572099685668945,26.52961540222168,-37.00761413574219,1.2529876232147217,0.8429471850395203,-0.08247184753417969,988.450927734375,0,13.0,1,1
4.16,0.08169478,-0.14398946,9.779438,0.00026854791212826967,0.0009844725718721747,1.783709740266204e-05,-4.34581470489502,26.79438591003418,-37.36591339111328,1.2385547161102295,0.8349345326423645,-0.07210254669189453,988.4530639648438,0,13.0,1,1
4.2,0.07212752,-0.15113916,9.774702,0.00040177942719310517,0.00018551296670921147,1.7868645954877135e-05,-4.527534008026123,26.51843452453613,-36.62890625,1.2479039430618286,0.8458049297332764,-0.07117557525634766,988.4708251953124,0,13.0,1,1
4.24,0.06973004,-0.14160581,9.774702,-0.00013077922631055117,-0.0007466045208275317,-0.00011525792069733144,-4.52100944519043,27.262380599975586,-37.21233367919922,1.242806077003479,0.8187326788902283,-0.07498550415039062,988.4630737304688,0,13.0,1,1
4.28,0.08167195,-0.15113883,9.772333,-0.00013070565182715654,0.0004518050991464406,-0.0003815422533079982,-4.64044189453125,27.3612117767334,-37.12272644042969,1.2232342958450315,0.8300602436065674,-0.07880115509033203,988.4755249023438,0,13.0,1,1
4.32,0.079274476,-0.15828843,9.779435000000001,0.0006683886749669911,0.0005849391454830767,-0.0003814795054495335,-5.087466239929199,27.20586204528809,-36.81379699707031,1.2274512052536009,0.8506140112876892,-0.08731842041015625,988.478271484375,0,13.0,1,1
4.36,0.081656694,-0.15113841,9.788903,0.00013583037070930004,0.0011175590334460141,-0.0003814480733126402,-4.9338459968566895,27.297365188598636,-37.3817138671875,1.2177597284317017,0.8425583839416504,-0.08642768859863281,988.4529418945312,0,13.0,1,1
4.4,0.07686928,-0.13445528,9.784168,-0.00026357010938227177,-0.0006135060684755446,1.8057296983897686e-05,-4.347879886627196,27.16119956970215,-37.387062072753906,1.2178453207015991,0.8106080293655396,-0.07136249542236328,988.46826171875,0,13.0,1,1
4.44,0.081641495,-0.15828781,9.767596000000001,0.0002691349945962429,0.00018542961333878336,0.00015124666970223188,-4.480329513549805,26.98440361022949,-37.20233917236328,1.2031259536743164,0.8312663435935974,-0.05624961853027344,988.4806518554688,0,13.0,1,1
4.48,0.06729448,-0.15113787,9.758127,0.0009349979227408768,0.0005848915316164495,1.8120103050023317e-05,-4.8726773262023935,27.19647026062012,-37.15428161621094,1.2126117944717407,0.8141022324562073,-0.06487751007080078,988.460693359375,0,13.0,1,1
4.52,0.06489694,-0.15113764,9.774697,0.00013486374518834054,-8.034240454435349e-05,-8.370901923626661e-05,-4.826696395874023,28.293100357055664,-37.22554016113281,1.2078322172164917,0.820024311542511,-0.06873035430908203,988.4833984375,0,13.0,1,1
4.56,0.072059035,-0.15828733,9.77943,-0.0005308528197929263,-0.0003466701600700617,0.0005821121158078313,-4.771232604980469,27.29179954528809,-37.71438598632813,1.2032932043075562,0.8166147470474243,-0.09156990051269533,988.4680786132812,0,13.0,1,1
4.6,0.084000945,-0.15352054,9.777061999999999,0.0002681683690752834,-0.0016782614402472973,0.0003158276958856732,-4.598783493041992,27.452993392944336,-37.288482666015625,1.1891250610351562,0.808498203754425,-0.06233024597167969,988.46533203125,0,13.0,1,1
4.64,0.08160347,-0.1511371,9.751022,1.925945980474353e-06,0.0001859377953223884,-0.0007494045421481133,-4.384973049163818,27.073835372924805,-37.453216552734375,1.174748778343201,0.7956393361091614,-0.047271728515625,988.4935913085938,0,13.0,1,1
4.68,0.074426115,-0.16781984,9.767593,-0.00013115876936353746,0.00018592586275190118,0.00018273259047418835,-4.8755831718444815,27.29943656921387,-37.6987533569336,1.1745392084121704,0.8206978440284729,-0.05585289001464844,988.485595703125,0,13.0,1,1
4.72,0.0791983,-0.14637013,9.779428,-0.0002642432518769056,0.0005853878101333977,0.0008485537255182862,-5.099068641662598,28.038049697875977,-37.168643951416016,1.1788482666015625,0.8026476502418518,-0.0880594253540039,988.4931640625,0,13.0,1,1
4.76,0.07919069999999999,-0.16543622,9.77706,-0.0007968016434460878,-0.00021357182413339612,-0.00048299413174390793,-4.458318710327148,27.162954330444336,-37.06220626831055,1.164719820022583,0.8085445165634155,-0.05408668518066406,988.4555053710938,0,13.0,1,1
4.8,0.062453805999999994,-0.13683666,9.781794,-0.0010630441829562187,-0.001145689282566309,-8.348893607035279e-05,-4.638920307159424,27.362680435180664,-37.20003509521485,1.188554763793945,0.7766022682189941,-0.07217979431152344,988.47314453125,0,13.0,1,1
4.84,0.07917547,-0.13921984,9.7604885,0.0002686084189917892,0.00045219413004815584,-0.00021661550272256136,-4.927896499633789,27.197343826293945,-36.99185562133789,1.1647651195526123,0.7733539342880249,-0.04295921325683594,988.4757690429688,0,13.0,1,1
4.88,0.076777935,-0.14636944,9.774691,2.3661123123019934e-06,-0.00047992338659241796,-8.342601358890533e-05,-4.590630531311035,27.09206962585449,-37.576560974121094,1.1549028158187866,0.7794724702835083,-0.07522773742675781,988.4526977539062,0,13.0,1,1
4.92,0.076770335,-0.1582856,9.777058,2.4392211344093084e-06,0.0005853282054886223,0.00018292129971086982,-4.311765670776366,26.87880516052246,-37.14514923095703,1.150329351425171,0.7856152653694153,-0.0649566650390625,988.4730224609376,0,13.0,1,1
4.96,0.08632237,-0.14875238,9.791260000000001,-0.0005301189376041293,-0.0007462630746886134,0.00018295273184776303,-4.827973365783691,27.29119682312012,-37.47465133666992,1.136170506477356,0.7773315310478209,-0.07834815979003906,988.4730224609376,0,13.0,1,1
5.0,0.076755136,-0.16305174,9.762853,-0.0010626772418618202,-0.0004799591260962188,0.00031614213366992766,-5.002625942230225,27.390905380249023,-37.22262191772461,1.1407082080841064,0.7930436730384827,-0.03962230682373047,988.4630126953124,0,13.0,1,1
5.04,0.08152729,-0.14636870000000002,9.779422,0.0006684492109343411,0.00031897670123726135,4.985765554010868e-05,-4.365462779998778,26.881147384643555,-37.06002807617188,1.1217879056930542,0.7561553120613098,-0.06722640991210938,988.4805908203124,0,13.0,1,1
5.08,0.08151969,-0.15590157,9.762852,-0.0007962146773934363,-0.0004799829621333629,0.0004493629967328161,-5.091894626617432,27.30735969543457,-37.28096008300781,1.131362795829773,0.7762941122055054,-0.056926727294921875,988.4779663085938,0,13.0,1,1
5.12,0.06896514,-0.15350346,9.769897,0.00013818891602568328,5.227577639743686e-05,0.00031718990067020064,-4.286572456359863,27.16621971130371,-37.85870361328125,1.138988971710205,0.7668033838272095,-0.04619312286376953,988.4578857421876,0,13.0,1,1
5.16,0.07371944,-0.16303597,9.765161500000001,0.00013818891602568328,5.227577639743686e-05,0.00031718990067020064,-4.286572456359863,27.16621971130371,-37.85870361328125,1.136425256729126,0.7745946645736694,-0.04576396942138672,988.4578857421876,0,13.0,1,1
5.2,0.07847375,-0.14396913,9.774627,-0.00012868727208115158,0.00018773635383695364,-0.00034442171454429626,-4.099882125854491,26.97237968444824,-38.03009796142578,1.1172510385513306,0.7523385882377625,-0.05916500091552735,988.457763671875,0,13.0,1,1
5.24,0.07605833,-0.14396848,9.765156,0.0001378744782414287,0.00045401236275210977,5.515757948160172e-05,-4.299727439880371,26.784669876098636,-37.06451034545898,1.1122119426727295,0.74906986951828,-0.048867225646972656,988.4957275390624,0,13.0,1,1
5.28,0.08081263,-0.15588422,9.769888,0.0002712785208132118,0.00045397243229672313,-0.00021105282939970493,-4.666040420532227,27.54800224304199,-37.20669937133789,1.1025904417037964,0.755407989025116,-0.05280685424804688,988.47802734375,0,13.0,1,1
5.32,0.08078712,-0.15826692,9.779354,0.0001383662165608257,0.0005870904424227773,-0.0007435793522745371,-4.208798885345459,26.97559928894043,-37.78255462646485,1.1024564504623413,0.7663511037826538,-0.07093334197998047,988.4780883789062,0,13.0,1,1
5.36,0.06403226,-0.15826626,9.767516,5.454261554405093e-06,-0.0006113708950579166,0.00018863164586946368,-4.783408164978027,27.280012130737305,-37.095947265625,1.116935133934021,0.7537493109703064,-0.051239013671875,988.4579467773438,0,13.0,1,1
5.4,0.07834619,-0.1606489,9.774616,5.454261554405093e-06,-0.0006113708950579166,0.00018863164586946368,-4.595877170562744,27.35001945495605,-36.7440185546875,1.0925887823104858,0.7551582455635071,-0.04092884063720703,988.4579467773438,0,13.0,1,1
5.44,0.08071053,-0.15588175,9.760409,0.0001388581877108663,0.000587010697927326,5.557906115427613e-05,-4.648052215576172,27.35384178161621,-36.73619842529297,1.0832839012145996,0.7421229481697083,-0.044899940490722656,988.4579467773438,0,13.0,1,1
5.48,0.07351535599999999,-0.15111457,9.765141999999999,0.00013910405687056482,-7.881899364292622e-05,0.00032200035639107233,-4.8189802169799805,27.19412040710449,-37.23940658569336,1.0833840370178225,0.7339094281196594,-0.05359649658203125,988.4732666015624,0,13.0,1,1
5.52,0.07826960000000001,-0.16064699,9.776976,-0.00039303585072048014,-0.0004783726471941918,0.0005885270657017827,-4.798490524291992,27.371198654174805,-37.02197265625,1.0765495300292969,0.7384405732154846,-0.04773998260498047,988.440185546875,0,13.0,1,1
5.56,0.06868452,-0.15111332,9.769872,-0.00039303585072048014,-0.0004783726471941918,0.0005885270657017827,-4.798490524291992,27.371198654174805,-37.02197265625,1.0884100198745728,0.7320284843444824,-0.03787612915039063,988.440185546875,0,13.0,1,1
5.6,0.082998425,-0.15111275,9.767502,0.0001398417807649821,-0.0007447284297086297,-0.0007429472170770168,-4.412230491638184,27.153234481811523,-36.76080322265625,1.0692459344863892,0.7283942699432373,-0.04181957244873047,988.478271484375,0,13.0,1,1
5.64,0.071023375,-0.15826188,9.772234,-0.0009251758456230164,0.0007199689862318338,5.6106015108525746e-05,-4.517667770385742,27.897462844848636,-36.94207000732422,1.0689561367034912,0.7252111434936523,-0.04102897644042969,988.4706420898438,0,13.0,1,1
5.68,0.07816762,-0.16302778,9.760394999999999,0.0002737375616561621,-0.0002122164587490261,-0.00034315709490329027,-4.4331254959106445,27.450368881225586,-37.77576446533203,1.0592998266220093,0.7409073710441589,-0.04025650024414063,988.4553833007812,0,13.0,1,1
5.72,0.07575217,-0.13681118,9.760392999999999,7.667316822335124e-06,0.00032037548953667283,-7.673579966649413e-05,-4.458723068237305,27.637155532836914,-37.85973358154297,1.0593212842941284,0.7091990113258362,-0.03477954864501953,988.47314453125,0,13.0,1,1
5.76,0.08528632,-0.15825999999999998,9.779328999999999,-0.00012524452176876366,5.401956150308251e-05,-7.663044380024076e-05,-4.118689060211182,27.32299613952637,-37.20088958740234,1.0499430894851685,0.7153770327568054,-0.052982330322265625,988.49072265625,0,13.0,1,1
5.8,0.08765066,-0.14872624,9.75802,-0.0009239462669938805,-0.00034549413248896604,-0.0008754727896302937,-4.570577621459961,26.53109169006348,-37.08491897583008,1.03575599193573,0.7119281888008118,-0.019102096557617188,988.4808349609376,0,13.0,1,1
5.84,0.07089585,-0.14872564,9.7627535,0.00014156298129819334,-0.00021237609325908124,-0.0004758934956043959,-4.032762527465819,26.77145195007324,-37.41281127929688,1.050099492073059,0.6899734735488892,-0.027851104736328125,988.483154296875,0,13.0,1,1
5.88,0.08042991,-0.15825815,9.760384,0.0002749669074546546,0.00045337359188124543,-7.63142597861588e-05,-4.353286743164063,26.892934799194336,-37.678466796875,1.0358157157897951,0.7101953029632568,-0.03656673431396485,988.4705200195312,0,13.0,1,1
5.92,0.0804044,-0.15110768,9.76985,-0.0007900508353486657,-0.00021245586685836315,-0.0006088407244533299,-4.3031768798828125,27.25593376159668,-37.707427978515625,1.0360581874847412,0.7019869685173035,-0.04058361053466797,988.4781494140624,0,13.0,1,1
5.96,0.0827688,-0.15110703,9.767481,-0.0006566469091922045,0.000186978024430573,0.0009891600348055363,-4.1337714195251465,27.41418266296387,-37.12691879272461,1.0172370672225952,0.6937085390090942,-0.03513622283935547,988.4708251953124,0,13.0,1,1
6.0,0.0684039,-0.15110643,9.767479,-0.0009227169211953877,-0.0007451674900949001,0.0001903176889754832,-4.3855156898498535,27.442121505737305,-37.55166244506836,1.0312306880950928,0.6906462907791138,-0.029646873474121094,988.4808349609376,0,13.0,1,1
6.04,0.08271780599999999,-0.15110578,9.760374,0.000745385535992682,0.001190750510431826,0.0009881284786388278,-4.61484432220459,27.174413681030273,-37.03875732421875,1.0028238296508791,0.6921003460884094,-0.014744758605957031,988.46826171875,0,13.0,1,1
6.08,0.0830217,-0.16541292,9.77224,0.0006124735809862614,-0.00040718464879319066,0.0007219179533421992,-4.800853729248047,27.10587882995605,-37.46798706054688,1.0029231309890747,0.7032785415649414,-0.042448997497558594,988.470458984375,0,13.0,1,1
6.12,0.07378602,-0.16065429,9.767534,-0.00031938625033944845,-7.750699296593666e-06,5.623360630124808e-05,-4.644327640533447,27.094411849975586,-37.49143600463867,1.0122196674346924,0.7002459168434143,-0.046584129333496094,988.47314453125,0,13.0,1,1
6.16,0.071397394,-0.14635463,9.760433,0.0002078509423881769,-0.0005395067273639144,-0.00047871016431599855,-4.406984329223633,26.89528465270996,-37.593345642089844,1.0077124834060671,0.6874557733535767,-0.022233009338378903,988.4706420898438,0,13.0,1,1
6.2,0.06900877,-0.16303764,9.767534,-0.000591898919083178,-0.0005393765750341117,0.00018673593876883388,-4.493346691131592,26.70876884460449,-37.107215881347656,1.0126360654830933,0.6938673257827759,-0.016815185546875,988.45556640625,0,13.0,1,1
6.24,0.07856965,-0.14158823,9.760432000000002,0.0006065105553716421,0.00025957310572266584,0.00018673064187169078,-4.639899253845215,26.99291801452637,-37.02427673339844,0.9936213493347168,0.661984920501709,-0.035060882568359375,988.4859008789062,0,13.0,1,1
6.28,0.07379109,-0.15350462,9.777003,-5.9291138313710696e-05,-6.7409127950668335e-06,0.0001867254031822085,-4.3703269958496085,26.24459648132324,-37.25297927856445,0.9891703128814696,0.6779381632804871,-0.039139747619628906,988.4833984375,0,13.0,1,1
6.32,0.076182276,-0.15112133,9.784104,0.00020701205357909205,-0.0010720023419708014,-0.00021275359904393556,-4.438127517700195,26.7078914642334,-37.26964569091797,0.98988676071167,0.6657501459121704,-0.043288230895996094,988.4832763671876,0,13.0,1,1
6.36,0.07379365,-0.16065453,9.786472,0.0004733159439638257,-0.0012051583034917712,5.35570434294641e-05,-4.515059471130371,27.16235160827637,-36.82247161865234,0.9806787967681884,0.6815047264099121,-0.05209922790527344,988.4708251953124,0,13.0,1,1
6.4,0.090524256,-0.15350474,9.7628,-0.000325643690302968,-0.0001398928579874337,5.355180473998189e-05,-4.593376159667969,27.72125816345215,-36.99707794189453,0.9523412585258484,0.6544817090034485,-0.018309593200683597,988.4630737304688,0,13.0,1,1
6.44,0.08096585,-0.14635493,9.7628,-5.934049841016531e-05,0.0005258987657725811,0.00031986241810955107,-4.8974337577819815,27.64710807800293,-36.71493148803711,0.9669029712677002,0.6512300372123718,-0.03185081481933594,988.4610595703124,0,13.0,1,1
6.48,0.07618737,-0.15827127,9.765168,-0.00032566837035119534,-0.0004062047228217125,-0.0002127744955942035,-4.801290035247803,26.36782646179199,-37.19378280639648,0.9618754386901855,0.6576527953147888,-0.021680831909179688,988.4635620117188,0,13.0,1,1
6.52,0.0690189,-0.13920517,9.7628,0.0003401093417778611,0.0009253765456378461,5.353608867153525e-05,-4.195376396179198,26.77702522277832,-37.08014678955078,0.9762917757034302,0.6593551635742188,-0.030487060546875,988.4708251953124,0,13.0,1,1
6.56,0.07857978,-0.1558881,9.781738,7.378088776022196e-05,0.0003927468787878752,0.00018668884877115488,-4.184723377227783,26.787336349487305,-37.62127685546875,0.9620277285575868,0.6515281796455383,-0.029829025268554688,988.4431762695312,0,13.0,1,1
6.6,0.07141137,-0.15112157,9.765167,-0.00045886298175901175,-0.0005393567262217402,0.00045299943303689366,-4.59837818145752,26.97878837585449,-36.49095916748047,0.9626050591468812,0.6483758091926575,-0.029222488403320312,988.46826171875,0,13.0,1,1
6.64,0.07141262,-0.16065468,9.772269999999999,0.00047323061153292656,-6.722984835505485e-06,0.00031983625376597047,-4.523510932922363,26.89114189147949,-36.95927429199219,0.9679620265960692,0.6404322385787964,-0.03808784484863281,988.4635009765624,0,13.0,1,1
6.68,0.07619369,-0.15588821,9.779371000000001,-5.9413723647594445e-05,-0.0016046162927523255,-0.0004791165702044964,-4.421767711639403,27.61860466003418,-37.09449768066406,0.9449267387390136,0.6471434235572815,-0.03279876708984375,988.48095703125,0,13.0,1,1
6.72,0.08097476,-0.15827149999999998,9.762802,-5.9413723647594445e-05,-0.0016046162927523255,-0.0004791165702044964,-3.766180515289306,27.652746200561523,-36.735618591308594,0.930852711200714,0.6488696932792664,-0.017971038818359375,988.48095703125,0,13.0,1,1
6.76,0.07619622,-0.16065477,9.777004,0.0002068900503218174,-0.0009388246107846498,0.0004529837460722773,-4.200485706329347,27.14089775085449,-36.946678161621094,0.936458170413971,0.6361336708068848,-0.02686786651611328,988.4609985351562,0,13.0,1,1
6.8,0.07141769,-0.15827157,9.767536,0.0002068780595436692,-0.0002730328997131437,0.0005861364188604058,-4.432284355163574,27.71421241760254,-37.25244140625,0.9365280270576476,0.6328909397125244,-0.012015342712402344,988.4736938476562,0,13.0,1,1
6.84,0.07380885,-0.15588833,9.767536,-0.00032576615922152996,-0.0006725047715008259,0.0003198152990080416,-4.649574279785156,27.35236930847168,-36.65889739990234,0.927438735961914,0.6297368407249451,-0.016149520874023438,988.4786987304688,0,13.0,1,1
6.88,0.07620004,-0.13920541,9.772269999999999,-0.0005920943804085255,0.0005259186727926135,-0.0003459797007963061,-4.650959014892578,27.45681571960449,-37.280670166015625,0.9182621240615844,0.6175774931907654,-0.034506797790527344,988.4786987304688,0,13.0,1,1
6.92,0.07859117,-0.14635529,9.767536,0.0006063152104616165,-0.00040618493221700186,0.0003198048507329076,-4.715852737426758,27.8171443939209,-36.75286102294922,0.9191063642501832,0.6147794127464294,-0.02449893951416016,988.4813232421876,0,13.0,1,1
6.96,0.07859245,-0.1654215,9.777005,0.00047314492985606194,-0.00027302498347125953,0.00018664170056581497,-4.50065803527832,27.333539962768555,-36.29582214355469,0.9151062965393066,0.6308012008666992,-0.02867889404296875,988.47119140625,0,13.0,1,1
7.0,0.06425434,-0.16542156,9.777005,-0.000858458806760609,-0.0002730209962464869,-0.0003460005391389132,-4.759332656860352,27.09174919128418,-36.934669494628906,0.9201161861419678,0.6227822303771973,-0.02805995941162109,988.4534912109376,0,13.0,1,1
7.04,0.07381517,-0.15350516,9.765169,0.0004731082590296865,-0.00027301901718601584,-0.0003460058942437172,-4.538156509399414,27.72038078308105,-37.15950775146485,0.9154958724975586,0.6150027513504028,-0.013246536254882812,988.4786987304688,0,13.0,1,1
7.08,0.07392739999999999,-0.14397483,9.774649,-0.00032585184089839464,0.0013248781906440856,-0.00021285313414409762,-4.425110340118408,26.9835262298584,-37.36476135253906,0.9012399911880492,0.5975226163864136,-0.012624740600585938,988.4713134765624,0,13.0,1,1
7.12,0.07643622,-0.15112753,9.781761,-6.007589399814606e-05,-0.00013977143680676818,-7.992674363777041e-05,-4.2767372131347665,27.33298301696777,-37.100135803222656,0.9062125682830809,0.604195773601532,-0.040480613708496094,988.4715576171876,0,13.0,1,1
7.16,0.08361605,-0.15827765,9.760456,-0.0001948836725205183,-6.34568277746439e-06,-0.0003469496732577681,-4.097114086151123,26.76349449157715,-36.78655242919922,0.8924070000648499,0.6200865507125854,-0.0020341873168945312,988.4713745117188,0,13.0,1,1
7.2,0.078846395,-0.15827794,9.755724,-6.182363722473383e-05,-0.0005389614962041378,0.00031879814923740923,-4.487939834594727,26.977033615112305,-36.8158073425293,0.8881973028182983,0.6077117323875427,0.007981300354003906,988.4283447265624,0,13.0,1,1
7.24,0.07407674,-0.14397858,9.746255999999999,0.0008701839251443744,-0.00013947181287221608,0.0003187561815138906,-4.163147926330566,26.227842330932614,-37.206947326660156,0.898422360420227,0.5907854437828064,0.003772735595703125,988.4713745117188,0,13.0,1,1
7.28,0.08603638400000001,-0.14636205,9.762827,-6.201921496540308e-05,-0.0008052457123994827,-0.0004802333423867821,-4.076487064361571,27.04648780822754,-37.2681999206543,0.8658384084701538,0.5973222255706787,-0.014644622802734375,988.4562377929688,0,13.0,1,1
7.32,0.08365667,-0.15589543,9.772297,0.0002041985280811787,-0.0010715456446632745,-0.00021395948715507984,-4.449324131011963,27.06587028503418,-36.82695770263672,0.8712515830993652,0.6136454939842224,-0.018850326538085938,988.4967041015624,0,13.0,1,1
7.36,0.08844662,-0.15351237,9.767563,-0.0004616887308657169,0.000659523531794548,0.00031863042386248713,-4.328912258148193,27.33680534362793,-37.092323303222656,0.8667230010032654,0.5869500637054443,-0.013545989990234377,988.4591064453124,0,13.0,1,1
7.4,0.08606687,-0.14159624,9.765198,0.0007366347126662731,-6.25033862888813e-06,-0.00021404330618679523,-3.9064011573791504,26.942365646362305,-37.28831481933594,0.8676111698150635,0.5839361548423767,-0.01776885986328125,988.4638061523438,0,13.0,1,1
7.44,0.06695777,-0.16304596,9.765198,-6.241060327738523e-05,-0.001204655971378088,-0.00048040121328085666,-4.331413269042969,26.96556663513184,-36.839256286621094,0.867889404296875,0.586014986038208,-0.00301361083984375,988.4815063476562,0,13.0,1,1
7.48,0.088477075,-0.14874656,9.760464,0.0008695970755070447,0.0010590448509901762,0.00031850457889959216,-4.174344539642334,26.58581352233887,-36.764251708984375,0.8397225141525269,0.5784284472465515,-0.030885696411132806,988.481689453125,0,13.0,1,1
7.52,0.08131748400000001,-0.14874674,9.774668,-0.0004620802355930209,0.0003932710969820618,-0.0006136429728940129,-4.0554542541503915,26.85527610778809,-36.95231628417969,0.8449512720108032,0.5705491900444031,-0.011397361755371094,988.47900390625,0,13.0,1,1
7.56,0.06937814,-0.15113027,9.758099000000001,-0.0014651728561148047,-5.443434929475188e-05,9.669805876910686e-06,-4.471036911010742,27.51945686340332,-36.54221725463867,0.8598253726959229,0.5674416422843933,-0.010857582092285156,988.4591064453124,0,13.0,1,1
7.6,0.064608485,-0.15113063,9.765202,-0.0002668494125828147,-0.00045389228034764534,0.00027594377752393484,-4.664656162261963,27.443552017211914,-36.584922790527344,0.8508747220039368,0.5739315748214722,-0.015067100524902344,988.4612426757812,0,13.0,1,1
7.64,0.067008555,-0.14874758,9.741529,0.0002656845608726144,0.0010108608985319734,-0.00012357195373624563,-4.811071395874023,27.8336238861084,-37.2010612487793,0.8508766889572144,0.5614553093910217,0.00918292999267578,988.4717407226562,0,13.0,1,1
7.68,0.08374801,-0.16781403,9.7699375,-0.0005333608714863658,-0.00032070264569483703,0.0012079655425623061,-4.0810532569885245,27.04207420349121,-37.03628540039063,0.8371263742446899,0.5774816274642944,-0.01870346069335937,988.4566040039062,0,13.0,1,1
7.72,0.083758175,-0.1558979,9.769938,0.0001323310425505042,0.0004782610049005598,-0.0005231295945122838,-4.532206535339356,27.62035942077637,-36.76964569091797,0.8328913450241089,0.5749610066413879,-0.008731842041015625,988.4641723632812,0,13.0,1,1
7.76,0.07420871,-0.15113159,9.767572,0.0005317069590091705,0.00021196095622144642,-0.00025685568107292056,-4.56114673614502,27.172067642211914,-37.123878479003906,0.8384760618209839,0.5580196976661682,-0.003518104553222656,988.4544067382812,0,13.0,1,1
7.8,0.07182896,-0.16304820000000003,9.76994,0.00026529317256063223,-0.00045381288509815926,0.0008083659340627491,-4.270947456359863,26.70673942565918,-37.834228515625,0.8295718431472778,0.5646589994430542,-0.007750511169433594,988.451904296875,0,13.0,1,1
7.84,0.07661891,-0.14874877,9.767574,-1.1203810572624209e-06,7.883473881520331e-05,-0.0003900974988937378,-4.326847553253174,26.96998405456543,-37.07117462158203,0.8304041028022766,0.5381011962890625,-0.002539634704589844,988.4644775390624,0,13.0,1,1
7.88,0.07662907,-0.16304867,9.765208,-1.2182863429188728e-06,-0.0007200969848781824,-0.00039013929199427366,-4.5726423263549805,26.89790916442871,-37.10606384277344,0.8168184757232666,0.5734197497367859,-0.011524200439453123,988.4696655273438,0,13.0,1,1
7.92,0.07902914,-0.14636596,9.784146,0.00013184163253754375,-0.0008532390929758549,-0.00012386549497023225,-4.4172019958496085,27.62302589416504,-37.326416015625,0.8037704229354858,0.5372574925422668,-0.02529525756835937,988.4797973632812,0,13.0,1,1
7.96,0.08381906,-0.14874949,9.765209,-0.0004008876858279109,-0.0008532231440767647,-0.00025706528685987,-4.452230453491211,27.16884422302246,-37.37142562866211,0.8045177459716797,0.5488550066947937,-0.001148223876953125,988.454345703125,0,13.0,1,1
8.0,0.07904941,-0.16066624,9.74864,0.00013164605479687452,-0.00032057554926723236,9.208626579493283e-06,-4.14624547958374,26.77026176452637,-36.933349609375,0.8004977703094482,0.5509061217308044,0.013529777526855469,988.4464721679688,0,13.0,1,1
8.04,0.08383936,-0.15828319,9.767579,0.0005310222040861845,0.00047838801401667297,0.0001423245994374156,-4.145159721374512,26.03367805480957,-36.7364501953125,0.7965552806854248,0.5434404611587524,-0.00968170166015625,988.4569702148438,0,13.0,1,1
8.08,0.08346677,-0.15112416,9.767545,0.0005310222040861845,0.00047838801401667297,0.0001423245994374156,-3.9740943908691406,26.2993221282959,-36.93231964111328,0.7925648689270021,0.5500172972679138,-0.009138107299804688,988.4569702148438,0,13.0,1,1
8.12,0.07868188599999999,-0.15112405,9.772279,4.775356501340866e-07,0.0007443649228662252,0.00027637710445560515,-4.350924015045166,27.15825462341309,-37.2324447631836,0.7960216999053955,0.5412577390670776,-0.02263736724853516,988.4547119140624,0,13.0,1,1
8.16,0.06911722,-0.16304029999999997,9.767544000000001,4.775356501340866e-07,0.0007443649228662252,0.00027637710445560515,-4.350924015045166,27.15825462341309,-37.2324447631836,0.7987697124481201,0.5539785623550415,-0.008191108703613281,988.4547119140624,0,13.0,1,1
8.2,0.07867172,-0.15589036,9.769911,-0.0007970300503075122,-0.00032113224733620877,0.00014383631059899926,-4.097657203674316,27.13178062438965,-36.88500595092773,0.7782264947891235,0.5401220321655273,-0.007472038269042969,988.4746704101562,0,13.0,1,1
8.24,0.081056535,-0.15827349999999998,9.767544000000001,-0.0007970300503075122,-0.00032113224733620877,0.00014383631059899926,-4.097657203674316,27.13178062438965,-36.88500595092773,0.7809046506881714,0.5386934876441956,-0.007231712341308594,988.4746704101562,0,13.0,1,1
8.28,0.073881775,-0.15350683,9.762808,-0.00013119133654981854,0.0004778075672220439,-0.00025561649817973375,-3.9199604988098153,27.03502082824707,-37.291648864746094,0.7862017154693604,0.5261629819869995,-0.006740570068359375,988.4569091796876,0,13.0,1,1
8.32,0.07387668,-0.15827326,9.779378999999999,-0.0005305674858391285,0.0007441075285896659,-0.0005218904698267579,-4.618729114532472,26.90762138366699,-37.407470703125,0.7756000757217407,0.5270743370056152,-0.010820388793945312,988.4572143554688,0,13.0,1,1
8.36,0.081041306,-0.16065638,9.760441,0.0002684291685000062,-0.00032116402871906763,-0.0003887115744873881,-4.3334784507751465,27.332387924194336,-36.86040496826172,0.773451566696167,0.5306518077850342,0.022552490234375,988.4474487304688,0,13.0,1,1
8.4,0.07386654599999999,-0.15350644,9.765175,2.1622981876134872e-06,0.00021145984646864235,-0.0011876382632181046,-4.441852569580078,26.967321395874023,-36.514404296875,0.769033670425415,0.5231416225433351,0.004100799560546875,988.4496459960938,0,13.0,1,1
8.44,0.059522032999999995,-0.15350629999999998,9.769908000000001,2.211309038102627e-06,0.0011435573687776925,-0.0010544592514634132,-4.248232841491698,27.0432186126709,-36.47169494628906,0.7794932126998901,0.5156472325325012,-0.004930496215820313,988.4750366210938,0,13.0,1,1
8.48,0.073856354,-0.16065602,9.77701,-0.00013089796993881464,0.0008772336877882482,-0.00012233282905071974,-4.338449478149413,27.802175521850586,-37.42601776123047,0.7660105228424072,0.5226771235466003,-0.02344036102294922,988.4423828125,0,13.0,1,1
8.52,0.06907147,-0.14158972,9.760438,0.00026862474624067545,-0.0005875116912648082,0.00014400406507775187,-4.4670143127441415,27.892168045043945,-36.8725814819336,0.7667061090469359,0.5009984970092773,0.014882087707519531,988.46240234375,0,13.0,1,1
8.56,0.07862604,-0.15827252,9.777008,2.3579923436045647e-06,-5.488781607709825e-05,-0.00025544874370098114,-4.314809799194337,26.87585258483887,-36.99053955078125,0.7419737577438354,0.5163323283195496,-0.022380828857421875,988.4374389648438,0,13.0,1,1
8.6,0.07623106,-0.15827237,9.75807,0.00040188070852309465,-0.00032121167168952525,-0.000521743670105934,-4.327826499938965,26.6002254486084,-36.895416259765625,0.7542009353637695,0.5099931359291077,0.006259918212890625,988.4498901367188,0,13.0,1,1
8.64,0.07383606,-0.15827228,9.746233,0.00026877166237682104,0.0011435177875682714,-0.0003885647747665644,-4.360055923461913,27.149415969848636,-36.76861572265625,0.7409658432006836,0.4980323314666748,0.016126632690429688,988.45751953125,0,13.0,1,1
8.68,0.08339059,-0.16303869,9.7486,-0.0006632850272580981,-0.0007207014132291079,-0.0001222279388457537,-4.522968292236328,26.52285194396973,-36.86082077026367,0.7321316003799438,0.5047293901443481,0.01183319091796875,988.43212890625,0,13.0,1,1
8.72,0.07860574,-0.16780515,9.777006,-0.0005300779594108462,0.000610870192758739,-0.00038852274883538485,-4.838084697723389,26.91259574890137,-36.83506774902344,0.7334855198860168,0.520851731300354,0.007488250732421875,988.4576416015624,0,13.0,1,1
8.76,0.06904104,-0.14873876,9.772272000000001,2.602464519441128e-06,-0.001120191067457199,0.0004104457620996982,-4.686667442321777,27.265005111694336,-36.72505187988281,0.7343456745147705,0.4807162880897522,0.00315093994140625,988.45751953125,0,13.0,1,1
8.8,0.083375394,-0.14873864,9.755701,0.0005352832376956941,0.0007440120680257678,-0.0001221649581566453,-4.494868278503418,26.70729637145996,-37.02991485595703,0.7207773923873901,0.4828689098358154,0.017775535583496094,988.4551391601562,0,13.0,1,1
8.84,0.07381069999999999,-0.14397193,9.774637,0.0005353322485461831,7.821447798050941e-05,1.1013820767402647e-05,-4.690553188323975,26.99821281433105,-37.09376525878906,0.7216970920562744,0.4900707006454468,-0.0007619857788085938,988.4448852539062,0,13.0,1,1
8.88,0.07141572,-0.14397188,9.767536,0.0005353811429813504,0.0006108381785452366,0.00014419271610677242,-4.5726423263549805,26.89790916442871,-37.10606384277344,0.7226864099502563,0.4780315756797791,-0.005100250244140625,988.462646484375,0,13.0,1,1
8.92,0.061851025,-0.14397176,9.769903,-0.0007961493683978915,-5.495932418853045e-05,-0.0010542076779529452,-4.3363847732543945,27.43535804748535,-37.40487289428711,0.7333672046661377,0.4753653407096863,0.009491920471191406,988.4476318359376,0,13.0,1,1
8.96,0.07379544,-0.15112145,9.774636,-0.0005297847092151642,0.00021134861162863672,0.0002773927408270538,-4.616504669189453,27.067026138305664,-36.26237487792969,0.7202361822128296,0.4823604226112366,0.0003986358642578125,988.475341796875,0,13.0,1,1
9.0,0.0737904,-0.16542096,9.760433,0.0005355279427021742,-0.0012533966219052672,-0.00038837594911456114,-4.2365994453430185,27.42329216003418,-37.18859100341797,0.7216962575912476,0.4893760681152344,0.014955520629882812,988.4348754882812,0,13.0,1,1
9.04,0.0740211,-0.1487437,9.772289,2.945074811577797e-06,-0.0003212990413885564,-0.0003883551107719541,-4.309401988983153,27.144121170043945,-36.69913101196289,0.7037844657897949,0.4633192420005798,-0.008356094360351562,988.45751953125,0,13.0,1,1
9.08,0.07904595,-0.15113302,9.774678999999999,0.00046381494030356407,0.00016536391922272742,-0.00022944982629269361,-4.0303993225097665,27.03677177429199,-36.966796875,0.6994672417640686,0.4704504013061523,-0.008012771606445312,988.4501953125,0,13.0,1,1
9.12,0.06950033,-0.14875002,9.762844,-0.0004728453932330012,-0.00010021255002357066,-0.0004977176431566477,-4.195919990539552,27.14531898498535,-37.17859268188477,0.7005189061164856,0.4631109833717346,0.01130390167236328,988.4649047851562,0,13.0,1,1
9.16,0.076684,-0.14875038,9.777049,0.00045912596397101885,3.2967160223051906e-05,0.00016801460878923535,-4.436742782592773,26.60345268249512,-36.64786911010742,0.7018666863441467,0.4702327847480774,0.02111911773681641,988.4550170898438,0,13.0,1,1
9.2,0.07430798,-0.15590058,9.760481,-7.364014163613321e-05,-0.0006328007439151406,0.00030111498199403286,-4.9287376403808585,26.93349647521973,-37.51517868041992,0.6839306354522705,0.4632142782211304,0.012003898620605469,988.4500732421876,0,13.0,1,1
9.24,0.07671183,-0.15351765,9.772317,0.0007251729257404804,-0.0003664629766717553,0.0008336891187354923,-4.834604740142822,27.653600692749023,-37.26388549804688,0.6807179450988771,0.4704367518424988,-0.0018758773803710933,988.4524536132812,0,13.0,1,1
9.28,0.07672581,-0.14875142,9.765217,0.00019227247685194016,-0.0010322090238332748,0.0005672579864040017,-4.4925055503845215,26.97261619567871,-36.583892822265625,0.6851674914360046,0.4571546912193298,0.008108139038085938,988.4325561523438,0,13.0,1,1
9.32,0.08390945,-0.14875175,9.769953,0.00019227247685194016,-0.0010322090238332748,0.0005672579864040017,-4.4925055503845215,26.97261619567871,-36.583892822265625,0.6783871650695801,0.4605588912963867,0.008304595947265625,988.4325561523438,0,13.0,1,1
9.36,0.07675367599999999,-0.1511354,9.772321,-0.00127259932924062,0.0010983396787196398,0.00016772653907537458,-4.5074496269226065,27.169721603393555,-37.20899963378906,0.6749516725540161,0.4578162431716919,0.013387680053710938,988.4652099609376,0,13.0,1,1
9.4,0.06242820599999999,-0.1606688,9.77469,-0.00127259932924062,0.0010983396787196398,0.00016772653907537458,-4.26554012298584,26.97500419616699,-37.542823791503906,0.6855834126472473,0.4648978114128113,0.004276275634765625,988.4652099609376,0,13.0,1,1
9.44,0.072001785,-0.14398629999999998,9.781792,0.0001918694470077753,0.0002994357782881707,-9.870447684079407e-05,-4.406984329223633,26.89528465270996,-37.593345642089844,0.6757270097732544,0.4470924139022827,-0.004698753356933594,988.4451904296876,0,13.0,1,1
9.48,0.08635509,-0.16066949,9.7723255,0.0001918694470077753,0.0002994357782881707,-9.870447684079407e-05,-4.406984329223633,26.89528465270996,-37.593345642089844,0.6691117286682129,0.4650198221206665,0.004942893981933594,988.4451904296876,0,13.0,1,1
9.52,0.06963974,-0.15352000000000002,9.769958500000001,-0.0003408968914300204,-0.00023317414161283526,-9.876210242509842e-05,-4.352445602416991,27.156782150268555,-37.15514373779297,0.6655402183532715,0.453113853931427,0.005283355712890625,988.4805297851562,0,13.0,1,1
9.56,0.0720436,-0.14637055,9.769960000000001,0.0003247583517804742,0.0005657953443005682,-0.0007646094309166074,-4.438670635223389,27.07618522644043,-37.36809539794922,0.6716446280479431,0.4317402839660645,0.015080451965332031,988.4501953125,0,13.0,1,1
9.6,0.08161715,-0.15113746,9.765227000000001,-7.484969682991505e-05,-0.0003662884118966758,0.000966386287473142,-4.036211967468262,27.242719650268555,-38.05573272705078,0.644131064414978,0.4342121481895447,0.015417098999023438,988.4476318359376,0,13.0,1,1
9.64,0.07924116,-0.14398791,9.767595,0.0007238290272653103,3.322897828184068e-05,-0.0008979401318356395,-4.743813991546631,27.738615036010746,-37.28285217285156,0.6451759934425354,0.4223657250404358,0.001560211181640625,988.4400634765624,0,13.0,1,1
9.68,0.07925516,-0.15352137,9.779432,-0.00034156884066760535,0.0008321984205394982,-0.000631681876257062,-4.480467319488525,26.87848472595215,-36.50325775146485,0.6511062383651733,0.4436141848564148,0.001903533935546875,988.4348754882812,0,13.0,1,1
9.72,0.07926908,-0.15352173,9.7747,-0.0012738087680190804,0.0004327463975641877,0.0006998400203883648,-5.038877964019775,27.567384719848636,-36.76545715332031,0.6381989121437073,0.4313775300979614,0.006960868835449219,988.460205078125,0,13.0,1,1
9.76,0.07450324,-0.15828867,9.760498,-0.0002086797030642629,-0.0004993373295292258,-0.00023232330568134785,-4.2670626640319815,26.97353172302246,-37.46551513671875,0.6444758176803589,0.4244447350502014,0.021467208862304688,988.4527587890624,0,13.0,1,1
9.8,0.06734747,-0.14637263,9.774702,5.7501718401908875e-05,3.3316260669380426e-05,0.0004334089462645352,-4.3152146339416495,27.350061416625977,-37.788063049316406,0.6554613709449768,0.4268875122070313,-0.0018939971923828125,988.4426879882812,0,13.0,1,1
9.84,0.08409071,-0.14637293,9.762868,0.00032368325628340244,-0.0003661357332020998,0.00030019338009878993,-4.623838424682617,27.271493911743164,-37.27400588989258,0.6283899545669556,0.4247587323188782,0.007862091064453125,988.460205078125,0,13.0,1,1
9.88,0.074545085,-0.15828963,9.767603,0.0004567068535834551,-0.0003661139344330877,0.000433293724199757,-4.535548210144043,26.98527336120605,-37.03990936279297,0.6392873525619507,0.43216633796691895,-0.006031990051269531,988.46533203125,0,13.0,1,1
9.92,0.07455897,-0.17020638,9.765238,-0.00034237536601722235,-0.0002329341223230585,-0.0003657115157693625,-4.761695384979248,26.826425552368164,-37.38068389892578,0.6265870332717896,0.4346890449523926,0.02739715576171875,988.4376220703124,0,13.0,1,1
9.96,0.081742644,-0.16305692,9.760504,0.0008559118723496795,-0.00023291233810596168,0.0003000205033458769,-4.4299750328063965,26.346967697143555,-37.557716369628906,0.6282463073730469,0.4373396039009094,0.03714656829833984,988.4374389648438,0,13.0,1,1
10.0,0.07458693,-0.15352412,9.760506,0.00032314565032720566,-0.00036604845081456006,-0.000232668942771852,-4.630905151367188,26.89583778381348,-36.78902816772461,0.6202229261398315,0.4159756898880005,0.009033203125,988.4705200195312,0,13.0,1,1
10.04,0.06743109,-0.15352447,9.758139,0.00018985313363373282,-0.0002328686969121918,0.0002999053103849292,-4.819117546081543,27.08820152282715,-36.54032897949219,0.640930712223053,0.4231598973274231,0.03299522399902344,988.4426879882812,0,13.0,1,1
10.08,0.072224855,-0.14875825,9.767610000000001,-7.659685797989367e-05,-9.968897211365402e-05,0.0002998478012159467,-4.600740909576416,26.71346092224121,-36.936973571777344,0.6182880401611328,0.4160422086715698,0.009633064270019531,988.4805297851562,0,13.0,1,1
10.12,0.0722388,-0.14399208,9.7605095,-0.0006093630800023675,0.0005661225877702236,-0.00023284158669412133,-4.515059471130371,27.162355422973636,-36.82247161865234,0.6193114519119263,0.4046283960342407,0.024150848388671875,988.460205078125,0,13.0,1,1
10.16,0.06986284,-0.16067533,9.765245,0.00032260792795568705,0.0005661444738507272,0.0004328905197326094,-4.615822792053223,26.804651260375977,-36.86299896240234,0.61585533618927,0.4072277545928955,0.01971435546875,988.44775390625,0,13.0,1,1
10.2,0.07226669999999999,-0.15114255,9.758144999999999,0.0008551054634153843,0.00043300821562297637,0.000432832894148305,-4.138635158538818,26.777624130249023,-37.31987762451172,0.6030677556991577,0.4005901217460632,0.01998615264892578,988.46533203125,0,13.0,1,1
10.24,0.08116895,-0.15827627,9.762819,0.0003223392413929105,-0.0004990754532627761,-0.0003661722876131535,-4.173227310180663,27.06149101257324,-37.63909149169922,0.5908706784248352,0.41738104820251465,0.006130218505859375,988.4552001953124,0,13.0,1,1
10.28,0.07638064,-0.15112625,9.769919999999999,-7.32585322111845e-05,-0.00023338882601819927,0.00016812048852443695,-4.24102783203125,27.52479362487793,-37.65575408935547,0.602246880531311,0.4151466488838196,0.006394386291503906,988.4603881835938,0,13.0,1,1
10.32,0.07159239,-0.15589257,9.76045,-0.00033712713047862053,0.0005651615792885423,-9.714649058878422e-05,-4.1777939796447745,27.05707359313965,-37.40717697143555,0.5987277030944824,0.3986533880233765,0.03983592987060547,988.4376220703124,0,13.0,1,1
10.36,0.07158387,-0.14874251,9.765184,-7.0729642175138e-05,0.0006983062485232949,-0.0006297433283179997,-4.875720977783203,27.19352149963379,-36.999671936035156,0.6046260595321655,0.39155176281929016,0.02121067047119141,988.4654541015624,0,13.0,1,1
10.4,0.07874507,-0.15589221,9.7651825,-0.001002753502689302,0.0012309246230870485,0.0003023974131792784,-4.7648468017578125,27.92982292175293,-37.598731994628906,0.5867148637771606,0.39873883128166204,0.021514892578125,988.4451904296876,0,13.0,1,1
10.44,0.0787366,-0.16304179,9.769917,0.0005952236242592335,0.0005651216488331556,-9.704130934551357e-05,-4.424131393432617,27.35328483581543,-37.54051971435547,0.5837385058403015,0.4156728386878967,0.026506423950195312,988.4501953125,0,13.0,1,1
10.48,0.071558416,-0.14635862,9.779385000000001,-0.0003367180470377207,3.2463372917845845e-05,0.0009682922973297537,-4.566554069519043,26.90379905700684,-37.415283203125,0.5788239240646362,0.3741759955883026,0.02692222595214844,988.4506225585938,0,13.0,1,1
10.52,0.07632971,-0.14635839,9.77465,-0.0003367180470377207,3.2463372917845845e-05,0.0009682922973297537,-4.566554069519043,26.90379905700684,-37.415283203125,0.58204185962677,0.3826296329498291,0.0270538330078125,988.4506225585938,0,13.0,1,1
10.56,0.08110106,-0.1606579,9.786485,-0.0004697943804785608,-0.0003670236910693348,-9.693612810224296e-05,-4.233854293823241,26.794103622436523,-37.76807022094727,0.5746497511863708,0.3946533799171448,-0.0011205673217773438,988.4832763671876,0,13.0,1,1
10.6,0.06675315,-0.14397479999999999,9.767547,-0.00019646383589133618,-0.0005359068745747209,-9.587581735104322e-05,-4.155782699584962,27.235631942749023,-37.267051696777344,0.5813409090042114,0.38266658782958973,0.013334274291992188,988.4506225585938,0,13.0,1,1
10.64,0.08347398,-0.1558909,9.774647,-0.0007290139910764992,-0.00040276217623613775,3.731722244992852e-05,-4.631448745727539,27.26413154602051,-36.88748168945313,0.5541175603866577,0.3803621530532837,-0.0005931854248046875,988.4553833007812,0,13.0,1,1
10.68,0.06673622,-0.16780706,9.781748,-0.0007290139910764992,-0.00040276217623613775,3.731722244992852e-05,-4.466769218444824,26.89174461364746,-37.19900512695313,0.5747303962707521,0.39235043525695795,0.004414558410644531,988.4553833007812,0,13.0,1,1
10.72,0.07628733,-0.14397414,9.777013,-0.001128405798226595,0.0006624880479648709,-9.580567711964251e-05,-4.743569374084473,26.73818778991699,-37.60926818847656,0.5615800023078918,0.3762461245059967,0.004693031311035156,988.4658203125,0,13.0,1,1
10.76,0.07627880599999999,-0.13920738,9.760442,7.009756518527865e-05,0.0006624747766181828,-0.00022892857668921351,-4.632289409637451,27.00028419494629,-37.41080093383789,0.5629106760025024,0.3643302917480469,0.04284954071044922,988.4507446289062,0,13.0,1,1
10.8,0.07866025,-0.15827332,9.772278,0.00020333711290732023,0.0015945670893415807,0.00017058028606697914,-4.517965316772461,27.26532554626465,-37.366943359375,0.5599050521850586,0.38131216168403625,0.01942157745361328,988.4406127929688,0,13.0,1,1
10.84,0.07626188,-0.15827312,9.762808,-0.000595528690610081,0.0010619221720844507,0.0004369312082417309,-5.266546249389648,27.40706443786621,-37.0289306640625,0.5567144751548767,0.3890671133995056,0.010201454162597656,988.4483032226562,0,13.0,1,1
10.88,0.06669372,-0.15350635,9.767541,7.034250302240251e-05,-0.00040282862028107047,-0.0010277710389345882,-4.520329475402832,27.0000057220459,-37.81296157836914,0.5585616827011108,0.3726814687252045,0.015172958374023438,988.4685668945312,0,13.0,1,1
10.92,0.071465075,-0.14397313,9.765172999999999,0.00020358239999040959,0.0005292637506499887,3.7527468521147966e-05,-4.50538444519043,26.80290031433105,-37.18785095214844,0.56959468126297,0.35646986961364746,0.02489471435546875,988.4533081054688,0,13.0,1,1
10.96,0.07145655,-0.14873941,9.765172,0.00020366435637697575,-0.0001365392527077347,0.00017072050832211969,-4.279674053192139,26.223695755004886,-36.57286834716797,0.5425311326980591,0.3685868978500366,0.02988147735595703,988.4408569335938,0,13.0,1,1
11.0,0.0762279,-0.16303883,9.765171,0.0004701438010670245,-0.0004028817056678236,0.0005702644120901822,-4.300270080566406,27.1529598236084,-37.1629638671875,0.5404860973358154,0.3762279152870178,0.02531909942626953,988.47119140625,0,13.0,1,1
11.04,0.07143962400000001,-0.14873902,9.765171,-0.00032872223528102035,-0.0010686847381293774,0.0005702994531020522,-4.676013946533203,27.275320053100586,-37.26618957519531,0.5454758405685425,0.3592870235443115,0.016198158264160156,988.483642578125,0,13.0,1,1
11.08,0.088160455,-0.15827192,9.774639,0.0010029389522969725,-0.00026975030777975917,-0.0006280869129113853,-4.493346214294434,26.70876884460449,-37.107215881347656,0.529548704624176,0.3776561617851257,0.016313552856445312,988.4356689453124,0,13.0,1,1
11.12,0.061863065,-0.17257138,9.774637,0.00047038908815011377,0.001061815768480301,3.773777280002832e-05,-4.3202171325683585,26.60759162902832,-37.28194427490234,0.5440485477447511,0.38408011198043823,0.0024662017822265625,988.4635620117188,0,13.0,1,1
11.16,0.07619399,-0.14635505,9.767536,7.09972227923572e-05,0.00026285479543730617,3.7772872019559145e-05,-4.636014938354492,27.25971031188965,-36.65556335449219,0.5328904390335083,0.35922813415527344,0.026258468627929688,988.4788208007812,0,13.0,1,1
11.2,0.074293435,-0.14398386,9.774682,-6.207911064848304e-05,0.0003959995228797197,-9.535002755001187e-05,-4.2966833114624015,26.78761482238769,-37.21912002563477,0.5254750251770021,0.3524407148361206,0.0075283050537109375,988.4611206054688,0,13.0,1,1
11.24,0.079592824,-0.14637984,9.765261,7.116055348888041e-05,-0.00013664551079273224,-0.0004947889246977866,-4.281601428985597,26.696428298950195,-37.2930908203125,0.5262644290924072,0.3554756045341492,0.026592254638671875,988.4510498046876,0,13.0,1,1
11.28,0.07245484,-0.14638065,9.765264,0.00046342593850567937,-4.042143700644374e-06,-0.0003673327737487853,-4.275513648986816,26.702322006225586,-37.60231399536133,0.5231450200080872,0.34453725814819336,0.026807785034179688,988.4534301757812,0,13.0,1,1
11.32,0.08443606,-0.14161487,9.774734500000001,0.00046312034828588367,0.0006617972976528107,3.200996434316039e-05,-4.743814468383789,27.738615036010746,-37.2828483581543,0.5062354803085327,0.3429352045059204,0.02225971221923828,988.4635620117188,0,13.0,1,1
11.36,0.07012841,-0.14638223,9.762901,0.0007291299407370389,-0.001202364219352603,0.000564510584808886,-4.334319591522217,27.06854057312012,-37.38372802734375,0.5226666927337646,0.3319059908390045,0.03191661834716797,988.4560546875,0,13.0,1,1
11.4,0.065380335,-0.15114947,9.767638999999999,0.0009951398242264986,0.0005287385429255664,-0.00023456814233213663,-4.437148571014403,27.07765769958496,-37.445396423339844,0.5197476148605347,0.3442284464836121,0.0226593017578125,988.4639282226562,0,13.0,1,1
11.44,0.07736158,-0.1511503,9.765276,-7.042958168312906e-05,-3.843539161607623e-06,-0.0005010151653550565,-4.551472187042236,26.812612533569336,-37.4892578125,0.5122129917144775,0.3472232222557068,0.013385772705078123,988.4586181640624,0,13.0,1,1
11.48,0.065443814,-0.14876775,9.770012,0.0001955808256752789,-0.0009358995012007655,0.0006972752744331956,-4.2135024070739755,26.86526679992676,-36.8515625,0.5196911692619324,0.3501200377941132,0.01827621459960937,988.476318359375,0,13.0,1,1
11.52,0.07025534,-0.15830167,9.772383,-0.00020419905195012689,-0.0010690076742321253,0.00016451237024739385,-4.833518981933594,26.91701698303223,-37.06698226928711,0.5216075181961061,0.35293668508529663,0.032683372497558594,988.4432983398438,0,13.0,1,1
11.56,0.07506689400000001,-0.15830244,9.767650999999999,-0.000337662931997329,0.0003957792650908232,-0.00010193453636020422,-4.37682056427002,26.71291160583496,-37.74129104614258,0.5041239261627197,0.34146028757095337,0.028168678283691406,988.4459228515624,0,13.0,1,1
11.6,0.063149124,-0.1511534,9.7771225,0.00032782048219814897,-3.644934622570872e-06,-0.0005015393835492432,-4.437148571014403,27.07765769958496,-37.445396423339844,0.5060186386108398,0.33457040786743164,0.004702568054199219,988.473876953125,0,13.0,1,1
11.64,0.07752025,-0.15830399,9.772391,-0.0006045905756764113,0.0002627205685712397,-0.00010219670366495849,-4.533047676086426,27.35651206970215,-37.29296875,0.4937610924243927,0.33753737807273865,0.02382850646972656,988.4459838867188,0,13.0,1,1
11.68,0.072772175,-0.14877169,9.786597,-7.226428715512155e-05,-0.0009356512455269693,-0.0011675911955535412,-4.422066688537598,26.98647117614746,-37.51937103271485,0.4867319464683533,0.33112359046936035,0.00978374481201172,988.4789428710938,0,13.0,1,1
11.72,0.082363546,-0.15115578,9.772397,0.00032690312946215267,-0.0008024435956031084,-0.0005019327509216964,-4.679899215698242,27.00852394104004,-37.6348991394043,0.4889094829559326,0.3244900703430176,0.02416706085205078,988.4840087890624,0,13.0,1,1
11.76,0.08000535,-0.1511565,9.770033,-7.287616608664393e-05,-0.00013660424156114462,-0.00010258989641442895,-4.542041778564453,27.45358848571777,-37.52821350097656,0.4764903485774994,0.3227924108505249,0.01962471008300781,988.4840087890624,0,13.0,1,1
11.8,0.06808758,-0.16069044,9.774771000000001,0.0004594501224346459,0.001195024698972702,0.0005630686646327376,-4.710200309753418,27.08498191833496,-36.78787231445313,0.492563545703888,0.3498497307300568,0.02929210662841797,988.47412109375,0,13.0,1,1
11.84,0.06333953,-0.14639159,9.767672,0.0004591438337229191,0.0006624427041970192,-0.000502325885463506,-4.705091953277588,26.721105575561523,-36.92134094238281,0.4992586970329285,0.3189389705657959,0.024759292602539062,988.4740600585938,0,13.0,1,1
11.88,0.07532078,-0.15115888,9.770041,-0.0014053734485059974,-0.00026961322873830795,-0.00010298320557922124,-4.6761512756347665,27.16940116882324,-36.56710815429688,0.4917501509189606,0.3267177939414978,0.015473365783691406,988.4437255859376,0,13.0,1,1
11.92,0.07535249,-0.14639308,9.762943,0.0003253738977946341,-0.00040272145997732883,-0.0003694301121868193,-4.107928276062012,26.226964950561523,-37.36936950683594,0.4845874607563019,0.3155081272125244,0.020366668701171875,988.46435546875,0,13.0,1,1
11.96,0.070604414,-0.16069348,9.76768,0.00045822636457160115,-3.1979870982468132e-06,0.00016307045007124543,-4.166053771972656,26.33080863952637,-37.75141143798828,0.4767453074455261,0.3234161138534546,0.034768104553222656,988.4741821289062,0,13.0,1,1
12.0,0.07780585,-0.14639468,9.779519,0.00019160477677360177,0.0006626413087360562,-0.0006360081606544554,-4.3573102951049805,26.52022361755371,-37.34809875488281,0.47413769364357,0.2979171872138977,0.011266708374023438,988.4638671875,0,13.0,1,1
12.04,0.07305779999999999,-0.14162885,9.774788000000001,-7.501727668568492e-05,-0.0002694146241992712,-0.00023666542256250978,-4.663432598114014,26.81289100646973,-37.087100982666016,0.4750050008296967,0.2997238337993622,0.016262054443359375,988.4512939453124,0,13.0,1,1
12.08,0.07308954,-0.16307916,9.755853,-7.501727668568492e-05,-0.0002694146241992712,-0.00023666542256250978,-4.663432598114014,26.81289100646973,-37.087100982666016,0.47375342249870295,0.3274155259132385,0.030548095703125,988.4512939453124,0,13.0,1,1
12.12,0.07073134,-0.14401372,9.772426,-0.000651507347356528,0.0004899431369267403,0.0007899514166638255,-4.3448357582092285,27.16414451599121,-37.54167175292969,0.4706867337226868,0.3111001253128052,0.021279335021972656,988.4741821289062,0,13.0,1,1
12.16,0.065983295,-0.13448139,9.765327000000001,-0.0007849709945730865,0.00022367696510627866,0.0005235044518485665,-4.759034156799316,27.7238826751709,-36.50979614257813,0.4677821397781372,0.2904049158096313,0.035663604736328125,988.4789428710938,0,13.0,1,1
12.2,0.07389891,-0.15589054,9.779380999999999,1.3671175111085175e-05,0.0007563584949821234,-0.00014241639291867614,-4.4181809425354,27.253263473510746,-37.15066146850586,0.4526416957378388,0.3172675371170044,0.002833366394042969,988.4619750976562,0,13.0,1,1
12.24,0.07147348,-0.15112312,9.758072,0.00041283894097432494,0.0006232501473277807,0.0003900843148585409,-4.327826499938965,26.6002254486084,-36.895416259765625,0.4648836255073547,0.3156605362892151,0.03138446807861328,988.4290161132812,0,13.0,1,1
12.28,0.07621783,-0.14397247,9.767538,0.000285401416476816,-0.0011087318416684868,-0.0002732537104748189,-4.570821762084961,27.53152275085449,-36.75849914550781,0.4574268460273743,0.3000280261039734,0.02682209014892578,988.4619750976562,0,13.0,1,1
12.32,0.08574194,-0.1630377,9.7628,0.0005600721924565731,-0.00030969985527917743,0.0006648532580584288,-4.714086532592773,26.81818962097168,-37.156585693359375,0.4454510807991028,0.3222155570983887,0.04592323303222656,988.4493408203124,0,13.0,1,1
12.36,0.08092666,-0.14635397,9.777000000000001,0.0005604143370874226,0.0006223502568900585,-0.0007997374632395804,-4.2611122131347665,26.87351036071777,-37.075660705566406,0.4428618848323822,0.30142176151275635,0.01768779754638672,988.4769897460938,0,13.0,1,1
12.4,0.08328101,-0.16065271,9.767528,0.0002944408333860338,-0.00030981097370386124,-0.0004001169581897557,-4.555196762084961,27.07204246520996,-36.73402404785156,0.4407337605953217,0.3140048384666443,0.022568702697753903,988.4746704101562,0,13.0,1,1
12.44,0.07129601,-0.15350197,9.781728999999999,-0.0009036388364620508,-0.0005761823849752545,-0.0002668123343028128,-4.70106840133667,27.09381675720215,-37.25170516967773,0.4524016082286834,0.30243200063705444,0.008543014526367188,988.4492797851562,0,13.0,1,1
12.48,0.07126054,-0.14873458,9.765153999999999,-0.0010364542249590158,0.00022270981571637089,-0.00026666576741263265,-5.004446029663086,26.75729179382324,-37.5701904296875,0.4503569304943085,0.30092501640319824,0.027618408203125,988.464599609375,0,13.0,1,1
12.52,0.08078462,-0.1558835,9.762784,0.00042862509144470096,0.0002226541691925377,-2.0326115190982816e-07,-4.630767345428467,27.00176048278809,-37.48810577392578,0.43364936113357533,0.2990977466106415,0.032509803771972656,988.4568481445312,0,13.0,1,1
12.56,0.06162992,-0.15826596,9.760414,0.00016265123849734664,-0.0005763490335084497,-0.0002663724008016289,-4.580113887786865,26.9964656829834,-37.418617248535156,0.455297976732254,0.3117114305496216,0.03265857696533203,988.4492797851562,0,13.0,1,1
12.6,0.07354390599999999,-0.15588184,9.758042999999999,-0.00023648008937016132,-0.0005764045636169612,-0.0003993837744928896,-4.696640491485597,26.992319107055664,-36.78454208374024,0.4337943196296692,0.3053608536720276,0.02334213256835937,988.4494018554688,0,13.0,1,1
12.64,0.080678135,-0.13919802,9.762774,0.00082912523066625,-0.00044330215314403176,0.0002665524953044951,-4.962626457214356,27.37529945373535,-36.61199951171875,0.4222196936607361,0.2847668826580048,0.03767681121826172,988.44970703125,0,13.0,1,1
12.68,0.063913316,-0.15349676,9.767505,-0.0005021117976866664,-0.0004433577414602041,-0.0005322483484633267,-4.151896953582764,27.50242042541504,-36.89833450317383,0.4439566731452942,0.28782522678375244,0.028351783752441406,988.4696044921876,0,13.0,1,1
12.72,0.0662677,-0.15111266,9.760401,-0.00023545377189293506,-0.0011092029744759204,0.00013368780491873622,-4.2656779289245605,26.869089126586914,-36.84374237060547,0.4323489665985107,0.2816866338253021,0.04268455505371094,988.4644775390624,0,13.0,1,1
12.76,0.075791836,-0.16541143,9.762764,0.0009633097215555607,0.00022232087212614718,-0.0003987971576862037,-4.462203502655028,26.89616203308105,-37.43091583251953,0.4299824833869934,0.304243803024292,0.03809547424316406,988.4719848632812,0,13.0,1,1
12.8,0.0733664,-0.14872764,9.765129,0.0005641781608574092,-0.0005766822723671794,0.0001339811715297401,-4.522531986236572,27.26090812683105,-37.13502502441406,0.4225464761257172,0.2834102809429169,0.024057388305664062,988.447021484375,0,13.0,1,1
12.84,0.078110725,-0.14872678,9.767491999999999,-0.0003675852785818279,0.0006216836627572775,9.697978384792805e-07,-4.595334529876709,26.98172950744629,-36.64556884765625,0.4203024506568909,0.28649163246154785,0.033669471740722656,988.4547119140624,0,13.0,1,1
12.88,0.06373578,-0.14872588,9.769855499999998,-0.0002340851933695376,-0.000709951389580965,0.0005337483016774058,-4.286167621612549,26.69201469421387,-37.061180114746094,0.4373170137405396,0.2852112948894501,0.014861106872558594,988.429443359375,0,13.0,1,1
12.92,0.07325992,-0.15587479999999998,9.767487,0.00029888871358707547,0.0004884145455434918,0.00013442110503092408,-4.385653495788573,27.33621025085449,-36.85258483886719,0.4255610704421997,0.2833472192287445,0.019736289978027344,988.4697265625,0,13.0,1,1
12.96,0.073224425,-0.15349074,9.758014,-0.00023340078769251704,-0.0013758521527051926,1.4097895473241806e-06,-4.653459548950195,27.0855770111084,-37.027610778808594,0.418366014957428,0.29124343395233154,0.0530242919921875,988.459716796875,0,13.0,1,1
13.0,0.07079899,-0.15110655,9.772214,-0.0006325325812213122,0.0011540931882336734,-0.0005310753476805985,-4.699004173278809,26.72700309753418,-37.230560302734375,0.41165924072265625,0.2845868468284607,0.02474403381347656,988.4775390625,0,13.0,1,1
13.04,0.07076353,-0.15825553,9.769844,-0.000499032496009022,-0.0012428051559254527,-0.0006640866049565375,-4.433561325073242,26.712316513061523,-37.50156021118164,0.409770131111145,0.2734559774398804,0.034332275390625,988.452392578125,0,13.0,1,1
13.08,0.068338096,-0.14633827,9.776941,-0.0008981639402918518,-0.0005770710995420814,1.8497812561690812e-06,-4.236898422241212,26.79115867614746,-37.61346435546875,0.4173201024532318,0.2622877061367035,0.02499008178710937,988.4677124023438,0,13.0,1,1
13.12,0.075472355,-0.15825374,9.762734,0.000566915434319526,-0.0004439687472768128,0.00040147019899450237,-4.2204318046569815,26.59553337097168,-37.0656623840332,0.4057489335536957,0.2847297787666321,0.03931427001953125,988.449951171875,0,13.0,1,1
13.16,0.06826711,-0.14871979999999999,9.772200999999999,0.0007004155195318162,8.860751404426992e-05,-0.0005304887308739126,-4.604870796203613,27.44709587097168,-36.97926330566406,0.41742289066314703,0.2642959952354431,0.02526473999023437,988.45751953125,0,13.0,1,1
13.2,0.06954771,-0.15828429,9.75338,0.00030128395883366466,0.0006211837753653526,0.000268605537712574,-4.778841972351074,27.2844295501709,-37.327857971191406,0.4042084515094757,0.27752137184143066,0.048951148986816406,988.4498901367188,0,13.0,1,1
13.24,0.06478441,-0.15351819,9.772319,0.0010911771096289158,-0.0004426099476404488,0.0002647251239977777,-4.538455009460449,27.088247299194336,-37.584373474121094,0.4214957356452942,0.2668868601322174,0.015911102294921875,988.4524536132812,0,13.0,1,1
13.28,0.069580734,-0.15590186,9.769953999999998,0.00042215915163978923,-0.0012410334311425686,0.0009291311725974084,-4.5762290954589835,27.26325035095215,-37.04990768432617,0.4100047945976257,0.2749958634376526,0.03022289276123047,988.4625244140624,0,13.0,1,1
13.32,0.07198709,-0.15828548,9.762853999999999,0.00015568401431664824,-0.0007083759410306811,0.00039643121999688447,-4.305677413940431,26.884695053100586,-37.454368591308594,0.4124254584312439,0.2685803174972534,0.039821624755859375,988.4451904296876,0,13.0,1,1
13.36,0.06722385,-0.16066925,9.769957000000002,2.2367050405591726e-05,0.0007563873659819366,-0.0005357424379326403,-4.361875534057616,26.51580619812012,-37.116188049316406,0.4051294922828674,0.2670668065547943,0.025755882263183597,988.4578857421876,0,13.0,1,1
13.4,0.07918984,-0.15590306,9.765224,2.2367050405591726e-05,0.0007563873659819366,-0.0005357424379326403,-4.583020210266113,27.09943199157715,-37.96308517456055,0.3933174908161163,0.2843524515628815,0.030615806579589844,988.4578857421876,0,13.0,1,1
13.44,0.07442653,-0.14875366,9.7817955,-0.00024410797050222754,0.0006232550367712975,0.00012997904559597373,-4.472176551818848,26.62347221374512,-37.49040985107422,0.3964087963104248,0.2590102255344391,0.02597618103027344,988.4552612304688,0,13.0,1,1
13.48,0.07922280000000001,-0.14875408,9.762858999999999,-0.00011126807658001779,-0.0013740623835474253,-0.0002696310984902084,-4.530982971191406,26.98969078063965,-37.27182388305664,0.3834354281425476,0.2472620904445648,0.035628318786621094,988.4502563476562,0,13.0,1,1
13.52,0.072069645,-0.14637114,9.755759,-0.00011126807658001779,-0.0013740623835474253,-0.0002696310984902084,-4.530982971191406,26.98969078063965,-37.27182388305664,0.3920135200023651,0.2562355995178223,0.04041481018066406,988.4502563476562,0,13.0,1,1
13.56,0.08164573,-0.13922177,9.758128,-0.00011142698349431154,0.0006233326857909559,0.0007955642067827284,-4.704113006591797,27.09087181091309,-37.09709930419922,0.3706604242324829,0.22578492760658264,0.03580284118652344,988.4305419921876,0,13.0,1,1
13.6,0.084052145,-0.15352179,9.772333,0.0002878878149203956,-0.0003087471704930067,0.000262864341493696,-4.802375793457031,27.104406356811523,-37.39068222045898,0.3780368864536285,0.271858423948288,0.012247085571289062,988.4482421875,0,13.0,1,1
13.64,0.07928887,-0.14875565,9.772333999999999,-0.00037417816929519176,0.0005207747453823687,-1.904275268316269e-05,-4.722238540649414,27.179113388061523,-36.86851501464844,0.3710326850414276,0.2464586496353149,0.0218353271484375,988.4432373046876,0,13.0,1,1
13.68,0.08169523,-0.16067244,9.772336,-0.00077381101436913,0.00038764256169088185,-0.0001522689126431942,-4.417638301849365,26.884973526000977,-37.052207946777344,0.3831303417682648,0.26863545179367065,0.04089069366455078,988.4584350585938,0,13.0,1,1
13.72,0.07454198599999999,-0.16067286,9.765236,2.497772220522165e-05,-1.1805474059656262e-05,-0.0006849688943475485,-4.404621124267578,27.16060447692871,-37.1473274230957,0.3714201450347901,0.2626054883003235,0.0410003662109375,988.455810546875,0,13.0,1,1
13.76,0.086508036,-0.14399035,9.772339,0.00042429240420460696,0.0003876941918861121,-0.00028556305915117264,-4.2934789657592765,27.316781997680664,-36.249778747558594,0.35502225160598755,0.2279495894908905,0.026903152465820312,988.4834594726562,0,13.0,1,1
13.8,0.07218516,-0.15590705,9.774708,0.000823607319034636,-1.1753843864426015e-05,-1.9315280951559547e-05,-4.080647945404054,26.56786155700684,-36.23875427246094,0.37212124466896057,0.25528380274772644,0.01753711700439453,988.43310546875,0,13.0,1,1
13.84,0.07937133,-0.15352420000000003,9.779444,-0.00024181546177715063,-0.00014488594024442136,-0.00041885732207447285,-4.755309104919434,27.46445655822754,-37.265037536621094,0.3602847158908844,0.24946147203445435,0.02711772918701172,988.4384155273438,0,13.0,1,1
13.88,0.079387814,-0.15114136,9.760508,0.0005569731583818793,0.0006540876347571611,-1.9451603293418884e-05,-4.1184444427490225,26.322568893432614,-37.52730941772461,0.362695574760437,0.24803170561790466,0.03197002410888672,988.4432373046876,0,13.0,1,1
13.92,0.06984472,-0.15114178,9.762876499999999,0.0001573401968926191,0.0006541133625432849,0.0003799539990723133,-4.878084182739258,26.92820167541504,-37.4456901550293,0.3654935956001282,0.2369912564754486,0.05574321746826172,988.4434204101562,0,13.0,1,1
13.96,0.07464105,-0.1511422,9.767612,2.4023465812206272e-05,-0.0002779664355330169,-1.9587925635278225e-05,-4.371955871582031,27.34946632385254,-37.54833221435547,0.36316153407096863,0.2404943406581879,0.027451515197753903,988.4608154296876,0,13.0,1,1
14.0,0.06987771400000001,-0.14875926,9.784183500000001,-0.00010929349809885025,0.0011867968132719398,0.00011350179556757212,-4.352307796478272,27.262697219848636,-37.854225158691406,0.3611333966255188,0.23450011014938354,0.013347625732421877,988.4813232421876,0,13.0,1,1
14.04,0.069894224,-0.16305943,9.774716,-0.00024261057842522862,-0.00041107274591922765,0.00037974948645569373,-4.290595531463623,26.79350852966309,-37.5283432006836,0.34913066029548645,0.2708415389060974,0.02767372131347656,988.4485473632812,0,13.0,1,1
14.08,0.06513089,-0.15352668,9.779453,-0.0007754013640806079,0.0005210587987676263,-0.0008187399944290519,-4.61082124710083,27.5471248626709,-37.36912155151367,0.3661124408245087,0.231363907456398,0.02304267883300781,988.4463500976562,0,13.0,1,1
14.12,0.06514740000000001,-0.1511438,9.772352,-0.0003760864492505789,0.000920558231882751,0.0002464553108438849,-4.448643207550049,26.80349922180176,-37.42758560180664,0.3685136735439301,0.234418660402298,0.01842498779296875,988.45849609375,0,13.0,1,1
14.16,0.06761706,-0.15114577,9.765259,-0.0003762455889955163,0.0005211103707551956,-0.00015308673027902842,-4.294182300567627,27.158849716186523,-37.4721794128418,0.3568955957889557,0.2330436408519745,0.032729148864746094,988.4685668945312,0,13.0,1,1
14.2,0.079650104,-0.15829758,9.769999499999999,0.00028908415697515016,0.00025486908270977443,0.0005125058814883231,-4.748678207397461,27.1020565032959,-37.475807189941406,0.34066954255104065,0.24141192436218264,0.013863563537597656,988.4358520507812,0,13.0,1,1
14.24,0.074891865,-0.14399855,9.765267999999999,0.0004242804134264589,-0.001212595496326685,0.0003767514426726848,-4.895231246948242,27.38620567321777,-37.39286422729492,0.3485313057899475,0.2260703891515732,0.04234981536865234,988.4713134765624,0,13.0,1,1
14.28,0.07969326,-0.15114884,9.76527,0.0001577567309141159,-0.00014729829854331908,-0.0001559694646857679,-4.530004024505615,27.35945701599121,-37.44757843017578,0.3464699387550354,0.2296265661716461,0.02824115753173828,988.4332275390624,0,13.0,1,1
14.32,0.07732487,-0.14161636,9.762905,0.0002907068701460957,-0.00041358033195137983,-0.0006886902847327293,-4.631853103637695,27.73833656311035,-37.68500518798828,0.3450261652469635,0.2190029174089432,0.042511940002441406,988.4837036132812,0,13.0,1,1
14.36,0.07973635,-0.15591647,9.755806,0.00029049895238131285,-0.0006798625690862536,-0.0002893054042942822,-4.646530151367188,27.355314254760746,-36.81350708007813,0.3333597481250763,0.2418001592159271,0.052077293395996094,988.44580078125,0,13.0,1,1
14.4,0.072588205,-0.14638389999999998,9.767643,0.0010892389109358194,0.0005185927730053663,0.0005095531232655048,-4.522531986236572,27.26090812683105,-37.13502883911133,0.3457605838775635,0.2170495092868805,0.019023895263671875,988.4413452148438,0,13.0,1,1
14.44,0.08455929,-0.15353425,9.770012,0.0005563992308452724,-1.4005345292389393e-05,-2.3167754989117387e-05,-4.36143970489502,27.25385856628418,-37.39038848876953,0.32953259348869324,0.2349827587604523,0.04278087615966797,988.4535522460938,0,13.0,1,1
14.48,0.07502124,-0.15830131,9.774747999999999,-0.0003759142709895968,-0.00028028746601194143,-0.0005558885750360787,-5.081377983093262,27.21175193786621,-37.12301635742188,0.3371618092060089,0.2333312630653381,0.03340435028076172,988.4641723632812,0,13.0,1,1
14.52,0.07743269,-0.15591861,9.772383,-0.0009087538346648217,0.0007850097608752549,-0.00015650381101295352,-4.852730751037598,27.741838455200195,-37.035301208496094,0.33500275015830994,0.21735671162605288,0.02403545379638672,988.4563598632812,0,13.0,1,1
14.56,0.070284545,-0.15115257,9.755813999999999,0.00015630177222192287,0.00011925381841138003,0.00010972301242873073,-4.661069869995117,27.078214645385746,-36.64108276367188,0.3377401232719421,0.2256484031677246,0.038331031799316406,988.43603515625,0,13.0,1,1
14.6,0.067916244,-0.15591963,9.772387,-0.00024337985087186093,-1.3870419934391974e-05,-0.00015668192645534873,-4.759194374084473,27.19766044616699,-37.63374710083008,0.3406609892845154,0.2244059443473816,0.024209976196289062,988.4688110351562,0,13.0,1,1
14.64,0.09183681,-0.15115358,9.784224499999999,-0.000643061357550323,0.0005187951610423625,-2.3613101802766323e-05,-4.396468162536621,26.7996768951416,-37.435401916503906,0.31503206491470337,0.22763803601264954,0.01955699920654297,988.4337158203124,0,13.0,1,1
14.68,0.06317949,-0.15115418,9.779492999999999,-0.0005101114511489868,-0.00041327672079205513,-0.00029001798247918487,-4.351765155792236,26.89440727233887,-37.75577163696289,0.3372096419334412,0.21205328404903406,0.029100418090820312,988.43896484375,0,13.0,1,1
14.72,0.06798088599999999,-0.14877136,9.762924,-0.0005101114511489868,-0.00041327672079205513,-0.00029001798247918487,-4.524895668029785,26.99558448791504,-37.58103942871094,0.34033042192459106,0.2109353244304657,0.019705772399902344,988.43896484375,0,13.0,1,1
14.76,0.065612555,-0.14877199,9.772395,0.00042178644798696036,-0.0006795588415116073,-0.00015694921603426335,-4.691638946533203,27.734792709350586,-37.29066467285156,0.32400035858154297,0.21458294987678528,0.03399467468261719,988.4436645507812,0,13.0,1,1
14.8,0.06802404,-0.15830554,9.779499000000001,0.0002884207060560584,-0.0004132092581130564,0.0005087514873594046,-4.456658840179443,27.270341873168945,-37.83859252929688,0.33181148767471313,0.2181607335805893,0.01986789703369141,988.4592895507812,0,13.0,1,1
14.84,0.07760522,-0.16068943,9.767665,0.00042137072887271637,0.0003857720294035971,0.00010918854968622328,-4.900775909423828,27.012022018432614,-36.98519515991211,0.32026368379592896,0.23599763214588165,0.024687767028808597,988.4794921875,0,13.0,1,1
14.88,0.07284695,-0.15592332,9.755831,-0.0003777847159653902,-0.00041314179543405766,-0.0008230062085203826,-5.013684749603272,27.85480308532715,-37.4790153503418,0.3279018402099609,0.21562841534614566,0.057911872863769524,988.4639282226562,0,13.0,1,1
14.92,0.08003825,-0.15354057,9.760567,2.1481188014149666e-05,0.0007853133720345795,-0.0005567790358327329,-4.3221435546875,27.080324172973636,-38.00216674804688,0.3071361482143402,0.21440955996513367,0.053249359130859375,988.46435546875,0,13.0,1,1
14.96,0.07528001,-0.15830766,9.760569,2.106558531522751e-05,0.00011959119001403452,-2.432562178000808e-05,-4.642943382263184,26.989973068237305,-36.869667053222656,0.32428765296936035,0.21769189834594727,0.03912925720214844,988.4338989257812,0,13.0,1,1
15.0,0.07291168,-0.15115838,9.77004,2.106558531522751e-05,0.00011959119001403452,-2.432562178000808e-05,-4.642943382263184,26.989973068237305,-36.869667053222656,0.31764331459999084,0.21662989258766172,0.015535354614257812,988.4338989257812,0,13.0,1,1
15.04,0.075323135,-0.15592547,9.7676735,2.0649866200983524e-05,-0.0006792889907956122,0.0010407597292214632,-4.204914093017578,27.24239921569824,-37.413841247558594,0.3100891411304474,0.20518559217453006,0.006183624267578125,988.4340209960938,0,13.0,1,1
15.08,0.072954774,-0.14877622,9.772411,-0.0006453476380556822,0.0005191661766730249,-0.0005572249065153301,-4.093091011047363,27.13619804382324,-37.116920471191406,0.3140239417552948,0.20461486279964447,0.03935909271240234,988.4467163085938,0,13.0,1,1
15.12,0.07297635,-0.15592654,9.772413,0.0003138235188089311,-0.00012805729056708515,1.307780621573329e-05,-4.653023719787598,27.82363319396973,-37.30181503295898,0.3123099207878113,0.2130003273487091,0.02522563934326172,988.4668579101562,0,13.0,1,1
15.16,0.08230245,-0.15830405,9.758188,0.0004467737744562328,0.0004046080575790256,-0.0007859588949941099,-4.713107109069824,27.18794822692871,-37.33234405517578,0.301325798034668,0.21173301339149475,0.030053138732910163,988.4744873046876,0,13.0,1,1
15.2,0.06797445,-0.14638798,9.774759,0.00018383021233603358,-0.0009289742447435856,-0.0006537028239108622,-4.470356464385986,27.2570858001709,-37.142845153808594,0.3045141398906708,0.20618335902690887,0.034852027893066406,988.4771728515624,0,13.0,1,1
15.24,0.08232528,-0.15830465,9.753456,-8.170126238837838e-05,0.0001361619506496936,0.0006782128475606441,-4.521988868713379,26.892614364624023,-37.03657531738281,0.297941118478775,0.20967179536819455,0.053864479064941406,988.471923828125,0,13.0,1,1
15.28,0.06799725,-0.15115507,9.753456,-0.00021496933186426761,3.0218507163226604e-06,-0.0003870977670885623,-4.453071594238281,26.90499687194824,-37.894752502441406,0.31052166223526,0.1945265829563141,0.04446601867675781,988.4669799804688,0,13.0,1,1
15.32,0.06800866,-0.14400555,9.767661,0.0009833420626819134,3.0397495720535517e-06,-0.00025398697471246123,-4.55505895614624,27.177961349487305,-37.43309783935547,0.302989661693573,0.19764113426208496,0.035109519958496094,988.4593505859376,0,13.0,1,1
15.36,0.07279986,-0.15115567,9.774764,5.112675717100501e-05,0.0004025314410682768,0.00027859763940796256,-3.9293911457061768,26.3940486907959,-37.252689361572266,0.3069540560245514,0.19730499386787412,0.02567100524902344,988.469482421875,0,13.0,1,1
15.4,0.06803149,-0.15353920000000001,9.777132,0.0005836483906023204,-0.0001300824515055865,-0.000254081271123141,-4.421523094177246,26.61817741394043,-37.4209213256836,0.2960992753505707,0.21037065982818606,0.025725364685058597,988.4465942382812,0,13.0,1,1
15.44,0.068042904,-0.14638968,9.760563000000001,-0.0004817251465283334,-0.0002632225514389574,-0.0007867601816542448,-4.187766551971436,26.78439140319824,-37.46666717529297,0.3037111163139343,0.185550719499588,0.05420970916748047,988.4491577148438,0,13.0,1,1
15.48,0.06805432,-0.1511565,9.765299,0.0004502706578932703,-0.000263204739894718,-0.00012101756874471904,-4.085618972778319,27.03765296936035,-36.80436706542969,0.29253101348876953,0.19420889019966125,0.03533458709716797,988.4619140625,0,13.0,1,1
15.52,0.07284552,-0.14162363,9.751097,0.0003170027048327029,3.1290110200643535e-06,0.0005447249859571457,-4.590768337249756,26.98615074157715,-36.877479553222656,0.29571470618247986,0.19295139610767365,0.059071540832519524,988.4491577148438,0,13.0,1,1
15.56,0.082416534,-0.1368574,9.770035,5.0576694775372744e-05,0.000402620731620118,0.000145204016007483,-3.9895818233489986,26.86471366882324,-37.65587615966797,0.2843162715435028,0.1821533590555191,0.02126789093017578,988.4898071289062,0,13.0,1,1
15.6,0.06569868,-0.15115733,9.770036,-0.0010147965513169763,0.00013632266200147572,0.0009441045112907887,-4.3919029235839835,26.80409812927246,-37.66731643676758,0.292575478553772,0.19991332292556765,0.04025840759277344,988.4822387695312,0,13.0,1,1
15.64,0.08243936,-0.14162453,9.760569,-0.0007485907408408822,-0.0007957649650052191,-0.0006538377492688596,-4.453752517700195,27.16737174987793,-37.29412078857422,0.2717779576778412,0.18000447750091553,0.04505634307861328,988.4719848632812,0,13.0,1,1
15.68,0.07528108,-0.14877467,9.772406,0.0005828785360790789,-0.0002631154784467072,-0.0011865168344229462,-4.402555465698242,26.79378318786621,-37.12618255615234,0.2893204092979431,0.1886161118745804,0.02617835998535156,988.4495849609376,0,13.0,1,1
15.72,0.07290259,-0.13685848,9.762938,0.0004496108158491552,0.000269534153630957,-0.0005207742215134203,-4.3934240341186515,26.80262565612793,-37.59001159667969,0.2878713011741638,0.17337875068187714,0.04517078399658203,988.4749755859376,0,13.0,1,1
15.76,0.06574431,-0.16784139,9.784243,0.00044950068695470685,-0.0007957114721648395,-0.00012134748976677656,-4.237441062927246,27.15944862365723,-37.711910247802734,0.29123684763908386,0.2151331752538681,0.007351875305175781,988.472412109375,0,13.0,1,1
15.8,0.08965474,-0.15115876,9.7747755,-0.00034955708542838687,3.254011971876025e-06,-0.0005208685179241002,-4.138199806213379,27.51567649841309,-37.59407806396485,0.2799532413482666,0.18563422560691836,0.016884803771972656,988.4523315429688,0,13.0,1,1
15.84,0.08010650000000001,-0.14639245,9.753471000000001,0.000182964897248894,0.0001364298223052174,0.0005443479167297481,-4.70952033996582,26.822607040405273,-37.38850402832031,0.2739511728286743,0.17963437736034393,0.06901073455810547,988.4775390625,0,13.0,1,1
15.88,0.075338155,-0.15115927,9.779511999999999,-0.00088240863988176,-0.0002630261587910354,-0.0003878048737533391,-4.6785149574279785,26.90408134460449,-37.01313018798828,0.2864376902580261,0.1926281601190567,0.031205177307128906,988.4598388671876,0,13.0,1,1
15.92,0.080129355,-0.15592612,9.777144999999999,-0.0010157865472137928,0.0005359572824090719,0.00027789059095084667,-4.690553188323975,26.99821281433105,-37.09376525878906,0.2697547972202301,0.2001369744539261,0.03129291534423828,988.4800415039062,0,13.0,1,1
15.96,0.084920585,-0.15592636,9.765310000000001,-0.0010157865472137928,0.0005359572824090719,0.00027789059095084667,-4.690553188323975,26.99821281433105,-37.09376525878906,0.26920297741889954,0.18991698324680328,0.036049842834472656,988.4800415039062,0,13.0,1,1
16.0,0.07537237,-0.14401032,9.767679,-0.00021694885799661281,-0.0006624464876949787,-0.0001216303207911551,-4.512015342712402,27.16529655456543,-36.97708511352539,0.2725266218185425,0.19368800520896912,0.021900177001953125,988.4676513671876,0,13.0,1,1
16.04,0.07777366,-0.14162733,9.760578,-0.00021694885799661281,-0.0006624464876949787,-0.0001216303207911551,-4.258366584777832,26.24432182312012,-37.6551399230957,0.2665894627571106,0.16901594400405884,0.04087924957275391,988.4676513671876,0,13.0,1,1
16.08,0.08017498,-0.15116064,9.765314,-0.000350216927472502,-0.0003961126785725355,1.1480471584945915e-05,-4.305241584777832,27.62274742126465,-37.72857666015625,0.2698349058628082,0.1776277720928192,0.04093456268310547,988.4599609375,0,13.0,1,1
16.12,0.09441602,-0.1368586,9.755836500000001,0.000315462879370898,-0.0005292528076097369,-0.00025488255778327584,-4.622752666473389,26.534914016723636,-37.07710266113281,0.2440280914306641,0.15741558372974396,0.04100322723388672,988.4624633789062,0,13.0,1,1
16.16,0.07041198,-0.1463892,9.767662,0.00044851092388853425,0.0005360286450013518,-0.0002549297059886157,-4.392582893371582,27.066469192504886,-37.066688537597656,0.2711773216724396,0.1707574874162674,0.03161811828613281,988.47021484375,0,13.0,1,1
16.2,0.079974115,-0.15353902,9.765295,-0.0006168627296574414,0.0005360464565455914,-0.00025497673777863383,-4.296247482299806,27.525671005249023,-37.493324279785156,0.2551952004432678,0.17460674047470093,0.041146278381347656,988.442626953125,0,13.0,1,1
16.24,0.07997662,-0.15592237,9.770031,5.0960748922079795e-05,0.0013346640625968573,1.2210628483444452e-05,-4.335299015045166,26.69877815246582,-37.207969665527344,0.26326632499694824,0.178257018327713,0.03646564483642578,988.4779663085938,0,13.0,1,1
16.28,0.07041955,-0.1416228,9.767664,0.0001840938930399716,0.0004025622911285609,0.00014535809168592098,-4.570141315460205,27.269147872924805,-37.35912704467773,0.26626190543174744,0.1675879955291748,0.04599761962890625,988.4498901367188,0,13.0,1,1
16.32,0.07520187,-0.15353926,9.781867,0.0001840451150201261,0.00040257020737044513,-0.00012097880244255066,-4.488780498504639,26.71318626403809,-37.339134216308594,0.2649744749069214,0.17121493816375732,0.012903213500976562,988.4577026367188,0,13.0,1,1
16.36,0.07042462,-0.16068913,9.760562,-0.0004817690351046622,-0.00026321542100049555,0.0008111163042485714,-4.890122413635254,27.02233695983887,-37.526329040527344,0.2635107040405273,0.1797458976507187,0.04136180877685547,988.4779663085938,0,13.0,1,1
16.4,0.07042718,-0.16307245,9.788969,-8.23194277472794e-05,-0.0005295273731462657,1.2158241588622333e-05,-4.921808242797852,27.203237533569336,-37.30107879638672,0.26165708899497986,0.1833245009183884,0.003551483154296875,988.492919921875,0,13.0,1,1
16.44,0.068039775,-0.1559227,9.770031,-0.0006149759865365922,0.002000477397814393,0.0009442532900720836,-4.882214546203613,27.66184043884277,-37.487979888916016,0.2551012337207794,0.1678321808576584,0.03675556182861328,988.4680786132812,0,13.0,1,1
16.48,0.06804234,-0.15592276,9.760563000000001,-0.00021552649559453132,-0.00013004554784856737,0.00014529511099681258,-4.28312349319458,26.69495964050293,-37.21578979492188,0.2680289447307587,0.16681359708309176,0.032070159912109375,988.4552001953124,0,13.0,1,1
16.52,0.07760449999999999,-0.14400645,9.770031,0.00018392299534752965,-0.00013004164793528616,-0.0001210311311297119,-4.388996124267578,26.701128005981445,-37.12284851074219,0.242834746837616,0.16120010614395142,0.04158306121826172,988.4253540039062,0,13.0,1,1
16.56,0.07521710000000001,-0.15353955,9.765298,-8.24175658635795e-05,-0.0006626694230362773,-0.0006536734872497617,-4.164233207702637,26.964418411254886,-37.403846740722656,0.24147793650627136,0.1699358969926834,0.036894798278808594,988.4855346679688,0,13.0,1,1
16.6,0.06804994,-0.15592293,9.770033,0.0008496636874042451,3.124237991869449e-06,0.0001452636788599193,-4.117166519165038,27.3244686126709,-37.2781982421875,0.2589707374572754,0.17877288162708282,0.04168415069580078,988.44775390625,0,13.0,1,1
16.64,0.06805247,-0.15115644,9.784235,-0.00031915522413328285,0.0007997718639671803,-0.00047535734483972186,-4.16187047958374,27.229738235473636,-36.95782852172852,0.2574203610420227,0.16790656745433807,0.032268524169921875,988.4454345703124,0,13.0,1,1
16.68,0.08000454,-0.14638992,9.765299,-0.00045233761193230754,8.282950147986412e-07,5.7263881899416453e-05,-4.589789390563965,27.35590934753418,-37.05323791503906,0.24189624190330505,0.15268780291080475,0.04651165008544922,988.4506225585938,0,13.0,1,1
16.72,0.080007076,-0.15830638,9.772401,0.00034658570075407624,-0.0003986415395047516,5.725346272811294e-05,-4.592152118682861,27.09058952331543,-37.49925231933594,0.24058648943901065,0.16692513227462769,0.03235054016113281,988.447998046875,0,13.0,1,1
16.76,0.08000961,-0.15115668,9.770033,0.003142877947539091,0.0002671521215233952,-0.0002090728958137333,-4.2507033348083505,27.88424873352051,-37.290374755859375,0.2389146089553833,0.16587577760219574,0.03240680694580078,988.4530029296876,0,13.0,1,1
16.8,0.07284242,-0.1678396,9.770033,-0.0023166220635175705,0.0006666299887001513,0.0007230221526697277,-4.3510613441467285,27.052335739135746,-36.53337097167969,0.2326444089412689,0.18341225385665894,0.03719139099121094,988.6005249023438,0,13.0,1,1
16.84,0.06806519999999999,-0.15354009,9.765299,-0.0007187512819655241,0.00013400209718383851,0.00045669582323171204,-3.995371103286743,27.49095726013184,-36.921783447265625,0.24079930782318115,0.15369665622711182,0.04197216033935547,988.397216796875,0,13.0,1,1
16.88,0.07523745,-0.1511568,9.767667999999999,-5.2986142691224813e-05,0.0004003219946753233,-7.59463873691857e-05,-4.427855968475342,27.61271476745605,-36.7852783203125,0.23919087648391724,0.1578250676393509,0.042023658752441406,988.4301147460938,0,13.0,1,1
16.92,0.07523996,-0.16069,9.760566,0.00021330529125407335,0.00026716795400716364,0.00045667481026612217,-4.2360572814941415,27.055009841918945,-37.09014129638672,0.2423454821109772,0.1752157360315323,0.04207611083984375,988.45068359375,0,13.0,1,1
16.96,0.06568289,-0.14877366,9.779503,-0.0019172462634742262,0.0009329617023468018,0.00032350642140954733,-4.273831367492677,27.230016708374023,-36.55566787719727,0.24535009264945984,0.1548105925321579,0.018461227416992188,988.5037841796876,0,13.0,1,1
17.0,0.07046521,-0.13685735,9.772402,-0.00045253330608829856,0.0005334917223080993,0.00032349594403058285,-4.540252685546875,26.874940872192386,-36.10891342163086,0.2438611388206482,0.158819779753685,0.04218196868896485,988.4125366210938,0,13.0,1,1
17.04,0.06807786,-0.14400722,9.770035,-0.0001862417557276785,-0.00013229387695901096,-7.598829688504338e-05,-4.428292274475098,26.87466239929199,-36.51107406616211,0.24764886498451236,0.1531858593225479,0.02800941467285156,988.4761352539062,0,13.0,1,1
17.08,0.06330061,-0.15115716,9.777137,-5.310861160978675e-05,-0.000664921710267663,0.000589790812227875,-4.968416213989258,28.00153923034668,-35.877906799316406,0.24142074584960935,0.15216107666492462,0.028055191040039062,988.48876953125,0,13.0,1,1
17.12,0.068525195,-0.15593462,9.760608,-5.313282599672675e-05,0.0007998197106644511,0.00019030651310458782,-4.398128032684326,26.69228553771973,-36.65901947021485,0.2443761229515076,0.15110839903354645,0.04226016998291016,988.4989624023438,0,13.0,1,1
17.16,0.07810512,-0.15593510000000002,9.762976,-0.0003210638533346355,-0.0005314976442605257,0.0007222461281344295,-4.05863618850708,26.74641227722168,-36.09862518310547,0.2286697626113892,0.16951747238636014,0.047036170959472656,988.48876953125,0,13.0,1,1
17.2,0.080515295,-0.1440192,9.767712,0.0006105214706622063,0.0006653789896517992,0.000319884333293885,-4.270786762237549,27.23296165466309,-36.71028137207031,0.2271125912666321,0.13997559249401093,0.042346954345703125,988.4635620117188,0,13.0,1,1
17.24,0.07814568,-0.15831937,9.755878,-0.0008544112206436694,-0.00026669475482776756,-0.0002128312480635941,-4.4025559425354,26.79378318786621,-37.12617874145508,0.2356904745101929,0.15324552357196808,0.05657958984375,988.4608764648438,0,13.0,1,1
17.28,0.07816595,-0.13448714,9.762981,-5.5659038480371244e-05,0.000132810790091753,-7.975695189088583e-05,-4.217226982116698,27.12469291687012,-36.09632110595703,0.20147120952606198,0.12839758396148682,0.04713153839111328,988.4613037109376,1,1.0,2,2
17.32,0.07340646,-0.15117057,9.774818,-5.5854732636362314e-05,-0.0013318947749212384,-0.0002129988861270249,-4.419159889221191,26.88349723815918,-36.97490310668945,0.228423535823822,0.15154853463172913,0.023509979248046875,988.47119140625,1,1.0,2,2
17.36,0.07581663,-0.15832086,9.767719,0.00034342374419793487,0.001331295701675117,0.00018639123300090432,-4.3161706924438485,27.40060234069824,-35.789283752441406,0.22236448526382446,0.16500191390514374,0.01881122589111328,988.489013671875,1,1.0,2,2
17.4,0.07105711,-0.14402167,9.79376,0.00034342374419793487,0.001331295701675117,0.00018639123300090432,-4.013772487640382,27.367361068725586,-35.2950439453125,0.22649455070495605,0.1418740302324295,0.03776645660400391,988.489013671875,1,1.0,2,2
17.44,0.049568266,-0.15593852,9.77009,-0.0007220353581942617,0.00013290601782500744,-0.0011452718172222376,-3.9699106216430655,27.1982479095459,-36.13873672485352,0.1560821235179901,0.18010859191417694,0.08980274200439453,988.4559936523438,1,1.0,2,2
17.48,0.15713412,-1.2546306,9.997342999999999,0.0054030348546803,-0.003462326480075717,-0.0002132501103915274,-4.265516757965088,27.395307540893555,-35.71979522705078,0.3929540812969208,0.4838481545448303,-0.2278938293457031,988.47119140625,1,1.0,2,2
17.52,0.27425963,0.37553144,10.245901,-0.008578744716942309,0.0033287617843598127,-0.11885706335306168,-4.58579683303833,26.5163631439209,-36.31187057495117,-0.19958001375198364,0.4035756587982178,-0.3340387344360352,988.48388671875,1,1.0,2,2
17.56,0.62320566,-0.02247645,10.030488,-0.18554583191871646,-0.04713807255029678,-0.14096136391162872,-4.538432121276856,27.5085506439209,-35.7613525390625,0.4380184412002564,-1.1082813739776611,-0.4028148651123047,988.4559936523438,1,1.0,2,2
17.6,1.4764208,-0.9757882999999999,9.568886000000001,-0.39953088760375977,-0.35113760828971863,-0.12378407269716266,-5.734143733978272,28.60128593444824,-35.48706817626953,0.045475006103515625,-0.045964181423187256,-0.02257061004638672,988.3369140625,1,1.0,2,2
17.64,0.85745656,-1.318981,9.694349,-1.0629241466522217,-0.8245140910148621,0.3730280101299286,-7.8854308128356925,30.79904365539551,-31.973838806152344,0.18561816215515134,-0.11128151416778563,-0.1706228256225586,988.4258422851562,1,1.0,2,2
17.68,0.6782342,-1.8385361,9.561788,-1.0310995578765871,-0.6297039389610289,0.7674418091773987,-8.0374755859375,32.341575622558594,-30.73192977905273,1.0024549961090088,-0.1154482364654541,-0.09689998626708984,988.4385375976562,1,1.0,2,2
17.72,0.87661624,-2.5392202999999998,9.251686,-1.21392560005188,0.8329029083251953,-0.016858581453561783,-6.909213066101074,33.976844787597656,-29.84671401977539,-0.585545539855957,0.5352795124053955,0.4510297775268554,988.506591796875,1,1.0,2,2
17.76,-0.04108572,-2.6369352000000004,9.379517,-1.1255089044570925,1.851827621459961,-0.3445603549480438,-5.12359619140625,34.647293090820305,-29.006336212158203,0.11773782968521118,0.061185598373413086,0.13064289093017578,988.4691162109376,1,1.0,2,2
17.8,0.11905798,-3.0420928,9.213814,-0.8792999982833862,0.50107342004776,0.007509155664592981,-4.6829047203063965,35.79716491699219,-28.67962646484375,0.3254533410072327,0.091416597366333,0.2381534576416016,988.5223388671876,1,1.0,2,2
17.84,0.009142816,-3.1970067,8.986564999999999,-0.8366897106170654,0.12436961382627487,-0.11166729032993317,-5.140827178955078,36.63194274902344,-27.50313949584961,0.27598387002944946,0.02786993980407715,0.21274757385253906,988.532470703125,1,1.0,2,2
17.88,-0.32542318,-3.4210352999999993,8.996037,-0.8203115463256836,0.031025929376482964,-0.07118736207485199,-4.852669715881348,36.95372772216797,-26.411609649658203,0.4760690033435822,-0.16872811317443848,0.2831096649169922,988.530029296875,1,1.0,2,2
17.92,0.34615958,-3.9811062999999995,9.126234,-0.5153799653053284,0.0862865075469017,-0.22791433334350586,-5.308526992797852,37.42168426513672,-25.213979721069336,0.19743722677230835,0.1832923889160156,-0.30866241455078125,988.5172119140624,1,1.0,2,2
17.96,0.07851079,-4.102654,8.922657000000001,-0.5774317979812622,0.2041313201189041,-0.5114076733589172,-5.723130226135254,38.45562744140625,-24.97963714599609,0.07670211791992188,0.3090343475341797,0.134613037109375,988.4995727539062,1,1.0,2,2
18.0,-0.0027255714,-4.30285,8.558109,-0.685689389705658,0.12996238470077515,-0.29742294549942017,-6.399183750152588,38.664710998535156,-23.732929229736328,0.3214015364646912,0.12049102783203125,0.30065155029296875,988.4640502929688,1,1.0,2,2
18.04,0.24345464,-4.4625297,8.941597999999999,-0.662253737449646,0.17643453180789948,-0.3751872777938843,-7.295977115631103,38.98321533203125,-22.535593032836914,0.08953502774238586,0.1203761100769043,-0.012325286865234377,988.4566650390624,1,1.0,2,2
18.08,0.3319013,-4.7842727,8.390041,-0.5472055077552795,0.20173457264900208,-0.4068789780139923,-7.527913570404053,39.45060729980469,-22.14228057861328,-0.05993112921714783,0.1242046356201172,-0.017465591430664062,988.466552734375,1,1.0,2,2
18.12,0.07142225,-4.9916186,7.945009700000001,-0.7942136526107788,0.10719245672225952,-0.20181579887866974,-7.847871780395508,39.62409973144531,-20.48645782470703,0.18223771452903748,0.22281503677368164,0.7905960083007812,988.4842529296876,1,1.0,2,2
18.16,0.09056175,-4.9511037,8.778267,-0.43668484687805176,0.002530351746827364,-0.0018126536160707476,-7.812544822692871,40.71041870117188,-20.01657485961914,0.181316077709198,0.09497594833374023,-0.19339847564697266,988.4515380859376,1,1.0,2,2
18.2,0.040394097999999996,-5.086951,8.319030999999999,-0.2252302169799805,3.829482011497021e-07,-0.0008806321420706809,-7.508625030517577,40.67865753173828,-19.59964370727539,0.20918667316436768,0.05122518539428711,-0.039119720458984375,988.48974609375,1,1.0,2,2
18.24,0.0021759272,-5.241864700000001,8.049171000000001,-0.5609216094017029,0.006791469641029835,-0.012864931486546992,-7.535745620727539,40.86397552490234,-19.60630798339844,0.3457718789577484,-0.055092811584472656,0.263458251953125,988.5096435546876,1,1.0,2,2
18.28,0.11691153,-5.158450599999999,7.878735000000001,-0.4778312146663666,0.06471520662307739,-0.10434452444314957,-8.141497611999513,40.98098754882813,-18.59600067138672,0.10085424780845642,0.12769174575805664,0.3705086708068848,988.4591674804688,1,1.0,2,2
18.32,0.19579858,-5.1751337,8.693054,-0.2701050341129303,0.07310419529676437,-0.10913828760385512,-7.956031322479247,41.417816162109375,-18.26521873474121,-0.003493398427963257,-0.197354793548584,0.25922155380249023,988.4969482421876,1,1.0,2,2
18.36,0.22210777,-4.136025,9.019731,0.288359135389328,0.13781899213790896,-0.09342574328184128,-7.87467098236084,40.86186218261719,-18.24522399902344,-0.06439357250928879,-0.6359610557556152,-1.5313377380371094,988.507080078125,1,1.0,2,2
18.4,-0.11962788,-4.700862,9.531048,0.9207260012626648,1.2763192653656006,-0.3801148533821106,-7.855183601379394,40.248870849609375,-19.6750602722168,-0.6148319840431213,-0.06135892868041992,-0.5045881271362305,988.56591796875,1,1.0,2,2
18.44,-1.6228559,-5.141769,9.403221,1.472399115562439,0.6331665515899658,-0.6305851340293884,-8.145864486694336,39.135536193847656,-22.33655548095703,1.338025689125061,1.2433276176452637,-0.3575029373168945,988.5704956054688,1,1.0,2,2
18.48,-1.4483728,-3.2446804,10.769098,1.406219482421875,0.3507386445999145,-0.10580968111753464,-8.503259658813478,37.748924255371094,-24.817813873291016,1.1901313066482544,0.08292460441589355,-1.5748453140258791,988.6137084960938,1,1.0,2,2
18.52,-0.9399564,-1.2570107,10.790346000000001,1.1628066301345823,-0.15379679203033447,0.7372131943702698,-7.779214382171631,36.63709259033203,-26.86592102050781,0.6096372604370117,-1.982707142829895,-0.7294273376464844,988.5682983398438,1,1.0,2,2
18.56,-1.3390681999999998,-3.4925260000000002,12.849812,1.1698670387268066,-0.5314331650733948,0.2931326627731323,-7.399226665496826,35.466712951660156,-29.24250793457031,1.0051610469818115,0.4449162483215332,-3.835427284240722,988.5755004882812,1,1.0,2,2
18.6,-0.75593036,-1.950545,11.230644999999999,0.8332467079162598,-0.1832256615161896,-0.07131928205490112,-8.792495727539062,34.584197998046875,-30.13093566894531,0.9140222668647766,0.05790281295776367,-1.7134885787963867,988.6669311523438,1,1.0,2,2
18.64,-0.65077287,-1.5549206,11.382147,1.0312525033950806,0.10852337628602983,0.2750245034694672,-8.879477500915527,32.713104248046875,-32.317581176757805,0.2430403232574463,-0.5612567663192749,-1.4046363830566406,988.4970092773438,1,1.0,2,2
18.68,-0.87781173,-1.5001053,11.955009,1.0312525033950806,0.10852337628602983,0.2750245034694672,-9.113554954528807,31.49445152282715,-34.519729614257805,0.6233598589897156,-0.24503278732299805,-3.014300346374512,988.4970092773438,1,1.0,2,2
18.72,-1.0307636999999998,-1.7670325,10.028107,1.0018246173858645,-0.11065458506345748,0.04066653549671173,-9.872430801391602,30.31106376647949,-36.489105224609375,0.5123282074928284,0.3272737264633179,-0.6935052871704102,988.4842529296876,1,1.0,2,2
18.76,-1.4705038000000001,-1.3928578,11.180935,0.8906376957893372,0.3402182161808014,-0.14042825996875766,-9.790985107421877,28.228464126586914,-37.91947937011719,0.8877544999122621,0.23484158515930176,-0.8150949478149414,988.5045776367188,1,1.0,2,2
18.8,-1.1765442,-2.0959249,13.219095999999999,0.6814465522766113,0.37856772541999817,-0.36280202865600586,-9.08716106414795,26.35942649841309,-38.68841552734375,1.0446963310241701,0.8335394859313965,-3.4465618133544917,988.456298828125,1,1.0,2,2
18.84,-0.7606994,-1.9076461,10.226952,0.2236495167016983,0.1932118535041809,-0.2557430863380432,-9.130502700805664,25.73995018005371,-39.56930160522461,-0.1307152509689331,1.5219919681549072,-1.5586862564086914,988.4284057617188,1,1.0,2,2
18.88,-1.9580383999999997,-0.8232543999999999,9.718003999999999,0.9039534330368042,-0.1257013976573944,0.04466123878955841,-8.392951011657715,22.902891159057614,-42.3653678894043,0.897584080696106,0.8824712038040161,0.698516845703125,988.5299072265624,1,1.0,2,2
18.92,-1.7477252,-0.75413924,10.733533999999999,1.1164734363555908,0.9270452857017516,0.2212286740541458,-6.063241004943848,21.18660926818848,-43.23981475830078,0.5617932081222534,0.9490340948104858,-0.8135156631469727,988.4864501953124,1,1.0,2,2
18.96,-1.7740126,-1.290377,10.766675,1.344306707382202,-0.18109510838985446,0.3249586820602417,-4.555831909179688,17.016176223754886,-46.38442993164063,0.9356461763381958,2.158111572265625,-1.4392499923706057,988.4816284179688,1,1.0,2,2
19.0,-1.6186669,-0.23935123,8.785327,1.0589492321014404,0.4587287902832031,0.4265581667423248,-2.9477195739746094,15.150394439697266,-46.215126037597656,0.2284353971481323,1.671059250831604,0.2971811294555664,988.4686889648438,1,1.0,2,2
