Timestamp,Ax,Ay,Az,Gx,Gy,Gz,Mx,My,Mz,LiAx,LiAy,LiAz,P,Value,Type,GroupType,Activities
0.0,0.058299422000000004,-0.15675160000000002,9.746358,2.564666465332266e-05,0.0011405172990635035,0.00018764665583148601,9.06302261352539,24.85324859619141,-14.963068008422852,0.0064220018684864036,-0.018073782324790955,0.0676584243774414,990.2470092773438,0,13.0,1,1
0.04,0.058310807,-0.15913513,9.767664,0.0013649377506226301,0.0006060776649974288,-0.00011145340977236629,2.328085422515869,15.598421096801758,-16.309106826782227,0.009391292929649351,-0.0012293905019760132,0.06213569641113281,990.0668334960938,0,13.0,1,1
0.08,0.06310207,-0.16628528,9.770032,-0.0004993833717890084,0.0015382010024040935,0.0001548152940813452,2.1901211738586426,16.259700775146484,-16.788446426391598,-0.0005508288741111755,0.00816015899181366,0.03846263885498047,990.0921630859376,0,13.0,1,1
0.12,0.070283145,-0.14960259,9.770033,-0.0004993833717890084,0.0015382010024040935,0.0001548152940813452,2.1901211738586426,16.259700775146484,-16.788446426391598,0.00914766639471054,-0.015279948711395262,0.05267047882080078,990.0921630859376,0,13.0,1,1
0.16,0.07029456,-0.14721957,9.770033999999999,0.0006989280809648335,-0.0007254660595208406,0.0005542419385164976,2.0161497592926025,16.097030639648438,-17.137041091918945,-0.01015094667673111,-0.01971125602722168,0.03847312927246094,990.0897827148438,0,13.0,1,1
0.2,0.060746400000000006,-0.16866937,9.770036,0.0008319760090671481,0.0003398153348825872,2.1563086193054918e-05,2.1157972812652592,15.979053497314453,-16.221681594848633,0.004174955189228058,0.01367931067943573,0.02426910400390625,990.1376953125,0,13.0,1,1
0.24,0.07748711,-0.14722016,9.765302,0.00029923414695076644,0.00047299111611209815,0.00028783181915059686,1.865436315536499,15.90255355834961,-16.024652481079098,-0.0243932381272316,-0.014946937561035156,0.03847026824951172,990.0820922851562,0,13.0,1,1
0.28,0.065549016,-0.16866991,9.784241,-0.0003666654520202428,-0.0005922545096836983,2.146876067854464e-05,2.2905864715576167,15.98526382446289,-17.172788619995114,-0.004729390144348145,0.008885413408279419,0.033730506896972656,990.10986328125,0,13.0,1,1
0.32,0.06317055,-0.14483747,9.765303999999999,-0.0007663595606572926,0.00020672880054917184,-0.0003780993283726275,2.212132453918457,16.438251495361328,-16.648317337036133,-0.009490974247455595,-0.020114153623580933,0.04319190979003906,990.1201782226562,0,13.0,1,1
0.36,0.065571845,-0.16390395,9.772407000000001,0.0005651100655086339,-0.0007253588992170991,0.0004208011087030172,1.9182920455932615,15.636360168457033,-16.63309669494629,-0.0045023858547210685,-0.0007041096687316895,0.033725738525390625,990.1024169921876,0,13.0,1,1
0.4,0.05124384,-0.15913764,9.767673,0.0006981577607803048,-0.0007253409712575376,-0.0003781936247833073,2.129058837890625,15.254255294799805,-16.643217086791992,0.02909064292907715,-0.0005957484245300293,0.047928810119628906,990.14794921875,0,13.0,1,1
0.44,0.07037449,-0.1686711,9.772408500000001,-0.00010089975694427268,-0.0005921652191318573,-0.00011192489182576536,1.8034257888793943,15.739606857299805,-16.775407791137695,0.0006474331021308899,0.008723780512809753,0.038453102111816406,990.1402587890624,0,13.0,1,1
0.48,0.06560612,-0.15913823,9.762939999999999,-0.00036732564331032336,0.0006062741158530116,0.00015434378292411566,1.3162648677825928,15.49394989013672,-16.37803077697754,0.00026841461658477783,0.003901377320289612,0.04792308807373047,990.1201171875,0,13.0,1,1
0.52,0.060837685999999995,-0.1496054,9.746371,-0.00023427771520800889,0.0007394499843940139,0.0009532442199997604,1.8571228981018064,15.737258911132812,-16.860528945922848,0.005071520805358887,0.0038471370935440063,0.05739021301269531,990.1377563476562,0,13.0,1,1
0.56,0.06801885,-0.1591388,9.758208,-0.00023427771520800889,0.0007394499843940139,0.0009532442199997604,2.0586500167846684,16.452659606933597,-16.779478073120114,-0.0045307353138923645,0.008824408054351807,0.04318809509277344,990.1377563476562,0,13.0,1,1
0.6,0.060860544,-0.17343873,9.760577,-0.00023427771520800889,0.0007394499843940139,0.0009532442199997604,2.0586500167846684,16.452659606933597,-16.779478073120114,-0.009277276694774628,0.013423696160316469,0.04791927337646485,990.1377563476562,0,13.0,1,1
0.64,0.06804165,-0.15437278,9.774780999999999,0.00029824391822330654,-0.0008584275492466986,0.0004205653385724872,2.27536678314209,15.970535278320312,-16.39974021911621,-0.004912950098514557,0.003782346844673157,0.028983116149902344,990.13525390625,0,13.0,1,1
0.68,0.06805307,-0.15675637,9.744008000000001,0.00016486606909893453,0.0003400296263862401,0.0002873131015803665,2.0934877395629883,15.16836166381836,-16.786680221557614,0.004320509731769562,-0.000783383846282959,0.06686210632324219,990.1375732421876,0,13.0,1,1
0.72,0.06806448,-0.16152316,9.767681,-0.00010156006464967504,0.0006063634064048529,-0.0003785237204283476,2.0151700973510738,15.727270126342773,-16.96128273010254,-0.0006407499313354492,0.004140913486480713,0.04319286346435547,990.1150512695312,0,13.0,1,1
0.76,0.06568602,-0.15675694,9.75348,0.00029780386830680067,0.0004732233355753124,0.00015406083548441532,2.1239495277404785,15.61812973022461,-16.50975227355957,0.004097633063793182,-0.00033070147037506104,0.04792976379394531,990.1123657226562,0,13.0,1,1
0.8,0.05540222,-0.16150567,9.760514,0.0005640097078867258,-0.0003257064672652632,2.0855775801464915e-05,1.679725170135498,16.466154098510742,-16.029016494750973,0.014352679252624512,-0.0004746168851852417,0.04799461364746094,990.130126953125,0,13.0,1,1
0.84,0.06255418,-0.16627187,9.762879,0.00030108491773717105,0.0004726906481664628,-0.00024400692200288174,1.9509577751159668,15.82522201538086,-17.03410530090332,0.00926552712917328,0.008705154061317444,0.03852462768554688,990.1276245117188,0,13.0,1,1
0.88,0.06492633,-0.15435499,9.765246000000001,-0.0004942608647979796,0.00047210598131641746,-0.00010930525604635476,2.3356952667236333,15.605785369873047,-16.695627212524414,-0.000485546886920929,-0.010406151413917542,0.03852558135986328,990.1376953125,0,13.0,1,1
0.92,0.05773884,-0.14958796,9.755775,-0.0008935637888498603,0.00047207815805450076,0.00015708396676927805,1.91081976890564,15.734912872314453,-16.945650100708008,0.009082987904548643,-0.010587602853775023,0.06693172454833984,990.1452026367188,0,13.0,1,1
0.96,0.062500894,-0.1519709,9.767610000000001,-0.0002276029263157397,-6.058138023945503e-05,-0.00010915851453319192,2.245340347290039,16.25882339477539,-16.950876235961914,-0.00040461868047714233,-0.005723416805267334,0.038527488708496094,990.13525390625,0,13.0,1,1
1.0,0.069652855,-0.15435368,9.769975,0.0003052001993637532,-0.000593240896705538,2.407276770099997e-05,1.86763858795166,15.64165496826172,-16.702585220336914,-0.004729576408863068,0.0036674588918685904,0.03379058837890625,990.1376953125,0,13.0,1,1
1.04,0.067245185,-0.16626963,9.772341,-0.0003604181401897222,-0.0005932687199674548,2.41461384575814e-05,1.6338825225830078,15.475440979003904,-16.65683937072754,-0.004835955798625946,0.0036436468362808228,0.04326057434082031,990.1377563476562,0,13.0,1,1
1.08,0.07200724,-0.15196958,9.76287,-0.000493404979351908,0.0004719670105259865,0.00042369336006231606,1.9372591972351076,15.811965942382812,-16.338361740112305,-0.005318105220794678,-0.0010921210050582886,0.06693840026855469,990.1275634765624,0,13.0,1,1
1.12,0.07198945,-0.14481926,9.755767,0.000572029675822705,0.0011377288028597832,2.429287997074425e-05,2.161043643951416,15.70549201965332,-16.443597793579098,0.004179947078227997,-0.01551806926727295,0.052734375,990.1275634765624,0,13.0,1,1
1.16,0.05524242,-0.15435192,9.765235,-0.0006262208917178214,0.00033875348162837327,0.0002906821318902076,1.908754825592041,16.101728439331055,-16.966798782348633,0.0235498920083046,-0.0060501396656036386,0.052734375,990.1349487304688,0,13.0,1,1
1.2,0.069563985,-0.14958498,9.762866,-9.341774421045555e-05,-0.0008596957777626812,0.0002907555026467889,1.9829416275024412,16.276458740234375,-16.83448600769043,-0.014253914356231691,-0.010752856731414795,0.03379535675048828,990.1300659179688,0,13.0,1,1
1.24,0.06954628,-0.15673438,9.786536,0.0003062274481635541,-0.000992881483398378,2.4512934032827616e-05,1.7173616886138916,16.185230255126953,-15.864412307739258,0.00015487521886825562,-0.010798439383506777,0.014859199523925781,990.122314453125,0,13.0,1,1
1.28,0.05996889,-0.15196732,9.77233,-0.0004925489774905144,-0.0004602775152307004,-0.0003748874296434224,1.8659794330596924,15.534263610839846,-15.926206588745115,0.009952016174793243,-0.005709260702133179,0.04327106475830078,990.1549682617188,0,13.0,1,1
1.32,0.06712085,-0.15911674,9.769961,0.0007060435018502176,-0.0005934631917625666,0.0004241334972903133,1.513906478881836,15.942560195922852,-16.665681838989258,0.005240142345428467,-0.001122593879699707,0.048004150390625,990.11474609375,0,13.0,1,1
1.36,0.05515355,-0.15434977,9.769960000000001,-0.0010248387698084118,0.0006049304502084851,-0.00010842486517503858,2.0699539184570312,14.988338470458984,-16.849504470825195,0.014692939817905424,-0.0013344436883926392,0.048003196716308594,990.1600952148438,0,13.0,1,1
1.4,0.067085326,-0.16149914,9.760489,4.059608181705698e-05,-0.00032720292801968753,0.0010900699999183416,1.7837774753570557,15.826374053955078,-16.46952247619629,-0.009054116904735563,0.003188744187355041,0.04799938201904297,990.1323852539062,0,13.0,1,1
1.44,0.076627195,-0.15434888,9.777059,0.0004404126375447959,-6.0942660638829686e-05,-0.00010820472380146384,1.398198127746582,15.781963348388672,-17.331315994262695,-0.008965566754341125,-0.0061282068490982064,0.02433300018310547,990.1345825195312,0,13.0,1,1
1.48,0.05749017,-0.15911505,9.755753,-9.204823436448349e-05,-0.00046044428017921746,-0.00037444726331159467,1.1241984367370603,16.631780624389652,-17.56977653503418,0.010193973779678343,-0.0014089643955230713,0.05747413635253906,990.1572265625,0,13.0,1,1
1.52,0.057472438,-0.15434799,9.769953999999998,-9.204823436448349e-05,-0.00046044428017921746,-0.00037444726331159467,1.1241984367370603,16.631780624389652,-17.56977653503418,0.01961259543895721,-0.006126075983047485,0.052742958068847656,990.1572265625,0,13.0,1,1
1.56,0.059844552999999995,-0.14719775,9.755749,-0.0004913509474135934,0.0006047915085218848,-0.0001080580404959619,1.1619725227355957,16.456771850585938,-18.1042423248291,-0.004441298544406891,-0.025208309292793274,0.04801082611083984,990.1446533203124,0,13.0,1,1
1.6,0.06938642,-0.16864684,9.753381,0.00017460991512052715,0.0003384478040970862,2.5173299945890907e-05,1.1790122985839844,17.105110168457028,-18.529726028442386,-0.01847449690103531,0.0032756775617599487,0.062212944030761726,990.1299438476562,0,13.0,1,1
1.64,0.06936866,-0.15672997,9.781785000000001,0.0001747812784742564,-0.0007268434856086968,-0.00010791135719045997,2.244828224182129,17.839374542236328,-18.121057510375977,0.0005371794104576111,0.0033343881368637085,0.024339675903320312,990.1370849609376,0,13.0,1,1
1.68,0.062181175,-0.15434626,9.769948,-0.00022452117991633716,7.207633461803198e-05,2.5320012355223295e-05,2.9633517265319824,16.773662567138672,-17.938467025756836,0.014730535447597504,0.0036722272634506226,0.0480194091796875,990.1370849609376,0,13.0,1,1
1.72,0.06455332,-0.16626227,9.769946000000001,0.00044143953709863126,0.0006046803318895401,2.539332490414381e-05,2.579019069671631,16.518890380859375,-17.479413986206055,0.005322262644767761,0.0083533376455307,0.05748939514160156,990.1398315429688,0,13.0,1,1
1.76,0.06713053599999999,-0.15911698,9.774697,4.2136838601436466e-05,-0.000726926838979125,-0.0009066388593055307,2.6027965545654297,15.698490142822266,-17.743009567260742,0.0054036155343055725,0.008373335003852844,0.03381824493408203,990.1398315429688,0,13.0,1,1
1.8,0.07211000000000001,-0.1591219,9.751043,0.0005749395932070911,-0.00032748086960054934,2.5540066417306658e-05,2.1773486137390137,14.983642578125,-17.019746780395508,-0.009007036685943605,-0.0012244582176208494,0.0574502944946289,990.1398315429688,0,13.0,1,1
1.84,0.07449865,-0.15673864,9.762879,-0.00020865030819550162,-0.00029196293326094747,9.797918028198184e-05,2.0492200851440434,15.811687469482422,-16.74051856994629,-0.00878874957561493,-0.0012283176183700562,0.05271434783935547,990.1390991210938,0,13.0,1,1
1.88,0.07688725,-0.14482209,9.765246000000001,0.000590309442486614,-0.00015880704449955374,0.0007637740345671773,2.4761595726013184,15.315746307373047,-16.469354629516598,-0.02312516421079636,-0.005692929029464722,0.02904796600341797,990.1395263671876,0,13.0,1,1
1.92,0.081665784,-0.15912178,9.760512,0.000590309442486614,-0.00015880704449955374,0.0007637740345671773,2.4761595726013184,15.315746307373047,-16.469354629516598,-0.004145123064517975,-0.0008346736431121826,0.05272197723388672,990.1395263671876,0,13.0,1,1
1.96,0.06971502,-0.15435523,9.762879,0.000590309442486614,-0.00015880704449955374,0.0007637740345671773,2.175987720489502,15.50838851928711,-15.81849479675293,-0.008664064109325409,-0.019942358136177063,0.033782005310058594,990.1395263671876,0,13.0,1,1
2.0,0.06732386,-0.15673846,9.762879,5.76898964936845e-05,-2.5651068426668647e-05,0.0003643055097199976,2.199115514755249,16.162620544433597,-16.55320167541504,-0.0038247779011726384,-0.0009472072124481199,0.038514137268066406,990.1343383789062,0,13.0,1,1
2.04,0.07688218,-0.16388825,9.767613,5.7714343711268164e-05,0.00024066084006335586,-3.5157863749191165e-05,2.3296070098876958,15.599897384643555,-16.386411666870114,-0.013539731502532959,0.003735095262527466,0.03378009796142578,990.1542358398438,0,13.0,1,1
2.08,0.07927084,-0.15435511,9.762879,0.00019088451517745847,0.0005069747567176819,-0.00030146847711876035,2.3888490200042725,15.971729278564453,-16.87919807434082,-0.008618973195552826,0.0037609785795211788,0.05745124816894531,990.1343994140624,0,13.0,1,1
2.12,0.07687968,-0.15673837,9.76998,-0.0006080509047023952,-0.00015881695435382426,-0.00056777911959216,2.415968894958496,15.78641128540039,-16.87253761291504,0.0006719082593917848,-0.0058113038539886475,0.03378105163574219,990.1343994140624,0,13.0,1,1
2.16,0.06253898,-0.1591216,9.748675,-7.54070424591191e-05,0.0005069706821814178,-0.00043461599852889776,1.9548423290252688,16.09201431274414,-16.66539192199707,-0.01382265239953995,0.003562226891517639,0.04798316955566406,990.10400390625,0,13.0,1,1
2.2,0.079267025,-0.16150483,9.76998,-7.539470243500546e-05,0.0007732847006991506,-3.513693809509277e-05,2.3080315589904785,16.15939712524414,-16.800745010375973,-0.0091339573264122,0.008470803499221802,0.05745506286621094,990.1492919921876,0,13.0,1,1
2.24,0.10555467,-0.14243859,9.819692,0.0003240913501940668,-2.566499460954219e-05,-0.00016828958177939055,2.486133098602295,15.588430404663086,-16.409860610961914,-0.10072676837444304,-0.08224767446517944,-0.07037162780761719,990.16943359375,0,13.0,1,1
2.28,-0.013941705,-0.22585335,9.7770815,-0.001673265709541738,0.00263749179430306,-3.5126431612297886e-05,1.9297871589660645,15.910514831542967,-16.650911331176758,0.12362980097532272,0.17880436778068542,0.01956653594970703,990.1339721679688,0,13.0,1,1
2.32,0.107942045,-0.11622249999999999,9.76998,-0.0019395694835111497,-0.00042514275992289196,0.00036435259971767664,1.9614729881286619,15.729618072509766,-16.876161575317386,-0.1483878791332245,-0.1588638722896576,0.033779144287109375,990.1261596679688,0,13.0,1,1
2.36,0.07448214,-0.14005521,9.758142999999999,0.000856759783346206,0.00024064502213150263,9.8041957244277e-05,2.439204692840576,15.33429718017578,-17.234586715698242,-0.009869523346424105,0.007484912872314453,0.047974586486816406,990.1136474609376,0,13.0,1,1
2.4,0.06492129,-0.163888,9.765246000000001,0.0005904560093767941,-0.00029198871925473213,-0.00030142656760290265,2.4497206211090092,15.238691329956055,-17.076642990112305,0.04187003523111344,0.06427361071109773,0.0479736328125,990.1336669921876,0,13.0,1,1
2.44,0.067309916,-0.18295422,9.769979,-0.0007411111728288232,0.0018385362345725298,0.0003643683448899537,2.122427463531494,15.616655349731445,-16.432451248168945,-0.006420344114303589,-0.007622659206390381,0.033768653869628906,990.1282348632812,0,13.0,1,1
2.48,0.06252885,-0.15197149,9.76051,-0.0008742568898014723,0.001172744669020176,-0.00016825826605781913,1.9758749008178709,15.90080451965332,-16.349512100219727,0.012354679405689241,-0.002864018082618713,0.0479736328125,990.1362915039062,0,13.0,1,1
2.52,0.08403671,-0.15197149,9.774713499999999,-0.0008742446661926807,0.000906426808796823,-0.0007008847896941006,2.0141925811767583,15.357501983642578,-16.785524368286133,-0.03062252700328827,-0.0030986368656158447,0.03850078582763672,990.103271484375,0,13.0,1,1
2.56,0.06491619,-0.17103770000000001,9.762877,-0.0006079165614210068,0.00010747714259196071,-0.00030140572926029563,2.5760819911956787,15.40959930419922,-16.952146530151367,0.007336609065532684,0.025357738137245175,0.047969818115234375,990.103271484375,0,13.0,1,1
2.6,0.072084665,-0.16865441,9.7723465,0.0003242012462578714,0.0009064227924682199,0.0004975472111254929,2.53855299949646,14.584182739257812,-16.744096755981445,0.007665358483791351,0.006407603621482849,0.03376579284667969,990.1332397460938,0,13.0,1,1
2.64,0.07208341,-0.16388777,9.767611500000001,0.00032421335345134134,-0.0006914745317772031,-0.0004345531924627721,2.404336452484131,15.40633773803711,-16.155649185180664,-0.006366945803165436,0.006325185298919678,0.043231964111328125,990.1256713867188,0,13.0,1,1
2.68,0.06252253,-0.15673789999999999,9.777080999999999,-0.0003415640094317496,-0.0009577923337928953,-0.000434547895565629,2.863398313522339,15.467550277709961,-16.383935928344727,0.0035307109355926514,-0.0173904299736023,0.052700042724609375,990.1332397460938,0,13.0,1,1
2.72,0.07447076,-0.15912119,9.767611500000001,5.792202864540741e-05,-0.0008246363722719253,0.00036440492840483785,2.641573429107666,16.313547134399414,-16.63020896911621,-0.009642966091632843,-0.002374500036239624,0.04796886444091797,990.1332397460938,0,13.0,1,1
2.76,0.059432000000000006,-0.15672079,9.767548,0.0020578133407980204,-0.00202346732839942,-0.00016714585945010183,2.737036228179932,15.296640396118164,-16.508432388305664,0.0012817755341529846,-0.006540626287460327,0.04803943634033203,990.1560668945312,0,13.0,1,1
2.8,0.06657249,-0.16863647,9.765178,0.0020578133407980204,-0.00202346732839942,-0.00016714585945010183,2.737036228179932,15.296640396118164,-16.508432388305664,0.010988980531692505,0.017227157950401306,0.02910137176513672,990.1560668945312,0,13.0,1,1
2.84,0.059373587,-0.15671936,9.765175,0.0005966082680970429,-0.000291332951746881,-0.0002945789019577205,2.0647377967834477,16.458553314208984,-17.088701248168945,0.010862380266189577,-0.011223062872886658,0.057514190673828125,990.10791015625,0,13.0,1,1
2.88,0.07129386,-0.16863504,9.765172,-6.889981159474701e-05,-0.000291378702968359,0.0001050156424753368,2.236889600753784,15.987611770629885,-17.087671279907227,-0.013135947287082672,0.0076082199811935425,0.04331111907958984,990.160888671875,0,13.0,1,1
2.92,0.06648487,-0.14956808,9.774638000000001,-0.0011338816257193685,0.0006406811880879103,0.0001051363069564104,2.714482069015503,15.486377716064453,-16.747011184692386,0.0012807473540306091,-0.01661333441734314,0.03383827209472656,990.160888671875,0,13.0,1,1
2.96,0.06884551,-0.1448007,9.772267999999999,-6.83365942677483e-05,0.0002411616005701944,-0.0005605326732620597,2.6224687099456787,16.032024383544922,-16.22587013244629,0.0011070966720581057,-0.002012282609939575,0.02911376953125,990.1390991210938,0,13.0,1,1
3.0,0.08076581,-0.16863278,9.753328,0.0008640507003292441,-2.51999736065045e-05,-0.0004272540681995452,2.710895538330078,15.851722717285154,-16.690855026245114,-0.012665688991546629,0.016941949725151062,0.04804706573486328,990.1390991210938,0,13.0,1,1
3.04,0.059227496,-0.17101535,9.767529,-0.0004669654881581664,0.0006404983578249812,0.000371934991562739,2.6075234413146973,16.229127883911133,-16.850976943969727,-0.0032228752970695496,0.011783570051193236,0.033843040466308594,990.1510620117188,0,13.0,1,1
3.08,0.063978076,-0.15671498,9.776995,-0.0004669654881581664,0.0006404983578249812,0.000371934991562739,2.6075234413146973,16.229127883911133,-16.850976943969727,0.005879454314708711,-0.002672493457794189,0.04331398010253906,990.1510620117188,0,13.0,1,1
3.12,0.07111859,-0.15909752,9.767524,-0.0003332443302497268,0.000240933004533872,0.00010586049756966533,2.3676795959472656,16.057025909423828,-16.49601173400879,0.0011612027883529663,0.002047792077064514,0.0622549057006836,990.13037109375,0,13.0,1,1
3.16,0.07825905,-0.15194699,9.765153999999999,0.0005991427460685372,-0.00015858651022426784,0.00037229707231745124,2.043132305145264,15.805793762207033,-16.431299209594727,-0.008295968174934387,-0.007367268204689027,0.05278968811035156,990.13037109375,0,13.0,1,1
3.2,0.07583994,-0.16147938,9.772252,0.0005991427460685372,-0.00015858651022426784,0.00037229707231745124,2.043132305145264,15.805793762207033,-16.431299209594727,-0.013126589357852936,-0.0025571435689926147,0.043323516845703125,990.13037109375,0,13.0,1,1
3.24,0.07820064,-0.16147867,9.77225,0.00033310858998447657,0.00010768364882096648,-0.00016021402552723885,2.840843677520752,15.65728759765625,-16.622514724731445,0.0013139992952346802,-0.007511138916015625,0.038588523864746094,990.1000366210938,0,13.0,1,1
3.28,0.063831985,-0.16386124,9.769879,-0.0007318733260035515,-0.00015867793990764767,-0.00029325124341994524,4.476236820220947,14.132408142089846,-15.322595596313475,0.01092703640460968,0.0066862404346466064,0.04332542419433594,990.1000366210938,0,13.0,1,1
3.32,0.06858259400000001,-0.16147724,9.75804,-0.0007318733260035515,-0.00015867793990764767,-0.00029325124341994524,4.476236820220947,14.132408142089846,-15.322595596313475,-0.008150286972522736,0.01113907992839813,0.04332160949707031,990.1000366210938,0,13.0,1,1
3.36,0.073333144,-0.15909326,9.772243,-6.58021162962541e-05,-0.00015872367657721045,0.0005058170645497738,3.9063231945037837,13.75519561767578,-12.672220230102539,-0.012893781065940857,-0.003541231155395508,0.019644737243652344,990.1351318359376,0,13.0,1,1
3.4,0.075693846,-0.1519427,9.762771,-0.0007313099922612308,0.0005070203333161771,-0.0005593257956206799,1.970566987991333,13.734237670898438,-13.373498916625975,0.001504555344581604,0.006195500493049622,0.043323516845703125,990.0947875976562,0,13.0,1,1
3.44,0.07566464,-0.16147512,9.765134,-0.00048543262528255587,-0.000629676622338593,-0.00011274128337390721,1.482625961303711,15.649255752563475,-15.642908096313475,0.006333224475383759,0.0013973116874694824,0.04332637786865234,990.0947875976562,0,13.0,1,1
3.48,0.06846571,-0.14002487,9.765132000000001,-0.00021855342492926863,0.0005686533986590803,-0.00024565789499320095,2.291290044784546,16.143192291259766,-15.950387954711914,-0.003289058804512024,-0.027111440896987915,0.04806327819824219,990.1098022460938,0,13.0,1,1
3.52,0.07082641,-0.16385695,9.753293,-8.51139920996502e-05,0.0003022917953785509,-0.0007781690219417214,2.5783071517944336,15.569005966186525,-15.80705451965332,-0.0030032694339752197,0.006233558058738709,0.05753517150878906,990.1650390625,0,13.0,1,1
3.56,0.06601739,-0.15432313,9.760392,0.0003146412200294435,-0.001162491156719625,0.0002872151380870491,1.3871622085571291,16.666162490844727,-15.764684677124025,-0.007309824228286744,-0.01759086549282074,0.038596153259277344,990.1650390625,0,13.0,1,1
3.6,0.07076794,-0.15432242,9.767491,0.0003149230615235865,-0.0010293790837749839,2.1019921405240893e-05,1.6536905765533447,15.914894104003904,-15.838777542114258,0.0021737441420555115,0.0016786307096481323,0.04333782196044922,990.1869506835938,0,13.0,1,1
3.64,0.06595898,-0.14717188,9.769855499999998,4.888865805696696e-05,0.00030215459992177784,-0.0005114910891279578,2.0388646125793457,16.43351173400879,-15.774515151977539,0.006710141897201538,-0.01253245770931244,0.04807758331298828,990.1331787109376,0,13.0,1,1
3.68,0.06353986,-0.15670428,9.765119,-8.398779027629644e-05,0.00043526690569706267,-0.0005113703664392233,2.012287139892578,16.250541687011722,-15.68272590637207,-0.0023913457989692692,-0.002711862325668335,0.04808235168457031,990.1126098632812,0,13.0,1,1
3.72,0.07805389,-0.14717546,9.758033,0.0004489258280955255,-0.0006300423410721122,2.1382118575274944e-05,1.870300769805908,16.539108276367188,-15.831697463989258,-0.007294930517673492,-0.02189500629901886,0.04331111907958984,990.1502685546876,0,13.0,1,1
3.76,0.07824087,-0.15432984,9.772254,4.97333676321432e-05,-0.0004969300935044885,2.150281216017902e-05,1.467979907989502,16.478492736816403,-15.843141555786133,-0.016832314431667328,0.006746277213096619,0.024374008178710938,990.0997314453124,0,13.0,1,1
3.8,0.066278696,-0.15909609,9.760417,0.0001789983652997762,0.0003042597381863743,-0.00024287652922794223,1.8747291564941408,16.437610626220707,-15.364534378051758,-0.002745695412158966,0.002194434404373169,0.03858375549316406,990.1192016601562,0,13.0,1,1
3.84,0.07582563,-0.15432921,9.767516,-8.817014168016613e-05,0.0008370299474336207,0.00015623192302882671,2.1105499267578125,16.237007141113278,-15.389139175415039,0.00211411714553833,-0.007508695125579834,0.04331684112548828,990.1192016601562,0,13.0,1,1
3.88,0.06386343,-0.15432891,9.77225,-0.0007538375211879611,-0.0008940431289374828,0.00015628430992364883,1.70159912109375,16.538787841796875,-15.189809799194336,0.011422351002693176,0.001986891031265259,0.04805278778076172,990.1270751953124,0,13.0,1,1
3.92,0.061460852999999996,-0.17101157,9.750943,0.00031154815223999316,0.0008369902498088777,0.00028949460829608137,1.602495193481445,16.288476943969727,-16.006715774536133,-0.002956971526145935,0.011270225048065186,0.05751895904541016,990.1217041015624,0,13.0,1,1
3.96,0.061448157,-0.15671158,9.772248,-8.780343341641128e-05,0.0001711806980893016,0.000555862905457616,1.7393722534179688,16.363780975341793,-15.724279403686525,0.016262106597423553,-0.0027593821287155147,0.048056602478027344,990.1719970703124,0,13.0,1,1
4.0,0.068605185,-0.16147783,9.762777999999999,0.00031179250800050795,-0.00036147094215266407,-0.0002430324093438685,1.9321503639221191,16.175834655761722,-16.204896926879886,0.002364739775657654,-0.0029048025608062744,0.05278587341308594,990.1434326171876,0,13.0,1,1
4.04,0.07576221,-0.15671095,9.765143,0.0001788793888408691,-9.519475861452521e-05,2.3388362023979425e-05,2.1848745346069336,16.517654418945312,-15.955904006958008,-0.01184622198343277,-0.017131835222244263,0.03858375549316406,990.1346435546876,0,13.0,1,1
4.08,0.05902019,-0.14956078,9.762775,0.0001788793888408691,-9.519475861452521e-05,2.3388362023979425e-05,2.1848745346069336,16.517654418945312,-15.955904006958008,-0.0025006309151649475,-0.007316663861274718,0.05279541015625,990.1346435546876,0,13.0,1,1
4.12,0.07573688,-0.15432706,9.765141499999999,0.0005784753011539577,0.00030425921431742614,-0.00037603295641019935,1.918590784072876,16.268495559692386,-16.208227157592773,-0.007135100662708282,-0.002350062131881714,0.03859519958496094,990.1625366210938,0,13.0,1,1
4.16,0.075724155,-0.17100966,9.772243,-0.0006197016919031738,0.0004373774281702936,-0.00010961259249597788,2.068187475204468,15.987293243408205,-16.44577980041504,-0.0024754777550697327,0.0115249902009964,0.033855438232421875,990.1242065429688,0,13.0,1,1
4.2,0.06376195,-0.15194312,9.769874,-0.0006197016919031738,0.0004373774281702936,-0.00010961259249597788,2.068187475204468,15.987293243408205,-16.44577980041504,0.002216532826423645,-0.007354170083999635,0.03859519958496094,990.1242065429688,0,13.0,1,1
4.24,0.073308885,-0.15194282,9.767505,-8.694766438566147e-05,0.00017104171274695545,0.0005562295555137098,2.2467241287231445,16.154380798339847,-16.329103469848633,0.006794467568397522,-0.007404550909996033,0.048065185546875,990.1389770507812,0,13.0,1,1
4.28,0.078076005,-0.16385892,9.769872,-0.00021998313604854047,0.00043733775964938093,0.0004231241182424128,1.945029735565185,16.345548629760742,-15.60093879699707,0.0017939954996109009,0.016417548060417175,0.0433340072631836,990.1212768554688,0,13.0,1,1
4.32,0.06850371,-0.16385862,9.760402000000001,0.0001796129217837006,0.00017100205877795815,-0.00010945525718852879,2.120224475860596,15.877555847167967,-15.754518508911133,-0.012553304433822632,0.006794646382331847,0.03859806060791016,990.18896484375,0,13.0,1,1
4.36,0.07327083,-0.14479205,9.769869,4.66993369627744e-05,3.780443512368947e-05,2.380739897489548e-05,2.190526962280273,15.785491943359375,-15.99091911315918,0.0016503334045410154,-0.007407501339912414,0.05280590057373047,990.1526489257812,0,13.0,1,1
4.4,0.068478346,-0.15432486,9.762766000000001,4.66993369627744e-05,3.780443512368947e-05,2.380739897489548e-05,2.190526962280273,15.785491943359375,-15.99091911315918,0.0016697272658348086,-0.011974632740020752,0.0528106689453125,990.1526489257812,0,13.0,1,1
4.44,0.06846568,-0.15194129999999997,9.762765,0.00031325980671681464,0.0016356600681319833,-0.0003755615907721221,1.756274700164795,16.906204223632812,-15.450685501098633,0.0011838153004646301,-0.00715121626853943,0.04334831237792969,990.1036376953124,0,13.0,1,1
4.48,0.07084286,-0.14717439,9.755662,0.00031338192638941115,0.000437218724982813,-0.00010919332271441816,1.9134817123413088,16.632366180419922,-16.074762344360348,-0.013450749218463898,-0.016549289226531982,0.043354034423828125,990.1212768554688,0,13.0,1,1
4.52,0.07799992,-0.16624029999999998,9.776964999999999,-8.59696592669934e-05,0.0008366727270185947,-0.00024229887640103695,1.6138525009155271,16.456718444824222,-15.32545280456543,0.0007909759879112244,0.002490699291229248,0.03388500213623047,990.1212768554688,0,13.0,1,1
4.56,0.06842762,-0.15909019,9.769863,-8.59696592669934e-05,0.0008366727270185947,-0.00024229887640103695,1.6138525009155271,16.456718444824222,-15.32545280456543,-0.003578014671802521,-0.002577811479568481,0.029145240783691406,990.1212768554688,0,13.0,1,1
4.6,0.07558462,-0.16147316,9.781698,-0.00035204083542339504,0.00043715912033803766,2.4121865862980485e-05,1.7970924377441406,16.734142303466793,-16.139768600463867,-0.013116933405399324,0.001982644200325012,0.014939308166503906,990.1185913085938,0,13.0,1,1
4.64,0.07557195400000001,-0.15432301,9.767493,-0.0003519185993354768,3.766549343708903e-05,-0.00024214165750890968,1.595862865447998,16.650876998901367,-15.795949935913086,-0.008502461016178131,0.0020792484283447266,0.03861618041992188,990.1485595703124,0,13.0,1,1
4.68,0.068389535,-0.15670595,9.755656,-0.0003519185993354768,3.766549343708903e-05,-0.00024214165750890968,1.595862865447998,16.650876998901367,-15.795949935913086,0.0010277330875396726,0.00202767550945282,0.043351173400878906,990.1485595703124,0,13.0,1,1
4.72,0.073093295,-0.16385394,9.769853,0.0003139932232443243,0.00017080352699849755,0.00015738455113023517,2.1386494636535645,16.421451568603516,-15.558229446411133,-0.0029245242476463322,0.007018685340881348,0.04336261749267578,990.1485595703124,0,13.0,1,1
4.76,0.07062346,-0.15431884,9.765111,0.0003139932232443243,0.00017080352699849755,0.00015738455113023517,2.1386494636535645,16.421451568603516,-15.558229446411133,-0.022213093936443332,-0.007409736514091493,0.03862857818603516,990.1485595703124,0,13.0,1,1
4.8,0.07538551,-0.16623488,9.769844,-0.0006173206493258476,0.00043791686766780913,-0.0003728348528966308,1.9033703804016116,16.253765106201172,-15.435178756713867,-0.008154504001140594,0.002087503671646118,0.048099517822265625,990.1476440429688,0,13.0,1,1
4.84,0.07536778,-0.16146782,9.786412,-0.0004839914909098298,0.0004378891317173839,-0.00037276156945154065,1.862689971923828,16.531745910644528,-15.44517707824707,0.0017989948391914368,0.0018539726734161375,0.029157638549804688,990.1390380859376,0,13.0,1,1
4.88,0.065790415,-0.16385064,9.765105,-0.0003506627690512687,-0.0006274020997807384,2.678550663404167e-05,2.2324836254119877,16.509414672851562,-15.731805801391602,0.0015772134065628052,0.0020150691270828247,0.0386343002319336,990.1389770507812,0,13.0,1,1
4.92,0.0801121,-0.16623357,9.774573,0.0005961188580840826,0.0010599680244922636,-0.00019170757150277493,1.836251735687256,16.454689025878903,-16.052465438842773,-0.01735055446624756,0.02103157341480255,0.029163360595703125,990.110595703125,0,13.0,1,1
4.96,0.072924614,-0.14478356,9.772203999999999,0.0007294481620192528,-0.0008042707340791821,0.0004741553566418588,2.0102224349975586,16.617359161376953,-15.703874588012695,-0.022074513137340542,-0.021284684538841248,0.02443981170654297,990.1228637695312,0,13.0,1,1
5.0,0.068127096,-0.15431622,9.7745695,0.0011290927650406955,0.0005272808484733106,-0.00019156100461259484,2.013266086578369,16.620307922363278,-15.858484268188475,-0.012172535061836244,-0.0069616883993148795,0.029175758361816406,990.127685546875,0,13.0,1,1
5.04,0.065719485,-0.16146567,9.7579975,-0.00020231564121786505,-0.0012038000859320164,7.482815999537706e-05,1.5868697166442869,16.747955322265625,-16.031198501586914,0.0021263062953948975,-0.0022413134574890137,0.04337882995605469,990.127685546875,0,13.0,1,1
5.08,0.07287139,-0.16146523,9.760364,-0.00046846014447510237,0.000527225318364799,-0.0004577303188852966,1.4815402030944824,16.385833740234375,-15.839807510375975,-0.0021888911724090576,0.0023673325777053837,0.05757713317871094,990.0978393554688,0,13.0,1,1
5.12,0.06568396,-0.16146475,9.757995,0.0001975002087419853,-0.0012038557324558494,0.0008739223703742027,2.0092432498931885,16.247594833374027,-15.528116226196287,-0.007329627871513368,0.007338568568229675,0.05285072326660156,990.1026000976562,0,13.0,1,1
5.16,0.05371672,-0.14954796,9.781665,0.000330829294398427,0.0010598014341667297,-5.8109872043132775e-05,1.8388590812683103,15.719581604003904,-15.932867050170898,0.0021585598587989807,-0.011771917343139648,0.024444580078125,990.11279296875,0,13.0,1,1
5.2,0.07520807,-0.15669736,9.76746,-6.847317854408175e-05,-0.00027180562028661365,-5.8036588598042727e-05,1.9782371520996092,16.16612434387207,-15.90349006652832,-0.017148703336715698,0.002486258745193481,0.029183387756347656,990.1276245117188,0,13.0,1,1
5.24,0.065630704,-0.13763061,9.786397000000001,-0.00020146045426372441,-5.517489626072346e-06,7.519472273997961e-05,1.8081517219543457,16.270244598388672,-15.883371353149414,-0.007264427840709686,-0.02596840262413025,0.010247230529785156,990.12548828125,0,13.0,1,1
5.28,0.06322309400000001,-0.16146311,9.769824,-0.0006007631309330463,-0.000671334913931787,0.0006078997394070028,1.8488321304321291,15.992267608642578,-15.873376846313475,-0.0028092339634895325,-0.006895735859870911,0.048126220703125,990.094482421875,0,13.0,1,1
5.32,0.07276493,-0.1638459,9.776923,0.00019835586135741323,0.0009265325497835877,0.00020849923021160063,1.9787805080413816,15.797832489013672,-15.80504035949707,-0.012347452342510223,-0.0022167563438415527,0.029189109802246094,990.0892944335938,0,13.0,1,1
5.36,0.079916894,-0.14716247,9.769821,0.00033168436493724585,0.0005270310211926699,-0.00032405921956524253,1.98486852645874,15.803726196289062,-16.114259719848633,-0.02188128232955933,-0.016534030437469482,0.0291900634765625,990.0868530273438,0,13.0,1,1
5.4,0.06316984,-0.16384506,9.774554,-0.00033393409103155136,0.0002606872876640409,0.0003418037667870521,2.0420458316802983,16.542377471923828,-16.628198623657227,0.0016179457306861875,-0.0021857768297195435,0.03392982482910156,990.1148071289062,0,13.0,1,1
5.44,0.072711706,-0.15907803,9.774552,0.0001988689036807045,0.0010596072534099221,-5.759677151218057e-05,2.214601993560791,15.59722900390625,-15.829641342163086,-0.012334540486335754,0.0027359426021575928,0.029198646545410163,990.0969848632812,0,13.0,1,1
5.48,0.05357471,-0.16384411,9.765081,0.001131316414102912,0.00012744606647174805,-5.745020462200046e-05,1.7959761619567869,16.258460998535153,-15.264932632446287,0.020851656794548038,-0.0067524611949920646,0.043404579162597656,990.1092529296876,0,13.0,1,1
5.52,0.07506609,-0.15192735,9.767447,0.001131316414102912,0.00012744606647174805,-5.745020462200046e-05,1.7959761619567869,16.258460998535153,-15.264932632446287,-0.022013142704963684,-0.011421144008636476,0.02446842193603516,990.1092529296876,0,13.0,1,1
5.56,0.065488756,-0.15431014,9.7508745,-6.676327029708773e-05,-0.00013892533024773002,-0.0005899352836422622,1.995820999145508,16.446172714233402,-16.230524063110348,0.0019182488322258,-0.0017736852169036863,0.057614326477050774,990.1016235351562,0,13.0,1,1
5.6,0.06547099,-0.14954314,9.769811,-6.676327029708773e-05,-0.00013892533024773002,-0.0005899352836422622,1.995820999145508,16.446172714233402,-16.230524063110348,0.001684822142124176,-0.006458133459091186,0.04814910888671875,990.1016235351562,0,13.0,1,1
5.64,0.060673475,-0.16860899999999998,9.757974,-0.0012648423435166476,-0.000138980831252411,0.00034231692552566534,1.995820999145508,16.446172714233402,-16.230524063110348,-0.012852981686592102,0.012085095047950743,0.052878379821777344,990.1270751953124,0,13.0,1,1
5.68,0.060655713,-0.15907541,9.765074,-0.0012648423435166476,-0.000138980831252411,0.00034231692552566534,1.995820999145508,16.446172714233402,-16.230524063110348,-0.002931468188762665,0.007360741496086121,0.038674354553222656,990.1270751953124,0,13.0,1,1
5.72,0.072426915,-0.14953789,9.772159,6.690782902296634e-05,0.0001273072266485542,-5.7083670981228345e-05,2.1823737621307373,16.146415710449222,-15.702844619750975,-0.012606404721736908,-0.007003322243690491,0.02922344207763672,990.1373291015624,0,13.0,1,1
5.76,0.07001289999999999,-0.15430388,9.753219,0.0002010012831306085,0.0011924189748242493,0.0006091069080866872,1.7619271278381348,16.174041748046875,-15.485700607299805,0.0016661062836647036,-0.006805792450904846,0.057636260986328125,990.124267578125,0,13.0,1,1
5.8,0.06759888,-0.15906984,9.755583999999999,6.699380173813552e-05,-0.0009355277288705114,-0.00031837739516049623,1.8700017929077148,15.906974792480467,-16.25657081604004,-0.0026333853602409363,-0.001954019069671631,0.06237125396728516,990.098876953125,0,13.0,1,1
5.84,0.06518483,-0.15906924,9.769785,-6.569917604792863e-05,-0.0009356031659990547,-0.0003181780921295285,2.1969127655029297,16.423521041870114,-15.875265121459961,-0.0023706555366516113,0.012527540326118471,0.03396892547607422,990.10400390625,0,13.0,1,1
5.88,0.05560112,-0.15430209,9.762681,0.00046716519864276057,-0.00013669329928234222,-0.00018492050003260371,1.980196475982666,16.905649185180664,-16.255006790161133,0.016760163009166718,-0.016025543212890625,0.04344081878662109,990.10400390625,0,13.0,1,1
5.92,0.06513661,-0.16621789999999997,9.772148,0.00046716519864276057,-0.00013669329928234222,-0.00018492050003260371,1.980196475982666,16.905649185180664,-16.255006790161133,-0.002150878310203552,0.008009418845176697,0.03397369384765625,990.10400390625,0,13.0,1,1
5.96,0.0746721,-0.16145077,9.76031,0.0007337134447880089,-0.000403046899009496,-0.00031797890551388264,1.6127660274505615,17.19329833984375,-15.522356033325195,-0.011776059865951538,-0.006219446659088135,0.04818058013916016,990.1016845703124,0,13.0,1,1
6.0,0.07942778,-0.16145018,9.769776,0.0007337134447880089,-0.000403046899009496,-0.00031797890551388264,1.9560890197753904,15.881654739379885,-15.344545364379885,-0.0018115416169166567,0.008199408650398254,0.04345035552978516,990.1016845703124,0,13.0,1,1
6.04,0.06506425,-0.14953318,9.769774,0.0002015466307057068,-0.0005362803349271417,0.0014132736250758169,1.7427148818969729,16.998863220214847,-15.454019546508787,0.007811799645423889,-0.010809674859046936,0.04345226287841797,990.1066284179688,0,13.0,1,1
6.08,0.07698962,-0.16144899,9.77214,6.862128793727608e-05,-0.0008026339928619564,-0.0004508377751335502,1.8521742820739744,16.627351760864258,-15.603120803833008,-0.011135458946228027,-0.005931556224822998,0.03872013092041016,990.1192016601562,0,13.0,1,1
6.12,0.055456399999999996,-0.16144839,9.76977,6.862128793727608e-05,-0.0008026339928619564,-0.0004508377751335502,1.8521742820739744,16.627351760864258,-15.603120803833008,0.0077389776706695565,-0.0013353824615478516,0.02925395965576172,990.1192016601562,0,13.0,1,1
6.16,0.08172119,-0.15668121,9.765033,0.0003351696650497616,0.000528907694388181,-0.0004507382400333882,1.7101874351501465,16.915916442871097,-15.752092361450195,-0.021164610981941227,0.003633230924606323,0.04346466064453125,990.1187744140624,0,13.0,1,1
6.2,0.08169708,-0.15668064,9.776866,0.0003356346278451383,0.0003956742584705353,-5.106511525809765e-05,1.9797601699829104,16.167594909667972,-15.980798721313475,-0.0016704797744750974,-0.0009824037551879883,0.04346656799316406,990.1312866210938,0,13.0,1,1
6.24,0.06972343,-0.1519135,9.762661,-0.0001967645512195304,-0.0006696269847452639,-0.0007167551666498183,1.7619268894195557,16.174041748046875,-15.48570442199707,-0.010926522314548492,-0.010392501950263977,0.05293846130371094,990.1013793945312,0,13.0,1,1
6.28,0.072089225,-0.161446,9.76266,0.00033609947422519326,-0.00027019085246138275,0.0007480818312615156,1.8657341003417969,16.534690856933597,-15.599786758422852,-0.006244964897632599,0.003961414098739624,0.04820537567138672,990.14404296875,0,13.0,1,1
6.32,0.06967521,-0.1542956,9.776860000000001,0.000868963950779289,-3.912771717295982e-06,-0.000183924101293087,1.7017364501953125,16.644706726074222,-15.888887405395508,-0.010804668068885805,-0.005491778254508972,0.034005165100097656,990.14404296875,0,13.0,1,1
6.36,0.06965110000000001,-0.16144481,9.781592,0.0003365645534358919,-3.950490281567909e-06,0.0003488072252366692,1.8006799221038818,16.368797302246097,-16.195924758911133,-0.0010309070348739624,-0.00044129788875579845,0.024542808532714844,990.15087890625,0,13.0,1,1
6.4,0.07440674,-0.14952782,9.767386,0.0002036390797002241,-0.0010692517971619964,8.259108290076256e-05,1.4891495704650881,16.393199920654293,-16.226335525512695,-0.0009070336818695068,-0.010168701410293579,0.052947044372558594,990.1402587890624,0,13.0,1,1
6.44,0.06721294,-0.15906036,9.774486,-0.0010210598120465877,-9.662990487413481e-05,-0.0003871840599458665,1.8552184104919436,16.630298614501953,-15.757730484008787,-0.0009707361459732057,-0.005727127194404602,0.029273033142089844,990.1144409179688,0,13.0,1,1
6.48,0.0671888,-0.16620967,9.760280999999999,-0.00048819553921930487,0.0007022800273261964,0.0002787053235806525,1.9209542274475095,16.5338134765625,-15.762212753295898,0.003586344420909881,0.013130411505699158,0.05294609069824219,990.1065063476562,0,13.0,1,1
6.52,0.071944505,-0.16620907,9.769748,-8.848935249261558e-05,0.00043592642759904265,-0.00012066887575201689,1.6772241592407229,16.094917297363278,-15.775957107543945,-0.005894862115383147,0.0034820735454559326,0.03400707244873047,990.1466064453124,0,13.0,1,1
6.56,0.07909006,-0.17097503,9.774479,4.490118590183556e-05,3.6414792702998966e-05,0.0013441680930554867,1.8925564289093015,15.717233657836914,-16.01799201965332,-0.02042561024427414,0.017813131213188168,0.03874683380126953,990.1466064453124,0,13.0,1,1
6.6,0.06233662400000001,-0.15429148,9.772110000000001,4.5133434468880296e-05,0.0005690088146366179,-0.0005199434235692023,1.7615211009979248,16.648252487182614,-16.283227920532227,0.01793188601732254,0.008139967918395996,0.038745880126953125,990.1508178710938,0,13.0,1,1
6.64,0.062312514000000006,-0.15905744,9.760272,-0.0004872654972132296,-0.0007626083097420633,0.0008117356337606907,1.8896498680114744,15.820205688476562,-16.562456130981445,0.013722680509090424,0.008174210786819458,0.057682037353515625,990.1019897460938,0,13.0,1,1
6.68,0.06493077,-0.17097947,9.755558,0.00031191451125778263,-0.0007626460283063352,0.000146045524161309,1.775922775268555,16.819435119628903,-15.75657844543457,0.004115946590900421,0.012883797287940979,0.04348087310791016,990.1019897460938,0,13.0,1,1
6.72,0.06756425,-0.14715263,9.76505,4.5831111492589116e-05,-0.00036320998333394533,-0.0003864864993374794,1.4635519981384275,16.57999038696289,-16.310304641723633,-0.01552700996398926,-0.02059561014175415,0.033965110778808594,990.114013671875,0,13.0,1,1
6.76,0.06039077,-0.16145217,9.774517999999999,-0.00035885561374016106,0.0003043590113520622,-0.00012037064880132675,1.7364664077758791,16.466751098632812,-16.268747329711914,0.013179481029510498,-0.0016009658575057983,0.029230117797851562,990.1209106445312,0,13.0,1,1
6.8,0.07711625,-0.15191898,9.772149,-9.250295261153951e-05,3.803715662797913e-05,-0.0010524604003876448,1.791410207748413,16.254043579101562,-15.033021926879885,-0.010418079793453215,-0.001394018530845642,0.029232025146484375,990.120849609375,0,13.0,1,1
6.84,0.067552835,-0.16383526,9.753213,0.00017388627748005092,0.0004374990530777722,0.00014599240967072546,2.112072467803955,16.238479614257812,-15.46644401550293,0.0086287260055542,0.003508642315864563,0.052906036376953125,990.1183471679688,0,13.0,1,1
6.88,0.06276923400000001,-0.16621849,9.757947,0.00017388627748005092,0.0004374990530777722,0.00014599240967072546,2.112072467803955,16.238479614257812,-15.46644401550293,0.0040205568075180045,0.012931808829307556,0.04816818237304688,990.1183471679688,0,13.0,1,1
6.92,0.07232505,-0.15906855,9.774516,4.080167127540335e-05,0.00030432920902967453,1.2865901226177812e-05,2.4656665325164795,15.831657409667967,-14.804269790649414,-0.0009153634309768676,0.013118967413902284,0.038704872131347656,990.1183471679688,0,13.0,1,1
6.96,0.072321236,-0.15906844,9.779251,4.080167127540335e-05,0.00030432920902967453,1.2865901226177812e-05,2.4656665325164795,15.831657409667967,-14.804269790649414,-0.0057056620717048645,0.0037163943052291866,0.033972740173339844,990.1183471679688,0,13.0,1,1
7.0,0.079487145,-0.15906838,9.760313,0.0003071542305406183,0.00030432324274443085,-0.0009192239376716317,2.346669912338257,16.66853904724121,-14.988866806030273,-0.005800649523735046,-0.0011888444423675535,0.04817485809326172,990.095458984375,0,13.0,1,1
7.04,0.06992373,-0.14715186,9.767413000000001,0.0005735433078370987,-0.0006277942447923124,-0.00012024492025375366,2.222510814666748,16.23672866821289,-15.791296005249025,-0.0005873367190361023,-0.0057530999183654785,0.03870677947998047,990.108154296875,0,13.0,1,1
7.08,0.069919944,-0.16383472,9.774515,-0.00022536740289069712,0.00043746334267780185,-0.00012022914597764611,1.8979635238647459,15.98550033569336,-15.726587295532227,-0.005318157374858856,0.003601446747779846,0.03870391845703125,990.0933227539062,0,13.0,1,1
7.12,0.074695915,-0.16621789999999997,9.781617,-0.00022536740289069712,0.00043746334267780185,-0.00012022914597764611,1.8979635238647459,15.98550033569336,-15.726587295532227,-0.009938322007656096,0.012920841574668884,0.015027046203613281,990.0933227539062,0,13.0,1,1
7.16,0.07230222,-0.15430138,9.767413000000001,0.0004404954088386148,-9.518030128674583e-05,-0.00012019771384075283,1.8824763298034668,16.550893783569336,-16.450143814086914,-0.005072288215160371,0.003392934799194336,0.043435096740722656,990.1078491210938,0,13.0,1,1
7.2,0.065128684,-0.14953476,9.774514,0.0004404954088386148,-9.518030128674583e-05,-0.00012019771384075283,1.8824763298034668,16.550893783569336,-16.450143814086914,0.008944287896156311,-0.006143316626548767,0.04817008972167969,990.1078491210938,0,13.0,1,1
7.24,0.060345083,-0.1638343,9.757943,-0.0010242050047963858,0.0007037613540887832,-0.0001201819977723062,1.9204108715057373,16.902105331420902,-15.860662460327148,0.013624079525470734,0.0030545592308044434,0.04816627502441406,990.1106567382812,0,13.0,1,1
7.28,0.06990093,-0.15668443,9.765044,-0.0010242050047963858,0.0007037613540887832,-0.0001201819977723062,1.7357854843139648,16.7291259765625,-15.668123245239258,-0.0058679431676864615,-0.00662761926651001,0.029230117797851562,990.1106567382812,0,13.0,1,1
7.32,0.0651173,-0.16383415,9.779247999999999,0.00044064244139008224,-0.0014267836231738331,0.0002793389721773565,1.9572062492370603,16.35733413696289,-16.219377517700195,0.009138457477092743,-0.0014839768409729006,0.033966064453125,990.1329956054688,0,13.0,1,1
7.36,0.07945287,-0.15906754,9.769778,0.00044064244139008224,-0.0014267836231738331,0.0002793389721773565,1.9572062492370603,16.35733413696289,-16.219377517700195,-0.00024169683456420898,0.003252193331718445,0.03869915008544922,990.1329956054688,0,13.0,1,1
7.4,0.06749958,-0.15191755,9.765042999999999,0.00044064244139008224,-0.0014267836231738331,0.0002793389721773565,1.7202675342559814,16.082258224487305,-15.319940567016602,0.004619695246219635,-0.011318951845169069,0.0576324462890625,990.1329956054688,0,13.0,1,1
7.44,0.06749576,-0.15430078,9.762675,-0.0004913899465464057,-0.00022837398864794525,0.00014621246373280883,2.1097092628479004,15.973159790039062,-15.91246223449707,-0.0001032128930091858,-0.001498103141784668,0.043435096740722656,990.1306762695312,0,13.0,1,1
7.48,0.08422130000000001,-0.16860035,9.762675,-0.0004913899465464057,-0.00022837398864794525,0.00014621246373280883,2.1097092628479004,15.973159790039062,-15.91246223449707,-0.024017542600631717,0.017392203211784363,0.033962249755859375,990.1306762695312,0,13.0,1,1
7.52,0.067488134,-0.15668383,9.762675,0.0008402626845054327,0.00017108788597397506,-0.0005195458070375025,1.958589553833008,16.25288963317871,-15.597604751586914,0.009083785116672516,-0.006133660674095154,0.05764198303222656,990.1231079101562,0,13.0,1,1
7.56,0.06748435,-0.16860017,9.767408999999999,0.00044082579552195966,0.0013695033267140386,0.0001462596410419792,1.768014907836914,16.179935455322266,-15.794919967651367,0.009079694747924805,0.012928858399391173,0.033969879150390625,990.1231079101562,0,13.0,1,1
7.6,0.06509066,-0.15668365,9.774511,-0.0007575592608191072,-0.00022839785378891972,1.3117387425154448e-05,1.8096742630004885,16.271717071533207,-15.960676193237305,0.01398855447769165,0.003059789538383484,0.04816722869873047,990.1010131835938,0,13.0,1,1
7.64,0.06986666,-0.15906689,9.767408,-0.0004912065924145281,-0.0007610355387441814,-0.0009189724805764854,1.6015152931213381,15.918716430664062,-15.830961227416992,-0.000104464590549469,0.007521376013755798,0.04342842102050781,990.1010131835938,0,13.0,1,1
7.68,0.069640875,-0.15906128,9.767388,-0.0004911699215881526,-0.0003615675959736109,-0.0007857988239265977,1.7173616886138916,16.18522834777832,-15.864408493041992,-0.009235665202140808,0.007157564163208008,0.03397083282470703,990.1106567382812,0,13.0,1,1
7.72,0.060068548,-0.16621086,9.774488,-0.0002240230387542397,-0.0002285446535097435,-0.00038596877129748464,1.9230191707611084,16.166996002197266,-15.741067886352539,0.005011945962905885,-0.006716832518577576,0.04344844818115234,990.1106567382812,0,13.0,1,1
7.76,0.06961548,-0.15191087,9.7673855,4.371217073639855e-05,3.7540834455285215e-05,-0.0005185185000300407,2.0444090366363525,16.807697296142578,-16.182184219360348,-0.004567250609397888,0.0025225728750228877,0.029242515563964844,990.1237182617188,0,13.0,1,1
7.8,0.07677251,-0.15429386,9.762650500000001,-0.00022248158347792923,-9.56369549385272e-05,-0.00011899234959855676,1.566380739212036,16.570877075195312,-16.248632431030273,-0.004582859575748444,-0.0020999908447265625,0.052918434143066406,990.1278686523438,0,13.0,1,1
7.84,0.06720021,-0.1662099,9.767384,-8.920129766920581e-05,0.000170659099239856,0.0005468497984111309,1.6546707153320312,16.28465461730957,-16.014535903930664,0.00948362797498703,0.002798810601234436,0.03398704528808594,990.1278686523438,0,13.0,1,1
7.88,0.069577456,-0.1566765,9.765016000000001,0.0005767108523286879,0.0009695868939161301,-0.0009178349864669144,1.5337159633636477,16.382011413574222,-15.847627639770508,0.00021060556173324585,-0.006831154227256775,0.029249191284179688,990.1708984375,0,13.0,1,1
7.92,0.08868396,-0.16144273,9.77685,4.42012315033935e-05,-0.0007614861824549736,-0.00011883507249876855,2.03125524520874,16.4261474609375,-15.38798713684082,-0.014147557318210604,0.007536977529525756,0.029252052307128906,990.1297607421876,0,13.0,1,1
7.96,0.07433188,-0.14475945,9.769748,-0.00014418450882658362,0.00024047667102422563,0.00016220821999013424,1.6079020500183103,16.556743621826172,-15.715314865112305,-0.004800818860530853,-0.016541436314582825,0.033985137939453125,990.120849609375,0,13.0,1,1
8.0,0.06953939999999999,-0.15429226,9.760277,-0.0005435360944829881,0.0002404568367637694,0.00016226054867729545,1.7354874610900881,16.096988677978516,-16.092992782592773,0.014272734522819519,-0.002200990915298462,0.05292415618896485,990.120849609375,0,13.0,1,1
8.04,0.07430649,-0.16144177,9.769745,-0.0001439401530660689,0.0006399108096957207,0.0008281026384793223,1.7818727493286133,16.719413757324222,-15.366716384887695,0.00015835464000701904,0.012157320976257324,0.04345703125,990.1177978515624,0,13.0,1,1
8.08,0.0766837,-0.16382477,9.774478,-0.0002769756247289479,-0.0002922146231867373,-0.00010395050048828124,1.960655212402344,15.88607406616211,-15.576459884643555,-0.014090351760387419,0.016753837466239933,0.019782066345214844,990.1073608398438,0,13.0,1,1
8.12,0.064721525,-0.15667465,9.75554,0.0007884102524258196,-2.5918634491972625e-05,2.92598269879818e-05,1.7490477561950684,16.004329681396484,-16.089658737182614,0.009408213198184969,-0.0021230578422546387,0.05766487121582031,990.0997924804688,0,13.0,1,1
8.16,0.07426846,-0.1566743,9.757905000000001,-1.0415271390229464e-05,0.00103932514321059,2.9312213882803917e-05,2.2155818939208984,15.966991424560547,-16.005395889282227,0.009486913681030272,-0.0067809969186782846,0.057667732238769524,990.120361328125,0,13.0,1,1
8.2,0.071865916,-0.1542907,9.774474,0.0002560228458605707,-0.0004254321102052927,-0.00023695128038525581,1.7454605102539062,16.369672775268555,-16.033498764038086,-8.621811866760254e-05,-0.006606638431549072,0.03399848937988281,990.107177734375,0,13.0,1,1
8.24,0.06946325,-0.15905699,9.767372,-1.0170915629714727e-05,-0.0002922939602285624,0.0004288907803129405,1.558227777481079,16.931800842285153,-15.96055793762207,0.009482026100158691,0.002967715263366699,0.03400135040283203,990.1304931640624,0,13.0,1,1
8.28,0.07662031,-0.1614399,9.774472,0.0010552150197327137,-2.599797153379768e-05,2.9469374567270282e-05,1.7433953285217283,16.736492156982422,-16.054643630981445,-0.023483984172344208,0.00343303382396698,0.029273033142089844,990.1304931640624,0,13.0,1,1
8.32,0.07421774,-0.16620615,9.774471,0.00012335384963080287,-0.0010913012083619833,0.00042904799920506775,1.9084796905517576,15.889892578125,-15.568643569946287,-0.013152413070201874,0.003311976790428161,0.03873443603515625,990.13720703125,0,13.0,1,1
8.36,0.07420504,-0.16143929999999998,9.757899,0.00012335384963080287,-0.0010913012083619833,0.00042904799920506775,1.9084796905517576,15.889892578125,-15.568643569946287,-0.003784008324146271,-0.0015096962451934814,0.06714344024658203,990.13720703125,0,13.0,1,1
8.4,0.06702268,-0.161439,9.765,-0.0005423137336038053,-0.00015921542944852263,0.00016278447583317757,1.406672477722168,16.47347640991211,-15.371492385864258,0.01114034652709961,0.003162965178489685,0.043465614318847656,990.1315307617188,0,13.0,1,1
8.44,0.067009985,-0.15428886,9.757897,0.0007895102608017622,-2.609718649182469e-05,2.973130904138088e-05,1.6642074584960938,15.819286346435547,-15.680837631225586,0.006330467760562897,-0.010766759514808657,0.04347419738769531,990.0977172851562,0,13.0,1,1
8.48,0.062217474,-0.16143838,9.764998,0.0007895102608017622,-2.609718649182469e-05,2.973130904138088e-05,1.6642074584960938,15.819286346435547,-15.680837631225586,-0.0029950961470603947,0.012813404202461244,0.03873443603515625,990.0977172851562,0,13.0,1,1
8.52,0.06698459400000001,-0.16143808,9.7602625,-0.0002756309113465249,-0.0004255908424966037,0.00029609966441057617,1.7182025909423828,16.449073791503903,-15.341089248657227,0.006504669785499573,-0.006068572402000427,0.034005165100097656,990.1380004882812,0,13.0,1,1
8.56,0.07892144,-0.1685876,9.760261,0.00025712308706715703,-2.6136898668482896e-05,0.0009619417251087724,1.7266545295715332,16.720287322998047,-15.204294204711914,0.0016347244381904602,-0.001503586769104004,0.057675361633300774,990.1380004882812,0,13.0,1,1
8.6,0.07651886,-0.15428755,9.760261,-0.0008080182014964522,0.00024015913368202743,-0.00010326941264793277,2.348191499710083,16.670013427734375,-15.066171646118164,0.0017061159014701845,0.002971455454826355,0.0482025146484375,990.0946655273438,0,13.0,1,1
8.64,0.066696405,-0.15904772,9.762603,0.00025748967891559005,-2.6196430553682152e-05,-0.0003694805782288313,2.1657695770263667,16.236129760742188,-15.55156135559082,-0.002573758363723755,-0.006396085023880005,0.03404998779296875,990.1223754882812,0,13.0,1,1
8.68,0.06402841,-0.16380745,9.779147,0.00025748967891559005,-2.6196430553682152e-05,-0.0003694805782288313,2.0647614002227783,16.878856658935547,-15.26567268371582,0.01628432422876358,-0.00632767379283905,0.03879165649414063,990.1223754882812,0,13.0,1,1
8.72,0.07355502,-0.15904006,9.767308,0.0006590089178644121,0.00037504671490751207,-9.73962596617639e-05,1.7685580253601074,15.8116455078125,-15.696474075317385,-0.00760437548160553,-0.0015712231397628784,0.052997589111328125,990.1222534179688,0,13.0,1,1
8.76,0.068742245,-0.14950618,9.753102,-5.266789230518043e-06,0.0009074325789697467,3.641069633886218e-05,1.741981029510498,15.62867546081543,-15.604684829711914,-0.002530060708522797,-0.0059804767370224,0.04353618621826172,990.1222534179688,0,13.0,1,1
8.8,0.07109916,-0.16618833,9.757833999999999,-5.266789230518043e-06,0.0009074325789697467,3.641069633886218e-05,1.741981029510498,15.62867546081543,-15.604684829711914,0.0023751258850097656,0.0034337639808654785,0.06247043609619141,990.1222534179688,0,13.0,1,1
8.84,0.06150657,-0.1542711,9.781503,-0.0002709465916268528,-0.0004242499999236316,-9.64747741818428e-05,2.236750841140747,15.881698608398438,-16.38858985900879,0.007015526294708252,-0.010571837425231934,0.03407573699951172,990.1312866210938,0,13.0,1,1
8.88,0.06625336400000001,-0.16618666,9.7815,0.0009277926874347033,0.00024148807278834283,-0.00022949656704440718,1.8869047164916992,16.449394226074222,-15.982980728149414,0.030928969383239743,0.0036732554435729976,0.03881359100341797,990.1229248046876,0,13.0,1,1
8.92,0.06861031,-0.15426949,9.77913,0.00026232103118672967,-2.4879373086150736e-05,0.0004364294873084873,2.1422357559204097,16.056106567382812,-15.614389419555664,0.002323657274246216,-0.0058961957693099976,0.029344558715820312,990.079833984375,0,13.0,1,1
8.96,0.06618741,-0.15188536,9.757822,-0.00040315085789188737,0.0005077007808722557,-0.0006286979769356549,2.1557965278625493,15.96344757080078,-15.611059188842773,0.02088925987482071,-0.0009711682796478274,0.062495231628417976,990.079833984375,0,13.0,1,1
9.0,0.070934266,-0.17095086,9.762553,0.00026295677525922656,0.0007739650318399073,0.0003035440167877823,1.8135590553283687,16.538509368896484,-15.59196662902832,-0.002927117049694061,0.008612051606178284,0.04356098175048828,990.1172485351562,0,13.0,1,1
9.04,0.07329115,-0.16618344,9.755448,0.00013011677947361022,0.0003744396090041846,0.0007031540735624732,1.7713568210601809,16.81501579284668,-15.524660110473633,-0.008012987673282623,0.018089115619659424,0.04829978942871094,990.1422119140624,0,13.0,1,1
9.08,0.06369859,-0.1661826,9.753078,0.0006630663410760463,0.0005075459484942256,-9.565736399963498e-05,1.8367938995361328,16.086400985717773,-15.954015731811525,0.006557650864124297,0.003878861665725708,0.04830360412597656,990.1422119140624,0,13.0,1,1
9.12,0.06127566,-0.15664873,9.779115,-0.00026872142916545266,-0.0005577692063525318,0.00017079481040127575,1.99940824508667,16.080825805664062,-16.286684036254886,0.0110134556889534,0.008576631546020508,0.02937030792236328,990.1513061523438,0,13.0,1,1
9.16,0.061242700000000004,-0.15188134,9.760174000000001,0.0006637020851485431,0.0009069165098480881,0.0003040889860130846,1.6935834884643557,17.005632400512695,-15.60081672668457,0.015402212738990784,-0.005577757954597472,0.05778408050537109,990.1513061523438,0,13.0,1,1
9.2,0.07076931,-0.15664706,9.769639999999999,-0.0002680853358469904,0.0006405490566976367,0.0003042252210434526,1.9470953941345213,15.97873306274414,-15.579790115356445,0.010684393346309662,-0.005287438631057739,0.03885364532470703,990.1555786132812,0,13.0,1,1
9.24,0.05639690000000001,-0.14949647,9.764902000000001,0.0003980224137194455,-0.0006910820375196637,0.000437519425759092,2.0068802833557133,15.982276916503904,-15.974130630493164,0.006021372973918915,-0.0149012953042984,0.04358959197998047,990.151611328125,0,13.0,1,1
9.28,0.06831342,-0.16856188,9.774367,0.00026518217055127025,0.0005072879139333963,-0.00022813404211774468,1.8552188873291016,16.630294799804688,-15.757726669311525,-0.00830738991498947,0.0182504802942276,0.029387474060058594,990.1173706054688,0,13.0,1,1
9.32,0.08500975,-0.1590279,9.771998,-0.0005334477755241097,-0.00015855339006520808,3.831804497167468e-05,1.8246181011199951,16.074615478515625,-15.335573196411133,-0.012719660997390749,-0.010599970817565918,0.034117698669433594,990.1173706054688,0,13.0,1,1
9.36,0.06824744,-0.15664387,9.7625265,-0.0006662877858616412,-0.0005580788711085916,3.845436731353402e-05,1.70159912109375,16.538787841796875,-15.189813613891602,-0.0077291950583457955,-0.0060849934816360465,0.03885173797607422,990.0919799804688,0,13.0,1,1
9.4,0.06582463,-0.16379288,9.762523,-0.0009322855039499699,-0.00042497253161855037,0.0004380643949843943,1.6651859283447266,16.189050674438473,-15.856592178344727,0.006662614643573761,0.007965967059135437,0.05305194854736328,990.1168212890624,0,13.0,1,1
9.44,0.07296133,-0.16140881,9.767255,-0.0006015373510308564,-0.000401580153265968,4.850543336942792e-05,2.0429947376251216,15.699878692626953,-15.732221603393555,-0.0029877647757530212,-0.0019035786390304565,0.04358386993408203,990.1168212890624,0,13.0,1,1
9.48,0.07292831,-0.16140798,9.767252000000001,-0.0004680617421399802,0.00039731586002744734,-0.0006171480054035782,1.7177972793579102,16.923282623291016,-16.138616561889652,0.006731048226356506,0.007687702775001527,0.04831981658935547,990.1193237304688,0,13.0,1,1
9.52,0.06094584,-0.15902388,9.760148,0.0003312037151772529,0.00039726422983221715,-8.437992073595524e-05,2.103758811950684,16.073184967041016,-16.302316665649414,0.0020921528339385986,0.002514898777008057,0.04831504821777344,990.1193237304688,0,13.0,1,1
9.56,0.07047242,-0.16617289,9.762511,-0.0007337421993725003,-0.0008012088946998119,0.0005815459880977869,1.8171463012695312,16.173168182373047,-15.648126602172852,0.011898763477802277,0.007349058985710144,0.05305099487304688,990.1369018554688,0,13.0,1,1
9.6,0.06565967,-0.16378883,9.762507000000001,-0.000333950127242133,-0.0005349444691091776,-8.410739246755837e-05,2.294334173202514,16.146141052246097,-16.105005264282227,0.0020326226949691764,0.011816665530204771,0.05305194854736328,990.109130859375,0,13.0,1,1
9.64,0.058838367,-0.14949772,9.760173,0.0003315703070256859,-2.2690437617711723e-06,0.00044840888585895305,2.2003612518310547,15.952262878417967,-15.23234748840332,0.025292560458183292,-0.011774539947509766,0.06719303131103516,990.1566162109376,0,13.0,1,1
9.68,0.071159124,-0.16380653,9.755472,0.0003315703070256859,-2.2690437617711723e-06,0.00044840888585895305,2.2003612518310547,15.952262878417967,-15.23234748840332,-0.003478027880191803,0.002395540475845337,0.05298900604248047,990.1566162109376,0,13.0,1,1
9.72,0.06159699,-0.15427327,9.762574,5.830795998917893e-05,0.0003992559795733541,-8.488746243529022e-05,2.12563157081604,16.145822525024414,-15.463109970092773,0.0012484043836593628,-0.00711791217327118,0.038786888122558594,990.1566162109376,0,13.0,1,1
9.76,0.07115406,-0.17095622,9.74837,-7.482553337467834e-05,-0.0001333797990810126,-8.487692684866488e-05,1.7795097827911377,16.454092025756836,-15.812734603881836,0.0061257705092430115,0.0120420902967453,0.06719398498535156,990.132568359375,0,13.0,1,1
9.8,0.06637174,-0.15665641,9.762572,0.00032467261189594865,-0.0009323313133791088,0.0005809231079183519,1.9505748748779297,16.719732284545902,-16.008607864379886,0.011273898184299469,0.0122031569480896,0.05299091339111328,990.132568359375,0,13.0,1,1
9.84,0.078318715,-0.16618955,9.753103999999999,0.0003246969426982105,-0.0009323355043306947,-8.485608850605786e-05,1.4905343055725098,16.288753509521484,-15.604562759399414,-0.012525558471679688,0.007480695843696593,0.043521881103515625,990.1222534179688,0,13.0,1,1
9.88,0.07353639599999999,-0.15665632,9.772041999999999,0.00045787944691255683,0.0001329242077190429,0.00044778612209483987,1.617577075958252,16.19729232788086,-16.080690383911133,-0.0076032429933547965,-0.0018371343612670894,0.029321670532226562,990.139404296875,0,13.0,1,1
9.92,0.06636414,-0.15903959,9.767306,0.0007242196588777006,0.00013292024959810078,-0.00048430895549245184,1.765513896942139,15.808700561523438,-15.541864395141602,0.006188049912452698,0.003052234649658203,0.03879737854003906,990.1156005859376,0,13.0,1,1
9.96,0.068751454,-0.16380605,9.776775,-7.467908289982006e-05,0.0005323860677890481,-0.00035113011836074287,1.919294357299805,16.42642593383789,-14.985830307006836,-0.008579395711421967,0.01266719400882721,0.029333114624023438,990.132568359375,0,13.0,1,1
10.0,0.06635904,-0.1614227,9.764939,-7.467908289982006e-05,0.0005323860677890481,-0.00035113011836074287,1.919294357299805,16.42642593383789,-14.985830307006836,0.00568763166666031,0.012453898787498474,0.02933025360107422,990.132568359375,0,13.0,1,1
10.04,0.071136326,-0.1542728,9.772039999999999,-7.463030487997457e-05,-0.0001334114640485495,0.00031468048109672964,1.8283429145812988,15.815189361572266,-16.090810775756836,0.005698814988136292,0.002701804041862488,0.03406047821044922,990.121826171875,0,13.0,1,1
10.08,0.068743885,-0.156656,9.755469,0.00032486795680597425,0.00013290051720105112,0.0003146909584756941,1.9004642963409424,16.356735229492188,-15.979642868041992,0.0007054060697555543,0.00764124095439911,0.04353523254394531,990.1111450195312,0,13.0,1,1
10.12,0.06874138,-0.15188941,9.762571000000001,0.00032486795680597425,0.00013290051720105112,0.0003146909584756941,2.05601167678833,15.975509643554688,-15.827341079711914,0.0005964189767837523,-0.007010012865066528,0.04353046417236328,990.1111450195312,0,13.0,1,1
10.16,0.061569154,-0.16380575,9.762571000000001,-0.0008735291776247323,0.00039921232382766897,0.00018154343706555665,2.4588751792907715,15.667835235595705,-15.717447280883787,-0.004433020949363709,0.002302706241607666,0.04352855682373047,990.1064453125,0,13.0,1,1
10.2,0.07590598,-0.1614224,9.757836,-0.0006071888492442667,0.00079868221655488,0.00018155394354835155,2.360069274902344,16.049659729003903,-16.10948371887207,7.716566324234009e-05,-0.00732874870300293,0.04352855682373047,990.0784301757812,0,13.0,1,1
10.24,0.063953966,-0.1423561,9.779141000000001,-0.0003408486372791231,0.0005323623772710562,-0.0011500150430947542,2.2685980796813965,16.22701644897461,-15.489892959594727,0.009560547769069672,-0.007370486855506897,0.03879547119140625,990.091064453125,0,13.0,1,1
10.28,0.073511064,-0.16380557,9.769671,5.864963895874098e-05,0.000665516359731555,0.00044789072126150126,1.8092908859252932,17.166229248046875,-14.935182571411133,-0.00469343364238739,-0.002345561981201172,0.043532371520996094,990.091064453125,0,13.0,1,1
10.32,0.0735085,-0.14712253,9.769671,0.00032498996006324887,-0.00013343521277420225,-0.00048420435632579034,1.5877106189727783,17.011798858642578,-15.507875442504885,0.00035306066274642944,-0.02617268264293671,0.03406238555908203,990.1239624023438,0,13.0,1,1
10.36,0.066336274,-0.16618875,9.76257,-0.00034077541204169387,-0.0010655447840690613,-8.4720115410164e-05,1.3781685829162598,16.763240814208984,-15.999933242797852,-0.004034511744976044,0.012127801775932312,0.03406238555908203,990.1239624023438,0,13.0,1,1
10.4,0.06394386,-0.15427226,9.755467999999999,0.00032503873808309436,-0.0003997590101789683,-0.0003510254609864205,1.970085382461548,16.527046203613278,-15.615419387817385,0.010331697762012482,-0.011899605393409727,0.04352760314941406,990.1060791015624,0,13.0,1,1
10.44,0.061551392,-0.15903875,9.769671,5.8747194998431944e-05,-0.00013344711624085903,-0.00048417298239655793,1.838613986968994,16.720008850097653,-15.606451034545898,0.019686661660671238,0.0026553571224212646,0.04826927185058594,990.100830078125,0,13.0,1,1
10.48,0.07349837,-0.16618851,9.764936,0.0007245613378472626,-2.9317016014829283e-07,0.000447943020844832,2.0404937267303467,15.328643798828125,-15.479158401489258,0.010210298001766205,0.011690735816955566,0.04825973510742188,990.1082763671876,0,13.0,1,1
10.52,0.08066553,-0.15188882,9.767303,-0.0010064673842862248,-2.9709917725995183e-07,0.0004479534982237965,1.749047040939331,16.004329681396484,-16.089662551879886,-0.008736029267311094,-0.012028515338897705,0.052994728088378906,990.1181640625,0,13.0,1,1
10.56,0.06871348599999999,-0.15903851,9.762568,0.0001919783535413444,-0.0010655646910890935,-8.46678449306637e-05,2.1974554061889653,16.055231094360348,-15.776815414428713,0.01045970618724823,0.0022999495267868038,0.05299568176269531,990.1107788085938,0,13.0,1,1
10.6,0.066321075,-0.15903851,9.7649355,-0.0006069448427297175,0.0006654846947640182,0.0003148164541926235,1.9495954513549805,16.349967956542972,-15.832849502563475,0.010300710797309877,0.006756246089935303,0.038788795471191406,990.108154296875,0,13.0,1,1
10.64,0.06399232,-0.15665665,9.753105999999999,-7.428862591041252e-05,0.0002660068857949227,-8.464689017273486e-05,2.3900957107543945,15.761371612548828,-15.558351516723633,0.015260070562362673,0.0019721239805221558,0.06245231628417969,990.1159057617188,0,13.0,1,1
10.68,0.06877214,-0.17095634,9.769675,0.0004580645472742617,0.00013289411435835063,0.0007141813402995468,2.239520311355591,15.672809600830078,-15.145044326782227,0.00574079155921936,0.001845136284828186,0.038779258728027344,990.1260375976562,0,13.0,1,1
10.72,0.06877214,-0.15665665,9.767308,-0.0012732855975627901,-0.00093232118524611,4.8264366341754794e-05,1.5982270240783691,16.916194915771484,-15.349931716918945,0.005792774260044098,-0.008127465844154358,0.04350566864013672,990.1107788085938,0,13.0,1,1
10.76,0.049652904000000005,-0.15903994,9.764941,-0.0012732855975627901,-0.0005328473635017872,-0.0007506832480430603,1.887744903564453,16.713241577148438,-15.459657669067385,0.015406578779220581,-0.0038323402404785156,0.03876399993896485,990.1107788085938,0,13.0,1,1
10.8,0.071162045,-0.16857305,9.760207000000001,-0.00034118007170036435,-0.0002665315114427358,0.00031458024750463665,2.0273694992065434,16.159355163574222,-15.75670051574707,0.0011738836765289307,0.0055097341537475595,0.04822826385498047,990.095458984375,0,13.0,1,1
10.84,0.07594186,-0.14712355,9.74837,-0.000873811834026128,0.0001329423685092479,-0.00035120945540256804,2.1145734786987305,16.60971450805664,-15.719503402709961,-0.008033305406570435,-0.013423219323158264,0.04822731018066406,990.1485595703124,0,13.0,1,1
10.88,0.071162045,-0.15665668,9.776776,0.0005909255123697221,-0.0006660053622908889,0.0004477381880860776,1.9984288215637207,15.711063385009766,-16.110925674438473,-0.003496520221233368,-0.003451406955718994,0.024565696716308597,990.1082763671876,0,13.0,1,1
10.92,0.07594186,-0.1518901,9.764941,0.0011235573329031467,0.00039925824967212975,-0.0004843673959840089,2.0701148509979252,15.514558792114258,-15.725557327270508,0.001279197633266449,-0.008093178272247314,0.05297374725341797,990.13330078125,0,13.0,1,1
10.96,0.06638223,-0.15189013,9.769675,-0.00034711603075265884,-0.00013031710113864392,4.121032543480396e-05,2.3981411457061768,16.50678825378418,-16.219083786010742,0.0014683306217193606,-0.003172323107719421,0.048239707946777344,990.1250610351562,0,13.0,1,1
11.0,0.06399232,-0.16380653,9.772041999999999,0.0007181474938988687,0.0001359987800242379,0.0005738420877605678,2.131719827651977,16.151710510253903,-15.772333145141602,0.010662272572517395,0.011361151933670044,0.024575233459472656,990.1250610351562,0,13.0,1,1
11.04,0.06638223,-0.15665665,9.741269,0.0001855157461250201,-0.0007961068768054247,0.0003075262065976858,2.095062494277954,16.802398681640625,-16.112695693969727,0.01568522304296494,0.006748303771018982,0.07191944122314453,990.1343383789062,0,13.0,1,1
11.08,0.06877214,-0.14950684,9.772041999999999,0.0001855157461250201,-0.0007961068768054247,0.0003075262065976858,2.095062494277954,16.802398681640625,-16.112695693969727,-0.003476783633232117,-0.012220561504364014,0.0293121337890625,990.1343383789062,0,13.0,1,1
11.12,0.071162045,-0.15427339,9.769675,-0.0002139580756193027,-0.000396632996853441,0.0003075262065976858,1.525562763214111,16.742938995361328,-15.559549331665039,-0.0035410895943641663,-0.012043043971061708,0.04825210571289063,990.1111450195312,0,13.0,1,1
11.16,0.06877214,-0.15903994,9.764941,0.0005849895533174276,0.0006686305277980863,0.0003075262065976858,1.6114888191223145,16.191402435302734,-15.77147102355957,0.01050141453742981,-0.007190242409706116,0.03405189514160156,990.14599609375,0,13.0,1,1
11.2,0.061602414,-0.15427339,9.767308,-8.080013503786175e-05,2.84079578705132e-06,4.121032543480396e-05,1.6661648750305176,16.558815002441403,-16.032350540161133,0.015157490968704225,0.002068385481834412,0.04351806640625,990.1156005859376,0,13.0,1,1
11.24,0.06638223,-0.1518901,9.769675,0.0004518316127359867,0.00013599872181657702,-9.194761514663696e-05,1.9610912799835205,16.624126434326172,-15.850664138793945,0.024749495089054108,-0.0071502774953842154,0.048256874084472656,990.1256103515624,0,13.0,1,1
11.28,0.07355195,-0.15427339,9.762574,0.0004518316127359867,0.00013599872181657702,-9.194761514663696e-05,1.9610912799835205,16.624126434326172,-15.850664138793945,-0.004326023161411285,0.0024538785219192505,0.04826068878173828,990.1256103515624,0,13.0,1,1
11.32,0.06877214,-0.14950684,9.769675,5.235780554357916e-05,0.0006686304113827647,-0.0003582634963095188,2.206885576248169,16.696205139160153,-15.815774917602539,0.0003987029194831848,-0.021177157759666443,0.04353046417236328,990.1083374023438,0,13.0,1,1
11.36,0.07594186,-0.15665668,9.764941,0.0003186736721545458,0.00040231464663520455,0.0001743682660162449,1.9004642963409424,16.356735229492188,-15.979642868041992,-2.566725015640259e-05,-0.0019363462924957273,0.04827022552490234,990.1105346679688,0,13.0,1,1
11.4,0.071162045,-0.17572293,9.776776,0.0003186736721545458,0.00040231464663520455,0.0001743682660162449,1.8431806564331052,16.724430084228516,-15.83836555480957,-0.004905641078948975,0.022016018629074097,0.03880500793457031,990.1105346679688,0,13.0,1,1
11.44,0.061602414,-0.17572293,9.767308,0.0008513054344803095,0.0009349463507533072,-0.0003582634963095188,1.7810318470001218,16.45556640625,-15.890039443969727,-0.00012359023094177246,0.0220935195684433,0.04354095458984375,990.1406860351562,0,13.0,1,1
11.48,0.061602414,-0.16380653,9.779144,0.0008513054344803095,0.0006686304695904255,-0.0006245793774724008,1.637523174285889,16.742660522460938,-15.961709976196287,0.0045985132455825814,0.008015930652618408,0.024606704711914062,990.1267700195312,0,13.0,1,1
11.52,0.07355195,-0.13997373,9.776776,0.0001855157461250201,2.84079578705132e-06,0.00044068414717912674,1.840679168701172,16.353191375732422,-15.585302352905273,0.00016449391841888428,-0.020462289452552795,0.03880977630615234,990.1334838867188,0,13.0,1,1
11.56,0.06877214,-0.15665665,9.753105999999999,0.0001855157461250201,2.84079578705132e-06,0.00044068414717912674,1.840679168701172,16.353191375732422,-15.585302352905273,0.009513445198535921,-0.006030157208442688,0.0624847412109375,990.1334838867188,0,13.0,1,1
11.6,0.07587898,-0.15665513,9.762568,5.235780554357916e-05,0.001334420288912952,0.0003075262065976858,1.9792168140411377,16.535886764526367,-16.079248428344727,-0.014265187084674837,0.003446429967880249,0.03881168365478516,990.1331176757812,0,13.0,1,1
11.64,0.061472893,-0.16380337,9.760195,0.0005849895533174276,-0.0005297910538502039,4.121032543480396e-05,2.2782728672027592,15.867565155029295,-15.85527229309082,0.009890355169773102,0.008113786578178406,0.03882122039794922,990.1155395507812,0,13.0,1,1
11.68,0.075807214,-0.16141996,9.767297,-7.972899766173214e-05,-0.0002636489807628095,0.00044114323100075126,1.5096387863159182,16.57027816772461,-16.00889778137207,-0.014295116066932678,-0.0015147626399993894,0.04829025268554688,990.1180419921876,0,13.0,1,1
11.72,0.061462699999999995,-0.15665329,9.764928999999999,-0.0008784778183326125,-0.0002636811695992946,0.00017491256585344672,1.7081232070922852,17.282733917236328,-15.773237228393555,-0.00949569046497345,-0.001607447862625122,0.03882026672363281,990.1180419921876,0,13.0,1,1
11.76,0.07579708,-0.14235350000000002,9.762561,5.367655830923468e-05,0.0002689426764845848,-0.00022454035934060807,2.3368351459503174,16.50177001953125,-15.747438430786133,0.00012174993753433228,-0.006399586796760559,0.05302333831787109,990.1178588867188,0,13.0,1,1
11.8,0.05906272,-0.16380289,9.753092,0.0007195151410996914,0.0001357767905574292,-0.00035767746157944197,1.670593500137329,16.45731544494629,-15.565187454223633,0.005097024142742157,0.003850042819976807,0.05303382873535156,990.1178588867188,0,13.0,1,1
11.84,0.068617225,-0.14711979,9.764927,0.0011190377408638597,-0.0005300208576954901,-0.000890288269147277,1.5240402221679688,16.741466522216793,-15.482248306274414,0.009845860302448273,-0.01981547474861145,0.05303764343261719,990.14208984375,0,13.0,1,1
11.88,0.07578188,-0.16141936,9.760193,0.0004532966995611787,0.00026891889865510166,-9.131967090070248e-05,1.5401012897491455,17.020038604736328,-15.731973648071287,0.005002535879611969,-0.00036710500717163086,0.038840293884277344,990.14208984375,0,13.0,1,1
11.92,0.061437427999999995,-0.14950284,9.760192,0.0007196613587439059,2.595101250335574e-06,-9.129877435043454e-05,2.3092782497406006,15.94903564453125,-15.479898452758787,-0.009312979876995087,-0.00016582012176513672,0.0435791015625,990.1420288085938,0,13.0,1,1
11.96,0.068602085,-0.16141906,9.750722999999999,0.0004533943720161915,-0.0002637287252582609,-0.0007570675807073712,1.3349876403808594,16.669981002807614,-15.756868362426758,0.0001966133713722229,0.009348079562187195,0.06725120544433594,990.1259155273438,0,13.0,1,1
12.0,0.07576668,-0.15426913,9.767292,-0.00034550449345260864,0.0004020530614070594,0.00017505892901681364,2.070550441741944,16.252613067626953,-15.999761581420898,-0.01420425623655319,-0.005289927124977112,0.029372215270996094,990.1435546875,0,13.0,1,1
12.04,0.078151524,-0.15665227,9.764925,-7.913970330264419e-05,0.00013572926400229335,4.19219140894711e-05,2.26264762878418,16.327041625976562,-15.87974739074707,0.0005106404423713684,-0.0003904253244400024,0.043575286865234375,990.09521484375,0,13.0,1,1
12.08,0.07336669999999999,-0.16141870000000003,9.774393,0.0003203826490789652,-0.0005300683551467955,0.00030825863359496003,1.8994853496551516,15.98697280883789,-15.803888320922852,-0.009017042815685272,0.008872270584106445,0.015164375305175781,990.1224975585938,0,13.0,1,1
12.12,0.06858182,-0.15665203,9.76019,-0.000611674040555954,-0.0005300763295963408,0.00030827961745671933,1.9444868564605715,16.71384048461914,-15.69938850402832,0.0052566826343536386,-0.0004392713308334351,0.05304431915283203,990.0874633789062,0,13.0,1,1
12.16,0.06379697,-0.14235225,9.767291,-0.00047846732195466757,0.00026886342675425107,0.00017514257342554632,2.065441608428955,16.616485595703125,-15.866296768188475,-0.004317931830883026,-0.019447624683380127,0.03410816192626953,990.0874633789062,0,13.0,1,1
12.2,0.06618184,-0.17095152,9.767291,0.00018737117352429775,-0.00026377628091722727,0.0003083213814534247,2.312459707260132,16.057899475097653,-16.333585739135742,0.0004000440239906311,0.009037971496582031,0.04357624053955078,990.1153564453124,0,13.0,1,1
12.24,0.073346436,-0.16380152,9.769656,0.00032057799398899084,0.000801479269284755,-0.000357447424903512,2.0528609752655034,17.078907012939453,-16.045381546020508,-0.004520505666732788,0.004269599914550781,0.03410911560058594,990.1228637695312,0,13.0,1,1
12.28,0.07095146,-0.15665159,9.776758000000001,0.00018746872956398877,0.0004019975895062089,-0.0002242684713564813,1.7183403968811035,16.55499267578125,-16.040163040161133,-0.004652559757232666,0.013912677764892578,0.02937793731689453,990.1201782226562,0,13.0,1,1
12.32,0.07572621,-0.15426818,9.767289,0.00032072421163320536,-0.0014622292947024107,-0.00022422667825594547,2.21740198135376,16.600601196289062,-15.657835006713867,-0.008855201303958895,-0.005016252398490907,0.038845062255859375,990.1304321289062,0,13.0,1,1
12.36,0.061381757,-0.15188476,9.760187,0.00032072421163320536,-0.0014622292947024107,-0.00022422667825594547,2.21740198135376,16.600601196289062,-15.657835006713867,0.014737471938133241,-0.0049406737089157104,0.038848876953125,990.1304321289062,0,13.0,1,1
12.4,0.068546385,-0.15903446,9.769654,0.0001876150636235252,2.500033588148653e-06,0.00030842595151625574,2.1598191261291504,16.336156845092773,-15.941423416137695,-0.009233243763446808,-0.0003528892993927002,0.04358196258544922,990.110107421875,0,13.0,1,1
12.44,0.06854135,-0.15665105,9.769654,-0.00015638710465282202,-8.431077731074764e-05,0.0008415546035394073,2.0053577423095703,15.980804443359375,-15.896829605102539,0.010096631944179537,-0.0002969205379486084,0.05778408050537109,990.14501953125,0,13.0,1,1
12.48,0.07331610000000001,-0.14950106,9.767287,-2.318039332749322e-05,-0.0014158980920910835,0.00030894379597157234,2.0765008926391597,16.152587890625,-15.609903335571287,-0.003861494362354279,0.0092124342918396,0.03884410858154297,990.124267578125,0,13.0,1,1
12.52,0.06614131,-0.15426752,9.776755,-2.318039332749322e-05,-0.0014158980920910835,0.00030894379597157234,2.0765008926391597,16.152587890625,-15.609903335571287,0.005703791975975037,-0.00975148379802704,0.03411197662353516,990.124267578125,0,13.0,1,1
12.56,0.06374633,-0.15903398,9.75545,-0.0004226054297760129,-0.00048380045336671174,-0.0003568250103853643,2.0614185333251958,16.2437744140625,-15.535932540893555,0.001170918345451355,0.004509642720222472,0.053048133850097656,990.128662109375,0,13.0,1,1
12.6,0.070910364,-0.14711744,9.781489,0.0003763908753171563,4.882339999312535e-05,-9.048823267221451e-05,2.202021837234497,16.059650421142578,-16.008729934692386,-0.008355490863323212,-0.0100918710231781,0.024636268615722656,990.130615234375,0,13.0,1,1
12.64,0.073295236,-0.15188387,9.760183,-0.0006888215430080892,-0.000750132545363158,0.0001758495345711708,1.9721503257751465,16.160228729248047,-15.594270706176758,-0.0034910216927528377,0.0042641907930374146,0.043575286865234375,990.13818359375,0,13.0,1,1
12.68,0.068510294,-0.15665033,9.764917,-0.0008218779694288969,-8.435926429228857e-05,-0.0006230547442100942,1.8603270053863523,16.266426086425778,-15.891191482543945,-0.003422752022743225,0.003736913204193115,0.029364585876464844,990.1170654296876,0,13.0,1,1
12.72,0.06850523,-0.16618326,9.767283,-0.000688670901581645,0.0009808961767703297,4.275611718185246e-05,1.7152967453002932,16.552045822143555,-15.885553359985352,-0.0036549419164657593,-0.0011442601680755615,0.03409862518310547,990.1170654296876,0,13.0,1,1
12.76,0.05894053,-0.14235035,9.762549,-0.000688670901581645,0.0009808961767703297,4.275611718185246e-05,1.7152967453002932,16.552045822143555,-15.885553359985352,0.005910120904445647,-0.029585152864456173,0.0530385971069336,990.1170654296876,0,13.0,1,1
12.8,0.07088494,-0.15188336,9.762547999999999,0.0005097995745018125,-0.00021753317560069266,-0.000489854603074491,1.8005423545837402,16.262880325317386,-15.496850967407227,-0.008421823382377625,-0.005643337965011597,0.034104347229003906,990.1170654296876,0,13.0,1,1
12.84,0.06610006,-0.17094949,9.783854,0.0005097995745018125,-0.00021753317560069266,-0.000489854603074491,2.1407136917114262,16.054634094238278,-15.537084579467773,0.005207754671573639,0.013449683785438538,0.01043701171875,990.1170654296876,0,13.0,1,1
12.88,0.07326466,-0.16141626,9.7649145,0.00011042365076718852,0.0009808724280446768,-0.0006229705759324132,1.6470608711242676,16.277290344238278,-15.628011703491213,0.0002468898892402649,0.013342797756195068,0.034110069274902344,990.0996704101562,0,13.0,1,1
12.92,0.06847978,-0.16141611,9.774384,-0.0005553170340135694,0.0005813906318508089,0.0005754719022661448,1.72733473777771,16.45791244506836,-15.80491828918457,5.13419508934021e-05,0.01834116876125336,0.034114837646484375,990.1094970703124,0,13.0,1,1
12.96,0.063694894,-0.1494996,9.755445,0.0006431535584852098,0.0005813827156089246,4.286118200980127e-05,1.5748319625854492,16.842086791992188,-16.111833572387695,0.004652157425880432,-0.005562633275985718,0.04831886291503906,990.1249389648438,0,13.0,1,1
13.0,0.06368983,-0.15664932,9.7578125,-0.0001557451905682683,0.0001819008612073958,-0.0004897495382465422,2.1086230278015137,16.709741592407227,-16.10936164855957,0.004716262221336365,0.0037088096141815186,0.05304908752441406,990.09912109375,0,13.0,1,1
13.04,0.06607461,-0.16379902,9.790952,-0.0004220119444653392,4.873495345236734e-05,0.00017606111941859126,1.8853821754455569,16.447921752929688,-15.905672073364258,0.009420223534107208,0.00862334668636322,0.03411579132080078,990.1171264648438,0,13.0,1,1
13.08,0.063679665,-0.15188247,9.757812,0.0003769845934584737,0.0003150429402012378,0.0009750297176651657,2.1130509376525883,16.608245849609375,-15.64219856262207,0.009310513734817505,-0.005480557680130005,0.05305671691894531,990.1171264648438,0,13.0,1,1
13.12,0.06128463,-0.15426561,9.776748,0.0002438757801428437,0.0001818770251702517,4.294520476832986e-05,1.7334225177764893,16.46380615234375,-16.114137649536133,0.004442475736141205,0.008699372410774231,0.024649620056152344,990.1141357421876,0,13.0,1,1
13.16,0.05649975,-0.16379863,9.750709,-2.2390981030184776e-05,4.871108831139282e-05,-0.00022334966342896226,1.6808114051818848,15.729576110839846,-15.832117080688475,0.009324103593826294,0.008588731288909912,0.057788848876953125,990.1121826171876,0,13.0,1,1
13.2,0.06844419,-0.14949882,9.769646,-0.0005549736088141799,4.870317206950858e-05,-9.017070988193154e-05,1.7092084884643557,16.546154022216793,-15.576333999633787,-0.0005496665835380554,-0.015223458409309387,0.02465152740478516,990.1121826171876,0,13.0,1,1
13.24,0.07560879,-0.17094824,9.757810000000001,0.0006434967508539557,0.00018185310182161632,-0.0003564655198715627,2.090198516845703,16.165843963623047,-16.30565071105957,-0.00993157923221588,0.013379544019699095,0.053055763244628906,990.0767822265624,0,13.0,1,1
13.28,0.06843400000000001,-0.16141501,9.78148,-0.0001554018817842007,-0.00035078657674603164,-0.00022328662453219292,2.0099244117736816,15.985221862792967,-16.12874412536621,0.00921967625617981,-0.010525718331336977,0.029384613037109375,990.0943603515624,0,13.0,1,1
13.32,0.07320875,-0.16141489,9.760176,-0.0004216688685119152,4.8679263272788376e-05,-0.0006227394915185869,1.8518762588500977,15.99521255493164,-16.027990341186527,-0.0056709423661232,0.01806354522705078,0.06252861022949219,990.1094360351562,0,13.0,1,1
13.36,0.056474328,-0.16379803,9.762542,0.0002441699616611004,0.0017797243781387804,0.0001762291940394789,2.0204393863677983,15.889617919921875,-15.970800399780273,0.008418247103691101,0.0038189738988876334,0.048328399658203125,990.1094360351562,0,13.0,1,1
13.4,0.063638926,-0.15664807,9.764909,-0.00015525473281741142,0.0005812950548715888,0.00030940817669034004,2.2760703563690186,16.128463745117188,-15.177339553833008,-0.010545678436756134,0.0037218183279037476,0.03885650634765625,990.124267578125,0,13.0,1,1
13.44,0.07080358,-0.16141453,9.772011000000001,0.00037742592394351965,-0.0004839764151256532,0.00017627121997065842,2.1737849712371826,15.769290924072266,-15.140562057495115,0.003716662526130676,-0.005473330616950989,0.01992511749267578,990.1146850585938,0,13.0,1,1
13.48,0.073188365,-0.15664777,9.769642999999999,0.0007769487565383315,-0.0008834581822156906,0.00017629223293624816,1.9912552833557131,16.441753387451172,-15.99860954284668,-0.0005650594830513,-0.0009152740240097047,0.04832649230957031,990.11669921875,0,13.0,1,1
13.52,0.07079339,-0.15426436,9.767275,-0.0005545816384255887,-0.0004839923640247434,4.315530532039702e-05,1.9772593975067136,15.79636001586914,-15.727739334106445,0.004219800233840942,-0.0008684247732162477,0.04359245300292969,990.1014404296876,0,13.0,1,1
13.56,0.06339991,-0.14234248,9.757785,-0.00028816761914640665,-0.0004840081965085119,0.0004426711529958993,1.6665704250335691,16.084606170654293,-15.234819412231445,0.01013152301311493,-0.0201004147529602,0.05309581756591797,990.1217041015624,0,13.0,1,1
13.6,0.060772985,-0.15663639,9.75303,-0.00028816761914640665,-0.0004840081965085119,0.0004426711529958993,1.6665704250335691,16.084606170654293,-15.234819412231445,0.010446764528751372,0.003529176115989685,0.048356056213378906,990.1217041015624,0,13.0,1,1
13.64,0.060750127,-0.15425250000000001,9.769598,-0.0005511707859113811,-0.0007493377779610455,0.000447666592663154,2.1613416671752934,16.337627410888672,-16.01872444152832,0.02050433307886124,-0.006222635507583618,0.034150123596191406,990.1141357421876,0,13.0,1,1
13.68,0.06789705,-0.15186870000000002,9.771963000000001,-0.0005511707859113811,-0.0007493377779610455,0.000447666592663154,2.1613416671752934,16.337627410888672,-16.01872444152832,0.005857668817043304,-0.006078183650970459,0.034155845642089844,990.1141357421876,0,13.0,1,1
13.72,0.06787419,-0.16616779999999998,9.760125,0.00011483907292131336,4.957412602379918e-05,-8.487081504426897e-05,1.8476080894470213,16.622932434082028,-15.37120246887207,0.010884404182434082,0.008466586470603945,0.05309772491455078,990.114013671875,0,13.0,1,1
13.76,0.06068167,-0.15901741,9.755386999999999,0.0003813750809058547,-0.0007494091987609862,0.0005810131551697849,1.468958616256714,16.848258972167972,-16.018896102905273,0.005744270980358125,0.003176644444465637,0.05309391021728516,990.114013671875,0,13.0,1,1
13.8,0.07499823,-0.15425026,9.760121,-0.0006836685352027416,0.0007152924663387238,4.847574746236205e-05,1.6124675273895264,16.561161041259766,-15.947221755981445,-0.008178681135177612,-0.01590733230113983,0.034155845642089844,990.1268920898438,0,13.0,1,1
13.84,0.07975522,-0.17093268,9.7672205,-1.7658676370047033e-05,-0.0007494806195609273,0.0008475176873616874,2.015331268310547,16.253486633300778,-15.837335586547852,-0.012749165296554564,0.01742611825466156,0.04362392425537109,990.1166381835938,0,13.0,1,1
13.88,0.07734248,-0.15663248,9.767219,-0.00015059659199323502,-0.00048320047790184617,0.0001818222808651626,1.4414029121398926,16.295522689819336,-15.751352310180664,0.0017673671245574953,-0.006423681974411011,0.0436248779296875,990.101318359375,0,13.0,1,1
13.92,0.06776005,-0.17093155,9.764847999999999,-0.0005498504033312201,-0.00035007833503186703,0.00031507457606494427,1.7915487289428709,16.35995864868164,-15.732095718383787,0.006693989038467407,0.01713100075721741,0.03888893127441406,990.1063232421876,0,13.0,1,1
13.96,0.053397834000000005,-0.15424809,9.757745,0.00011615933908615259,0.00031567568657919765,-0.000483778741909191,2.265692234039306,16.329986572265625,-16.034357070922848,0.001958906650543213,-0.0017244666814804075,0.048361778259277344,990.12158203125,0,13.0,1,1
14.0,0.07249418,-0.16616389,9.767211,0.0008900752873159945,-9.725670679472389e-06,-0.0006395846139639616,1.9639973640441892,16.521156311035153,-15.30620002746582,-0.007530823349952699,0.0032427608966827393,0.02942943572998047,990.12158203125,0,13.0,1,1
14.04,0.06530166,-0.16616336,9.779046000000001,0.0002245054929517209,-9.761395631358027e-06,-0.00010685858433134854,1.9274473190307615,16.065500259399414,-15.273904800415039,0.0016753003001213074,0.00306934118270874,0.034165382385253906,990.1117553710938,0,13.0,1,1
14.08,0.060499012000000005,-0.14709651,9.760106,-0.0005742221255786718,0.00038967677392065525,2.639362355694175e-05,2.1613416671752934,16.337627410888672,-16.018732070922848,0.015873812139034268,-0.011253878474235536,0.05310630798339844,990.1117553710938,0,13.0,1,1
14.12,0.060476154000000004,-0.15901238,9.760104,-0.0005742221255786718,0.00038967677392065525,2.639362355694175e-05,1.5608353614807131,16.196693420410153,-15.840959548950195,0.006267599761486054,-0.001704886555671692,0.04837417602539063,990.1117553710938,0,13.0,1,1
14.16,0.07001299,-0.151862,9.750632000000001,-0.000440844043623656,0.0009222726803272963,-0.000106669933302328,1.8398377895355225,16.089345932006836,-16.10862159729004,0.0012196004390716553,-0.006588265299797058,0.06731510162353516,990.1292724609376,0,13.0,1,1
14.2,0.07954973,-0.16854438,9.767201,0.0004917014739476143,0.0009222013177350165,-0.0009054288966581224,2.094519853591919,17.170692443847653,-16.211145401000973,-0.012741535902023315,0.017332106828689575,0.05311298370361328,990.12158203125,0,13.0,1,1
14.24,0.07474708599999999,-0.15901068,9.7624655,0.00022560596698895097,-0.0004094138275831938,0.0004262447473593056,1.5059151649475098,16.829704284667972,-15.253664016723633,-0.00324411690235138,0.002994954586029053,0.04364681243896485,990.126708984375,0,13.0,1,1
14.28,0.065164685,-0.15424356,9.762462,-0.00017364794621244073,-9.975730790756645e-06,0.000426339014666155,1.9623150825500488,15.99346160888672,-16.352842330932614,-0.0033814683556556697,-0.016162097454071045,0.043648719787597656,990.138427734375,0,13.0,1,1
14.32,0.053192317,-0.16139289999999998,9.767195,-0.0005729017429985106,0.00012314645573496819,-0.000106198393041268,1.7939107418060305,16.625282287597653,-15.286081314086914,0.010796330869197844,-0.006504654884338379,0.04365348815917969,990.1425170898438,0,13.0,1,1
14.36,0.060339212,-0.15900901,9.760091000000001,0.0004925819230265915,0.000522584596183151,-0.0007718937704339622,2.2685985565185547,16.227014541625973,-15.489892959594727,0.00595836341381073,-0.001850232481956482,0.04365348815917969,990.1094970703124,0,13.0,1,1
14.4,0.06509614,-0.16139176,9.762456,-0.0005724614602513611,0.00038939091609790916,-0.00010600980021990836,1.9112789630889893,16.893268585205078,-15.396829605102539,-0.0035386681556701656,-0.006943061947822571,0.034180641174316406,990.1146850585938,0,13.0,1,1
14.44,0.060293555,-0.15424129999999997,9.767188,-0.0001727678463794291,-0.00027643446810543537,2.7242436772212383e-05,2.0527234077453613,16.97298812866211,-15.346307754516602,0.010455243289470673,-0.006927266716957092,0.02945423126220703,990.09912109375,0,13.0,1,1
14.48,0.06744039,-0.16139063,9.767186,-0.0003057056455872953,0.0007887932588346303,-0.0009047688217833637,1.762500524520874,17.018013000488278,-16.458986282348633,-0.004014521837234497,-0.006801620125770569,0.03892707824707031,990.1190185546876,0,13.0,1,1
14.52,0.05785799,-0.15900674,9.767184,0.00022714637452736494,0.00012296783097553998,-0.000904674525372684,1.826032638549805,17.18243408203125,-15.785539627075195,0.0199480801820755,0.0027134865522384644,0.04839611053466797,990.1142578125,0,13.0,1,1
14.56,0.06975287,-0.15662214,9.755343,9.420823334949092e-05,-1.02257909020409e-05,-0.0006382643477991222,1.9725866317749023,16.898284912109375,-15.868478775024414,-0.009047567844390871,0.0027457773685455322,0.043666839599609375,990.1192016601562,0,13.0,1,1
14.6,0.06491655,-0.15423754,9.764808,0.00036081968573853374,0.0006555159343406558,-0.00010550595470704138,1.350069522857666,16.57879638671875,-15.830842971801758,0.0101998969912529,-0.006565943360328674,0.03894519805908203,990.1217041015624,0,13.0,1,1
14.64,0.07206085,-0.16615328,9.774274,0.0006259553483687341,-0.00027431338094174856,3.239704528823495e-05,1.746302366256714,16.63351821899414,-15.51017951965332,-0.004083655774593353,0.012331530451774595,0.038944244384765625,990.1217041015624,0,13.0,1,1
14.68,0.067255676,-0.15900278,9.762435,-0.000572221411857754,0.00012512072862591594,-0.0003669719444587826,1.7818734645843506,16.719411849975586,-15.366716384887695,0.01023848354816437,0.007849156856536865,0.04841804504394531,990.1116943359376,0,13.0,1,1
14.72,0.06006062,-0.15185234,9.7648,0.00036012884811498225,-8.076967787928881e-06,0.0001657647080719471,1.9094588756561282,16.25965690612793,-15.74439811706543,0.010637804865837095,-0.0063276588916778564,0.05315494537353516,990.1115112304688,0,13.0,1,1
14.76,0.064815074,-0.14708516,9.764797,0.00022721537970937788,-0.0008070642361417412,3.271151217631996e-05,2.1804461479187007,16.619152069091793,-16.423067092895508,-0.003041073679924011,-0.006575196981430054,0.04368114471435547,990.1115112304688,0,13.0,1,1
14.8,0.074349284,-0.16376749,9.757693,-0.000438329967437312,-0.0010734198149293661,-0.0002334995660930872,1.6012711524963381,16.919139862060547,-15.504545211791992,-0.012881934642791748,0.00772862136363983,0.0436859130859375,990.1115112304688,0,13.0,1,1
14.84,0.071933985,-0.15900028,9.767159,0.00022770432406105098,-8.196031558327377e-06,-0.0004997106734663248,1.8059492111206052,16.531147003173828,-15.205442428588867,0.001905784010887146,-0.0017211288213729858,0.0436859130859375,990.1185913085938,0,13.0,1,1
14.88,0.057569265,-0.14708328,9.750587,-0.00030468273325823253,-0.0010734992101788519,-0.0008990796050056814,1.632819652557373,16.63232421875,-15.030717849731445,0.007068149745464325,-0.00629846751689911,0.04368877410888672,990.0958862304688,0,13.0,1,1
14.92,0.07188329,-0.16138238,9.755321,0.000627667352091521,-0.0005409071454778314,-0.0008989750640466808,2.376535415649414,15.85403060913086,-15.561685562133787,-0.006964154541492461,-0.001677677035331726,0.06262493133544922,990.0958862304688,0,13.0,1,1
14.96,0.076637685,-0.15899846,9.755317,-0.0005705098737962544,-0.0004077889025211334,3.323549753986299e-05,2.1217470169067383,15.8790283203125,-15.831819534301758,-0.016726277768611908,0.00782260298728943,0.04842376708984375,990.1236572265624,0,13.0,1,1
15.0,0.06705272,-0.15661451,9.752948,0.0006281562964431943,0.0005242769839242102,0.0005659720627591014,1.9646780490875244,16.258781433105472,-15.906824111938475,-0.002566874027252197,-0.011319756507873535,0.0531606674194336,990.09814453125,0,13.0,1,1
15.04,0.071807206,-0.18521324,9.75768,0.0004954874166287482,0.000657355529256165,0.00043302372796460986,2.0726156234741206,15.88579559326172,-15.978616714477539,-0.0029542893171310425,0.012515157461166382,0.05316734313964844,990.1210327148438,0,13.0,1,1
15.08,0.071781814,-0.15899661,9.767146,0.0004954874166287482,0.000657355529256165,0.00043302372796460986,2.0726156234741206,15.88579559326172,-15.978616714477539,0.0018899217247962954,-0.016100779175758362,0.057902336120605476,990.1210327148438,0,13.0,1,1
15.12,0.06697661,-0.15899596,9.762410000000001,0.0008954502991400658,-0.001073777093552053,0.0001669174525886774,1.8225531578063965,16.44143295288086,-15.356721878051758,0.002100072801113129,-0.006122410297393799,0.034239768981933594,990.100830078125,0,13.0,1,1
15.16,0.06217143,-0.16614512,9.774242999999998,0.0008954502991400658,-0.001073777093552053,0.0001669174525886774,1.8225531578063965,16.44143295288086,-15.356721878051758,-0.007531501352787019,-0.0013616979122161865,0.02477264404296875,990.100830078125,0,13.0,1,1
15.2,0.064535975,-0.15422812,9.764771000000001,0.0004962211824022233,-0.00014171126531437042,0.00043333816574886436,1.5864334106445312,16.00990104675293,-15.756990432739258,0.00215187668800354,-0.001796692609786987,0.029501914978027344,990.106201171875,0,13.0,1,1
15.24,0.062120735999999996,-0.15422755,9.762402999999999,-0.0009680272196419537,0.00012452533701434731,0.000433547655120492,1.8899488449096682,16.452341079711914,-16.137590408325195,0.0020831674337387085,-0.0022605955600738525,0.05317115783691406,990.1506958007812,0,13.0,1,1
15.28,0.06926501,-0.1542269,9.767135000000001,-0.0005683088093064724,0.000790275284089148,0.0003004946338478476,2.053403377532959,16.710617065429688,-15.946939468383787,-0.0031432807445526123,-0.007020190358161925,0.03423881530761719,990.10693359375,0,13.0,1,1
15.32,0.069239676,-0.16614267,9.750562,-0.0003017483686562628,0.00012444582534953952,3.428355557844043e-05,2.1578609943389893,15.596630096435547,-15.589914321899414,-0.002946719527244568,0.002187758684158325,0.0579071044921875,990.10693359375,0,13.0,1,1
15.36,0.07399410000000001,-0.1494591,9.752927,9.79699325398542e-05,-0.0010740152793005107,-0.0003650854341685772,2.266777992248535,15.593406677246096,-15.837457656860352,-0.0027266368269920353,-0.007203549146652222,0.07684803009033203,990.1447143554688,0,13.0,1,1
15.4,0.06918895,-0.16375819,9.769496,0.0004976881318725647,0.0013227879535406828,0.00016765098553150892,2.0991926193237305,16.06876564025879,-16.070398330688473,0.006441868841648103,0.002230927348136902,0.03897571563720703,990.1214599609376,0,13.0,1,1
15.44,0.06916353,-0.16375753,9.774227,0.0004976881318725647,0.0013227879535406828,0.00016765098553150892,2.1333799362182617,16.259101867675778,-16.548715591430664,-0.007960788905620575,0.016751199960708618,0.03424835205078125,990.1214599609376,0,13.0,1,1
15.48,0.06674826,-0.16852343,9.764756,0.0004976881318725647,0.0013227879535406828,0.00016765098553150892,2.1333799362182617,16.259101867675778,-16.548715591430664,0.011104606091976166,0.01690685749053955,0.04845523834228516,990.1214599609376,0,13.0,1,1
15.52,0.061943114,-0.16375628,9.774222,9.845899330684915e-05,0.0005238005542196333,-0.00023171794600784776,1.819509029388428,16.438488006591793,-15.202112197875975,0.0014599263668060305,0.0026803463697433467,0.029521942138671875,990.1331176757812,0,13.0,1,1
15.56,0.07262772,-0.1685504,9.755386999999999,0.0002334765449631959,-7.551340240752324e-05,-0.0005023826379328966,1.7613840103149414,16.54233169555664,-15.58415412902832,-0.014061801135540009,0.01221756637096405,0.05309200286865234,990.1376342773438,0,13.0,1,1
15.6,0.0678682,-0.14471808,9.753022999999999,0.00022849036031402647,0.0005910857580602169,0.00029442826053127646,1.7544546127319336,16.272594451904293,-15.798254013061525,-0.009913712739944458,-0.016548365354537964,0.04835700988769531,990.1094970703124,0,13.0,1,1
15.64,0.070278406,-0.15901837,9.767228,-0.0008423336548730731,0.0017904099076986313,0.0009578348253853619,1.854675531387329,16.998588562011722,-15.856180191040039,-0.0006998404860496521,-0.0027635395526885986,0.03887939453125,990.1115112304688,0,13.0,1,1
15.68,0.06790882,-0.16140214,9.764863,-0.0007093714084476233,5.938845424680039e-05,-0.0003738283412531018,1.854238986968994,16.26053237915039,-15.581972122192385,0.004392258822917938,0.011757165193557741,0.05308341979980469,990.1314697265624,0,13.0,1,1
15.72,0.07031903,-0.15425274,9.783800999999999,0.00022253862698562446,-0.00020689572556875646,2.556154504418373e-05,1.869321346282959,16.16934585571289,-15.655946731567385,-0.0012072548270225525,-0.012145578861236572,0.024679183959960938,990.1314697265624,0,13.0,1,1
15.76,0.0727292,-0.16616964,9.757765,-0.0003102887130808085,0.002056821016594768,-0.0001076802145689726,1.9084796905517576,15.889892578125,-15.568643569946287,-0.015423648059368134,0.007084727287292481,0.0530853271484375,990.1159057617188,0,13.0,1,1
15.8,0.06318989400000001,-0.16140354,9.77197,0.0008879370288923383,-0.0007394639542326331,0.00042486772872507567,1.715839385986328,16.183757781982422,-15.787103652954102,0.00887314975261688,0.0021635591983795166,0.038875579833984375,990.11572265625,0,13.0,1,1
15.84,0.079939425,-0.16617069,9.755400999999999,-0.0005769958952441813,-0.0007394322892650963,0.0004247838805895298,2.0982136726379395,15.69900131225586,-15.894647598266602,-0.010156668722629549,0.007092058658599854,0.05781364440917969,990.0880737304688,0,13.0,1,1
15.88,0.063230455,-0.15663806,9.764873,0.00035491414018906653,-0.0006062425673007965,0.0006910159718245268,1.8652982711791992,15.796638488769533,-15.325578689575195,0.01402333378791809,0.002331569790840149,0.03887176513671875,990.128662109375,0,13.0,1,1
15.92,0.06564066,-0.14710543,9.745936,8.840244117891416e-05,-0.0007393687264993787,-0.0006406473694369197,1.8322281837463381,16.081981658935547,-15.722101211547852,0.009508341550827026,-0.007023841142654419,0.0672769546508789,990.1210327148438,0,13.0,1,1
15.96,0.06566095,-0.16378883,9.776711,0.00022136481129564345,-0.0007393370033241807,-0.00010809930972754957,1.6926045417785645,16.635868072509766,-15.425058364868164,-0.0045296698808670035,0.007174253463745117,0.02939605712890625,990.1360473632812,0,13.0,1,1
16.0,0.07285094,-0.16378929999999997,9.776713,8.801128569757566e-05,-0.00020667343051172796,2.4974753614515063e-05,1.811739444732666,15.904901504516602,-15.939535140991213,0.005149967968463898,0.011875271797180176,0.0435943603515625,990.1360473632812,0,13.0,1,1
16.04,0.075261116,-0.15425679,9.771981,8.781570795690641e-05,-0.000472957588499412,0.00029120678664185107,1.6848340034484863,16.102283477783207,-16.162481307983402,0.004822090268135071,-0.0021641403436660767,0.04833316802978516,990.1182250976562,0,13.0,1,1
16.08,0.06572187,-0.15187398,9.764882,8.762001380091533e-05,0.0009918116265907884,-0.0002415087656117976,1.9284262657165527,16.435264587402347,-15.449655532836914,0.00020509958267211917,-0.006902635097503662,0.03886127471923828,990.09814453125,0,13.0,1,1
16.12,0.065742135,-0.16140756,9.750679,-4.5733504521194845e-05,-0.0010055258171632886,0.0004241970309522003,1.772878646850586,16.816492080688473,-15.601964950561525,4.281848669052124e-05,0.00741143524646759,0.0577993392944336,990.1030883789062,0,13.0,1,1
16.16,0.06815231,-0.17332447,9.769619,-0.0011113883228972554,0.00059243303257972,-0.00010860239854082465,2.1544122695922847,16.067890167236328,-16.23282814025879,0.014127254486083984,0.02113109827041626,0.04831981658935547,990.1387939453124,0,13.0,1,1
16.2,0.07056254,-0.15425870000000003,9.774353999999999,-0.0011113883228972554,0.00059243303257972,-0.00010860239854082465,2.1544122695922847,16.067890167236328,-16.23282814025879,-0.005029149353504181,-0.007670477032661437,0.029379844665527344,990.1387939453124,0,13.0,1,1
16.24,0.07058281,-0.15664256,9.764888000000001,-0.0011115839006379249,0.0003261489036958665,0.0002907875750679523,1.6736373901367188,16.460262298583984,-15.719797134399414,-0.010463632643222807,-0.008205533027648926,0.03884124755859375,990.1219482421876,0,13.0,1,1
16.28,0.068213224,-0.16140959,9.753053999999999,-0.001111779478378594,0.0009919704170897603,0.00029070372693240637,1.952096700668335,16.721206665039062,-16.085908889770508,0.008689925074577332,0.006012573838233948,0.053040504455566406,990.1219482421876,0,13.0,1,1
16.32,0.061063825999999995,-0.15426022,9.762525,-0.00017986955936066806,0.00019305446767248213,-0.00024201185442507264,1.378711223602295,16.394948959350586,-15.90147590637207,0.008706294000148773,0.0011238902807235718,0.04356861114501953,990.1312866210938,0,13.0,1,1
16.36,0.07542351,-0.16617712,9.7577915,8.625073678558691e-05,-7.322968303924426e-05,0.00015737811918370426,1.7332849502563477,16.357887268066403,-15.415060043334961,-0.01986309140920639,0.015341177582740784,0.04356479644775391,990.1312866210938,0,13.0,1,1
16.4,0.07783371,-0.16856086,9.771997,-4.7102781536523246e-05,0.00019311800133436918,-0.0005084953736513853,2.0934033393859863,16.695011138916016,-15.336309432983398,-0.011013448238372804,0.0014496147632598875,0.03883934020996094,990.1132202148438,0,13.0,1,1
16.44,0.07785404,-0.15664506,9.7791,0.0003521754697430879,0.0013915712479501965,0.0004235263331793249,2.010222911834717,16.617359161376953,-15.70387077331543,-0.005910351872444153,-0.0035326331853866577,0.04356575012207031,990.1130981445312,0,13.0,1,1
16.48,0.07070461,-0.1685619,9.755431,-4.749405343318358e-05,-0.0006057661375962198,2.3968634195625785e-05,1.999706029891968,16.71296501159668,-15.861814498901367,-0.005947962403297424,0.005600035190582275,0.05302619934082031,990.1130981445312,0,13.0,1,1
16.52,0.05630666,-0.15426078,9.757792,-0.001246111118234694,6.005531031405553e-05,0.0004233586660120636,2.1185960769653316,16.982425689697266,-16.049871444702152,0.00350334495306015,0.000669628381729126,0.057757377624511726,990.1109008789062,0,13.0,1,1
16.56,0.058633267999999995,-0.17570874,9.767255,-0.0005805169930681586,0.0001932450104504824,0.0010890645207837224,2.408658027648926,16.411182403564453,-16.061140060424805,0.008854947984218597,0.010081678628921507,0.02462291717529297,990.108154296875,0,13.0,1,1
16.6,0.06820685,-0.1637927,9.762523,8.75850601005368e-05,-0.0016724896850064395,-0.000377581047359854,2.250173091888428,15.683122634887695,-15.686178207397461,-0.0006056353449821472,0.0101325660943985,0.048293113708496094,990.108154296875,0,13.0,1,1
16.64,0.068220794,-0.15902647,9.771993,8.75042678671889e-05,-7.458135223714635e-05,0.0006876478437334299,1.8060865402221682,16.637065887451172,-15.904520034790039,-0.005407385528087616,0.0005894899368286133,0.034088134765625,990.128173828125,0,13.0,1,1
16.68,0.05867517,-0.16141012,9.760158,8.75042678671889e-05,-7.458135223714635e-05,0.0006876478437334299,1.8060865402221682,16.637065887451172,-15.904520034790039,0.008596792817115784,0.01002897322177887,0.05302619934082031,990.128173828125,0,13.0,1,1
16.72,0.06346887,-0.14711073,9.769627999999999,0.0002203930635005236,-0.0015392751665785909,0.0008206905331462622,2.023782253265381,16.524700164794922,-15.700540542602539,0.00909729301929474,-0.00902041792869568,0.04355335235595703,990.1324462890624,0,13.0,1,1
16.76,0.058703035,-0.17094389,9.779098,0.0002203930635005236,-0.0015392751665785909,0.0008206905331462622,2.023782253265381,16.524700164794922,-15.700540542602539,-0.005218252539634705,0.014601871371269224,0.015142440795898438,990.1324462890624,0,13.0,1,1
16.8,0.06110692,-0.15664455,9.7696295,-0.00044553086627274746,0.000324957916745916,0.00015484323375858366,1.788504123687744,16.357013702392578,-15.577486038208008,0.01354268193244934,-0.009348943829536438,0.04828166961669922,990.1167602539062,0,13.0,1,1
16.84,0.06351077599999999,-0.16856131,9.76253,-0.00044553086627274746,0.000324957916745916,0.00015484323375858366,1.723747730255127,16.823257446289062,-15.748758316040039,0.00897035002708435,0.009509250521659851,0.06247901916503906,990.1167602539062,0,13.0,1,1
16.88,0.058744907,-0.15902850000000002,9.760163,-0.0005789578426629305,-0.0004739461001008749,-0.00011158786946907642,1.807172775268555,15.900484085083008,-15.707620620727539,0.008854113519191742,0.009392544627189636,0.043540000915527344,990.1106567382812,0,13.0,1,1
16.92,0.056368947,-0.16379544,9.760164999999999,8.669739327160642e-05,0.0003250234003644437,0.00042098623816855246,1.949052810668945,16.718259811401367,-15.931303024291992,0.013358846306800842,0.005043089389801025,0.05301475524902344,990.1056518554688,0,13.0,1,1
16.96,0.058772802,-0.15664592,9.755433,0.0007523525273427367,-7.442854257533327e-05,0.0001546127605251968,2.0409297943115234,16.066694259643555,-15.753366470336914,0.013599298894405363,-0.004152178764343262,0.05301666259765625,990.0776977539062,0,13.0,1,1
17.0,0.061176657999999995,-0.15902957,9.769637,0.0007522183004766703,0.0004582250257954002,-0.00011176074622198941,1.959569215774536,16.622652053833008,-15.77336311340332,-0.0011064931750297546,0.0008631199598312378,0.04355430603027344,990.0776977539062,0,13.0,1,1
17.04,0.05641079,-0.15664664,9.764903,0.0008742994978092611,-0.0005264522624202074,-0.00027150235837325454,1.7107305526733398,16.547626495361328,-15.653642654418945,-0.0012887939810752866,-0.008304789662361145,0.04355907440185547,990.1359252929688,0,13.0,1,1
17.08,0.06598437,-0.15426368,9.757804,0.0004746910999529064,0.0006719910306856036,-5.244131898507476e-06,1.8081517219543457,16.270246505737305,-15.883378982543945,-0.005981586873531342,-0.012905463576316832,0.053028106689453125,990.1359252929688,0,13.0,1,1
17.12,0.061218499999999995,-0.17333028,9.755436999999999,0.00047455687308683986,-0.0001269348431378603,-0.0001384597271680832,1.756955623626709,16.643829345703125,-16.05131721496582,0.013350702822208405,0.015853330492973328,0.05776309967041016,990.1044921875,0,13.0,1,1
17.16,0.061232447999999995,-0.15426436,9.772008999999999,0.0008738961187191308,-0.0005263867788016796,-0.00013851729454472658,2.0493807792663574,16.337905883789062,-15.616571426391602,-0.0009666085243225098,-0.01280166208744049,0.02935504913330078,990.1044921875,0,13.0,1,1
17.2,0.06602621,-0.15188139999999997,9.757807000000001,-0.000191501880181022,-0.0002600491279736161,-0.00013857497833669188,1.816901683807373,17.173595428466793,-15.321706771850586,0.0038024559617042537,-0.007832363247871399,0.05776405334472656,990.1190795898438,0,13.0,1,1
17.24,0.058870435,-0.1471152,9.774379,7.467965770047158e-05,-0.00026002732920460403,0.000393999187508598,2.193868637084961,16.420574188232422,-15.72065544128418,-0.0007549524307250978,-0.008225187659263609,0.0246124267578125,990.1334228515624,0,13.0,1,1
17.28,0.046934872999999995,-0.15188211,9.767278999999998,-0.0009907186031341553,-0.0005263213533908129,-5.532230716198683e-06,2.0780234336853027,16.154060363769528,-15.687211990356445,0.02304281294345856,-0.008136451244354248,0.04828548431396485,990.1080322265624,0,13.0,1,1
17.32,0.063678145,-0.16141558,9.764913,0.00034072663402184844,0.00027264811797067523,-0.00027190573746338487,2.1944117546081543,16.052284240722653,-15.622209548950195,0.00873856246471405,0.0062162429094314575,0.04355049133300781,990.1304931640624,0,13.0,1,1
17.36,0.0756416,-0.1637992,9.769649000000001,0.00020743410277646035,-0.00012680391955655068,-0.0001388054224662483,1.9040520191192627,15.991392135620115,-16.03580665588379,-0.005352720618247986,0.006318032741546631,0.03881359100341797,990.0950317382812,0,13.0,1,1
17.4,0.06609595,-0.16379952,9.7696495,0.00020729964307975024,-0.000925729691516608,-0.00013886304805055258,1.4980063438415527,16.190202713012695,-15.292009353637695,-0.0049565136432647705,-0.0034111440181732178,0.04354095458984375,990.1480712890624,0,13.0,1,1
17.44,0.07327962,-0.1471169,9.7767515,-0.0003254663315601647,-0.0013251816853880882,-0.00013892067363485694,1.9821233749389648,16.432914733886722,-15.534780502319336,-0.004571750760078429,-0.012631788849830627,0.02933979034423828,990.1480712890624,0,13.0,1,1
17.48,0.075683475,-0.16380024,9.760183,0.0003401886788196862,-0.00012673839228227737,-0.0008047680021263659,1.725269794464111,16.824729919433597,-15.826066970825195,0.00012858211994171145,-0.00309675931930542,0.053009986877441406,990.11279296875,0,13.0,1,1
17.52,0.06977820400000001,-0.15900609,9.767182,0.0006063701002858579,-0.00012671660806518048,-5.877984222024679e-06,1.792090892791748,15.991668701171875,-15.633646011352539,-0.007995568215847015,-0.012608602643013,0.05311107635498047,990.11279296875,0,13.0,1,1
17.56,0.060186952,-0.156622,9.769546,-0.00032179296249523764,-0.001059462083503604,0.0002621275489218533,1.7666308879852295,16.284378051757812,-16.416696548461914,0.006771758198738097,-0.0029926598072052,0.057848930358886726,990.1025390625,0,13.0,1,1
17.6,0.07449469,-0.15423796,9.755339999999999,0.00021682139777112752,-0.0010594388004392383,-0.0005317771574482322,2.0746808052062993,15.518978118896484,-15.95747184753418,0.0022662505507469177,-0.007858872413635254,0.048378944396972656,990.0850219726562,0,13.0,1,1
17.64,0.057733744000000004,-0.15185389,9.764806,-0.00018234695016872135,-0.00039369854493997986,9.852810762822628e-07,1.9425292015075684,15.974315643310547,-15.347871780395508,0.0020193234086036678,-0.002912193536758423,0.04838657379150391,990.1049194335938,0,13.0,1,1
17.68,0.07204148,-0.15900296,9.764804,-0.0003151996643282473,0.00040519959293305874,0.00026743204216472805,1.739372968673706,16.363780975341793,-15.724283218383787,-0.0025016963481903076,0.011526599526405334,0.04838848114013672,990.097412109375,0,13.0,1,1
17.72,0.069619924,-0.15423563,9.767167,0.0010166845750063658,-0.0006601135246455669,0.00026756271836347883,1.6506471633911133,15.911949157714846,-15.684171676635742,-0.007226094603538512,-0.007560610771179198,0.029455184936523438,990.097412109375,0,13.0,1,1
17.76,0.08392766,-0.15423486,9.755328,8.488395542372018e-05,0.00040510046528652316,1.3776880223304031e-06,1.7858965396881104,17.092121124267578,-15.697084426879885,-0.012326575815677645,-0.007394805550575256,0.04366588592529297,990.1229248046876,0,13.0,1,1
17.8,0.08389601,-0.14708424,9.771894999999999,0.00021834690414834768,0.0005382088129408659,-0.00026480737142264843,1.8572838306427,16.263477325439453,-15.736581802368164,-0.012101210653781893,-0.011983424425125122,0.043670654296875,990.1229248046876,0,13.0,1,1
17.84,0.06474513,-0.15899979999999997,9.7647915,-0.0008463056874461473,0.0016033733263611796,-0.0002645457861945033,1.8884260654449463,16.450868606567386,-16.06028175354004,-0.0031313300132751465,0.006951883435249329,0.04367637634277344,990.120361328125,0,13.0,1,1
17.88,0.06232357,-0.15423253,9.762422,-0.0008463056874461473,0.0016033733263611796,-0.0002645457861945033,1.8884260654449463,16.450868606567386,-16.06028175354004,0.0017399713397026062,-0.002346590161323548,0.03894710540771485,990.120361328125,0,13.0,1,1
17.92,0.06229198,-0.16376483,9.750583,0.0015508418437093494,-0.00026088731829077,-0.00013125722762197256,1.8989429473876955,16.355262756347653,-15.902338027954102,-0.0029783695936203003,0.016773521900177002,0.05315399169921875,990.1178588867188,0,13.0,1,1
17.96,0.078989565,-0.16138077,9.750580000000001,0.0003527255612425506,5.378982677939348e-06,2.03156378120184e-06,1.974650859832764,16.53146743774414,-15.847333908081055,-0.0028964504599571232,0.002815127372741699,0.05316162109375,990.1150512695312,0,13.0,1,1
18.0,0.08373773,-0.15184689,9.769515,0.0003533358103595674,-0.0005273518618196249,-0.00039718073094263673,1.8110580444335935,16.167274475097653,-15.338907241821287,-0.02130734920501709,-0.00190947949886322,0.034224510192871094,990.1014404296876,0,13.0,1,1
18.04,0.06458688,-0.15661266,9.769511,0.0003533358103595674,-0.0005273518618196249,-0.00039718073094263673,1.8110580444335935,16.167274475097653,-15.338907241821287,-0.0023507699370384216,-0.001942455768585205,0.05789852142333984,990.1014404296876,0,13.0,1,1
18.08,0.06933501,-0.15899518,9.762406,0.0004871040000580251,-0.0009269246947951617,-0.0002637612633407116,2.0255494117736816,15.525745391845705,-16.104265213012695,-0.0018915832042694085,-0.0017884224653244019,0.05316925048828125,990.115966796875,0,13.0,1,1
18.12,0.06452352,-0.16376096,9.750567,0.0004871040000580251,-0.0009269246947951617,-0.0002637612633407116,2.0255494117736816,15.525745391845705,-16.104265213012695,-0.0066112205386161796,0.017242416739463806,0.053170204162597656,990.115966796875,0,13.0,1,1
18.16,0.06688177599999999,-0.16137692,9.767136,0.0004871040000580251,-0.0009269246947951617,-0.0002637612633407116,1.8708434104919436,16.170818328857422,-15.733251571655273,0.008215412497520447,0.007735326886177062,0.034232139587402344,990.115966796875,0,13.0,1,1
18.2,0.06924003,-0.15184298,9.767133,0.00048740924103185534,0.00027144717751070857,2.6854686439037327e-06,2.1447374820709233,16.42734146118164,-15.867448806762695,-0.0012473836541175842,-0.0062441229820251465,0.0531768798828125,990.1182250976562,0,13.0,1,1
18.24,0.06442857,-0.14945897,9.760028,8.824090764392167e-05,-0.0014596557011827824,0.0002691320260055363,2.1362862586975098,16.156131744384766,-16.004243850708008,0.013236507773399351,-0.011247515678405762,0.057909965515136726,990.0953369140624,0,13.0,1,1
18.28,0.05244738,-0.15422472,9.760026,0.0003548617823980749,-0.0002612837124615908,-0.00039652688428759575,1.637523174285889,16.742660522460938,-15.961709976196287,0.022873707115650174,0.003146171569824219,0.05791282653808594,990.0975952148438,0,13.0,1,1
18.32,0.059585452000000004,-0.16137382,9.757655,0.001021261210553348,0.0002712490386329592,-0.00039626535726711154,1.8733439445495603,16.542057037353516,-15.98631477355957,0.0034197941422462463,-0.011112689971923828,0.04845142364501953,990.08740234375,0,13.0,1,1
18.36,0.069113374,-0.15898973,9.762386,0.00022261888079810888,0.0008038313244469464,0.0005359710194170475,1.5521399974822998,16.925909042358402,-15.651338577270508,0.008209638297557829,-0.0013305246829986572,0.043723106384277344,990.1709594726562,0,13.0,1,1
18.4,0.07625145,-0.15898895,9.7647505,0.0006223981617949902,0.0002711499691940844,-0.0002628458896651864,1.609286546707153,16.452299118041992,-15.093542098999025,-0.0016171112656593325,0.0036047101020812993,0.03899669647216797,990.1590576171876,0,13.0,1,1
18.44,0.06427029,-0.15898821,9.764747999999999,-4.308663483243436e-05,4.784580596606247e-06,3.6007550079375505e-06,2.1040263175964355,15.493061065673828,-14.80571174621582,0.012912362813949585,0.003629416227340698,0.0579366683959961,990.1590576171876,0,13.0,1,1
18.48,0.05503708,-0.17329589,9.762411,0.0006230081780813633,-0.0005278967437334359,-0.0005289001855999231,2.3838701248168945,15.649559020996096,-14.550050735473633,0.017354421317577362,0.0038916617631912227,0.0389394760131836,990.1184692382812,0,13.0,1,1
18.52,0.06733483,-0.14947161,9.76481,0.00022383891337085518,-0.001060578040778637,0.000536494015250355,2.822986125946045,15.1654052734375,-14.89732551574707,0.002648994326591492,-0.009940862655639648,0.057887077331542976,990.1331787109376,0,13.0,1,1
