Timestamp,Ax,Ay,Az,Gx,Gy,Gz,Mx,My,Mz,LiAx,LiAy,LiAz,P,Value,Type,GroupType,Activities
0.0,0.0665434,-0.15600331,9.772699000000001,-7.705017924308777e-05,0.0016039416659623384,-0.00030900159617885947,-9.701908111572266,22.202054977416992,-39.04328155517578,-0.0031371191143989567,-0.019729644060134888,0.03572273254394531,988.6278686523438,0,13.0,1,1
0.04,0.080863774,-0.15600279999999997,9.7750635,0.00044114474439993495,-2.4253560695797205e-05,0.0005872274050489067,-7.453451156616211,24.30685234069824,-38.43513488769531,-0.01703624427318573,0.004011407494544983,0.02625083923339844,988.5520629882812,0,13.0,1,1
0.08,0.085624516,-0.15600229999999998,9.7679615,4.1854160372167826e-05,-0.00015744115808047354,0.0005873059853911401,-6.981808185577393,23.9056453704834,-38.484336853027344,-0.012586772441864014,-0.005360737442970276,0.0309906005859375,988.5698852539062,0,13.0,1,1
0.12,0.083215594,-0.14408548,9.775062,-0.0007569095469079912,-0.00029062895919196313,0.00045422679977491503,-7.248910903930664,23.812944412231445,-37.43695831298828,-0.0024215951561927795,-0.019695520401000977,0.04519081115722656,988.5823974609376,0,13.0,1,1
0.16,0.08319658,-0.15600139999999998,9.765591,0.0011046675499528646,0.0002835732302628457,0.0003597331524360925,-7.329590320587157,24.10652732849121,-38.057579040527344,-0.0024245083332061768,0.004375755786895752,0.03572845458984375,988.55712890625,0,13.0,1,1
0.2,0.08078766,-0.16791729999999996,9.772689999999999,0.0004390610265545547,-0.00024908833438530564,-0.00017282005865126848,-8.304018974304201,24.72155570983887,-37.635475158691406,-0.0025757700204849248,0.009158283472061155,0.030996322631835938,988.593017578125,0,13.0,1,1
0.24,0.07598883,-0.15838374,9.772688,3.977044252678752e-05,0.0008161455043591559,-0.0011048470623791218,-7.638214111328125,24.0279598236084,-37.54351806640625,0.0022382736206054688,0.009278863668441772,0.035736083984375,988.57275390625,0,13.0,1,1
0.28,0.07511869,-0.14173807,9.758625,-0.00022636208450421688,0.00015032599912956354,-0.00017266301438212395,-7.549787044525146,23.84765434265137,-38.00850296020508,0.005077041685581207,-0.009684085845947266,0.05453968048095703,988.6155395507812,0,13.0,1,1
0.32,0.08233029,-0.17510496,9.772831,0.00016664154827594757,-0.00025252153864130383,-0.00044740649173036223,-7.837783813476562,24.052080154418945,-37.9760856628418,-0.004656493663787842,0.004523932933807373,0.049800872802734375,988.5826416015624,0,13.0,1,1
0.36,0.0728125,-0.1655729,9.770468,-0.00036819267552345986,0.0014788892585784195,-0.00018203438958153129,-7.891480922698975,24.05443000793457,-37.890960693359375,-0.0046081170439720145,0.004547938704490662,0.030858993530273438,988.5901489257812,0,13.0,1,1
0.4,0.08002406,-0.1703405,9.758636,0.0005635095294564962,-0.0005184143665246665,-0.000714839028660208,-7.5143537521362305,23.82763481140137,-37.16596221923828,0.00486823171377182,0.028335317969322205,0.06873035430908203,988.5905151367188,0,13.0,1,1
0.44,0.07289624,-0.15842508,9.753906,-0.0003689995501190424,-0.0001188750029541552,-0.0005818539648316801,-7.3751349449157715,23.74795341491699,-38.260536193847656,8.67992639541626e-05,-0.00018505752086639404,0.06399250030517578,988.577392578125,0,13.0,1,1
0.48,0.07771789999999999,-0.16557603,9.765744999999999,-0.0003689995501190424,-0.0001188750029541552,-0.0005818539648316801,-7.564027309417725,24.20268821716309,-37.41120910644531,-0.0044205114245414725,-0.009681284427642822,0.059252738952636726,988.577392578125,0,13.0,1,1
0.52,0.07059008,-0.15842720000000002,9.751547,0.0004295444814488292,0.0004138221847824752,-0.0007151848985813558,-7.90960693359375,24.14267158508301,-37.662376403808594,0.004973992705345154,-0.009605512022972109,0.06398487091064453,988.5880126953124,0,13.0,1,1
0.56,0.08019152,-0.1608115,9.756285,2.9667280614376068e-05,-0.0009176916792057457,0.0003499056911095977,-7.170999526977539,23.72824668884277,-38.05988311767578,-0.004634089767932892,-0.014351412653923038,0.05451393127441406,988.5626220703124,0,13.0,1,1
0.6,0.08262330000000001,-0.1655791,9.779961,0.0006950534880161285,0.00028079532785341144,-4.974106559529901e-05,-7.130862236022949,23.81855583190918,-38.14834213256836,-0.018950238823890686,-0.00014895200729370117,0.021366119384765625,988.5448608398438,0,13.0,1,1
0.64,0.070715606,-0.16319682,9.772862,2.886028960347176e-05,-0.0001186130684800446,0.000216401822399348,-7.700767993927003,24.23330497741699,-38.392723083496094,-0.004553087055683136,-0.0003914833068847656,0.03082561492919922,988.5850219726562,0,13.0,1,1
0.68,0.075537294,-0.15366472,9.770498,-0.0009036487899720668,0.0004140842938795686,-0.00031640281667932873,-7.4526100158691415,24.57069969177246,-37.91181564331055,-7.385015487670898e-05,0.0042916685342788705,0.04029273986816406,988.5551147460938,0,13.0,1,1
0.72,0.0851388,-0.15604906,9.777604,-0.00023826246615499258,1.4675839338451624e-05,0.0002160561271011829,-7.5778865814208975,23.6632137298584,-37.83940887451172,-0.00011785328388214111,-0.009927317500114441,0.02608680725097656,988.5930786132812,0,13.0,1,1
0.76,0.08757052,-0.15128346,9.758671000000001,0.00029396580066531897,-0.00011841655941680074,8.272525155916809e-05,-7.845255851745605,24.15063285827637,-38.28863525390625,-0.009222738444805144,-0.01011773943901062,0.049747467041015625,988.5829467773438,0,13.0,1,1
0.8,0.070883095,-0.16558416,9.763409,2.7246540412306786e-05,-0.0005178248975425959,-0.00018376356456428766,-7.9292545318603525,24.22943687438965,-37.35649108886719,0.005041547119617461,0.008733600378036499,0.04027271270751953,988.5880126953124,0,13.0,1,1
0.84,0.08048454,-0.14651896,9.756311,-0.0009052626555785537,-0.0007840752950869501,0.0007481690845452249,-7.381360530853271,23.636140823364254,-37.252235412597656,-0.009542949497699738,-0.00539611279964447,0.04974079132080078,988.5804443359376,0,13.0,1,1
0.88,0.08052641,-0.15843634,9.777619,-0.00023987633176147935,0.0009470434742979703,-5.095155211165547e-05,-7.317415237426758,24.11831474304199,-38.67602157592773,-0.0002425462007522583,-0.0007758736610412598,0.02606487274169922,988.59814453125,0,13.0,1,1
0.92,0.07100868,-0.15367089,9.775256,2.603605389595032e-05,0.00014816131442785263,0.0002151913940906525,-7.37375020980835,23.64350700378418,-37.638763427734375,0.0041917189955711365,-0.010426566004753113,0.044999122619628906,988.6083374023438,0,13.0,1,1
0.96,0.083000004,-0.16320498,9.775260000000001,2.5229179300367832e-05,0.0008140820427797736,-0.0001846281229518354,-7.593648910522461,24.016775131225586,-37.16481018066406,-0.000431738793849945,-0.0009852796792984009,0.035523414611816406,988.6083374023438,0,13.0,1,1
1.0,0.080652,-0.14652307,9.753959,2.482568379491568e-05,1.5199824701994656e-05,-0.0004511168808676303,-7.893002510070801,24.05295753479004,-37.81365966796875,-0.010176524519920349,-0.015257909893989563,0.04972457885742188,988.5702514648438,0,13.0,1,1
1.04,0.09025344,-0.15129067,9.768167,-0.0005082095740363002,-0.0005173663957975805,0.00034765779855661094,-7.847213268280028,23.41110801696777,-37.93712615966797,-0.014752998948097227,-0.015550985932350159,0.030775070190429688,988.565185546875,0,13.0,1,1
1.08,0.07356599,-0.15844149999999999,9.770537,-0.00024229707196354863,-0.00011782706133089958,0.0008801165968179703,-7.667292594909668,23.47375297546387,-37.198673248291016,-0.005230955779552461,-0.0010236203670501711,0.026041030883789062,988.57275390625,0,13.0,1,1
1.12,0.080777586,-0.15605928,9.782377,0.0005562469596043228,1.5396333765238527e-05,-0.0013837411534041164,-7.681938171386719,24.30299186706543,-37.398902893066406,-0.00025262683629989624,-0.010356619954109192,0.04024219512939453,988.5880126953124,0,13.0,1,1
1.16,0.08798915,-0.15367706,9.803686,0.00015636987518519166,-0.0003840119461528957,-5.233479896560311e-05,-8.121757507324219,24.62921714782715,-38.27403259277344,-0.014943011105060576,-0.010437101125717165,0.026035308837890625,988.577880859375,0,13.0,1,1
1.2,0.08086127,-0.16082789,9.772916,0.00015596626326441765,0.0005481590633280575,0.00021380808902904389,-7.272986888885497,24.00121116638184,-37.59823226928711,-0.00994156301021576,0.0039166510105133065,0.016561508178710938,988.58544921875,0,13.0,1,1
1.24,0.07053739,-0.1631924,9.775213,0.0006881945300847293,-0.001315986504778266,-0.0001858387258835137,-7.379700660705566,23.74353218078613,-38.02861785888672,0.009743310511112213,0.0043377578258514396,0.030763626098632806,988.5905151367188,0,13.0,1,1
1.28,0.074504405,-0.16793905,9.770405,0.000558488885872066,0.00028134830063208943,0.0003482727915979922,-7.38024377822876,24.1118221282959,-38.12707138061523,0.006429426372051239,0.018750861287117004,0.04511642456054688,988.5826416015624,0,13.0,1,1
1.32,0.08643108599999999,-0.15125550000000001,9.768034,-0.00010003353236243127,-0.0014478241791948676,8.89832153916359e-05,-7.359509468078612,23.28847312927246,-38.23605346679688,-0.012208588421344757,-0.024123385548591614,0.04038238525390625,988.5753784179688,0,13.0,1,1
1.36,0.07445872,-0.15602155,9.763297999999999,0.0005659761955030262,-0.00038259633583948016,0.0006217092741280794,-7.361032009124756,23.28700065612793,-38.15875244140625,-0.0023887529969215393,-0.010024607181549072,0.04984760284423828,988.5955810546876,0,13.0,1,1
1.4,0.07682583,-0.15840422,9.763296,-0.0003659093636088073,-0.0009152638376690447,-4.398601595312357e-05,-7.275350093841553,23.73588752746582,-38.04425430297852,0.0024296343326568604,0.004680931568145752,0.035653114318847656,988.5855712890624,0,13.0,1,1
1.44,0.07680297,-0.16078694,9.784599,0.0005664163618348539,-0.0003826678439509124,-0.00031020760070532566,-7.261354446411133,24.38128471374512,-38.31512451171875,-0.0019432976841926575,4.689395427703858e-05,0.021451950073242188,988.5753784179688,0,13.0,1,1
1.48,0.08633977,-0.1607864,9.77276,0.0003003205056302249,0.00014992826618254185,-0.0004432712448760867,-7.335976600646973,23.46849632263184,-38.17323303222656,-0.0018758922815322878,4.3004751205444336e-05,0.035655975341796875,988.602783203125,0,13.0,1,1
1.52,0.07675731,-0.1631691,9.751453999999999,3.422476584091782e-05,-0.0007822130573913455,-0.0001768610090948641,-6.837458610534668,23.88239479064941,-37.889347076416016,-0.011020898818969728,9.071826934814452e-05,0.06406211853027344,988.5875244140624,0,13.0,1,1
1.56,0.07912439,-0.13933577,9.768023,0.0008333925507031381,1.6698846593499184e-05,0.000222707079956308,-7.230103969573975,23.462331771850586,-38.26617050170898,0.0031837821006774907,-0.01857130229473114,0.059337615966796875,988.5550537109376,0,13.0,1,1
1.6,0.07432175,-0.16078468,9.760917999999998,-9.849300840869546e-05,-0.00024965277407318354,-0.00044298835564404726,-7.824223518371582,23.95942497253418,-37.97275161743164,-0.001551792025566101,0.005100920796394347,0.03566551208496094,988.5752563476562,0,13.0,1,1
1.64,0.07429892,-0.16078417,9.770386,3.488495713099837e-05,0.0004161012475378811,8.973776130005716e-05,-7.425925731658935,23.64732551574707,-37.630943298339844,0.007690176367759705,0.009875282645225523,0.03567028045654297,988.5850219726562,0,13.0,1,1
1.68,0.067106366,-0.1512505,9.763282,0.0003645141259767115,0.00048656130093149835,0.0005820619990117848,-7.467585563659668,23.5555477142334,-37.465187072753906,0.021853044629096985,-0.00911945104598999,0.04987812042236328,988.603271484375,0,13.0,1,1
1.72,0.07425326,-0.16078307,9.758545,-0.0004342134925536811,0.0010191574692726137,-0.00034994923043996096,-7.519324779510497,24.297422409057614,-37.73157501220703,-0.0020957142114639282,8.887052536010742e-05,0.059344291687011726,988.5647583007812,0,13.0,1,1
1.76,0.08617991,-0.15601592,9.777481,-0.0004339934675954282,-0.0005787736736238003,0.00031593479798175395,-7.53981351852417,24.12034034729004,-37.949012756347656,-0.0018041357398033144,-0.00950215756893158,0.035671234130859375,988.6153564453124,0,13.0,1,1
1.8,0.083767176,-0.15363206,9.760908,-3.429950447753072e-05,-0.000978283234871924,-0.0006160764023661612,-7.5597596168518075,23.57497215270996,-38.0679931640625,-0.01574153453111649,-0.004752159118652344,0.04513835906982422,988.6052856445312,0,13.0,1,1
1.84,0.06940496,-0.1536315,9.784578,-0.0001672373036853969,-0.00031252927146852016,-0.0004828242817893624,-7.758488178253174,23.86294364929199,-37.97723388671875,0.00827769935131073,-0.004687130451202393,0.016735076904296875,988.5926513671876,0,13.0,1,1
1.88,0.08611143,-0.14409788,9.7467,-0.0001672373036853969,-0.00031252927146852016,-0.0004828242817893624,-7.8572936058044425,24.244768142700195,-38.36927032470703,-0.011054463684558868,-0.024006575345993042,0.06407833099365234,988.5926513671876,0,13.0,1,1
1.92,0.08130878,-0.16078027,9.772738,-0.0009659650386311113,0.00022006683866493404,-0.0006158879259601235,-7.643185138702393,24.49774742126465,-38.109130859375,-0.0016437172889709473,-0.009580001235008241,0.0498809814453125,988.5826416015624,0,13.0,1,1
1.96,0.07650614,-0.14171346,9.775103,0.0004989924491383134,0.00022003098274581132,0.00044946995330974465,-7.741585731506348,24.405363082885746,-37.70364379882813,0.0030312612652778625,-0.004854947328567505,0.02147674560546875,988.579833984375,0,13.0,1,1
2.0,0.08843285,-0.14886273,9.770367,-0.00029973493656143546,0.0007526270346716046,-0.00021622527856379747,-7.764575958251952,23.8570499420166,-37.66801452636719,-0.011177606880664824,-0.01401899755001068,0.04042243957519531,988.5899047851562,0,13.0,1,1
2.04,0.09079993,-0.16077854,9.758528,9.995867731049656e-05,-0.0005789879942312838,0.00031650063465349376,-8.19692325592041,24.0847225189209,-38.2305908203125,-0.020286470651626587,0.005186408758163452,0.04989147186279297,988.592529296875,0,13.0,1,1
2.08,0.085997224,-0.160778,9.772730000000001,0.0007659686380065978,-0.00031270788167603314,-0.00021603668574243784,-7.882486820220947,23.95734977722168,-37.65571594238281,-0.010634481906890871,-0.004458293318748474,0.04989147186279297,988.58740234375,0,13.0,1,1
2.12,0.074024916,-0.17031051,9.777462,-0.00029907474527135486,-0.00017958565149456265,5.037343362346292e-05,-7.6188645362854,23.30905342102051,-38.2742805480957,0.008573345839977264,0.014470487833023071,0.03095245361328125,988.6024169921876,0,13.0,1,1
2.16,0.08117181,-0.1607769,9.760889,-0.00016569701256230474,-0.0003127793606836349,-8.269021054729819e-05,-7.586038589477539,24.02413749694824,-37.55133438110352,-0.0006215944886207581,0.014278531074523926,0.04041862487792969,988.5696411132812,0,13.0,1,1
2.2,0.0739792,-0.15124325,9.756153,0.00010083912638947368,-4.649913171306253e-05,0.00018372002523392442,-7.666175365447997,23.94943046569824,-38.073509216308594,-0.0054360032081604,-0.01411403715610504,0.049892425537109375,988.5897216796876,0,13.0,1,1
2.24,0.079817474,-0.15126921,9.753882,0.0001010592677630484,-0.0001796928409021348,0.0004501302319113165,-7.770525932312013,23.957075119018555,-38.05787658691406,0.0029418990015983577,0.0004564821720123291,0.04980182647705078,988.5542602539062,0,13.0,1,1
2.28,0.0798378,-0.16080279999999997,9.763353,-3.1878764275461435e-05,-4.6570581616833806e-05,0.00031706658774055535,-7.581472396850586,24.02855491638184,-37.78324890136719,-0.011446401476860045,0.00036980211734771734,0.059267997741699226,988.5595092773438,0,13.0,1,1
2.32,0.08941769599999999,-0.15127017,9.758621,-0.00017530395416542888,0.00022141207591630518,-0.00035312341060489416,-7.576065540313722,24.29681968688965,-37.491844177246094,-0.006934791803359985,-0.009171530604362488,0.04506397247314453,988.602294921875,0,13.0,1,1
2.36,0.07987839,-0.16080375,9.76099,-4.234170773997903e-05,8.82858585100621e-05,-0.00022004928905516866,-7.5650291442871085,23.41262245178223,-39.05847930908203,-0.006762772798538208,0.0002990812063217163,0.045060157775878906,988.5771484375,0,13.0,1,1
2.4,0.08228856,-0.16557081,9.758625,-4.253728548064828e-05,0.0003546335210558027,0.00017934059724211693,-7.682099342346191,23.776769638061523,-38.522857666015625,-0.006750628352165222,0.005121886730194092,0.045058250427246094,988.5693969726562,0,13.0,1,1
2.44,0.07991898,-0.16318808,9.758627,-0.00017589080380275848,-0.0001779664307832718,-8.705910295248032e-05,-7.831695556640625,24.057973861694336,-38.285301208496094,-0.0022680610418319698,0.0045846402645111075,0.04031562805175781,988.5794067382812,0,13.0,1,1
2.48,0.08710897,-0.14650561,9.768097000000001,-0.0008418762008659543,0.00048785502440296113,-0.0003534588031470776,-7.6165008544921875,23.574373245239254,-37.82826232910156,-0.01168784499168396,-0.00011228024959564209,0.045047760009765625,988.5466918945312,0,13.0,1,1
2.52,0.07278985,-0.15365596,9.763365,-4.3124135117977864e-05,-0.0005773768061771988,0.0005785629618912934,-7.4915242195129395,23.84972953796387,-38.325538635253906,0.002764813601970673,-0.009624242782592772,0.04031085968017578,988.5947265625,0,13.0,1,1
2.56,0.08475965,-0.17033936,9.768101,8.983822772279382e-05,-0.0003110291727352888,-0.00035362644121050835,-7.615086555480957,24.682191848754886,-38.278221130371094,-0.006584472954273224,0.014094874262809753,0.04030609130859375,988.5744018554688,0,13.0,1,1
2.6,0.09194967,-0.15604024,9.763369,0.0002228004741482437,-0.0005773132434114814,0.0004452373541425914,-7.458315372467041,23.67030143737793,-38.62809371948242,-0.015979349613189697,0.004870295524597168,0.02136993408203125,988.5740356445312,0,13.0,1,1
2.64,0.082410365,-0.15127422,9.779942,0.0008883944828994572,-0.00031096560996957123,0.0004451535060070455,-7.3822021484375,23.372297286987305,-37.77555847167969,-0.006000496447086334,-0.013992011547088623,0.030836105346679688,988.586669921875,0,13.0,1,1
2.68,0.07048112,-0.15842451,9.756269999999999,-4.3906678911298513e-05,-0.0011098815593868494,0.0004450696578714997,-8.042898178100586,23.7020206451416,-38.00098037719727,-0.0011076182126998901,0.0049859434366226205,0.04976940155029297,988.5587158203124,0,13.0,1,1
2.72,0.07528126,-0.15127517,9.765741,-0.0003104181378148496,-4.458625335246325e-05,-0.0008865935960784554,-7.79321813583374,24.04089546203613,-37.59737396240234,0.013355419039726256,-0.004648208618164063,0.049765586853027344,988.5740356445312,0,13.0,1,1
2.76,0.077691436,-0.15604217,9.758642,-0.0005769298295490444,0.00022176138008944693,-8.772977162152529e-05,-7.98183536529541,24.707468032836914,-38.14620590209961,0.003642432391643524,-0.01888765394687653,0.049765586853027344,988.561279296875,0,13.0,1,1
2.8,0.07771173,-0.15842591,9.768112,0.0004881381173618138,-0.0009766283910721538,0.0003116601728834212,-7.9814300537109375,24.23326301574707,-37.34867858886719,-0.005792759358882904,0.004921033978462218,0.03555870056152344,988.5845947265624,0,13.0,1,1
2.84,0.07295221,-0.15365995,9.753911,-0.0007104789256118237,0.0006212986772879957,-0.00022105535026639703,-8.2216796875,24.53536033630371,-37.791236877441406,0.00860176980495453,-0.00017276406288146973,0.059223175048828125,988.5712890625,0,13.0,1,1
2.88,0.08970183,-0.16081025,9.787053,-0.0009769906755536797,-0.00017761715571396053,0.00044465044629760087,-7.756966114044189,23.864412307739254,-38.054542541503906,-0.01055242121219635,-0.00027170777320861816,0.0402822494506836,988.5662841796876,0,13.0,1,1
2.92,0.070602894,-0.16319402,9.758647999999999,8.80773295648396e-05,-0.00044390128459781414,4.509277641773224e-05,-7.64057731628418,23.76263999938965,-37.98953628540039,0.009101606905460358,-0.005055636167526245,0.05447959899902344,988.5765991210938,0,13.0,1,1
2.96,0.07301313,-0.15604465,9.756283,0.00022103969240561128,-0.0009765013819560409,0.0004444827791303396,-7.8960466384887695,24.05000877380371,-37.6590461730957,-0.0009101256728172302,-0.005210518836975098,0.04500865936279297,988.5686645507812,0,13.0,1,1
3.0,0.070643514,-0.16557826,9.758652,0.00022084399824962017,0.0006214258028194307,4.492508014664054e-05,-7.601120948791504,24.115324020385746,-37.47736358642578,0.01314014196395874,0.018494248390197757,0.04500770568847656,988.5712280273438,0,13.0,1,1
3.04,0.075443625,-0.14651264,9.772858,-0.0008446151041425765,0.00035514155752025545,4.4841261114925146e-05,-7.873056888580322,24.598329544067386,-37.694671630859375,0.003456331789493561,-0.009868964552879332,0.030806541442871094,988.5484619140624,0,13.0,1,1
3.08,0.07785383,-0.16081275,9.770493,0.0002204528427682817,0.0004883313085883857,4.4757442083209746e-05,-7.3637776374816895,23.916189193725586,-37.57926940917969,0.003535151481628418,-0.0005286335945129395,0.030800819396972656,988.5558471679688,0,13.0,1,1
3.12,0.07548421599999999,-0.15842994,9.75629,0.00022025726502761245,-0.0003105845826212317,0.0005773053271695971,-6.887568950653076,23.519399642944336,-37.860389709472656,0.008294947445392609,-0.00035002827644348145,0.054474830627441406,988.5684814453124,0,13.0,1,1
3.16,0.07789442,-0.15843041,9.772863000000001,0.0003532195114530623,0.0002220789610873908,-8.856819476932287e-05,-7.852865695953369,24.14327049255371,-37.90211486816406,-0.0015539303421974182,-0.0051027536392211905,0.030801773071289062,988.588623046875,0,13.0,1,1
3.2,0.072633296,-0.1608019,9.777553999999999,-0.00011930038454011084,-0.00035881841904483736,0.00014123145956546068,-7.738542079925537,24.40831184387207,-37.858253479003906,0.008202724158763884,0.0044603049755096436,0.035533905029296875,988.5155639648438,0,13.0,1,1
3.24,0.07212162,-0.16078939,9.779874000000001,-0.00011930038454011084,-0.00035881841904483736,0.00014123145956546068,-8.106813430786133,24.43211555480957,-37.64892578125,-0.0001677945256233215,-0.00027145445346832275,0.030890464782714844,988.5155639648438,0,13.0,1,1
3.28,0.07449126,-0.14887254,9.784607000000001,0.00014681991888210175,4.0687096770852804e-05,-0.00012516829883679748,-7.378721714019775,24.11329460144043,-38.20437622070313,0.004243582487106322,-0.005191043019294739,0.03562736511230469,988.5712890625,0,13.0,1,1
3.32,0.064911306,-0.16078831,9.775136,-0.0003786070155911148,-0.0004920564242638649,0.00014618429122492668,-7.429375171661378,24.11858940124512,-38.27386474609375,0.004011332988739014,-5.835294723510742e-05,0.021434783935546875,988.5657348632812,0,13.0,1,1
3.36,0.09117997,-0.15125473,9.758564,0.00042053608922287816,0.0007063333760015666,0.0002794260508380831,-8.293365478515625,24.73187065124512,-38.17660903930664,-0.015072956681251524,-0.009626761078834534,0.03563880920410156,988.5506591796876,0,13.0,1,1
3.4,0.088769734,-0.15840410000000002,9.775132000000001,0.0006870475481264293,0.0005731435958296062,0.00027950989897362893,-7.9175148010253915,23.5031681060791,-37.700721740722656,-0.01499931514263153,-0.0048842281103134155,0.021436691284179688,988.58837890625,0,13.0,1,1
3.44,0.081579804,-0.16793673,9.770394999999999,2.1453306544572115e-05,0.0004399539320729673,0.0002795936889015138,-7.781585216522218,24.42096900939941,-38.31427001953125,-0.005616366863250732,0.009589165449142456,0.054584503173828125,988.5477294921876,0,13.0,1,1
3.48,0.074389815,-0.15363659,9.765659,-0.00037782482104375964,4.044838715344667e-05,0.0006791512714698911,-7.412228107452393,23.66058921813965,-38.32669067382813,-0.0004577413201332092,-0.018925473093986508,0.04511451721191406,988.5452270507812,0,13.0,1,1
3.52,0.07675943,-0.16078581,9.760923,0.00015500240260735154,-9.274127660319208e-05,0.0005460771499201655,-8.079012870788574,23.98442268371582,-38.24288940429688,0.004082880914211272,0.00022460520267486567,0.0451202392578125,988.5654296875,0,13.0,1,1
3.56,0.074349225,-0.16078533,9.768023,0.0008209874504245818,4.038488259539008e-05,-0.0003859446733258665,-7.735360145568848,24.51717185974121,-38.71194458007813,0.008742071688175201,0.00021442770957946775,0.04512310028076172,988.5176391601562,0,13.0,1,1
3.6,0.079108745,-0.16078492,9.791692999999999,2.223550109192729e-05,0.0005729849799536169,-0.000519018794875592,-7.681257724761963,24.040616989135746,-37.9995346069336,0.00400707870721817,0.01493886113166809,0.0072574615478515625,988.5275268554688,0,13.0,1,1
3.64,0.07669854,-0.16793425,9.772753,0.0004219047841615975,-0.00022599445946980268,0.0005463284905999899,-7.570818901062013,24.03886985778809,-38.32438659667969,0.01322873681783676,0.01951935887336731,0.04986763000488281,988.5706176757812,0,13.0,1,1
3.68,0.083848,-0.15601738,9.777486,0.00028894218849018216,0.00017344759544357657,0.00028009639936499303,-7.311464309692383,24.01828575134277,-38.28616333007813,-0.000860460102558136,-0.0045072734355926505,0.026192665100097656,988.5198974609376,0,13.0,1,1
3.72,0.08143777,-0.16316672,9.744342999999999,2.3017462808638808e-05,-9.293173206970097e-05,0.00014710606774315238,-7.3721981048583975,24.857240676879886,-38.78780364990234,-0.01051432639360428,-0.009190171957015993,0.035666465759277344,988.5781860351562,0,13.0,1,1
3.76,0.06707811,-0.16078289,9.765646,0.00028952880529686814,-9.296351345255972e-05,0.00028034779825247824,-7.5367698669433585,24.12328910827637,-38.10362243652344,-0.005137309432029724,0.005148366093635559,0.04513263702392578,988.56005859375,0,13.0,1,1
3.8,0.07900733,-0.1512493,9.779848,0.0002897243830375373,-0.0012914165854454038,-0.0005185161135159434,-7.1256160736083975,23.560606002807614,-38.98088073730469,3.434717655181885e-06,-0.00881052017211914,0.04040336608886719,988.5623168945312,0,13.0,1,1
3.84,0.07181731,-0.14409895,9.765642,0.0005562359583564104,-0.0007588166627101599,-0.0011842220555990937,-7.4891600608825675,24.11504554748535,-37.87952041625977,4.552304744720459e-06,-0.0040048807859420785,0.049874305725097656,988.52685546875,0,13.0,1,1
3.88,0.07418695,-0.14648183,9.768007,-0.0005088322213850915,-0.0007588483858853579,1.42832868732512e-05,-7.697861671447754,24.13033103942871,-37.8482551574707,0.010032348334789276,-0.013321250677108765,0.05461025238037109,988.5672607421876,0,13.0,1,1
3.92,0.07177675,-0.15839763,9.777475,0.001089258585125208,-0.0004925642861053348,0.00014752504648640752,-7.718350410461426,23.9532527923584,-38.06568908691406,0.014774240553379059,-0.008447214961051941,0.04041194915771485,988.5674438476562,0,13.0,1,1
3.96,0.0765363,-0.16078039,9.77984,0.00042366451816633344,4.0035753045231104e-05,0.0001476088655181229,-7.852865219116211,24.14327049255371,-37.9021110534668,0.010127000510692595,0.005758270621299744,0.021472930908203125,988.5623779296876,0,13.0,1,1
4.0,0.07890588,-0.15839662,9.789307,2.4386157747358084e-05,-0.001158417435362935,-0.00038493919419124717,-7.455409526824951,23.567331314086914,-38.08362579345703,0.0057754218578338614,0.0058526843786239615,0.0167388916015625,988.5497436523438,0,13.0,1,1
4.04,0.0741058,-0.16316272,9.767999999999999,-0.00037489220267161727,-0.0008921332773752512,1.4618504792451859e-05,-7.369727611541747,24.016218185424805,-37.9691276550293,0.005614936351776123,0.015358388423919678,0.040413856506347656,988.5471801757812,0,13.0,1,1
4.08,0.08842492,-0.15362911,9.763264,0.00042425101855769753,0.001371519872918725,0.00014786020619794726,-7.43904972076416,24.47804069519043,-37.908485412597656,-0.013742335140705109,-0.003682896494865417,0.04515266418457031,988.5497436523438,0,13.0,1,1
4.12,0.06450561,-0.16077842,9.772732000000001,-0.00024134322302415967,0.0008388563874177635,0.00028110193670727307,-7.761096000671388,24.59805107116699,-38.09683227539063,0.010359711945056915,-0.01337289810180664,0.03568077087402344,988.5469360351562,0,13.0,1,1
4.16,0.07882476,-0.16316117,9.763261,-0.00010798982111737132,-0.0004927546833641827,-0.0005177619750611483,-7.2813005447387695,23.83591270446777,-38.43410873413086,0.005463913083076477,-0.0037194490432739258,0.030951499938964844,988.5672607421876,0,13.0,1,1
4.2,0.08896288,-0.15602560000000001,9.772782000000001,-0.00024095218395814302,-0.00022647056903224438,-0.00011820433428511024,-7.412228107452393,23.66058921813965,-38.32669067382813,-0.014348804950714113,0.010631635785102844,0.03563499450683594,988.5469360351562,0,13.0,1,1
4.24,0.08418691,-0.14887585,9.768049000000001,-0.00024363532429561022,0.00030659668846055865,-0.00011935416841879487,-7.368205547332764,24.017690658569336,-38.04643249511719,-0.009386539459228516,-0.003773495554924011,0.049834251403808594,988.5468139648438,0,13.0,1,1
4.28,0.06985128,-0.1488759,9.760946,0.0008187710191123188,0.000307060603518039,0.00027889510965906084,-7.783543109893799,23.68144416809082,-37.9627571105957,0.018951930105686188,-0.0034051239490509033,0.05457782745361328,988.5672607421876,0,13.0,1,1
4.32,0.08419451,-0.16079243,9.753845,0.00028610246954485774,-0.0006250391015782952,0.00014572142390534282,-7.683758735656737,23.66938591003418,-37.74647521972656,0.00484832376241684,0.001293480396270752,0.05457496643066406,988.5418701171876,0,13.0,1,1
4.36,0.07941854,-0.16555901,9.775152,-0.00011340779019519688,0.000839704240206629,-0.0005200839950703084,-7.441412925720215,24.21272087097168,-38.35449981689453,-0.00033089518547058105,0.010729774832725523,0.030902862548828125,988.5341796875,0,13.0,1,1
4.4,0.079422325,-0.1631759,9.782252,-0.00011344481026753785,0.00017392053268849852,1.253205118700862e-05,-7.238662242889403,24.29746437072754,-38.77562713623047,-2.9414892196655273e-05,0.015652313828468326,0.026169776916503903,988.5341796875,0,13.0,1,1
4.44,0.07942614,-0.16079272,9.763314999999999,1.967657590284944e-05,-0.000491863233037293,1.2516335118561985e-05,-7.783107280731201,24.419492721557614,-38.236961364746094,-4.691630601882935e-05,0.006011277437210083,0.040370941162109375,988.5640258789062,0,13.0,1,1
4.48,0.08659965,-0.15840949,9.756214,-0.00037983368383720517,-0.0003586993261706084,-0.0005201311432756484,-7.4167938232421875,23.656164169311523,-38.09477615356445,-0.014416940510272981,-0.008423551917076109,0.049836158752441406,988.5564575195312,0,13.0,1,1
4.52,0.07943374,-0.16079284,9.768051,0.00041907682316377764,0.00030709634302183986,0.0008114324882626535,-7.80457592010498,23.872655868530273,-38.27864074707031,0.00043297559022903437,0.005832239985466003,0.030893325805664062,988.569091796875,0,13.0,1,1
4.56,0.08421737,-0.15364315,9.763317,-0.00011359137715771794,-0.001290793064981699,0.0010777326533570886,-7.328366756439209,23.47586250305176,-38.55975341796875,0.0006684735417366028,-0.01800571382045746,0.04036140441894531,988.5338134765624,0,13.0,1,1
4.6,0.07466155,-0.16079308,9.770419,-0.00011359137715771794,-0.001290793064981699,0.0010777326533570886,-7.830311298370361,23.95353126525879,-37.66353225708008,-0.00414746254682541,0.015341565012931825,0.04509449005126953,988.5338134765624,0,13.0,1,1
4.64,0.08183503,-0.15126003,9.763317,1.949298894032836e-05,0.0007065879763104023,0.0006782273994758724,-7.426331520080566,24.12153434753418,-38.42847442626953,0.005591988563537598,-0.00848245620727539,0.049826622009277344,988.551513671875,0,13.0,1,1
4.68,0.084228784,-0.15602670000000002,9.768052,1.949298894032836e-05,0.0007065879763104023,0.0006782273994758724,-7.426331520080566,24.12153434753418,-38.42847442626953,0.005443811416625977,0.005594819784164429,0.04035568237304688,988.551513671875,0,13.0,1,1
4.72,0.07945278,-0.1536435,9.784622,3.5870703868567944e-05,-0.0003978433087468147,-0.00032646791078150267,-7.162846565246582,23.36732292175293,-38.347957611083984,0.0005418732762336731,-0.008801162242889404,0.026151657104492188,988.5667114257812,0,13.0,1,1
4.76,0.07945663,-0.16794325,9.768053,-0.0008962714346125723,0.0006674262112937868,-0.0005927993915975094,-7.810120582580566,23.49847221374512,-37.8709716796875,-0.004491895437240601,-0.0040125399827957145,0.04035758972167969,988.5564575195312,0,13.0,1,1
4.8,0.07468057,-0.15841027,9.772787,0.00030211301054805517,0.0002679583267308772,0.0003392903308849782,-7.827129364013673,24.06239128112793,-38.51721954345703,0.004668794572353363,0.005553498864173889,0.026157379150390625,988.5717163085938,0,13.0,1,1
4.84,0.09141374,-0.17509331,9.775153999999999,-0.0003637132467702031,0.000933753966819495,-0.0009923047618940473,-7.5777482986450195,23.76912498474121,-38.53848648071289,-0.009608060121536257,0.015223845839500429,0.02615833282470703,988.5640258789062,0,13.0,1,1
4.88,0.07229829,-0.1607937,9.775155999999999,0.0005683556664735079,1.6543490346521141e-06,-0.00032653077505528927,-7.15439510345459,23.638532638549805,-38.21116638183594,0.00915093719959259,-0.003984317183494568,0.03562736511230469,988.5537109375,0,13.0,1,1
4.92,0.081861734,-0.14649410000000002,9.770422,0.0004351609386503696,0.0008006079006008804,0.0006055590929463506,-7.631147384643555,24.40361595153809,-38.02849578857422,-0.005449265241622925,-0.018723994493484497,0.04035568237304688,988.5411376953124,0,13.0,1,1
4.96,0.0770857,-0.16079392,9.770422,-0.000896455137990415,0.0009337718947790564,-6.0246326029300696e-05,-7.591989040374756,24.12415885925293,-37.94119262695313,-0.015019595623016356,0.004853487014770508,0.035617828369140625,988.5639038085938,0,13.0,1,1
5.0,0.07708952,-0.160794,9.768055,-0.0008964915759861469,1.6722187865525484e-06,-6.0262042097747326e-05,-7.760010719299316,23.86147117614746,-37.89993286132813,0.008796341717243195,0.009601920843124391,0.03561687469482422,988.5589599609376,0,13.0,1,1
5.04,0.08904284,-0.15126099,9.765688,-0.000363896950148046,0.00013483609654940665,-0.00045975169632583857,-7.791558265686035,24.148283004760746,-38.373756408691406,-0.02002609521150589,-0.014537677168846132,0.04508209228515625,988.5588989257812,0,13.0,1,1
5.08,0.07231736,-0.15602763,9.765688,-0.00023081200197339058,1.6900594346225262e-06,0.00047232248471118515,-7.55160665512085,23.21404457092285,-38.35607147216797,0.013500809669494629,-0.00513756275177002,0.04507923126220703,988.535888671875,0,13.0,1,1
5.12,0.084270656,-0.1655608,9.768056,-0.00036400696262717247,0.0002680119941942394,-0.0005929567851126193,-7.827267646789551,23.95647621154785,-37.81814193725586,-0.015184789896011353,-0.0052157193422317505,0.0403432846069336,988.5533447265624,0,13.0,1,1
5.16,0.08427447,-0.15602784,9.777525,0.00030174630228430033,0.0004011757555417717,-0.0001934986794367433,-7.524731636047362,24.02915382385254,-38.022987365722656,-0.010251060128211977,-0.010054051876068115,0.049808502197265625,988.53857421875,0,13.0,1,1
5.2,0.081055045,-0.15362419,9.763247,-0.0006303961854428053,-0.0006640817737206818,-0.0007261461578309536,-7.420680046081543,23.38937950134277,-38.46348571777344,-0.009849883615970613,0.004166334867477417,0.04041862487792969,988.5431518554688,0,13.0,1,1
5.24,0.07146627,-0.15839006,9.772713000000001,-0.0006280260276980697,0.00026942091062664986,-0.0001877036993391812,-7.626336097717285,23.40760612487793,-38.586830139160156,0.004813395440578461,0.008856579661369324,0.04041767120361328,988.5533447265624,0,13.0,1,1
5.28,0.08338657,-0.14885624,9.770342999999999,-0.00022729678312316537,-0.00013025665248278528,-0.00032032351009547716,-7.56516695022583,23.30670738220215,-38.3593978881836,0.00040907412767410284,-0.0058085769414901725,0.04514503479003906,988.5481567382812,0,13.0,1,1
5.32,0.08574730000000001,-0.14647223,9.77034,-0.00022701564012095327,2.8556678444147114e-06,-0.000719676841981709,-7.3214378356933585,23.74560356140137,-38.34565734863281,-0.004141032695770264,-0.0010357648134231567,0.03567695617675781,988.5609130859376,0,13.0,1,1
5.36,0.06898886,-0.13932170000000002,9.763235,-9.357644012197852e-05,-0.0006629797862842679,7.939129136502743e-05,-7.422744750976562,23.756193161010746,-38.4846305847168,0.009961791336536407,-0.015368402004241943,0.05461978912353516,988.5283203125,0,13.0,1,1
5.4,0.06895962,-0.1583872,9.779803,-9.329518070444465e-05,0.0001359222806058824,-0.0007194358622655272,-7.644462585449219,23.49584770202637,-38.35824966430664,0.019363723695278168,-0.005787760019302368,0.030951499938964844,988.5507202148438,0,13.0,1,1
5.44,0.07849008,-0.15838648,9.765597,-0.0010251197963953018,0.0009348243474960328,-0.00018668355187401173,-8.011754989624022,23.8894100189209,-38.32468032836914,0.004938602447509766,-0.006142675876617432,0.030950546264648438,988.558349609375,0,13.0,1,1
5.48,0.08085084,-0.16315235,9.7703285,-0.0004922068328596653,-0.00026364278164692223,-0.0003197209443897009,-7.8940887451171875,24.78953742980957,-38.01055908203125,-1.0699033737182615e-05,-0.01583591103553772,0.035686492919921875,988.5380249023438,0,13.0,1,1
5.52,0.08082163,-0.1631516,9.782163,-0.00022560957586392758,2.627377398312092e-06,-0.0001864426303654909,-8.00452709197998,24.79128837585449,-37.685707092285156,0.00034902989864349365,0.003169521689414978,0.02148151397705078,988.545654296875,0,13.0,1,1
5.56,0.08079249,-0.16791736,9.763222,-0.0003584863734431565,-0.0001305761543335393,0.00021315176854841408,-7.655223369598389,24.59187889099121,-38.18976974487305,-0.0043253451585769645,0.007969290018081665,0.02621936798095703,988.5608520507812,0,13.0,1,1
5.6,0.085543126,-0.1583835,9.760850999999999,4.126847488805652e-05,-0.0003969376848544926,-0.00018620153423398733,-7.5738630294799805,24.03592109680176,-38.169776916503906,-0.009044140577316284,-0.0015689581632614136,0.05462837219238281,988.5631713867188,0,13.0,1,1
5.64,0.090293705,-0.16553266,9.77742,-0.0003579240874387324,-0.0003969833487644792,-0.000718712923116982,-7.59351110458374,24.122690200805664,-37.86388778686523,-0.012988276779651642,0.0027677863836288448,0.030945777893066406,988.54052734375,0,13.0,1,1
5.68,0.07831505,-0.16553195,9.760847,-0.0003576428280211985,-0.0013291345676407216,8.035532664507627e-05,-7.432419300079347,24.11564445495605,-38.11925506591797,-0.0034275725483894352,0.002660349011421204,0.059352874755859375,988.5481567382812,0,13.0,1,1
5.72,0.07350606,-0.14646502,9.765578,-9.10456874407828e-05,-0.00026391673600301147,-0.00031899794703349466,-7.429811477661133,23.38053703308105,-37.999656677246094,0.0015167370438575745,-0.01156260073184967,0.030948638916015625,988.5430908203124,0,13.0,1,1
5.76,0.07586676,-0.15123086,9.772677999999999,0.0005750250420533121,-0.00013080440112389624,0.0006132281851023437,-7.433940887451173,24.114171981811523,-38.04194641113281,0.006381399929523468,-0.006401374936103821,0.026223182678222656,988.5303344726562,0,13.0,1,1
5.8,0.07822752,-0.14884688,9.7632065,0.0005753063014708459,2.307875547558069e-06,-5.244108615443111e-05,-7.062082767486572,23.72501945495605,-38.30743408203125,0.001569405198097229,-0.010827913880348206,0.04516887664794922,988.5582275390624,0,13.0,1,1
5.84,0.07341856,-0.15599598,9.763203,-0.00022336008260026571,-0.0009298432851210237,8.083746070042254e-05,-7.557259082794189,23.94621086120605,-38.32105255126953,0.006352819502353668,-0.001619681715965271,0.04990196228027344,988.54052734375,0,13.0,1,1
5.88,0.07816923,-0.153612,9.779772,-0.00022307905601337555,0.0001353745756205171,-0.00018535798881202936,-7.518101215362549,23.666757583618164,-38.23374938964844,0.0017419010400772095,-0.0109817236661911,0.03096771240234375,988.5709228515624,0,13.0,1,1
5.92,0.06619054,-0.14884476,9.7703,0.00030983384931460023,0.00013532888260670004,8.107838220894337e-05,-7.409184455871582,23.66353416442871,-38.481300354003906,0.01590219885110855,-0.011196613311767578,0.03570365905761719,988.5731811523438,0,13.0,1,1
5.96,0.078110814,-0.16791023,9.767928999999999,0.00030983384931460023,0.00013532888260670004,8.107838220894337e-05,-7.526115894317628,24.13359642028809,-38.64475631713867,-0.0034716427326202393,0.007999017834663391,0.04044532775878906,988.5731811523438,0,13.0,1,1
6.0,0.08286148,-0.17029281,9.767927,-0.0007551482995040715,0.0009342309786006806,-0.0004514328902587295,-7.6231322288513175,23.936769485473636,-37.61749267578125,0.0012671947479248047,0.02687427401542664,0.03571128845214844,988.5529174804688,0,13.0,1,1
6.04,0.085222185,-0.1559924,9.775025999999999,0.00017723842756822705,0.0005347114056348801,-5.183846224099398e-05,-7.652477741241455,23.962690353393555,-38.76924896240234,-0.00805220752954483,-0.001950681209564209,0.03570842742919922,988.5706787109376,0,13.0,1,1
6.08,0.07085359,-0.16314153,9.767921000000001,-0.00048827013233676553,2.034008502960205e-06,-0.0008506654994562267,-7.704653263092041,23.96651268005371,-38.76143646240234,0.01583612710237503,-0.0017033964395523071,0.04044914245605469,988.5453491210938,0,13.0,1,1
6.12,0.06843454,-0.14645793,9.7655525,0.00031095888698473573,-0.00026432750746607786,0.0004810343380086124,-7.899388790130615,23.41493034362793,-37.92930603027344,0.006231576204299928,-0.01121370494365692,0.04045295715332031,988.5654907226562,0,13.0,1,1
6.16,0.08074987,-0.16553308,9.767952000000001,0.0007107137353159487,-0.0003975311410613358,8.168094791471958e-05,-7.461359977722168,23.66735649108887,-38.473480224609375,-0.003167800605297089,0.007910937070846558,0.02625274658203125,988.560302734375,0,13.0,1,1
6.2,0.07874966,-0.16077615,9.767988,-0.0003542685299180448,0.00013505498645827174,-5.1356502808630466e-05,-7.652615547180176,23.85677146911621,-38.07017517089844,-0.004234813153743744,0.017177894711494446,0.04511642456054688,988.5579223632812,0,13.0,1,1
6.24,0.07636225,-0.16792594,9.779824000000001,-0.0005537550314329566,0.0007475350284948945,0.00012699305079877377,-7.639598846435548,24.13240623474121,-38.16529083251953,-0.004734240472316742,0.007790938019752502,0.01671600341796875,988.5399780273438,0,13.0,1,1
6.28,0.076364815,-0.1631595,9.770355,-0.0005537550314329566,0.0007475350284948945,0.00012699305079877377,-7.639598846435548,24.13240623474121,-38.16529083251953,-0.00013336539268493652,-0.001533299684524536,0.045126914978027344,988.5399780273438,0,13.0,1,1
6.32,0.07636732,-0.14647658,9.760887,0.0006446419865824282,0.000481222989037633,-0.0005388071294873953,-7.112055778503418,23.46794319152832,-38.97754669189453,8.393824100494385e-05,-0.029659122228622437,0.04513263702392578,988.530029296875,0,13.0,1,1
6.36,0.07875979,-0.15362652,9.772724,0.0014435648918151855,8.175324182957411e-05,0.0003932879772037268,-7.6980223655700675,23.60411262512207,-38.972206115722656,0.0001398921012878418,-0.0009219646453857422,0.030931472778320312,988.5576782226562,0,13.0,1,1
6.4,0.0811522,-0.15362658,9.775091,0.00024511927040293813,-0.00031771668000146747,0.0005264354404062033,-7.692317008972168,24.50451469421387,-38.25592803955078,0.004979126155376434,-0.010353907942771913,0.030931472778320312,988.575439453125,0,13.0,1,1
6.44,0.08354467,-0.16077645,9.763255000000001,0.00011191220255568624,-0.0005840246449224651,0.000393256574170664,-7.720553398132324,24.21415138244629,-37.38775634765625,-0.014351405203342438,0.009001970291137695,0.03567314147949219,988.5371704101562,0,13.0,1,1
6.48,0.07637751,-0.1631598,9.76799,0.0006445197504945098,0.0006144008366391063,0.00012693018652498722,-7.910586357116699,23.77290916442871,-37.48662567138672,-7.903575897216797e-05,-0.0006400793790817262,0.03567218780517578,988.5399780273438,0,13.0,1,1
6.52,0.06682041,-0.1488602,9.756153999999999,0.00011186330812051892,0.00021493103122338653,-0.0008051858749240638,-7.718894004821777,24.321542739868164,-38.16413879394531,0.01904701441526413,-0.005375728011131287,0.04514026641845703,988.5402221679688,0,13.0,1,1
6.56,0.08594215,-0.15839334,9.760889,-0.00015447690384462476,0.00021493498934432864,-0.00013940664939582348,-7.62008810043335,23.93971824645996,-37.77210235595703,-0.0007009506225585938,0.004333510994911194,0.035678863525390625,988.5399780273438,0,13.0,1,1
6.6,0.07877499,-0.16554327,9.765623,-0.0001545012346468866,0.0010138865327462554,0.0003932146064471453,-7.65704345703125,23.95826911926269,-38.53733444213867,0.004448190331459045,0.008705109357833862,0.05460739135742188,988.5324096679688,0,13.0,1,1
6.64,0.08355731,-0.16077675,9.784561,-0.0005539997364394367,-0.0003176888858433813,-6.269721779972315e-06,-7.7309322357177725,24.41567802429199,-38.24477767944336,-0.00994979590177536,0.00856362283229828,0.01673126220703125,988.5374145507812,0,13.0,1,1
6.68,0.07639015,-0.16077681,9.772725999999999,-0.00028770818607881665,-0.00018452692893333733,-0.00013943802332505584,-8.019227027893066,23.987966537475586,-38.6372299194336,-0.005169034004211426,-0.0007602125406265259,0.04987335205078125,988.5425415039062,0,13.0,1,1
6.72,0.07878265,-0.15124379,9.765624,0.0007775310077704488,-0.0005839968216605483,-6.29061833024025e-06,-7.827810287475586,24.324766159057614,-37.91659164428711,0.004895627498626709,0.004022613167762756,0.040401458740234375,988.53955078125,0,13.0,1,1
6.76,0.08356497,-0.14171077,9.772725999999999,0.0003780326223932207,-0.0005839928635396062,0.0007926465477794409,-7.796124458312987,24.14386558532715,-38.14184188842773,-0.0046226754784584045,-0.019447162747383118,0.026203155517578125,988.5497436523438,0,13.0,1,1
6.8,0.066838175,-0.14409415,9.756155,-0.0002877815277315676,-5.1357113989070065e-05,0.00026000430807471275,-7.742725372314452,23.509382247924805,-38.65183639526367,0.004855819046497345,-0.014659792184829712,0.059346199035644524,988.5347900390624,0,13.0,1,1
6.84,0.06684074,-0.16077705,9.775094000000001,-0.00015464815078303218,0.00021496281260624528,-0.0008052698103711009,-7.410162925720215,23.29376792907715,-38.3055419921875,0.01942924410104752,-0.0004849731922149658,0.03566741943359375,988.5372314453124,0,13.0,1,1
6.88,0.07162303,-0.15601064,9.763258,0.0003779592807404697,-0.0016492444556206465,-0.0014710697578266265,-7.734954357147218,24.04296684265137,-37.91441345214844,0.010064579546451569,0.004671484231948853,0.04987621307373047,988.5447387695312,0,13.0,1,1
6.92,0.076405406,-0.16792701,9.763258,0.0003779348335228861,0.00021497072884812948,-0.0012047645868733525,-7.502039432525635,23.94533348083496,-38.48347854614258,-0.00435977429151535,0.009321644902229307,0.05460929870605469,988.5498046875,0,13.0,1,1
6.96,0.07640794,-0.16554387,9.770359,-0.00028787943301722413,-0.000317657133564353,-6.353540811687708e-06,-7.235212802886963,23.82620048522949,-38.13270568847656,0.010312452912330627,0.023303881287574768,0.04039764404296875,988.5548706054688,0,13.0,1,1
7.0,0.08119026,-0.14886092,9.772728,-0.00015474593965336683,-0.0007171269389800727,0.00025995192117989063,-7.246272087097168,24.290098190307614,-38.38909912109375,-0.003828786313533783,-0.019418716430664062,0.04513263702392578,988.5475463867188,0,13.0,1,1
7.04,0.08119282,-0.16316070000000002,9.765626,0.0003778616082854569,0.0006144564249552786,0.00025994138559326535,-7.483508110046388,23.38288307189941,-37.91453552246094,0.0004891306161880493,0.0094071626663208,0.05460929870605469,988.51708984375,0,13.0,1,1
7.08,0.07402560000000001,-0.15362759,9.767992999999999,-0.00028795277466997504,-0.0001844872604124248,0.00012677302584052086,-7.587423324584961,24.12858009338379,-38.17311096191406,0.00031404197216033936,-0.009647876024246216,0.04040718078613281,988.5498046875,0,13.0,1,1
7.12,0.07880798,-0.16316082,9.765626,0.0006441283621825278,0.0007476222235709429,0.00025992048904299736,-7.080208778381348,23.81326103210449,-38.07884979248047,0.00987919420003891,0.004789993166923523,0.040409088134765625,988.5244140625,0,13.0,1,1
7.16,0.07651597,-0.15363010000000002,9.7680025,0.0011767356190830471,0.00021499453578144312,0.000526225776411593,-7.498697757720947,24.58041572570801,-38.21321868896485,-0.004710495471954346,-0.009296566247940063,0.02620220184326172,988.5497436523438,0,13.0,1,1
7.2,0.08369204400000001,-0.16316338,9.7703705,-0.0008212295942939818,-0.0005838564247824253,0.00012649653945118192,-7.974661827087402,23.97678184509277,-38.258522033691406,0.00042924284934997564,6.458163261413574e-05,0.04039859771728516,988.5369873046876,0,13.0,1,1
7.24,0.07891857599999999,-0.17746316,9.763269000000001,0.00011047866428270935,0.0006146296509541571,0.0001263263402506709,-6.977135181427003,22.803720474243164,-38.343597412109375,-0.009222567081451416,0.01892876625061035,0.0498647689819336,988.5598754882812,0,13.0,1,1
7.28,0.0908744,-0.16078039,9.763269000000001,-0.0001558982185088098,-0.0009832556825131178,0.00012630003038793802,-7.802212238311768,24.137975692749023,-37.83262252807617,-0.018210791051387787,0.0046021491289138785,0.04985904693603516,988.55224609375,0,13.0,1,1
7.32,0.07415146,-0.15601401,9.777472999999999,0.00024351448519155386,-0.0007169299642555416,-0.00014004192780703306,-8.149856567382812,24.44477653503418,-38.104942321777344,0.005486346781253815,-0.009470507502555849,0.030925750732421875,988.534423828125,0,13.0,1,1
7.36,0.0813275,-0.15601413,9.779841000000001,0.00024351448519155386,-0.0007169299642555416,-0.00014004192780703306,-7.685823440551758,24.03619956970215,-37.767616271972656,-0.008507438004016876,-0.009360715746879578,0.02145481109619141,988.534423828125,0,13.0,1,1
7.4,0.06460449,-0.16316412,9.775107,0.00037661130772903567,-0.0007169200689531863,0.00012624770170077684,-7.645005226135254,23.86413764953613,-38.45669555664063,0.010684281587600708,0.009862437844276428,0.02619171142578125,988.5369873046876,0,13.0,1,1
7.44,0.08850992,-0.16316429999999998,9.768006,0.0005097082466818391,-5.112041253596544e-05,-0.0006727260770276189,-7.718351364135742,23.9532527923584,-38.06568908691406,-0.003899537026882172,0.0004722028970718384,0.045131683349609375,988.5346069335938,0,13.0,1,1
7.48,0.076566756,-0.16793098,9.758539,0.0003764890716411173,0.00021520536392927167,0.000392511225072667,-7.613457679748535,23.577322006225586,-37.982872009277344,0.010672703385353087,0.019650563597679138,0.05459976196289063,988.5620727539062,0,13.0,1,1
7.52,0.08135295,-0.15601481,9.770374,0.00037642772076651454,8.205737685784699e-05,0.00012616906315088272,-8.038331985473633,23.70644187927246,-38.23289108276367,0.005905650556087494,-0.018547147512435917,0.03566169738769531,988.5444946289062,0,13.0,1,1
7.56,0.09808856,-0.17031462,9.770375999999999,-2.310745185241103e-05,-0.0005837223143316804,0.0005256165750324726,-7.693295478820801,24.134748458862305,-38.080169677734375,-0.022879503667354584,0.02422727644443512,0.03092479705810547,988.5547485351562,0,13.0,1,1
7.6,0.07658577,-0.14886524,9.770375999999999,0.00037630536826327443,0.0006147090462036432,-0.0009391469648107886,-7.869331836700439,24.33889579772949,-38.44990921020508,-0.003061942756175995,-0.019055798649787903,0.03564643859863281,988.53955078125,0,13.0,1,1
7.64,0.059862792000000005,-0.1440989,9.768009,-0.0008221773314289749,-0.0007168604643084109,0.00039240627666003997,-7.934524059295653,24.06709098815918,-38.34697341918945,0.026007577776908875,-0.01441819965839386,0.04984474182128906,988.5319213867188,0,13.0,1,1
7.68,0.07898837,-0.15601535,9.753807,-0.0006890803924761713,-0.001648956211283803,0.00012606417294591665,-7.413313865661621,24.39716911315918,-38.52359008789063,0.002641670405864716,-0.005749121308326721,0.05455875396728516,988.5546264648438,0,13.0,1,1
7.72,0.0813846,-0.16554864,9.770378,-0.001621247036382556,-0.0005836826749145986,-0.0006729095475748181,-7.7117204666137695,23.590856552124023,-38.276458740234375,-0.002111621201038361,0.01356080174446106,0.0403594970703125,988.5570068359376,0,13.0,1,1
7.76,0.07661116,-0.15601568,9.772745,-0.001025086734443903,-0.0017993546789512038,-0.00026611099019646645,-8.028358459472656,23.97912788391113,-38.17340087890625,0.007815822958946228,-0.014871656894683838,0.02615451812744141,988.554443359375,0,13.0,1,1
7.8,0.09095687,-0.16554894,9.777481,4.005455411970616e-05,-0.0010003870120272038,-0.0013314271345734596,-7.919442653656006,23.97590446472168,-38.42094802856445,0.008503220975399017,0.008926838636398315,0.04035091400146485,988.5667724609376,0,13.0,1,1
7.84,0.112472355,-0.17269899,9.765646,3.999355249106884e-05,-0.0013998510548844936,-0.0005325054517015816,-7.350921154022218,23.66560173034668,-38.79833984375,-0.024361945688724518,0.004047304391860962,0.04034423828125,988.5845947265624,0,13.0,1,1
7.88,0.08140993,-0.15363283,9.760911,0.00043940625619143253,-0.0008672092808410525,-0.001331479288637638,-7.8934082984924325,24.52716636657715,-38.61118698120117,0.0044284090399742135,-0.005258366465568543,0.059283256530761726,988.5519409179688,0,13.0,1,1
7.92,0.08858597,-0.16316615,9.777483,0.0005725030787289143,0.0011301697231829164,-0.0005325577221810819,-8.153741836547853,24.177980422973636,-38.4736557006836,-0.014991194009780884,-0.00045405328273773193,0.03087902069091797,988.5366821289062,0,13.0,1,1
7.96,0.07425293,-0.15839978,9.775116,-9.334762580692768e-05,6.491616659332067e-05,-0.0002662681508809328,-7.557258605957031,23.94620704650879,-38.32105255126953,0.01350000500679016,-0.0004201382398605346,0.03088092803955078,988.567138671875,0,13.0,1,1
8.0,0.0790391,-0.16554971,9.758546,0.0001729070208966732,0.0004643998690880835,0.00039949547499418264,-7.37817907333374,23.74500846862793,-38.10592651367188,0.013312749564647676,0.013904467225074768,0.05928897857666016,988.5697631835938,0,13.0,1,1
8.04,0.08382523,-0.16554989,9.758547,0.0003060039598494768,0.0005975677049718798,0.00039946928154677147,-7.629923343658447,23.77294731140137,-38.530670166015625,-0.0012527406215667725,0.0042104870080947885,0.049818992614746094,988.551513671875,0,13.0,1,1
8.08,0.08144169999999999,-0.15840025,9.758547,-0.0003598468611016869,0.0005975776584818959,0.0002662851475179196,-7.656064987182617,24.32803153991699,-38.71309280395508,-0.006039626896381378,0.004132196307182312,0.04034709930419922,988.5597534179688,0,13.0,1,1
8.12,0.06916946,-0.14647596,9.777455,0.000305881374515593,0.0001981138630071655,-0.0006658468628302218,-7.859794616699219,23.87353324890137,-38.11621475219727,0.007906951010227203,-0.0146520733833313,0.026151657104492188,988.56689453125,0,13.0,1,1
8.16,0.08794594,-0.17268361,9.779791000000001,-0.0006262855604290963,0.0004644396249204874,-0.0005327151156961918,-7.476441860198975,23.75854301452637,-38.399505615234375,-0.005715504288673401,0.013565734028816223,0.02620697021484375,988.5318603515624,0,13.0,1,1
8.2,0.09031558,-0.17029972,9.765586,0.0001764208427630365,-0.0002025516441790387,0.00013657665112987158,-7.8005523681640625,24.245363235473636,-38.60900497436523,-0.01034662127494812,0.028130710124969482,0.03568077087402344,988.55908203125,0,13.0,1,1
8.24,0.08312553,-0.17029925,9.770318,-8.969934424385428e-05,6.373247015289962e-05,-0.0002628133515827358,-7.290294647216798,23.9329891204834,-38.66935729980469,-0.0010412856936454773,-0.005459323525428772,0.04041671752929688,988.5468139648438,0,13.0,1,1
8.28,0.07832545,-0.15838237,9.760847,-8.950388291850686e-05,6.370074697770178e-05,0.0006693759933114053,-7.437091827392577,25.217565536499023,-38.25999450683594,-0.0009851902723312378,0.003943577408790588,0.04041576385498047,988.5597534179688,0,13.0,1,1
8.32,0.07591528,-0.15599863,9.786885,-8.930830517783761e-05,0.00019682696438394487,0.00013682810822501779,-7.6703057289123535,24.68306541442871,-38.11579895019531,0.02298272401094437,-0.005542144179344177,0.016744613647460938,988.5242919921876,0,13.0,1,1
8.36,0.0806748,-0.1512316,9.756109,0.00017720327014103532,-0.00020267865329515192,-0.0005288778920657934,-7.444457054138184,24.209775924682614,-38.19989013671875,0.003562293946743012,-0.0055101215839385995,0.04989147186279297,988.549560546875,0,13.0,1,1
8.4,0.09738383,-0.1655307,9.763208,-8.891703328117728e-05,0.0012620269553735852,-0.0005287939566187562,-7.239779472351074,23.8217830657959,-37.900787353515625,-0.011378206312656404,0.008912473917007445,0.054635047912597656,988.5291137695312,0,13.0,1,1
8.44,0.08302414400000001,-0.16553022,9.775043499999999,0.00031075213337317115,0.0011288373498246074,-0.0003955521970055997,-7.854387283325195,24.14179801940918,-37.824806213378906,-0.0018612667918205261,0.00904865562915802,0.040435791015625,988.5343627929688,0,13.0,1,1
8.48,0.08300382,-0.14884682,9.7561035,0.000577263708692044,0.0005961738061159849,-0.0001291524968110025,-7.467990398406982,24.02975273132324,-38.26271438598633,-0.0020139217376708984,-0.00037705898284912115,0.05937862396240234,988.5565795898438,0,13.0,1,1
8.52,0.071034014,-0.14884634,9.767939,0.0007106172270141543,0.0007292999653145671,0.0009361947886645793,-7.480028629302978,24.123884201049805,-38.343353271484375,0.021396160125732425,-0.004692643880844115,0.030984878540039062,988.524169921875,0,13.0,1,1
8.56,0.07818344,-0.15837894,9.765569000000001,0.00044449704000726337,0.001261899946257472,0.0013357524294406176,-7.534566879272461,23.86238670349121,-38.781551361083984,0.011586427688598631,0.00012305378913879397,0.03572559356689453,988.541748046875,0,13.0,1,1
8.6,0.09250259400000001,-0.16791148,9.772669,0.00031153456075116987,0.00046292055048979813,0.0006700466037727892,-7.525573253631593,23.76530647277832,-38.546302795410156,-0.008075334131717682,0.00979958474636078,0.04046821594238281,988.5394287109376,0,13.0,1,1
8.64,0.09248227,-0.17267756,9.753729,0.0008443617844022809,0.0015281523810699582,0.0001374985440634191,-7.2972235679626465,23.66325187683105,-38.88345718383789,-0.017857715487480164,0.028925314545631412,0.054676055908203125,988.5287475585938,0,13.0,1,1
8.68,0.08768219,-0.16791053,9.772665,0.00017876765923574567,0.00019654122297652063,0.00080337212421,-7.5452208518981925,23.85207557678223,-38.24041748046875,-0.003759831190109253,0.010103389620780943,0.04521465301513672,988.54638671875,0,13.0,1,1
8.72,0.0804922,-0.15599366,9.760826,0.00017876765923574567,0.00019654122297652063,0.00080337212421,-7.558781147003174,23.944734573364254,-38.243751525878906,-0.013833589851856232,0.0006052702665328981,0.03575420379638672,988.54638671875,0,13.0,1,1
8.76,0.07330221,-0.13454370000000002,9.772661,4.600099055096507e-05,0.0007291095098480582,0.0008035397622734307,-7.900475025177003,24.15151023864746,-38.1262092590332,0.009495541453361513,-0.02785730361938477,0.031027793884277344,988.55908203125,0,13.0,1,1
8.8,0.08284151599999999,-0.13692646,9.767925,4.600099055096507e-05,0.0007291095098480582,0.0008035397622734307,-7.900475025177003,24.15151023864746,-38.1262092590332,-0.004856258630752564,-0.0277433842420578,0.04523468017578125,988.55908203125,0,13.0,1,1
8.84,0.08521116,-0.16552521,9.77029,4.639202961698175e-05,-0.00033621751936152583,-0.00012839824194088578,-7.614542961120605,24.31390190124512,-38.179771423339844,-0.004680290818214417,0.01980125904083252,0.04050064086914063,988.5388793945312,0,13.0,1,1
8.88,0.08997065,-0.14884181,9.763186,4.639202961698175e-05,-0.00033621751936152583,-0.00012839824194088578,-7.614542961120605,24.31390190124512,-38.179771423339844,-0.004483751952648164,-0.0229988694190979,0.04996967315673828,988.5388793945312,0,13.0,1,1
8.92,0.08278066,-0.15122463,9.763185499999999,-0.00021972839022055268,0.00019638243247754872,0.0006706332787871362,-7.763895511627197,23.59467887878418,-38.268638610839844,-0.004844717681407929,-0.008411586284637451,0.02157115936279297,988.5390014648438,0,13.0,1,1
8.96,0.08515024,-0.15122415,9.767919000000001,0.0008457307121716441,-6.996517186053097e-05,4.9273367039859295e-06,-8.257250785827638,24.4494686126709,-37.93470001220703,-0.00026420503854751587,-0.0036641210317611694,0.04524803161621094,988.5413818359376,0,13.0,1,1
9.0,0.087519884,-0.16790654,9.760815,0.00031329464400187135,0.0007289507193490863,5.0111557357013226e-06,-7.873354911804199,23.9661922454834,-38.119544982910156,-0.009704165160655977,0.015660732984542847,0.04998779296875,988.546630859375,0,13.0,1,1
9.04,0.07316017,-0.16313948,9.765547,-8.5983716417104e-05,0.0005957611138001084,0.00013825291534885764,-7.572340965270996,24.03739356994629,-38.2470817565918,0.00957109034061432,0.0011417120695114136,0.040515899658203125,988.5617065429688,0,13.0,1,1
9.08,0.0898692,-0.13930623,9.765545,0.0004468435072340071,0.00019625548156909645,5.178910214453936e-06,-7.687207698822021,24.14063835144043,-38.3893928527832,-0.009683839976787569,-0.017837122082710266,0.04525470733642578,988.5516357421876,0,13.0,1,1
9.12,0.077804446,-0.1607529,9.77737,0.0004472347791306675,0.0008619817672297359,0.0002716623130254448,-7.639055252075195,23.76411247253418,-38.06684112548828,-0.0049706175923347464,-0.003253385424613953,0.04527187347412109,988.5292358398438,0,13.0,1,1
9.16,0.08495003,-0.16075231,9.756063000000001,-0.00075053476030007,0.00019608609727583823,0.00027194165159016853,-7.796124458312987,24.14386558532715,-38.14184188842773,-0.00930970162153244,0.010788410902023315,0.04053211212158203,988.5414428710938,0,13.0,1,1
9.2,0.08253604,-0.15598519,9.753695,0.0004446089733392,0.00032888830173760647,-0.0003924136981368065,-7.586742401123048,23.86620903015137,-38.77373504638672,-0.004779122769832611,0.010865211486816406,0.05474090576171875,988.5311889648438,0,13.0,1,1
9.24,0.077732146,-0.14883478,9.763161,-0.0007576787611469626,6.907235365360975e-05,-0.0005579963326454163,-7.530681610107423,24.12917900085449,-38.41283798217773,-0.009675823152065277,-0.013356626033782959,0.04526996612548828,988.5693359375,0,13.0,1,1
9.28,0.07053834,-0.16313381,9.765526,-0.0002248145174235105,0.00020219251746311784,0.00024105096235871318,-7.2216529846191415,23.73354148864746,-38.129371643066406,0.014313884079456331,0.005451902747154236,0.04053211212158203,988.5640258789062,0,13.0,1,1
9.32,0.07529402,-0.16074996,9.758421,4.173372872173786e-05,-0.0015288983704522252,-0.00015832320787012574,-7.591446399688722,23.75587272644043,-37.84274291992188,0.0004492178559303284,-0.0039144307374954215,0.04053401947021485,988.538818359375,0,13.0,1,1
9.36,0.08243966,-0.16074939,9.772623,-0.00022434990387409923,6.895919796079397e-05,-0.0008240133756771684,-7.838326454162598,24.42037010192871,-38.07453918457031,-0.008833207190036774,0.014986082911491394,0.035796165466308594,988.5564575195312,0,13.0,1,1
9.4,0.08480543,-0.15121569,9.774987,-0.0002241174224764109,-0.00046371031203307217,-2.496608067303896e-05,-7.790036201477051,24.149755477905273,-38.4510612487793,-0.013578355312347412,-0.003819167613983153,0.04053783416748047,988.5364379882812,0,13.0,1,1
9.44,0.07283181,-0.15359832,9.751314,0.001107694348320365,0.00033519958378747106,0.0003746072179637849,-7.475600242614746,24.02238655090332,-37.87619018554688,0.005889296531677246,-0.0032974332571029663,0.06421661376953125,988.569091796875,0,13.0,1,1
9.48,0.07997739,-0.15598105,9.756046000000001,0.0008416109485551715,-0.000996417598798871,0.0005078647518530488,-8.037352561950684,24.076208114624023,-38.40864944458008,0.010460466146469116,-0.007861480116844177,0.04528617858886719,988.5413818359376,0,13.0,1,1
9.52,0.08712298,-0.160747,9.777348,0.0009750010212883351,6.880826549604535e-05,0.0001084906398318708,-7.846096992492676,23.88678550720215,-38.81195831298828,0.0014872550964355467,0.001912325620651245,0.03582096099853516,988.5338134765624,0,13.0,1,1
9.56,0.08709889999999999,-0.16312967,9.767878,4.312803503125906e-05,-0.0009964930359274151,-2.456770744174719e-05,-6.975720882415772,23.911535263061523,-38.79356002807617,-0.008023470640182495,0.011419296264648438,0.04055595397949219,988.5665893554688,0,13.0,1,1
9.6,0.07512522,-0.15597926,9.774977,-0.000356113538146019,0.0003350487095303833,-2.446817234158516e-05,-7.989605903625487,24.17387962341309,-38.88362884521485,0.001129351556301117,0.006535753607749939,0.03582572937011719,988.5185546875,0,13.0,1,1
9.64,0.07988095,-0.15836193,9.765506,0.0007093824679031968,6.869505159556867e-05,0.00037510518450289965,-8.209641456604004,24.44122886657715,-37.71060180664063,0.0014220774173736572,-0.002690315246582031,0.04056549072265625,988.5463256835938,0,13.0,1,1
9.68,0.08463663,-0.15597804,9.763137,0.00044329883530735964,6.865739123895764e-05,-0.00015742704272270205,-7.733975887298584,24.412729263305664,-38.09017181396485,-0.0032341182231903076,-0.002796545624732971,0.05950164794921875,988.5665893554688,0,13.0,1,1
9.72,0.07027316,-0.16312732,9.793907,-0.00022225838620215654,-0.0001976962084881961,-2.4169450625777245e-05,-7.468533039093018,24.39804267883301,-38.36116409301758,0.0015144273638725279,0.002240300178527832,0.02163410186767578,988.5313720703124,0,13.0,1,1
9.76,0.07980859,-0.1559769,9.763132,-0.0002220261376351118,-6.457598647102714e-05,0.00010908814147114754,-7.6178855895996085,23.678815841674805,-38.45003509521485,0.001830175518989563,0.007020100951194763,0.04530525207519531,988.5440063476562,0,13.0,1,1
9.8,0.07978448,-0.15359302,9.756029,0.000843469868414104,-0.0012630352284759285,0.0005086615565232934,-7.377498149871826,23.482629776000977,-38.70655059814453,0.001775778830051422,0.002490341663360596,0.05951499938964844,988.5513916015624,0,13.0,1,1
9.84,0.077370495,-0.15597568,9.772596,0.0004442282952368259,0.0014000858645886185,-0.0002901864936575293,-7.75087833404541,23.87030601501465,-38.36376190185547,0.0015687942504882812,0.002358943223953247,0.04057979583740234,988.5665893554688,0,13.0,1,1
9.88,0.07495651,-0.16074164,9.765492,4.498707130551338e-05,-0.0003310050815343857,0.0003757027152460069,-7.619950294494629,24.045637130737305,-38.4711799621582,0.010980173945426941,0.007070958614349365,0.03584861755371094,988.5689697265624,0,13.0,1,1
9.92,0.07732230400000001,-0.16789092,9.7678585,-0.0006205703830346465,0.00020158907864242792,0.0002426443388685584,-7.738541603088379,24.408308029174805,-37.858253479003906,-0.0033918023109436035,0.0160883218050003,0.04531097412109375,988.5463256835938,0,13.0,1,1
9.96,0.07251835,-0.17027359,9.779691,-0.0012861277209594846,0.00033470918424427515,-0.0004230457125231624,-7.917377471923827,23.609086990356445,-38.399803161621094,0.01100095361471176,0.0061088651418685904,0.021635055541992188,988.5487670898438,0,13.0,1,1
10.0,0.077274084,-0.16073985,9.774955,-0.0006201056530699134,6.835564272478223e-05,-0.00015663017984479666,-8.097138404846191,24.07266044616699,-38.01430892944336,-0.0032233670353889465,0.005785256624221803,0.04056835174560547,988.5665283203124,0,13.0,1,1
10.04,0.08919945,-0.14405634,9.753648,-0.0003535575233399868,-0.00046431389637291437,-0.00028968858532607555,-8.207439422607424,24.18032646179199,-38.38853454589844,-0.017002329230308533,-0.0228441059589386,0.06423759460449219,988.5687866210938,0,13.0,1,1
10.08,0.074835956,-0.15358888,9.767849,-0.0003535575233399868,-0.00046431389637291437,-0.00028968858532607555,-7.602505207061768,24.219770431518555,-38.09913635253906,0.0071470290422439575,-0.02275434136390686,0.04056835174560547,988.5687866210938,0,13.0,1,1
10.12,0.08255848,-0.16551884,9.7607975,-0.0006196408066898584,-0.0012632990255951881,0.00024304265389218926,-7.2633118629455575,23.641756057739254,-37.96361541748047,0.0021038204431533813,0.015002384781837462,0.04050922393798828,988.553955078125,0,13.0,1,1
10.16,0.08733705,-0.17505194,9.7631645,-0.00048625061754137283,-0.0008638631552457808,-0.00028948939871042967,-7.729410171508789,24.417150497436523,-38.32208251953125,-0.012256674468517305,0.029438614845275882,0.04524517059326172,988.5687866210938,0,13.0,1,1
10.2,0.08016604,-0.1488358,9.770266000000001,3.813538933172822e-05,-0.0007278205011971295,-0.0010885861702263355,-7.5692973136901855,24.04033851623535,-38.40169143676758,0.011222966015338898,-0.008937567472457886,0.04051113128662109,988.5612182617188,0,13.0,1,1
10.24,0.08016479,-0.16313542,9.770266000000001,-0.00022884266218170524,0.0015359721146523952,0.00010955153265967964,-7.6025047302246085,24.21976661682129,-38.09913635253906,0.0017217844724655151,-0.003911316394805908,0.040515899658203125,988.5338134765624,0,13.0,1,1
10.28,0.08733323,-0.16313542,9.7584305,0.0004369589150883258,0.00033754855394363403,-0.0004230750491842628,-7.608348369598389,23.21344566345215,-38.11633682250977,-0.007674023509025574,0.010379210114479063,0.04524707794189453,988.5210571289062,0,13.0,1,1
10.32,0.08494204,-0.15121906,9.7607975,0.000570129428524524,-0.001127190887928009,0.00037587789120152587,-7.297361373901367,23.557336807250977,-38.18437957763672,-0.003258086740970612,-0.008494332432746887,0.031050682067871094,988.5588989257812,0,13.0,1,1
10.36,0.08255088,-0.15598549,9.777368,-0.00022880599135532972,0.0011364922393113375,0.00037588315899483865,-7.594895362854004,24.22713279724121,-38.48566436767578,-0.008228756487369537,-0.013201981782913208,0.03578758239746094,988.581298828125,0,13.0,1,1
10.4,0.068210185,-0.15121894,9.775,3.7521764170378447e-05,0.0008701742626726628,-0.0004230593331158161,-7.740063667297362,24.40683937072754,-37.78094482421875,0.006061851978302002,-0.00864236056804657,0.04051971435546875,988.5585327148438,0,13.0,1,1
10.44,0.087328166,-0.15360220000000002,9.770266000000001,0.00017069216119125483,0.0006038564024493097,0.00024273566668853164,-7.176544189453125,23.354063034057614,-37.65221405029297,-0.013039357960224152,0.0006983429193496704,0.04525089263916016,988.5186157226562,0,13.0,1,1
10.48,0.08015719,-0.15598543,9.76553,-0.0006282431422732769,-0.0003282511024735868,0.0003758988168556243,-7.89398193359375,23.683195114135746,-37.63790130615234,0.0011753514409065249,0.0008921772241592408,0.026317596435546875,988.5487670898438,0,13.0,1,1
10.52,0.08732563,-0.16551848,9.775,3.757077502086759e-05,-0.0005945709417574108,0.0007753830868750812,-7.626038074493407,24.039743423461914,-38.161956787109375,-0.013144083321094513,0.005980774760246278,0.026323318481445312,988.556396484375,0,13.0,1,1
10.56,0.07537484,-0.16551848,9.779734,0.0005702149937860668,0.00020437478087842464,-0.0005561911966651678,-7.394783020019531,23.834718704223636,-37.95464324951172,-0.003270380198955536,0.01545168459415436,0.031053543090820312,988.5411987304688,0,13.0,1,1
10.6,0.080153376,-0.15360208,9.760796000000001,-0.0006281944806687534,-0.00019510110723786056,-2.3554021026939154e-05,-7.45649528503418,24.303911209106445,-38.2805290222168,-0.008083276450634003,-0.0038601756095886226,0.05945682525634765,988.5487670898438,0,13.0,1,1
10.64,0.080152124,-0.15598531,9.75843,-9.555049473419784e-05,0.0002043707063421607,-0.0002898647217079997,-7.774656295776367,24.690710067749023,-38.10016632080078,0.011068165302276613,-0.0038273632526397705,0.06418991088867188,988.58154296875,0,13.0,1,1
10.68,0.08254075,-0.16075177,9.772633,0.0008365675457753241,-0.00032826303504407406,0.00037593024899251764,-7.7278876304626465,24.41862297058105,-38.39938735961914,-0.008282840251922606,0.005855754017829895,0.035788536071777344,988.57666015625,0,13.0,1,1
10.72,0.075369745,-0.15836851,9.770266000000001,0.00030394777422770863,0.00033752474701032037,-0.0005561701254919171,-7.560303211212157,23.94326210021973,-38.16644287109375,-0.013113886117935179,0.006109222769737244,0.035793304443359375,988.5410766601562,0,13.0,1,1
10.76,0.08014831,-0.16075177,9.770264,0.00014131591888144612,0.00027095561381429434,-0.0001399574102833867,-7.61690616607666,24.0485782623291,-38.625789642333984,-0.003812029957771301,-0.003351062536239624,0.035798072814941406,988.5513916015624,0,13.0,1,1
10.8,0.072977334,-0.163135,9.772631,0.00014132849173620343,0.0009367434540763496,0.00012636365136131644,-7.684706687927246,24.511877059936523,-38.64244842529297,0.010180272161960602,0.006239369511604309,0.04526996612548828,988.5459594726562,0,13.0,1,1
10.84,0.082535684,-0.1702848,9.758429,0.0002744985395111144,0.0004041095962747932,-0.00027310493169352407,-7.562368392944336,24.31007957458496,-38.18758773803711,0.0008308589458465576,0.01570969820022583,0.05473613739013672,988.5612182617188,0,13.0,1,1
10.88,0.080144495,-0.15598513,9.770265,0.0002745106467045844,-0.0005279979668557644,-0.00027309957658872014,-7.632126331329347,24.033849716186523,-37.85273742675781,-0.008518144488334656,-0.0035898536443710327,0.031058311462402344,988.5665283203124,0,13.0,1,1
10.92,0.08731294,-0.16075166,9.767897,-0.0007907404215075077,-0.00012852612417191267,-0.00013993639731779695,-7.852620601654053,23.14283943176269,-38.22853088378906,-0.0036896541714668274,0.01041044294834137,0.045256614685058594,988.531005859375,0,13.0,1,1
10.96,0.08253184,-0.15598501,9.767897,-0.00039125437615439296,-0.00012852816144004464,0.0003927005454897881,-7.771803379058838,22.955175399780273,-38.30699157714844,-0.0038554370403289795,-0.003603845834732056,0.026325225830078125,988.563720703125,0,13.0,1,1
11.0,0.08014071,-0.1488352,9.767897999999999,0.0006740211392752826,-0.00039484599255956715,-6.767979357391596e-06,-7.663131237030028,23.952375411987305,-38.22811508178711,-0.003619074821472168,-0.018015146255493164,0.04999351501464844,988.5386352539062,0,13.0,1,1
11.04,0.07057983,-0.15360172,9.753694,-0.0001249141641892493,0.0009367313468828797,-0.000406236678827554,-7.937568664550781,24.06414222717285,-38.19236755371094,0.015241198241710663,-0.008568555116653442,0.05472850799560547,988.5537719726562,0,13.0,1,1
11.08,0.087323666,-0.1607519,9.777367,8.256116416305304e-06,4.623900167644024e-06,0.0003927162615582347,-7.941155433654785,24.429487228393555,-38.136207580566406,-0.004026047885417938,0.006187692284584045,0.02633190155029297,988.5585327148438,0,13.0,1,1
11.12,0.08016947,-0.15121917,9.765532499999999,0.0009402982541359961,0.00040410796646028757,0.0002595311962068081,-7.737860679626465,24.145936965942386,-38.45887756347656,-0.004057049751281738,0.0016792267560958862,0.035800933837890625,988.556396484375,0,13.0,1,1
11.16,0.07777953,-0.16313554,9.782103,0.0001411287230439484,-0.0005279615288600327,-0.0009389856713823974,-7.663429737091064,23.320241928100586,-38.65298843383789,0.010462120175361632,0.0016573518514633179,0.02633094787597656,988.5484619140624,0,13.0,1,1
11.2,0.08255935,-0.15121917,9.7631645,-0.0002583450987003744,0.0002709859982132912,-0.00014003791147843003,-7.4347825050354,23.850324630737305,-38.56526947021485,-0.00860515981912613,-0.008042111992835999,0.040531158447265625,988.5487060546876,0,13.0,1,1
11.24,0.07538965,-0.16313554,9.770266000000001,0.0002742866636253893,-0.0006611194694414735,-0.00014003802789375186,-7.684164047241211,24.14358711242676,-38.54399871826172,-0.003448382019996643,0.0017054975032806394,0.04053211212158203,988.5408935546876,0,13.0,1,1
11.28,0.08733916,-0.15836899,9.775002,0.0001411287230439484,-0.00012848770711570978,0.0005257517914287746,-7.790579319000244,24.518049240112305,-38.54951477050781,-0.0037359520792961116,0.0019330084323883054,0.02159881591796875,988.5612182617188,0,13.0,1,1
11.32,0.07777956,-0.15836899,9.7678995,0.000940076366532594,0.000537301879376173,0.0002594359102658928,-7.214585781097412,24.10919761657715,-38.614349365234375,-0.0036314725875854492,0.006834149360656738,0.035803794860839844,988.53857421875,0,13.0,1,1
11.36,0.08255938,-0.17266865,9.7631645,0.0004074446042068303,-0.0009274353506043552,-0.0008058277308009566,-7.706855773925781,24.2274112701416,-38.08350372314453,-0.0034779161214828487,0.007033899426460265,0.040541648864746094,988.563720703125,0,13.0,1,1
11.4,0.06583005,-0.16075225,9.7678995,0.0004074446042068303,-0.0009274353506043552,-0.0008058277308009566,-7.7921013832092285,24.51657676696777,-38.47220993041992,0.020424984395504,0.006937876343727112,0.04527187347412109,988.563720703125,0,13.0,1,1
11.44,0.096898764,-0.15836899,9.7584305,0.0001411287230439484,4.6702625695616015e-06,0.00012627796968445182,-7.675169944763184,24.04651069641113,-38.308753967285156,-0.01783611625432968,0.0021046549081802373,0.035803794860839844,988.5558471679688,0,13.0,1,1
11.48,0.084949255,-0.16313557,9.760798,-0.0002583450987003744,0.00013782817404717207,0.0002594359102658928,-7.180835247039795,23.561479568481445,-38.81845474243164,-0.003702975809574127,-0.007311776280403137,0.04527473449707031,988.5433959960938,0,13.0,1,1
11.52,0.084949255,-0.15598573,9.765532499999999,0.000806918425951153,0.0008036177605390549,0.0006589097320102155,-7.207955360412598,23.74680137634277,-38.82511901855469,-0.00875093787908554,0.0019941329956054688,0.05000782012939453,988.5510864257812,0,13.0,1,1
11.56,0.08255935,-0.16313554,9.770266000000001,-0.00039150303928181534,0.000270986114628613,0.00012627796968445182,-7.803053379058838,23.874128341674805,-38.35594177246094,-0.008613176643848421,0.0066419392824172965,0.03580284118652344,988.563720703125,0,13.0,1,1
11.6,0.07777956,-0.15121917,9.765532499999999,-0.0005246609798632561,-0.0003948035882785916,0.00012627796968445182,-7.449864387512207,23.941511154174805,-38.491294860839844,0.001363694667816162,0.0018506795167922974,0.03579902648925781,988.5533447265624,0,13.0,1,1
11.64,0.08016944,-0.15598573,9.7584305,0.0001411287230439484,-0.00012848773621954024,0.0006589097320102155,-7.532502174377441,23.495569229125977,-38.76040649414063,0.010572366416454315,-0.003243193030357361,0.04526424407958984,988.5560913085938,0,13.0,1,1
11.68,0.063440144,-0.16790213,9.763164999999999,-0.0002583450987003744,0.00013782817404717207,-0.00014003791147843003,-7.972596168518066,23.609960556030273,-38.23737716674805,0.01041916757822037,0.015770569443702698,0.04526519775390625,988.5609741210938,0,13.0,1,1
11.72,0.07299974599999999,-0.15598573,9.753696000000001,-0.0006578189204446971,0.00013782823225483298,-0.00014003802789375186,-7.829195022583008,24.42921257019043,-38.53836441040039,0.005774274468421936,0.006357729434967041,0.05473423004150391,988.5711669921876,0,13.0,1,1
11.76,0.07777956,-0.15836902,9.765532499999999,-0.0002583450987003744,-0.0001284877653233707,0.0007920676725916563,-8.005911827087402,24.895734786987305,-38.30747985839844,0.0007090866565704347,0.015389516949653625,0.04999351501464844,988.5584106445312,0,13.0,1,1
11.8,0.08733916,-0.16551884,9.7584305,-0.00012518715811893344,0.0006704599363729358,0.00039259385084733367,-7.644164085388184,24.12798118591309,-37.93338012695313,-0.004169955849647522,0.0009630471467971803,0.05472850799560547,988.5609741210938,0,13.0,1,1
11.84,0.06583005,-0.15360244,9.760798,-0.0006578189204446971,0.0002709859982132912,0.0006589097320102155,-7.899931907653809,23.78322029113769,-38.02775573730469,0.01467445492744446,-0.003629416227340698,0.04999828338623047,988.5513916015624,0,13.0,1,1
11.88,0.072999775,-0.15836899,9.767899,-0.00012518715811893344,-0.0002616456476971507,0.00039259385084733367,-8.025996208190918,24.24445152282715,-37.727386474609375,-0.004510857164859772,0.005316123366355896,0.04052162170410156,988.5585327148438,0,13.0,1,1
11.92,0.08016947,-0.15836899,9.7678995,-0.0007909768610261381,0.0002709859982132912,-6.879970896989107e-06,-7.9918084144592285,24.43478202819824,-38.20569610595703,-0.0049101784825325,0.0006121993064880371,0.04525947570800781,988.5358276367188,0,13.0,1,1
11.96,0.07538965,-0.15360244,9.775001,-0.00039150303928181534,0.0009367757011204957,0.00012627785326913,-7.927052021026611,23.968542098999023,-38.034423828125,0.0045797452330589294,-0.0043039470911026,0.031055450439453125,988.5609741210938,0,13.0,1,1
12.0,0.08972907,-0.15598573,9.7631645,0.0001411287230439484,0.0002709859982132912,0.0005257517914287746,-8.29931640625,24.831892013549805,-38.56646728515625,-0.0001987814903259277,-0.0043859779834747314,0.04998970031738281,988.55615234375,0,13.0,1,1
12.04,0.07299974599999999,-0.15360244,9.7584305,-0.00012518715811893344,0.00040414405521005387,-0.00014003802789375186,-7.571362018585205,24.407155990600586,-38.42283630371094,-0.00998060405254364,0.0003769099712371826,0.04052448272705078,988.5459594726562,0,13.0,1,1
12.08,0.082273304,-0.14882894,9.777341999999999,7.970782462507486e-06,0.00013782817404717207,0.00012627796968445182,-7.701746463775635,23.86354255676269,-38.21696853637695,0.004733309149742127,-0.00905938446521759,0.03581523895263672,988.5585327148438,0,13.0,1,1
12.12,0.07987198,-0.15597846,9.758403999999999,0.0005423169932328165,-0.0002619240549392998,0.0005264866631478071,-7.292795658111572,23.56175804138184,-38.416297912597656,-0.004712454974651337,0.005460336804389954,0.0452880859375,988.5687255859376,0,13.0,1,1
12.16,0.07747066,-0.14644508,9.779707,1.080316724255681e-05,0.00013736827531829476,0.00039380794623866677,-7.498995780944824,23.948278427124023,-38.638092041015625,0.004899837076663971,-0.01824130117893219,0.04528999328613281,988.545654296875,0,13.0,1,1
12.2,0.079849154,-0.16551094,9.782074,1.091329613700509e-05,-0.0007947551785036923,-0.0008045663707889616,-7.772047996520996,23.955602645874023,-37.980567932128906,0.00030184537172317505,0.005535885691642761,0.031085968017578125,988.5330810546876,0,13.0,1,1
12.24,0.07983768,-0.15836085,9.756033,0.0004104971303604543,-0.0001289833162445575,0.00012758636148646474,-7.393260478973389,23.8361873626709,-38.03195190429688,-0.013943485915660858,-0.0037997961044311523,0.05002784729003906,988.5559692382812,0,13.0,1,1
12.28,0.08460608,-0.14406098,9.767866999999999,1.2500851880758999e-05,-9.450508514419198e-05,-0.0006465576007030903,-7.794602394104004,24.14533805847168,-38.219146728515625,-0.0047189146280288705,-0.013363182544708252,0.04056358337402344,988.5484619140624,0,13.0,1,1
12.32,0.08459467,-0.15836026,9.765499,-0.00012054707622155547,0.000704424805007875,-0.00024703657254576683,-7.737019538879394,24.4097843170166,-37.93556213378906,-0.009074039757251741,-0.00399075448513031,0.045291900634765625,988.5687255859376,0,13.0,1,1
12.36,0.07741359,-0.1631266,9.770233000000001,-0.00025359477149322634,-0.0008934884099289775,-0.000246989366132766,-7.372633934020996,24.119184494018555,-38.51359558105469,-0.003901846706867218,-0.008588477969169617,0.04529285430908203,988.5785522460938,0,13.0,1,1
12.4,0.07979208,-0.15597649,9.774967,0.0008117785328067839,-9.455857798457146e-05,-0.00011378433555364607,-7.64927339553833,24.491857528686523,-37.79991149902344,0.005518846213817597,0.015516981482505797,0.021628379821777344,988.5560913085938,0,13.0,1,1
12.44,0.082170546,-0.15597613,9.765496,0.0004124149563722313,3.858143463730812e-05,0.00015257869381457567,-7.698702812194824,23.86648750305176,-38.37157440185547,-0.008931174874305725,-0.0035401582717895508,0.03583335876464844,988.5635375976562,0,13.0,1,1
12.48,0.09410864,-0.15597592,9.765495,0.00014620897127315402,-0.0003609101986512542,-0.00011368998093530537,-7.738840103149414,23.77617454528809,-38.28312301635742,-0.0134647935628891,-0.0033210963010787964,0.035836219787597656,988.5787353515624,0,13.0,1,1
12.52,0.0773679,-0.16312547,9.777330000000001,0.0005457929219119251,0.0004380195750854909,-0.00011364283272996543,-8.061429023742676,24.26447105407715,-38.569923400878906,-0.003841511905193329,0.0014925450086593628,0.02636814117431641,988.5408325195312,0,13.0,1,1
12.56,0.079746366,-0.16550846,9.772594999999999,-0.0007856764714233577,-0.0007604197598993777,-0.0005130695062689483,-8.026837348937987,23.9805965423584,-38.250709533691406,0.010662943124771118,0.006001219153404236,0.04530048370361328,988.5761108398438,0,13.0,1,1
12.6,0.074955165,-0.17504133,9.78443,1.3381184544414282e-05,-9.464792674407364e-05,0.0001527672866359353,-7.553671836853027,23.58086204528809,-38.37721252441406,-0.003474593162536621,0.0201067328453064,0.05003166198730469,988.5760498046876,0,13.0,1,1
12.64,0.07255387,-0.14644165,9.77496,1.3491197023540735e-05,0.00030480802524834866,0.0005522882565855981,-7.569296836853027,24.040342330932614,-38.40169143676758,0.010692454874515532,-0.013314947485923769,0.02636241912841797,988.54833984375,0,13.0,1,1
12.68,0.08449191,-0.14405812,9.765491,-0.0003858726122416556,0.000571106094866991,0.00028601958183571696,-7.862295627593994,23.502294540405273,-37.86315155029297,-0.003695748746395111,-0.02756352722644806,0.04056835174560547,988.5609741210938,0,13.0,1,1
12.72,0.08209064599999999,-0.16789065,9.756021,0.0002800272195599973,-0.0011599649442359805,0.0004192246997263282,-7.505084037780763,23.9423885345459,-38.3288688659668,-0.0081673264503479,0.010746195912361143,0.05950736999511719,988.56591796875,0,13.0,1,1
12.76,0.08685905,-0.16789033,9.786793,0.00028013711562380195,-0.0004941931692883372,-0.00011336000170558691,-7.8071837425231925,24.607763290405273,-38.39823532104492,-0.012330755591392515,0.006042197346687317,0.01689434051513672,988.5358276367188,0,13.0,1,1
12.8,0.077288,-0.1655068,9.777322999999999,0.00028013711562380195,-0.0004941931692883372,-0.00011336000170558691,-7.556823253631593,24.68426322937012,-38.59526062011719,-0.002914018929004669,0.005984365940093994,0.031098365783691406,988.5358276367188,0,13.0,1,1
12.84,0.070106864,-0.1535901,9.774955,0.0004134051850996912,-0.0007605269784107803,-0.0005127866170369089,-7.511714458465576,24.304784774780273,-38.11810302734375,-0.002662837505340576,-0.01323145627975464,0.03583049774169922,988.558349609375,0,13.0,1,1
12.88,0.074875295,-0.15597309,9.753649000000001,-0.000252274505328387,-9.475514525547625e-05,-0.000379581528250128,-7.714465618133545,24.22004508972168,-37.69697570800781,0.001886613667011261,0.0011538565158843994,0.05003833770751953,988.5585327148438,0,13.0,1,1
12.92,0.07964367,-0.15597285,9.789156,1.4151271898299454e-05,0.000171542982570827,0.00028625535196624696,-7.521389484405518,24.664236068725586,-37.75271987915039,-0.002642214298248291,0.0008973032236099242,0.03109455108642578,988.5787353515624,0,13.0,1,1
12.96,0.07963222,-0.15597256,9.760748,-0.00025205448037013406,-0.00022794876713305712,0.00015314453048631552,-7.880528450012207,24.696882247924805,-38.007225036621094,0.0019687116146087646,-0.004159659147262572,0.05949974060058594,988.571044921875,0,13.0,1,1
13.0,0.07723093,-0.15358897,9.760748,-0.0009177341707982123,-9.480866719968616e-05,0.0001531916786916554,-7.458016872406006,24.30243492126465,-38.203224182128906,0.006946459412574768,0.005199313163757324,0.04529285430908203,988.5635375976562,0,13.0,1,1
13.04,0.077705204,-0.16313376,9.774994,-0.0003849923959933221,-0.00022798447753302753,-0.0009120248141698539,-7.279778480529785,23.83738899230957,-38.51141357421875,-0.002704642713069916,0.009874463081359863,0.01688671112060547,988.5785522460938,0,13.0,1,1
13.08,0.08059895,-0.15361293,9.763205000000001,-0.00025172432651743293,-9.484437759965658e-05,0.0004196019435767085,-7.629518032073975,23.298742294311523,-37.7331428527832,-0.003335647284984589,0.00020396709442138672,0.045197486877441406,988.56591796875,0,13.0,1,1
13.12,0.08301675,-0.15123038,9.772675999999999,-0.0006510881357826293,-0.00036117812851443887,-0.0003792985226027668,-7.252796173095702,23.5461483001709,-37.80567169189453,-0.0035801529884338383,-0.013974353671073914,0.03099536895751953,988.5507202148438,0,13.0,1,1
13.16,0.08304465,-0.14408128,9.758474,0.00014040200039744374,-0.0004940672079101205,0.00028089398983865976,-7.691230773925781,23.767934799194336,-38.05902862548828,-0.003283903002738953,-0.01900623738765717,0.05465888977050781,988.5558471679688,0,13.0,1,1
13.2,0.07351297,-0.15123181,9.760845,-0.0005256567383185028,3.860821016132832e-05,-0.0006513267871923745,-7.541634082794189,23.486730575561523,-38.296573638916016,0.006337530910968781,-0.014223784208297731,0.059390068054199226,988.5478515625,0,13.0,1,1
13.24,0.07354081,-0.15599899,9.756113000000001,-0.00012672075536102057,-0.0008934100624173881,-0.00038524140836671,-7.106785774230957,23.63029289245605,-37.987060546875,0.0018143057823181152,-0.005046755075454712,0.04044246673583984,988.5380249023438,0,13.0,1,1
13.28,0.080738425,-0.14408328,9.767952000000001,-0.0013254112564027312,-0.00022757664555683727,-0.0005185147165320814,-7.485435962677003,23.85561943054199,-38.63475799560547,0.006499238312244414,-0.019239708781242367,0.03097248077392578,988.5534057617188,0,13.0,1,1
13.32,0.085546136,-0.16791673,9.76322,0.0001390570541843772,-0.00022753298981115225,1.4001794625073673e-05,-7.7579450607299805,23.49464988708496,-37.8787841796875,-0.00762048363685608,0.018973186612129208,0.04990673065185547,988.5557250976562,0,13.0,1,1
13.36,0.080794275,-0.16076763,9.779793,0.0005382618401199579,-0.00022748933406546715,-0.0006519031594507396,-7.78895092010498,23.41317939758301,-38.25416564941406,0.007038824260234833,-0.00019851326942443848,0.04516410827636719,988.5787353515624,0,13.0,1,1
13.4,0.073652476,-0.15600179,9.770327,-0.00039411254692822695,-0.0006269194418564439,-0.00011938670650124551,-7.7856082916259775,24.04826164245605,-37.98390197753906,0.016479864716529846,0.004490509629249573,0.049896240234375,988.5913696289062,0,13.0,1,1
13.44,0.080850095,-0.15838565,9.758493,0.0002714082365855574,-0.0004937179619446397,-0.000119502074085176,-7.12477445602417,23.82445335388184,-38.457557678222656,-0.0027727112174034123,-0.0052271634340286255,0.0546255111694336,988.540771484375,0,13.0,1,1
13.48,0.07131839,-0.15838636,9.767965,-0.0006609663832932711,0.0005715893348678946,1.3540731742978094e-05,-7.703269004821777,23.8620662689209,-38.13966369628906,0.011697620153427124,-0.0006186962127685548,0.03568267822265625,988.56591796875,0,13.0,1,1
13.52,0.08807558,-0.15123726,9.777435,-0.0007943934760987759,-0.0008931043557822703,0.0005460571846924722,-7.529297351837157,24.02473258972168,-37.79106903076172,-0.007146991789340974,-0.010176122188568115,0.03567695617675781,988.5761108398438,0,13.0,1,1
13.56,0.08093381,-0.14885469,9.782171,4.285247996449471e-06,-0.0007599028176628053,1.3310112990438938e-05,-7.373069763183594,23.38113212585449,-38.23938751220703,-0.0071437954902648934,-0.005481839179992676,0.026205062866210938,988.5631713867188,0,13.0,1,1
13.6,0.07857180000000001,-0.14408876,9.775074,4.016445018351078e-06,0.0009711941238492726,-0.001052068779245019,-7.855229377746582,23.87795066833496,-38.34812927246094,-0.002682924270629883,-0.024541258811950684,0.03567218780517578,988.5735473632812,0,13.0,1,1
13.64,0.08337951,-0.15838908,9.779810000000001,-0.0006620422936975956,0.0004386060172691941,-0.00012007838813588025,-7.427309989929199,23.75177574157715,-38.25271606445313,-0.00257989764213562,-0.0009562075138092039,0.016727447509765625,988.5809326171876,0,13.0,1,1
13.68,0.059508383,-0.15362324,9.758509,-0.0006623113295063376,-0.00075977185042575,0.0009450699435546994,-7.243664264678955,23.554990768432614,-38.26950073242188,0.02121873199939728,-0.005866661667823792,0.04512977600097656,988.5681762695312,0,13.0,1,1
13.72,0.07626563,-0.17269020000000002,9.760878,-0.0007957383058965206,-0.000759728136472404,-0.00012030889047309756,-7.173362731933594,23.462926864624023,-38.505897521972656,0.00739726424217224,0.013073191046714784,0.049854278564453125,988.55322265625,0,13.0,1,1
13.76,0.0858531,-0.17745747,9.7585125,-0.00013021740596741438,-0.0016917899483814836,-0.0006530559039674699,-8.287714004516603,23.99970817565918,-38.21162414550781,-0.006458662450313568,0.01283419132232666,0.040375709533691406,988.5709838867188,0,13.0,1,1
13.8,0.08110121,-0.15600856,9.767984,0.0004294357495382428,-0.000656097021419555,-0.00013933947775512934,-7.516035556793213,23.2999324798584,-38.21260833740234,-0.0063062235713005075,-0.006059035658836365,0.045108795166015625,988.5405883789062,0,13.0,1,1
13.84,0.07156950000000001,-0.15600924,9.775089,2.9692891985177997e-05,-0.0002565795148257166,0.0003931769751943648,-7.582994937896728,24.027082443237305,-37.7059440612793,0.012919083237648009,-0.005942508578300476,0.045105934143066406,988.54833984375,0,13.0,1,1
13.88,0.08115703,-0.16077651,9.770357,0.0005620555020868778,-0.000256535888183862,0.0003930616367142648,-7.86726713180542,23.972082138061523,-38.42876434326172,0.008182033896446228,-0.0009816586971282961,0.03090381622314453,988.5533447265624,0,13.0,1,1
13.92,0.090744555,-0.15362741,9.758524000000001,0.0005617869319394232,-0.0002564922033343464,-0.00027284317184239626,-7.774954319000244,24.05856895446777,-38.5250358581543,-0.011023662984371184,-0.0009818673133850098,0.04983901977539063,988.5634155273438,0,13.0,1,1
13.96,0.08360273,-0.14647819,9.772730000000001,-0.0002374297473579645,0.000143025245051831,0.0002596732228994369,-7.558781147003174,23.944734573364254,-38.243751525878906,-0.0014719069004058838,-0.010499536991119385,0.035633087158203125,988.5432739257812,0,13.0,1,1
14.0,0.08841044,-0.15362872,9.758529,0.0004280908033251762,-0.00025640486273914576,-0.00040623173117637634,-7.506904125213622,23.30877494812012,-38.67643737792969,-0.005886487662792207,-0.010417163372039795,0.054566383361816406,988.5656127929688,0,13.0,1,1
14.04,0.08280742,-0.15360858,9.765554,0.00016150600276887417,-0.0002563612360972911,-0.000406346982344985,-7.375134468078612,23.74795341491699,-38.260536193847656,-0.0052556097507476815,-0.014834240078926088,0.04044532775878906,988.5634155273438,0,13.0,1,1
14.08,0.082801074,-0.15599166,9.7750225,0.00043164461385458713,0.00040880788583308464,0.000660554738715291,-7.6012816429138175,23.58910179138184,-38.60131072998047,-0.0009060278534889221,0.004270374774932861,0.04045009613037109,988.5787353515624,0,13.0,1,1
14.12,0.082794726,-0.15837474,9.770288,-0.00023007509298622608,0.0013402528129518034,-0.0002698064781725406,-7.9605584144592285,23.51582908630371,-38.15673828125,-0.001106061041355133,-0.00040076673030853266,0.04045391082763672,988.5530395507812,0,13.0,1,1
14.16,0.0803985,-0.14884152,9.7608185,-0.00023007509298622608,0.0013402528129518034,-0.0002698064781725406,-7.181813716888428,23.19171714782715,-38.6427001953125,0.0036146417260169983,-0.004984334111213684,0.05939674377441406,988.5530395507812,0,13.0,1,1
14.2,0.08278203,-0.15837444,9.7655525,0.0004357757279649377,-0.0002576524275355041,0.0005291673587635161,-7.229125022888184,23.832094192504886,-38.44192504882813,-0.005814835429191589,-6.012618541717529e-05,0.04519462585449219,988.5659790039062,0,13.0,1,1
14.24,0.07321608,-0.1440747,9.779755999999999,0.0007021526107564569,0.0005412853206507863,0.00039603561162948614,-7.6063904762268075,23.95297431945801,-38.46784973144531,0.013626843690872192,-0.01415027678012848,0.021523475646972656,988.5559692382812,0,13.0,1,1
14.28,0.07798958,-0.16075744,9.7513485,0.00030274002347141504,-0.0005239881575107574,-0.00026972789783030754,-7.1588239669799805,23.74003028869629,-38.678321838378906,0.008974581956863403,-0.004447340965270996,0.05466651916503906,988.5557250976562,0,13.0,1,1
14.32,0.058863997,-0.16552384,9.772653,0.00043595896568149334,-0.0007903139921836555,0.0003960879403166473,-7.578589916229247,23.505285263061523,-39.061805725097656,0.013879328966140749,0.009752750396728516,0.035727500915527344,988.5481567382812,0,13.0,1,1
14.36,0.06602734,-0.14407422,9.772652,3.654626198112965e-05,-0.000657165888696909,0.0003961142210755497,-7.881507873535156,24.327112197875977,-37.83147048950195,0.01873160153627396,-0.014358952641487122,0.04519176483154297,988.5504150390624,0,13.0,1,1
14.4,0.0755806,-0.16314025,9.770285000000001,-0.000229708501137793,8.613860700279474e-06,-0.0006691232556477188,-7.9807496070861825,23.97088432312012,-37.949302673339844,0.009806528687477112,0.009345397353172302,0.03571605682373047,988.5761108398438,0,13.0,1,1
14.44,0.09469348,-0.16075684,9.758448,-0.0003627435071393848,-0.001722459215670824,-0.0020006499253213406,-7.804574966430664,23.872655868530273,-38.27864074707031,-0.02759264409542084,0.009171679615974426,0.04517650604248047,988.5659790039062,0,13.0,1,1
14.48,0.09946692,-0.16313995,9.763182,-0.0003627435071393848,-0.001722459215670824,-0.0020006499253213406,-7.804574966430664,23.872655868530273,-38.27864074707031,-0.018005795776844025,0.02348949015140533,0.030973434448242188,988.5659790039062,0,13.0,1,1
14.52,0.089901,-0.14884014,9.775017,3.679131623357535e-05,-0.0013229954056441786,-0.0010685180313885212,-7.769547462463379,24.32683753967285,-38.23362731933594,-0.0037677809596061702,-0.009741634130477905,0.045180320739746094,988.53564453125,0,13.0,1,1
14.56,0.07794514,-0.16552295,9.772649000000001,3.685255069285631e-05,0.00027488998603075743,-0.00013638648670166728,-7.5546512603759775,23.21109962463379,-38.20145797729492,0.005589619278907776,-0.009518176317214966,0.04992008209228516,988.5530395507812,0,13.0,1,1
14.6,0.08510849,-0.14883979,9.760813,3.697467036545277e-05,0.0005411860183812678,0.0007957714842632412,-7.551851749420166,24.21447563171387,-38.02964782714844,-0.004343152046203613,-0.004743814468383789,0.05465888977050781,988.5405883789062,0,13.0,1,1
14.64,0.07076275,-0.14168979,9.76318,0.0011022993130609393,0.0010738077107816935,0.00013000803301110864,-7.298745632171631,23.661779403686523,-38.80615234375,0.004779674112796784,-0.013710156083106995,0.03573322296142578,988.545654296875,0,13.0,1,1
14.68,0.07553619,-0.14407296,9.775015,0.0003034126712009311,0.0005411661113612354,0.0010621397523209453,-7.604325771331787,23.58615684509277,-38.44670104980469,0.009533077478408812,-0.0089617520570755,0.03100109100341797,988.5504150390624,0,13.0,1,1
14.72,0.08269960000000001,-0.163139,9.777381,0.00017031596507877111,-0.0013230550102889538,-3.097578883171081e-06,-7.853164196014403,23.51112937927246,-38.32698059082031,0.0053126513957977295,0.0006866306066513063,0.03573322296142578,988.5432739257812,0,13.0,1,1
14.76,0.08508313,-0.16075553,9.779747,-0.000761728617362678,-0.0005241171456873417,-0.00013622932601720095,-7.50369930267334,23.83794212341309,-37.70709609985352,-0.008828461170196533,0.0006140470504760742,0.030996322631835938,988.5659790039062,0,13.0,1,1
14.8,0.09463641,-0.1512223,9.758443,0.0011025436688214538,0.0004079784848727286,0.00013011269038543102,-7.8191142082214355,23.595548629760746,-38.10621643066406,-0.008867256343364716,-0.008686944842338562,0.04993820190429688,988.5656127929688,0,13.0,1,1
14.84,0.10657957,-0.17267169,9.763176,-9.581667836755514e-05,-0.0005241370527073741,0.00026329688262194395,-8.395650863647461,24.37269401550293,-38.13983154296875,-0.037454232573509216,0.02495872974395752,0.04994392395019531,988.55322265625,0,13.0,1,1
14.88,0.09462374400000001,-0.15598859,9.758441,0.0009695078479126096,0.00027480069547891617,0.0010622707195580006,-8.015341758728027,24.25475883483887,-38.268516540527344,-0.014289498329162598,-0.012897521257400513,0.04522132873535156,988.5659790039062,0,13.0,1,1
14.92,0.073108286,-0.16313823,9.770277,0.0007032532012090088,0.002005843911319971,0.0015949286753311751,-7.739926338195801,24.512754440307614,-38.48002624511719,-0.005115114152431488,0.020598143339157104,0.04522514343261719,988.5558471679688,0,13.0,1,1
14.96,0.051592827,-0.14645515,9.75844,0.00030384038109332323,0.0021389918401837353,0.0018612706335261464,-7.790717124938965,24.41213035583496,-37.850433349609375,0.03692539036273956,-0.017775550484657288,0.05943393707275391,988.5380859375,0,13.0,1,1
15.0,0.07070571,-0.14645498,9.770275,-0.000894519966095686,0.0009405607706867158,0.0017281391192227602,-7.260130405426025,23.750619888305664,-38.81730270385742,0.012869931757450105,-0.017918705940246582,0.040495872497558594,988.5684204101562,0,13.0,1,1
15.04,0.08200818,-0.15120567,9.772583000000001,-0.000494985026307404,8.445116691291332e-06,0.0005297436146065593,-7.472418785095215,24.13124656677246,-38.72987747192383,-0.005883902311325072,0.015515640377998354,0.02635478973388672,988.54833984375,0,13.0,1,1
15.08,0.07002699400000001,-0.1512049,9.767846,0.0005722183850593865,0.000806748284958303,0.0004002343339379877,-7.1554813385009775,24.375112533569336,-38.40806198120117,0.017771966755390167,-0.008151039481163025,0.04530048370361328,988.5783081054688,0,13.0,1,1
15.12,0.07716495,-0.15597068,9.763109,-9.251682786270976e-05,0.000407103420002386,0.00013437040615826842,-7.224261283874513,24.46864891052246,-38.24897003173828,0.008101195096969604,0.006151214241981506,0.05003929138183594,988.5631713867188,0,13.0,1,1
15.16,0.08430296,-0.17026956,9.767841,4.0947285015136e-05,0.00014073788770474494,0.0001345015480183065,-7.510192394256593,24.306257247924805,-38.19540786743164,-0.001582808792591095,0.02026656270027161,0.04530525207519531,988.5735473632812,0,13.0,1,1
15.2,0.07949138,-0.15596907,9.765470500000001,-0.0006245367112569512,0.0012059517903253436,0.0004009483673144132,-7.652317523956299,24.488908767700195,-37.645301818847656,-0.016196399927139282,-0.013488754630088806,0.04057216644287109,988.5431518554688,0,13.0,1,1
15.24,0.08423948,-0.15596832,9.774937,-0.00022475741570815444,0.0005401124944910407,-0.0001315524568781257,-7.4324188232421875,24.11564445495605,-38.11925506591797,-0.0021375268697738647,-0.004227772355079651,0.031103134155273438,988.5834350585938,0,13.0,1,1
15.28,0.07703808,-0.15358426,9.76073,-0.001156557584181428,0.0010726945474743843,0.0005343684460967778,-7.124911785125732,23.71853446960449,-37.75847625732422,0.002349890768527985,-0.00899544358253479,0.05951595306396485,988.580810546875,0,13.0,1,1
15.32,0.072226554,-0.15835007,9.74889,-6.506725912913679e-05,0.0012399950064718725,8.480588439851999e-05,-7.202548027038574,24.015066146850586,-38.5337142944336,0.016334928572177887,0.005203738808631897,0.059520721435546875,988.5530395507812,0,13.0,1,1
15.36,0.06741503,-0.16311581,9.763092,-6.476155249401927e-05,0.00044099782826378936,8.49368516355753e-05,-7.825607299804687,24.06386756896973,-38.59452438354492,0.011652633547782898,0.01013416051864624,0.04532051086425781,988.5452880859376,0,13.0,1,1
15.4,0.07933283,-0.15596516,9.767822,0.0006013343227095902,-9.168352698907256e-05,8.506805170327425e-05,-7.508127689361572,23.93944358825684,-38.17426300048828,0.006625555455684662,0.0004081875085830689,0.04532337188720703,988.558349609375,0,13.0,1,1
15.44,0.062571764,-0.15834768,9.75835,-6.414990639314055e-05,-0.0003580490592867136,-0.0003142748610116541,-7.71294355392456,24.22151756286621,-37.77428436279297,0.020999498665332798,-0.004362270236015321,0.040592193603515625,988.5910034179688,0,13.0,1,1
15.48,0.07926941,-0.16311349,9.78202,-0.00019700190750882032,0.00044084893306717277,-4.782789619639516e-05,-7.728867053985597,24.04886054992676,-38.2236328125,0.0017998293042182922,0.005267426371574403,0.012190818786621094,988.54833984375,0,13.0,1,1
15.52,0.06967807,-0.15834619,9.770182,-0.00019700190750882032,0.00044084893306717277,-4.782789619639516e-05,-7.342469692230225,23.93681526184082,-38.66154098510742,0.002034716308116913,0.010068044066429138,0.035864830017089844,988.54833984375,0,13.0,1,1
15.56,0.06486654,-0.16787843,9.758341999999999,0.00020277785370126367,-9.183245128951968e-05,0.0007512507145293058,-7.867809772491455,24.34037208557129,-38.52721405029297,0.006554871797561646,0.010034769773483276,0.05954170227050781,988.5580444335938,0,13.0,1,1
15.6,0.07678434,-0.13451184,9.751238,-6.323255365714431e-05,-9.188204421661794e-05,-0.0003138819010928273,-7.745470523834228,24.13857078552246,-38.072357177734375,0.0066031962633132935,-0.03277458250522613,0.05954647064208984,988.5380249023438,0,13.0,1,1
15.64,0.074362755,-0.15357725,9.758337,0.00020338880131021145,0.0005738579784519969,-0.00018059287685900927,-7.2813005447387695,23.83591270446777,-38.43410873413086,0.006503671407699585,0.0008617788553237915,0.05481910705566406,988.5506591796876,0,13.0,1,1
15.68,0.074330986,-0.16787614,9.770169000000001,0.0002036942751146853,-0.00022513928706757724,-0.00018046185141429305,-7.838326454162598,24.42037010192871,-38.07453918457031,-0.0029309019446372986,0.015219032764434813,0.03588581085205078,988.5756225585938,0,13.0,1,1
15.72,0.0719094,-0.15834226,9.765432,0.00033715768950060015,-0.0004915047320537268,-4.717294359579682e-05,-7.583974361419678,23.657323837280273,-37.530189514160156,0.011677116155624391,0.010641127824783323,0.05009174346923828,988.5604858398438,0,13.0,1,1
15.76,0.076657504,-0.15834148,9.7654295,0.0003374637453816831,-0.0003583964426070452,0.0004855898441746831,-7.490001678466798,23.8512020111084,-38.4028434753418,-0.002430930733680725,0.005800202488899231,0.05482769012451172,988.5530395507812,0,13.0,1,1
15.8,0.06706613,-0.15357412,9.767794,0.0004709275090135634,-0.0006247619749046862,-0.00031322683207690716,-7.5702762603759775,23.67057609558105,-38.22593688964844,0.016744397580623627,-0.00384463369846344,0.031154632568359375,988.5634765625,0,13.0,1,1
15.84,0.07420415,-0.16310649,9.753588,-6.139877950772643e-05,-0.0006248115678317845,0.00021953589748591185,-7.803191184997559,23.76821327209473,-37.65686416625977,-0.0024219900369644165,0.0007961243391036987,0.0500946044921875,988.580810546875,0,13.0,1,1
15.88,0.076562345,-0.1559559,9.763053999999999,-0.0005937247187830508,0.00017408648272976282,-4.6648900024592876e-05,-7.852865695953369,24.143266677856445,-37.90211486816406,0.007044568657875061,0.005380004644393921,0.04536056518554688,988.5482788085938,0,13.0,1,1
15.92,0.076530576,-0.16548817,9.76305,-6.078690057620407e-05,4.087889101356268e-05,-0.00044599175453186035,-7.629380226135254,23.40466117858887,-38.432220458984375,-0.0024307146668434143,0.0005009621381759644,0.05956459045410156,988.5833129882812,0,13.0,1,1
15.96,0.06693929400000001,-0.16072089999999997,9.765414999999999,-0.0015249133575707676,0.00044025346869602805,0.0004863758804276586,-7.214884281158447,23.477060317993164,-39.039222717285156,0.0066286176443099976,6.5267086029052734e-06,0.04536056518554688,988.5780029296876,0,13.0,1,1
16.0,0.07697266,-0.15596594,9.77256,-0.00045934430090710515,0.0011059935204684734,8.703302592039108e-05,-7.293338298797607,23.9300479888916,-38.514747619628906,0.0018081143498420715,-0.009755700826644896,0.035892486572265625,988.5405883789062,0,13.0,1,1
16.04,0.07986671,-0.15359505,9.765505000000001,7.117557106539607e-05,0.0005737046012654902,0.00035244383616372943,-7.217087268829347,23.73796272277832,-38.361289978027344,-0.004348427057266235,-0.00013665854930877686,0.04053974151611328,988.5634765625,0,13.0,1,1
16.08,0.08465534400000001,-0.1726615,9.777341999999999,-0.0003379356930963695,0.0008419029181823133,-0.00018118059961125252,-7.970095634460449,23.98119926452637,-38.49043655395508,-0.0045116692781448356,0.019034400582313538,0.02633762359619141,988.572998046875,0,13.0,1,1
16.12,0.075104654,-0.15836208,9.763139,0.0008603999740444124,0.00030928492196835583,-0.000580690975766629,-7.4829344749450675,24.226850509643555,-38.88782119750977,0.004879578948020935,-0.00927877426147461,0.050014495849609375,988.5507202148438,0,13.0,1,1
16.16,0.075113535,-0.15836222,9.779710000000001,0.0004608405870385468,-0.000489648780785501,-0.0005807277630083263,-7.234233379364014,24.195959091186523,-38.3084602355957,0.010033853352069856,0.005001306533813477,0.03580760955810547,988.5430908203124,0,13.0,1,1
16.2,0.08468199,-0.16551225,9.753672,-0.0002050345647148788,-0.0008891087491065264,-0.000181290612090379,-7.591308116912843,23.86179161071777,-38.54181671142578,0.0007758066058158875,2.4884939193725586e-06,0.050004005432128906,988.5580444335938,0,13.0,1,1
16.24,0.08469093,-0.16074593,9.774977999999999,-0.0010040677152574062,-0.0004896210157312453,-4.8169342335313565e-05,-7.994309425354004,24.06354331970215,-37.95263671875,-0.003749348223209381,0.009461790323257445,0.04999923706054688,988.5585327148438,0,13.0,1,1
16.28,0.079919934,-0.15597962,9.774979,0.00046058389125391836,-0.00035644913441501563,-0.0003145218943245709,-7.8145484924316415,23.5999698638916,-38.33812713623047,-0.003962866961956024,0.004851281642913818,0.031064987182617188,988.54052734375,0,13.0,1,1
16.32,0.07753894,-0.15597983,9.779713000000001,0.0004604983259923756,0.0011083021527156234,0.00048438907833769923,-7.9080848693847665,24.14414405822754,-37.73968505859375,0.0005772337317466736,7.955729961395264e-05,0.040535926818847656,988.5558471679688,0,13.0,1,1
16.36,0.070378125,-0.16551317,9.763144,-0.00033853488275781274,-0.0003564213984645903,-0.00018143747001886368,-7.876696586608888,23.33110618591309,-38.38980484008789,0.010182321071624756,0.009406015276908876,0.04999828338623047,988.5609130859376,0,13.0,1,1
16.4,0.08472639,-0.15359701,9.753675,-0.00033862056443467736,-0.00035640751593746245,0.00021799982641823593,-7.0395283699035645,23.5352840423584,-38.06885528564453,-0.008683636784553528,-0.009994566440582277,0.04998970031738281,988.5533447265624,0,13.0,1,1
16.44,0.08234537,-0.160747,9.7678795,-0.001004495657980442,-9.007772314362228e-05,-4.835269646719098e-05,-7.6888675689697275,24.03325080871582,-37.61300659179688,-0.0039091333746910095,0.004153192043304443,0.04051971435546875,988.5685424804688,0,13.0,1,1
16.48,0.07996439999999999,-0.14168103,9.758411,-0.0007382655167020857,0.0007088837446644902,0.0002179264556616545,-7.524731636047362,24.02915382385254,-38.02298355102539,-0.004279389977455139,-0.010200083255767822,0.049988746643066406,988.5608520507812,0,13.0,1,1
16.52,0.06563386,-0.1559809,9.76078,-7.25613790564239e-05,0.0005757397739216684,0.00021788981393910944,-7.739383220672607,24.14446830749512,-38.38157272338867,0.005028232932090759,-0.005275651812553407,0.05946159362792969,988.5478515625,0,13.0,1,1
16.56,0.065642685,-0.1535979,9.751311,0.00045998493442311883,0.00017627989291213453,0.00021785317221656442,-7.938111305236816,24.432435989379886,-38.29081726074219,0.009912855923175812,-0.0004856586456298828,0.054726600646972656,988.5606079101562,0,13.0,1,1
16.6,0.07999104,-0.15836467,9.758413000000001,0.0007262151339091362,0.0003094516869168729,-0.0001816574367694557,-8.177818298339844,24.366247177124023,-38.63492965698242,-0.00490293651819229,-0.004660367965698242,0.040535926818847656,988.5507202148438,0,13.0,1,1
16.64,0.07522008,-0.1535983,9.77972,0.0008592875092290343,0.0007089393911883235,-4.8536050599068396e-05,-7.702725887298584,23.49377250671387,-38.04121398925781,-0.004752300679683685,0.009512931108474731,0.026328086853027344,988.5528564453124,0,13.0,1,1
16.68,0.08956835,-0.16313158,9.784454,-0.0006055354024283588,-0.0006226261612027884,-0.0009806782472878695,-7.71987247467041,23.95178031921387,-37.98838806152344,-0.009706951677799223,-9.803473949432372e-05,0.021592140197753903,988.540283203125,0,13.0,1,1
16.72,0.08718732,-0.15598197,9.763150999999999,6.016873521730304e-05,0.00044265130418352783,-0.00031492527341470117,-7.733976364135742,24.41273307800293,-38.09016799926758,-0.009293854236602785,-0.00010500848293304445,0.04999446868896485,988.5580444335938,0,13.0,1,1
16.76,0.08719623,-0.15359898,9.753683,0.00032639881828799844,-0.0007557562785223126,0.00021766970166936522,-7.627560138702393,24.03826713562012,-38.08465576171875,0.0006890669465065002,0.0048920512199401855,0.0594644546508789,988.5656127929688,0,13.0,1,1
16.8,0.072865665,-0.14883266,9.767887,0.0004594714264385402,-0.0012883740710094573,-0.00031499867327511316,-7.5702762603759775,23.67057609558105,-38.22593688964844,0.005614914000034332,-0.00947137176990509,0.04525566101074219,988.5656127929688,0,13.0,1,1
16.84,0.07526448,-0.13929977,9.767889,-0.0001910083228722215,0.00011370165157131853,-0.0005658371956087649,-7.510192394256593,24.306257247924805,-38.19540786743164,0.000660628080368042,-0.0238073319196701,0.03578758239746094,988.5526733398438,0,13.0,1,1
16.88,0.06810364,-0.15598296,9.765522,-0.0001910083228722215,0.00011370165157131853,-0.0005658371956087649,-7.890363693237305,24.53011131286621,-38.76579666137695,0.005516752600669861,0.004846170544624329,0.0310516357421875,988.5526733398438,0,13.0,1,1
16.92,0.07050246,-0.15121652,9.772624,-0.00045741000212728977,-1.944229006767273e-05,-3.324227873235941e-05,-7.936589241027832,24.43390846252441,-38.36812210083008,0.0049320533871650704,-0.00472615659236908,0.05472850799560547,988.5578002929688,0,13.0,1,1
16.96,0.06334162,-0.16551639,9.763156,-0.0003243375103920698,0.00011372941662557424,-0.00043275271309539676,-7.693295478820801,24.134748458862305,-38.080169677734375,0.01919131726026535,-0.00011660158634185791,0.04999065399169922,988.580810546875,0,13.0,1,1
17.0,0.08231079599999999,-0.16074623,9.772611,0.0002082086866721511,0.0013121648225933313,-0.0002996314433403313,-7.791994094848633,23.41023063659668,-38.099552154541016,0.000361613929271698,0.004249557852745056,0.03579425811767578,988.55029296875,0,13.0,1,1
17.04,0.0942629,-0.15359639,9.774979,-0.000990298460237682,-0.0004188744933344424,-3.3352349419146776e-05,-7.2245588302612305,23.83650779724121,-38.6738395690918,-0.014322899281978609,-0.005025789141654968,0.031064987182617188,988.5707397460938,0,13.0,1,1
17.08,0.067976505,-0.16074635,9.784447,7.583177648484707e-05,-0.00015269935829564932,-0.0005656126304529607,-7.491631031036378,24.95606803894043,-38.69819641113281,0.004578426480293274,0.004748195409774779,0.02160263061523437,988.55029296875,0,13.0,1,1
17.12,0.06558913,-0.17027946,9.767877,7.636740338057281e-05,0.0010456350864842534,-0.000299067294690758,-7.636012077331543,23.76706123352051,-38.22145080566406,0.009349480271339415,0.009461149573326109,0.04053878784179688,988.54833984375,0,13.0,1,1
17.16,0.0679816,-0.16789629,9.763144,0.0007421324262395501,0.0005130073986947536,0.00036671201814897364,-7.631147384643555,24.40361213684082,-38.02849578857422,0.009761959314346312,-0.005210459232330322,0.04526329040527344,988.5733032226562,0,13.0,1,1
17.2,0.07515377,-0.15836318,9.770245,-0.0004563133697956801,-0.0009517259895801543,-0.00016593030886724589,-7.874876976013184,23.9647159576416,-38.04224395751953,0.0004988908767700195,0.004112616181373596,0.021585464477539062,988.5584106445312,0,13.0,1,1
17.24,0.07276645,-0.16074659,9.763144,-5.688855890184641e-05,-0.0004190862528048456,-0.00029910908779129386,-7.706175327301025,23.965036392211914,-38.68412780761719,0.010080195963382721,0.004000023007392882,0.04998970031738281,988.5656127929688,0,13.0,1,1
17.28,0.07754877,-0.15359677,9.753675,-5.688855890184641e-05,-0.0004190862528048456,-0.00029910908779129386,-7.706175327301025,23.965036392211914,-38.68412780761719,0.005500435829162598,-0.014692708849906918,0.04999446868896485,988.5656127929688,0,13.0,1,1
17.32,0.077551305,-0.16074671,9.784449,0.0008751681307330728,-0.0006853941595181823,-3.281421959400177e-05,-7.4960899353027335,23.845312118530273,-38.09362411499024,-0.00434374064207077,-0.00021786987781524655,0.026328086853027344,988.5757446289062,0,13.0,1,1
17.36,0.082333684,-0.15836348,9.770246499999999,0.00034251203760504717,0.001311978790909052,0.00010033324360847472,-7.5045409202575675,23.57409858703613,-38.23042297363281,-0.009425528347492218,-0.00015215575695037842,0.05947113037109375,988.52783203125,0,13.0,1,1
17.4,0.063216984,-0.14644720000000003,9.7678795,0.0007419614121317862,0.0009125090437009932,0.00010032276622951032,-7.390216827392577,23.83913993835449,-38.186561584472656,0.018915876746177673,-0.014025211334228516,0.04527568817138672,988.5681762695312,0,13.0,1,1
17.44,0.077558935,-0.14644720000000003,9.758410000000001,0.00047562085092067713,0.00011356532922945915,0.0001003123470582068,-7.322959899902344,23.74413108825684,-38.268348693847656,0.004158519208431244,-0.0044545978307724,0.04528045654296875,988.5761108398438,0,13.0,1,1
17.48,0.07517159,-0.17504661,9.777348,-5.7035125792026527e-05,0.0010456749005243182,0.0004997756332159042,-7.283801078796388,23.464677810668945,-38.18104553222656,-0.0005104318261146545,0.023982971906661987,0.040543556213378906,988.5452880859376,0,13.0,1,1
17.52,0.07756394,-0.16313027,9.770247999999999,-0.0007228492759168147,-0.0008185323094949126,0.00010029133409261703,-8.002760887145996,23.792333602905273,-38.08943176269531,0.004092305898666382,-0.00011402368545532229,0.03106975555419922,988.560302734375,0,13.0,1,1
17.56,0.07039684,-0.16074707,9.758411,0.00020923162810504442,0.0013119988143444061,-0.0002991930232383311,-7.708676338195801,23.59380149841309,-38.431068420410156,0.003735221922397613,0.004480317234992981,0.0452728271484375,988.5558471679688,0,13.0,1,1
17.6,0.07278928,-0.16313039,9.758411,7.604958955198525e-05,0.0005130551289767027,-3.288756124675274e-05,-7.623835563659668,23.77884101867676,-38.83988952636719,0.0036020129919052124,0.004387408494949341,0.04527187347412109,988.5558471679688,0,13.0,1,1
17.64,0.07040191,-0.16551371,9.758411,-0.0005897647934034468,0.0014451645547524097,-0.00043237191857770085,-7.616363048553468,23.680288314819336,-38.52733612060547,-0.0017528235912322998,0.009196147322654724,0.045276641845703125,988.555419921875,0,13.0,1,1
17.68,0.07279438,-0.14406432,9.770247999999999,-0.0008561051217839122,-0.00015272668679244816,-0.0009650142746977508,-7.255159378051758,23.28083229064941,-38.251686096191406,0.007760003209114075,-0.019755259156227112,0.04527091979980469,988.5507202148438,0,13.0,1,1
17.72,0.08474639,-0.15836401,9.765514,-0.0004566556308418512,-1.9564817193895582e-05,0.000100238888990134,-7.645005226135254,23.86413764953613,-38.45669555664063,-0.01121174544095993,-0.005596548318862915,0.04053401947021485,988.5355834960938,0,13.0,1,1
17.76,0.07996914,-0.15359761,9.777349000000001,-0.0007229961920529604,0.0003799130499828607,0.00010022841161116958,-7.043957233428955,23.63678550720215,-38.5360107421875,-0.0020953044295310974,-0.01517520844936371,0.04053688049316406,988.540283203125,0,13.0,1,1
17.8,0.07758176,-0.14883105,9.758411,0.0008748747641220689,0.0007793908007442951,-0.0002992558875121176,-7.3590736389160165,24.026525497436523,-38.51026153564453,-0.006723314523696899,-0.010045602917671205,0.040541648864746094,988.5533447265624,0,13.0,1,1
17.84,0.07519436,-0.15359773,9.765514,0.0006085345521569253,0.00011360508506186306,-0.0005655822460539639,-7.926210880279541,24.23238182067871,-37.51110076904297,-0.001988649368286133,0.008838802576065062,0.031068801879882806,988.5580444335938,0,13.0,1,1
17.88,0.0680272,-0.15121444,9.767882,-0.0015220170607790349,-0.00028586474945768714,-0.00029927684227004647,-7.268421173095702,24.00562858581543,-37.83015060424805,0.007707342505455017,-0.0057852715253829965,0.031061172485351562,988.5557250976562,0,13.0,1,1
17.92,0.08714899400000001,-0.15121455,9.763147,-0.0005899358075112103,-0.0006853345548734069,0.0006328183226287365,-7.517664909362793,24.40480995178223,-38.507957458496094,-0.01155543327331543,-0.010519459843635559,0.05000114440917969,988.555419921875,0,13.0,1,1
17.96,0.07040653,-0.15359749,9.75131,0.0003421452129259705,0.0011788804549723866,-0.00029929773882031435,-7.725822925567628,24.051801681518555,-38.37824249267578,0.007370367646217345,-0.024917900562286373,0.05000114440917969,988.555419921875,0,13.0,1,1
18.0,0.07995206,-0.15836366,9.7678795,-0.00019051122944802049,0.00024677891633473337,0.0004996393108740449,-7.622994422912598,24.04268455505371,-38.31657409667969,-0.0071816518902778625,0.008463606238365173,0.035803794860839844,988.5580444335938,0,13.0,1,1
18.04,0.08234322,-0.16313021,9.7820835,0.0006087194196879864,0.0005130487261340021,-0.0004323450266383588,-7.537312984466553,24.49157905578613,-38.20207214355469,-0.007090292870998383,0.003690868616104126,0.03580188751220703,988.5834350585938,0,13.0,1,1
18.08,0.0727849,-0.16789688,9.76788,-0.000989187858067453,0.00011357697076164187,-0.000432350265327841,-8.003303527832031,24.16062355041504,-38.18788146972656,-0.0020098090171813965,0.008080452680587769,0.04526042938232422,988.5631713867188,0,13.0,1,1
18.12,0.07278615,-0.15359725,9.75131,-0.0008560423739254475,-0.0008185266051441432,-0.0001660395646467805,-7.486414909362793,23.48585319519043,-38.45899963378906,0.002484157681465149,-0.011216625571250916,0.06893253326416016,988.5631713867188,0,13.0,1,1
18.16,0.07995716,-0.16789688,9.758411,-0.0008560548303648831,0.0002467389276716858,0.0008992187213152648,-7.049907207489014,23.73680686950684,-38.925872802734375,0.0023692026734352107,0.002732992172241211,0.05472469329833984,988.5380859375,0,13.0,1,1
18.2,0.07995844,-0.15359725,9.770246499999999,-0.0004565928829833865,0.0003798987891059369,-0.0004323659813962877,-7.818135738372803,23.965314865112305,-38.2819709777832,-0.006861180067062378,-0.0067878663539886475,0.02631664276123047,988.5380859375,0,13.0,1,1
18.24,0.07278997,-0.16313045,9.777349000000001,-0.0004565928829833865,0.0003798987891059369,-0.0004323659813962877,-7.654979228973389,23.59145164489746,-38.51618957519531,0.012500740587711334,0.007588535547256471,0.031047821044921875,988.5380859375,0,13.0,1,1
18.28,0.07279125,-0.17504685,9.770246499999999,0.00020918459631502626,-0.0002858888474293053,0.00023341854102909565,-7.2069759368896475,24.116559982299805,-39.000877380371094,0.007730409502983094,0.026354610919952396,0.03577899932861328,988.5380249023438,0,13.0,1,1
18.32,0.06562281,-0.15359731,9.7678795,-0.0007229335606098175,-0.000818518572486937,0.0006328871240839362,-7.898272514343263,23.890607833862305,-38.804141998291016,0.0075761452317237845,-0.006744682788848877,0.05945682525634765,988.5558471679688,0,13.0,1,1
18.36,0.070403874,-0.16551377,9.7749815,0.0005151063669472934,0.00022104260278865692,-0.0006020446307957172,-7.810525417327881,23.97267723083496,-38.668495178222656,0.0075188130140304565,0.007745072245597839,0.04052162170410156,988.5584106445312,0,13.0,1,1
18.4,0.07518497,-0.16551383,9.765514,0.0005151063669472934,0.00022104260278865692,-0.0006020446307957172,-7.810525417327881,23.97267723083496,-38.668495178222656,-0.0018377825617790227,0.007560297846794128,0.0357818603515625,988.5584106445312,0,13.0,1,1
18.44,0.07996601,-0.16074729999999998,9.76078,0.0003819358535110951,-0.00017842926899902525,-0.0008683658670634031,-8.079555511474611,24.352712631225586,-38.34133911132813,-0.016066484153270718,0.00266072154045105,0.04524707794189453,988.5533447265624,0,13.0,1,1
18.48,0.07757741,-0.16789712,9.767881,-0.0004170236643403769,-4.5269320253282785e-05,-0.0004688972840085626,-7.3861937522888175,24.21184730529785,-38.51692962646485,-0.001729518175125122,0.002698779106140137,0.04524803161621094,988.5681762695312,0,13.0,1,1
18.52,0.087138236,-0.16551389,9.758412,-0.00028387794736772776,-0.0005778991035185754,-0.0003357446985319257,-7.462040424346924,23.92972755432129,-37.87285614013672,-0.011391386389732359,0.007292404770851134,0.05471611022949219,988.532958984375,0,13.0,1,1
18.56,0.08235973,-0.16074742,9.765514,-1.7574522644281387e-05,-4.526536213234067e-05,0.0009958294685930014,-7.218746662139893,23.630571365356445,-37.58490753173828,-0.011147946119308472,-0.0020410269498825073,0.04051399230957031,988.5478515625,0,13.0,1,1
18.6,0.079971075,-0.14883102,9.756045,0.0003818871919065714,0.000753684202209115,-0.00046891311649233103,-7.750442028045653,24.60835838317871,-38.63796997070313,-0.001666918396949768,-0.006490141153335571,0.04525279998779297,988.5685424804688,0,13.0,1,1
