Timestamp,Ax,Ay,Az,Gx,Gy,Gz,Mx,My,Mz,LiAx,LiAy,LiAz,P,Value,Type,GroupType,Activities
0.0,-0.73759115,3.5289247,8.930927,-7.179018575698137e-05,0.00020950828911736608,9.246886475011706e-05,-11.210870742797852,16.41581153869629,-37.00947570800781,0.009716980159282684,0.015742257237434387,0.04144287109375,988.5877075195312,0,13.0,1,1
0.04,-0.6061199,4.0389457,8.339128500000001,-7.179018575698137e-05,0.00020950828911736608,9.246886475011706e-05,-11.210870742797852,16.41581153869629,-37.00947570800781,-0.04463028907775879,-0.4874978065490722,1.1781702041625977,988.5877075195312,0,13.0,1,1
0.08,0.029620677,4.3583045,8.133184,-0.3792460262775421,0.5615281462669373,0.41335973143577576,-14.656177520751953,-7.349588394165039,-43.94115447998047,-1.2339651584625244,-1.290177822113037,1.119367599487305,988.5135498046876,0,13.0,1,1
0.12,-0.6036767,4.0913763,9.039825,-0.5917662978172302,0.3380891978740692,0.3658221960067749,-13.677290916442873,-6.853854179382324,-44.96783447265625,-0.2800557613372803,-1.153641939163208,0.13202667236328125,988.581787109375,0,13.0,1,1
0.16,-1.3015014,3.6743019999999995,6.7886186,-0.26193436980247503,0.4908213913440704,0.009091999381780623,-13.424674034118652,-5.405691623687744,-45.09149932861328,-0.5088765621185303,-0.6987354755401611,1.757610321044922,988.571044921875,0,13.0,1,1
0.2,-1.8296430000000001,3.0069838,5.138681,0.2390055805444717,1.395496487617493,-0.1439065933227539,-9.126542091369627,-6.912155628204347,-45.66567611694336,-0.1331840753555298,-0.03968548774719238,3.8100333213806152,988.555908203125,0,13.0,1,1
0.24,-1.8128872,1.8701589,5.1505194,0.1991911083459854,0.9056085348129272,-0.06614245474338531,-8.904143333435059,-6.9141845703125,-46.39268493652344,0.020180106163024902,0.9338889122009276,3.812879085540772,988.5098876953124,0,13.0,1,1
0.28,-0.9859544,1.9845557,4.146828,-0.30800777673721313,0.07030875235795975,0.1744738221168518,-9.028684616088867,-6.451483726501465,-46.16961669921875,-0.7941396236419678,1.4899002313613892,5.075224876403809,988.4940795898438,0,13.0,1,1
0.32,-0.8660026,1.8368984,5.590426,-0.32132381200790405,-0.1695086508989334,0.5397259593009949,-10.228960990905762,-5.363168716430664,-45.66341781616211,-0.3014820218086243,0.7044303417205809,3.9285058975219727,988.5115966796876,0,13.0,1,1
0.36,0.44836712,1.0337353999999999,5.180892500000001,-0.12117212265729906,-1.3907026052474976,0.7336105108261108,-13.821151733398438,-4.4599876403808585,-45.08573913574219,-1.0894142389297483,2.1845660209655757,3.638649463653565,988.5216674804688,0,13.0,1,1
0.4,-0.15635439999999998,0.49749976,6.842662299999999,0.19735875725746155,-1.474185585975647,0.7968824505805969,-15.970558166503904,-3.5755653381347656,-44.49833679199219,0.5886012315750122,2.0238561630249023,4.0120224952697745,988.5467529296876,0,13.0,1,1
0.44,2.4963603,0.44030297,11.541552000000001,-1.0195708274841309,-1.6018842458724976,0.8191201090812683,-19.42443084716797,-1.0689640045166016,-42.26515197753906,-1.206518530845642,1.2642419338226318,-2.5403709411621094,988.5928344726562,0,13.0,1,1
0.48,1.9250975,0.29254156,11.423183,-1.231690764427185,-2.6531662940979004,1.1783806085586548,-23.26122283935547,2.290679931640625,-40.02288055419922,0.09611105918884276,1.1942917108535769,-1.8957624435424805,988.7066650390624,0,13.0,1,1
0.52,3.514306,1.7391933000000002,11.716711,-0.9440689086914062,-1.615733027458191,1.2987556457519531,-25.428401947021484,5.528043746948242,-38.03073120117188,-0.995593786239624,0.3296966552734375,-2.5266590118408203,988.8136596679688,0,13.0,1,1
0.56,2.8331075,0.50227374,13.376112,-0.575620174407959,-1.1760456562042236,1.5193986892700195,-26.361799240112305,8.129793167114258,-36.42246627807617,0.08730554580688478,-0.4357052445411682,-3.260578155517578,988.7699584960938,0,13.0,1,1
0.6,3.736414,-0.16504233,13.106244,-1.4555270671844482,-0.972713589668274,0.8319045305252075,-26.73953056335449,10.671833038330078,-33.97252655029297,-0.20467734336853027,0.8014334440231323,-4.546011924743652,988.8050537109376,0,13.0,1,1
0.64,4.496327,0.6023752,12.204332,-1.3195719718933103,-0.9396904706954956,0.7253785133361816,-27.49439239501953,13.440671920776367,-32.24757766723633,-0.3838322162628174,-0.8055623173713684,-3.2441368103027344,988.7235107421876,0,13.0,1,1
0.68,5.47133,1.5413888,11.610157000000001,-0.2813389003276825,-1.3181254863739014,0.9735851883888244,-27.855817794799805,15.260860443115234,-30.373783111572266,-1.1195592880249023,-1.22610604763031,-2.600317001342773,988.6267700195312,0,13.0,1,1
0.72,4.8833385,0.29731929999999995,13.600967,0.2741967439651489,-1.425584077835083,0.9389644265174866,-28.80766868591309,16.106456756591793,-27.89007568359375,-0.1186366081237793,-1.3040504455566406,-4.868087768554688,988.50439453125,0,13.0,1,1
0.76,5.4162097000000005,-0.3390141,10.459683,-0.22261476516723636,-1.5084084272384644,0.4498756527900696,-29.37062263488769,17.21124267578125,-26.09732818603516,-0.1477818489074707,0.2287930250167847,-3.45477294921875,988.5576171875,0,13.0,1,1
0.8,5.1986527,0.06376183,7.0556396999999995,-0.009295016527175905,-0.4700428545475006,0.4665206968784332,-29.23040199279785,17.921627044677734,-25.54463195800781,-0.3948936462402344,-0.6411210298538208,1.2073392868041992,988.514404296875,0,13.0,1,1
0.84,5.764982700000001,-0.42719162,8.873644,0.22932475805282596,0.17617245018482208,0.5643921494483948,-28.01971435546875,17.844045639038086,-26.26554107666016,0.030778408050537113,-0.036817342042922974,1.0548114776611328,988.3253784179688,0,13.0,1,1
0.88,6.16641,0.9574950999999999,10.847883,0.040108051151037216,-0.7474111318588257,0.4638581871986389,-28.25148963928223,18.83766365051269,-24.748279571533203,-2.0636243820190434,-1.430579662322998,-6.564725875854492,988.3173217773438,0,13.0,1,1
0.92,5.241441200000001,-1.0754398,8.861794,-0.4617635011672974,0.30933016538619995,0.6271101236343384,-28.132951736450195,21.21389579772949,-24.98257255554199,-0.18831920623779294,-0.03089779615402222,0.6335101127624512,988.3733520507812,0,13.0,1,1
0.96,3.9388690000000004,-1.0396887,8.409651,-0.4606975018978119,0.50853431224823,0.19501295685768127,-27.02631950378418,21.776094436645508,-25.26297950744629,0.2300891876220703,-0.4498512744903565,-0.2848320007324219,988.4520263671876,0,13.0,1,1
1.0,5.6571317,-0.91337293,9.205025,0.0022934190928936005,-0.16790814697742462,0.3042027652263641,-26.99574851989746,21.1195125579834,-24.613399505615234,1.1051521301269531,0.6287533640861511,0.6522417068481445,988.3831787109376,0,13.0,1,1
1.04,5.2842307,0.3449999,8.066393,0.8968492150306702,-0.7587300539016724,-0.4930135011672974,-27.933279037475586,20.08342933654785,-24.177350997924805,-0.6857218742370605,-1.2213953733444214,0.15988445281982422,988.403564453125,0,13.0,1,1
1.08,5.226796599999999,-0.23651816,8.45224,0.6240092515945435,-0.09320677816867827,0.039219062775373466,-27.92748641967773,19.457183837890625,-24.91144180297852,0.06025028228759765,0.002221345901489258,-0.27359962463378906,988.2967529296876,0,13.0,1,1
1.12,4.786978700000001,-0.19838388,8.608469,0.3272009789943695,0.0944126471877098,0.2678515911102295,-27.870309829711914,20.19583320617676,-25.42538452148437,0.14437198638916016,-0.004087090492248535,-0.2307348251342773,988.4105834960938,0,13.0,1,1
1.16,4.789292,-0.11020066,8.572954,0.05822268128395081,0.4779074192047119,0.2361603230237961,-27.10001564025879,19.60051155090332,-26.048133850097656,0.06857919692993164,-0.4324618577957153,-0.02549648284912109,988.4688720703124,0,13.0,1,1
1.2,4.703179,-0.17216401,8.625025,0.280863493680954,0.4775077998638153,0.4753123223781586,-26.67913627624512,20.310937881469727,-26.53948211669922,-0.022758007049560547,-0.2247122973203659,-0.02135562896728516,988.4615478515624,0,13.0,1,1
1.24,4.3948054,-0.15547918,8.769417,0.1687452495098114,0.5198518633842468,0.24295203387737274,-25.55978202819824,20.51663017272949,-27.339881896972656,0.1536693572998047,-0.2540856599807739,-0.09529781341552734,988.5296630859376,0,13.0,1,1
1.28,4.2658505,-0.12926556,8.776527,-0.024066716432571408,0.4997448921203613,-0.10578830540180206,-24.92346000671387,19.74302864074707,-27.70060729980469,0.0615229606628418,-0.26122111082077026,0.01699352264404297,988.582763671875,0,13.0,1,1
1.32,3.8692374,-0.12926833,8.980117,-0.09530548006296158,0.4403564035892487,-0.19540327787399286,-24.70961952209473,20.57613182067871,-28.93707275390625,0.06511878967285156,-0.2851473689079285,0.015829086303710938,988.5619506835938,0,13.0,1,1
1.36,3.3171082000000003,-0.16024943,9.342294,-0.03898664191365242,1.1297215223312378,-0.0764881819486618,-23.92462539672852,20.78413200378418,-28.60830307006836,0.03258323669433594,-0.25348275899887085,-0.08777236938476562,988.5517578125,0,13.0,1,1
1.4,3.094785,-0.12926526,9.330452000000001,-0.039120037108659744,1.4333217144012451,-0.08301302790641785,-22.014789581298828,19.93943977355957,-30.2388916015625,0.2072172164916992,-0.2624015808105469,-0.14397335052490234,988.5238037109376,0,13.0,1,1
1.44,2.9871773999999998,-0.13164698,9.294938,-0.08172997087240219,0.5491528511047363,-0.23188334703445435,-21.21389579772949,19.899797439575195,-31.283802032470703,-0.020359516143798828,-0.23661108314991,0.042072296142578125,988.53857421875,0,13.0,1,1
1.48,2.6573086,-0.11019598,9.380153,-0.08652306348085402,0.3870995044708252,-0.2627756893634796,-20.385881423950195,19.67483139038086,-32.322036743164055,0.13624811172485352,-0.2888641953468323,0.009410858154296877,988.5154418945312,0,13.0,1,1
1.52,2.2103347999999996,-0.15786003,9.503241000000001,-0.040316659957170486,0.8488911986351013,-0.12003015726804732,-19.600208282470703,19.62045669555664,-32.593902587890625,-0.036945104598999016,-0.2571872472763061,0.05815696716308594,988.5256958007812,0,13.0,1,1
1.56,1.2160736,-0.12687595,10.106873,-0.020875003188848492,1.401496410369873,-0.0615735687315464,-16.468433380126953,19.97277069091797,-34.636795043945305,0.6083407402038574,-0.3733120560646057,-0.5278606414794922,988.5332641601562,0,13.0,1,1
1.6,1.8899639,-0.19837274,9.633426,-0.13845285773277285,1.352627515792847,-0.1353428065776825,-15.96466827392578,20.128713607788086,-35.185455322265625,-0.3296836614608765,-0.22167052328586576,0.3912191390991211,988.5204467773438,0,13.0,1,1
1.64,1.615063,-0.13878925,9.593178,0.015744633972644806,-0.0744263157248497,-0.17568941414356232,-16.009233474731445,20.139902114868164,-35.56416320800781,0.11928153038024902,-0.3196582198143005,0.19962692260742188,988.5204467773438,0,13.0,1,1
1.68,1.6221707,-0.12210475,9.628679,0.01934048905968666,0.026507306843996048,-0.14865809679031372,-16.167963027954098,20.412267684936523,-34.862781524658196,0.08686065673828125,-0.26337093114852905,-0.020303726196289062,988.5455322265624,0,13.0,1,1
1.72,1.5647507999999999,-0.13401963,9.664183,-0.005559444893151522,0.01838457584381104,-0.1491904854774475,-15.955972671508787,19.39949989318848,-35.37508010864258,0.1635913848876953,-0.23988012969493866,-0.07866287231445312,988.5477905273438,0,13.0,1,1
1.76,1.5455694,-0.14355125,9.671278,-0.025532536208629608,0.058864489197731025,-0.08114651590585709,-15.872248649597168,19.108861923217773,-34.90906524658203,0.1260610818862915,-0.2631945610046387,-0.03432941436767578,988.5447998046876,0,13.0,1,1
1.8,1.6721721,-0.14831622,9.363536999999999,-0.010485089384019377,0.10214072465896606,0.020719576627016068,-15.976461410522461,19.2224178314209,-35.59251403808594,-0.06394350528717041,-0.22560103237628934,0.1301898956298828,988.5575561523438,0,13.0,1,1
1.84,0.44609034,-0.1554646,9.962433,0.029862362891435627,0.2755122482776642,0.07345037907361984,-14.363049507141113,18.731245040893555,-35.50445556640625,0.5547593832015991,-0.2926735281944275,-0.4130229949951172,988.5400390625,0,13.0,1,1
1.88,0.1496804,-0.19121222,8.468722999999999,-0.19264395534992215,1.682458996772766,-0.16836418211460116,-11.807843208312988,18.648441314697266,-36.50923156738281,0.1677163988351822,-0.43962708115577703,1.8376784324646,988.5294799804688,0,13.0,1,1
1.92,0.085090876,-0.15784479999999998,9.941116000000001,0.10789410024881364,1.8363894224166868,-0.5946024656295776,-10.69900608062744,18.94973945617676,-37.46757507324219,0.08625930547714232,-0.22966904938220975,-0.3784265518188477,988.5289306640624,0,13.0,1,1
1.96,0.08980861,-0.16022654,9.761204,-0.017540067434310913,0.0041360920295119286,-0.010172039270401,-10.416118621826172,19.109182357788086,-37.36652755737305,0.0908692181110382,-0.26718032360076904,0.06664371490478516,988.570068359375,0,13.0,1,1
2.0,0.09930605,-0.15784173,9.761198,0.0011026442516595123,-0.00012505977065302432,-0.001782831968739629,-10.413074493408203,19.112131118774414,-37.521141052246094,0.08613359928131104,-0.2570758461952209,0.03353309631347656,988.5139770507812,0,13.0,1,1
2.04,0.08251464,-0.17213989999999998,9.782497,0.00017113698413595557,-0.00012515700655058024,-0.0007173116900958121,-10.594655990600586,18.94209861755371,-37.48320770263672,0.1004505455493927,-0.2420451194047928,0.014634132385253906,988.5314331054688,0,13.0,1,1
2.08,0.07767272,-0.16498847,9.765921,0.00043805158929899335,-0.0009242017986252904,0.00021505047334358096,-10.670363426208496,18.76589012145996,-37.53821563720703,0.10972575843334198,-0.2462517470121384,0.03834152221679688,988.5388793945312,0,13.0,1,1
2.12,0.08956012,-0.17690341,9.782485000000001,3.917684080079198e-05,0.00027412245981395245,0.0008810966974124312,-10.812893867492676,19.42275047302246,-37.78563690185547,0.09103241562843324,-0.2358854562044144,0.014704704284667969,988.5744018554688,0,13.0,1,1
2.16,0.08949798,-0.15783562,9.775377,0.0012381968554109335,-0.0010575541527941825,0.0010145113337785006,-10.190269470214844,18.635892868041992,-37.45061874389648,0.09543277323246002,-0.2534545660018921,0.019519805908203125,988.5541381835938,0,13.0,1,1
2.2,0.09421566,-0.16498394,9.7682705,0.0011056375224143267,0.00014077016385272143,8.266232907772064e-05,-10.227225303649902,18.654447555541992,-38.21585083007813,0.1002853512763977,-0.24857725203037265,0.024261474609375,988.548583984375,0,13.0,1,1
2.24,0.08459395,-0.16736569,9.777733999999999,4.0973129216581576e-05,-0.00012564292410388592,0.00034923478960990906,-10.494573593139648,19.56217193603516,-36.84205627441406,0.10958386957645416,-0.24766339361667636,0.03378009796142578,988.5408935546876,0,13.0,1,1
2.28,0.10377586,-0.16260065,9.765903,0.0009736773208715024,0.00014057569205760956,0.00034949142718687654,-10.387178421020508,19.55747413635254,-37.01229476928711,0.08557237684726715,-0.2566956877708435,0.03853034973144531,988.5634765625,0,13.0,1,1
2.32,0.09176922,-0.16021593,9.782469,-9.11364913918078e-05,-0.0006584450020454824,0.0011486319126561286,-10.434244155883787,19.197423934936523,-37.13794708251953,0.0855478048324585,-0.2466668337583542,0.014885902404785156,988.5226440429688,0,13.0,1,1
2.36,0.09888178,-0.16021462,9.770628,-0.0002294816076755524,1.3071869034320116e-05,-4.4622167479246855e-05,-10.50440788269043,19.395402908325195,-37.600624084472656,0.08571483194828032,-0.2508533596992493,0.029115676879882806,988.54541015625,0,13.0,1,1
2.4,0.07731557,-0.15544670000000002,9.777724000000001,0.00043685862328857183,-0.0009191230637952683,-0.00017754413420334458,-10.920724868774414,18.689393997192386,-37.34119415283203,0.10020506381988524,-0.2452004700899124,0.033890724182128906,988.5706787109376,0,13.0,1,1
2.44,0.082038224,-0.16497834,9.791922,0.00043740903493016964,-0.0006528965895995497,0.0004884814843535423,-10.737621307373047,18.86090087890625,-37.45642471313477,0.10472111403942108,-0.23477117717266086,0.010267257690429688,988.5451049804688,0,13.0,1,1
2.48,0.08676094,-0.15306054,9.791917999999999,0.0009705914417281748,0.00027911964571103454,0.0004887174000032246,-10.329350471496582,18.821491241455078,-37.05512619018555,0.09954741597175598,-0.2531856894493103,0.005573272705078125,988.5601806640624,0,13.0,1,1
2.52,0.0938735,-0.16259225,9.770607,3.903626929968596e-05,0.000678504118695855,-4.3678388465195894e-05,-10.654302597045898,19.04446792602539,-37.787940979003906,0.08526533842086792,-0.24791820347309115,0.02453708648681641,988.5475463867188,0,13.0,1,1
2.56,0.08425683,-0.16497414,9.768234,0.000572768971323967,-0.001185885863378644,8.99513834156096e-05,-9.759306907653807,18.51266288757324,-37.50981903076172,0.10012586414813997,-0.25143516063690186,0.034056663513183594,988.5699462890624,0,13.0,1,1
2.6,0.09136939,-0.15782298,9.789534,0.000572768971323967,-0.001185885863378644,8.99513834156096e-05,-9.759306907653807,18.51266288757324,-37.50981903076172,0.10475458204746246,-0.2368936091661453,0.01513671875,988.5699462890624,0,13.0,1,1
2.64,0.08175266,-0.15782152,9.78006,-9.247020352631807e-05,-0.0009196592727676033,-0.00030928646447137004,-10.419269561767578,20.21257972717285,-37.58457565307617,0.10435888171195984,-0.24099145829677585,0.024646759033203125,988.5626831054688,0,13.0,1,1
2.68,0.09125513,-0.16020338,9.777687,0.00030755426269024616,0.0008113044314086437,0.0006230550352483988,-10.46220588684082,19.118896484375,-37.667930603027344,0.08988554775714874,-0.24984262883663175,0.015213966369628906,988.5570678710938,0,13.0,1,1
2.72,0.08880812,-0.15305214,9.756377,4.1788793168962e-05,-0.00038720626616850495,0.0004901330103166401,-10.961404800415039,18.96737289428711,-37.35118865966797,0.08471755683422089,-0.2730830907821655,0.04366016387939453,988.5623168945312,0,13.0,1,1
2.76,0.08158132400000001,-0.16258387,9.787146,0.00030865520238876343,0.0010774416150525212,0.00022405310301110146,-10.94091510772705,19.144451141357425,-37.133750915527344,0.09869876503944396,-0.2439831644296646,0.015285491943359375,988.5489501953124,0,13.0,1,1
2.8,0.09586364,-0.1649658,9.758734,-0.00035658408887684345,1.2088858056813478e-05,-0.0003083428018726408,-10.453210830688477,19.021818161010746,-37.43268585205078,0.08895429968833922,-0.2241564244031906,0.03899860382080078,988.5642700195312,0,13.0,1,1
2.84,0.083857,-0.15543129,9.756363,0.00030975625850260263,0.00014515744987875226,-0.00017494888743385673,-10.429677963256836,19.201845169067386,-37.36986541748047,0.09848575294017793,-0.2329540103673935,0.04376983642578125,988.5439453125,0,13.0,1,1
2.88,0.09574941,-0.16019638,9.772926,4.454131703823805e-05,0.00041129451710730786,-0.0003076349967159331,-10.666340827941896,19.138601303100586,-37.86858367919922,0.08407361805438995,-0.24187593162059784,0.03433418273925781,988.5537719726562,0,13.0,1,1
2.92,0.07896295,-0.16972806,9.789492,4.454131703823805e-05,0.00041129451710730786,-0.0003076349967159331,-10.679902076721193,19.23126220703125,-37.87191390991211,0.09820634126663208,-0.2316662818193436,0.015433311462402344,988.5537719726562,0,13.0,1,1
2.96,0.09563514599999999,-0.16734336,9.775284,4.5091728679835796e-05,-0.000254584476351738,0.0008910223259590566,-10.64226531982422,18.950334548950195,-37.70730590820313,0.09315052628517152,-0.23120753467082975,0.02019882202148437,988.5614624023438,0,13.0,1,1
3.0,0.09318814,-0.1625755,9.758709,-0.00022067362442612645,0.00027795787900686264,0.0006249424768611789,-10.340846061706543,18.547334671020508,-37.03731536865234,0.08819347620010376,-0.2255537360906601,0.04391670227050781,988.53857421875,0,13.0,1,1
3.04,0.08118152599999999,-0.17687376,9.763437,0.0007119824877008796,-0.0002547632902860641,0.0004920203937217593,-10.70387077331543,18.31318473815918,-37.66053009033203,0.10768131911754608,-0.2202524095773697,0.04393768310546875,988.56396484375,0,13.0,1,1
3.08,0.08829412,-0.17448907,9.761064999999999,-0.00021957256831228733,-0.0013201161054894328,-4.0375336539000266e-05,-10.781643867492676,18.50379753112793,-37.7366828918457,0.1020638942718506,-0.2145599871873856,0.034531593322753906,988.5408935546876,0,13.0,1,1
3.12,0.08106732,-0.17210437,9.763427,-0.0002190221566706896,0.0008103216532617807,0.000492492166813463,-10.776098251342773,18.87797737121582,-38.14435577392578,0.09733390808105467,-0.2237245887517929,0.029813766479492188,988.5690307617188,0,13.0,1,1
3.16,0.090569764,-0.17925279,9.775258000000001,0.0003141601337119937,0.00027760048396885395,0.00022641231771558526,-10.76351833343506,18.41555595397949,-37.96527099609375,0.09201231598854064,-0.22341014444828036,0.02510833740234375,988.5582275390624,0,13.0,1,1
3.2,0.08573288,-0.15541865,9.784721000000001,-0.0007505528628826141,0.00041066907579079265,0.0006261219969019294,-10.7203369140625,18.508813858032227,-38.20833206176758,0.1062915027141571,-0.2277083247900009,0.02040004730224609,988.5327758789062,0,13.0,1,1
3.24,0.09284544,-0.16971694,9.761044,-0.0004836864536628127,-0.00012205213715787976,0.00022688409080728886,-11.185050010681152,19.17976188659668,-37.94503021240234,0.08725239336490631,-0.2131596952676773,0.03935337066650391,988.5537109375,0,13.0,1,1
3.28,0.09324038,-0.1721098,9.763447,-0.0006162938661873341,-0.000521615264005959,-0.00017235364066436887,-11.172170639038086,19.349477767944336,-37.341068267822266,0.0812535285949707,-0.2266677767038345,0.039363861083984375,988.5404663085938,0,13.0,1,1
3.32,0.06452229599999999,-0.16972558,9.775279,4.4655753299593925e-05,0.0013467469252645972,9.697908535599709e-05,-10.832839965820312,18.87737846374512,-37.90462493896485,0.1191696673631668,-0.226070836186409,0.0204620361328125,988.5557250976562,0,13.0,1,1
3.36,0.10511136,-0.17687447,9.775276,0.00017609423957765102,1.5446508768945932e-05,9.62422345764935e-05,-10.34307098388672,18.38792991638184,-38.182411193847656,0.0711977481842041,-0.2254620343446732,0.029961585998535163,988.5530395507812,0,13.0,1,1
3.4,0.066833615,-0.15542401,9.772905,-8.984282612800598e-05,1.5385012375190854e-05,-0.00030306930420920253,-10.64835262298584,18.944440841674805,-37.39808654785156,0.10411401093006134,-0.2343341261148453,0.02053356170654297,988.5633544921876,0,13.0,1,1
3.44,0.08830345,-0.16018961,9.772902,4.3693697080016136e-05,0.0008142711012624204,-0.00016974908066913486,-10.47881031036377,19.2086124420166,-37.51665496826172,0.10833777487277983,-0.22410063445568085,0.039511680603027344,988.5607299804688,0,13.0,1,1
3.48,0.07392478,-0.15303881,9.76343,4.4072279706597335e-05,0.0004147359286434949,-0.0005690606194548309,-10.539137840270996,19.5733585357666,-37.22076416015625,0.0988735556602478,-0.2370458692312241,0.034836769104003906,988.5633544921876,0,13.0,1,1
3.52,0.09539461,-0.16733755,9.782363,0.0016423461493104696,-0.0003842731821350753,0.0006295230705291032,-10.234942436218262,19.7534236907959,-38.20198822021485,0.0840626209974289,-0.22680623829364774,0.0064697265625,988.557861328125,0,13.0,1,1
3.56,0.08579576,-0.16256998,9.775257,-0.000221486552618444,0.00014829717110842466,0.00023021147353574634,-10.292961120605467,18.750925064086914,-38.21137237548828,0.07935388386249542,-0.2265407294034958,0.02068710327148437,988.547607421875,0,13.0,1,1
3.6,0.07619685,-0.1744854,9.768154,-0.0011532134376466276,-0.0005175539990887046,-0.0007017318275757134,-10.40644359588623,18.749731063842773,-37.731910705566406,0.11733010411262512,-0.20686058700084686,0.0396575927734375,988.5629272460938,0,13.0,1,1
3.64,0.08571717,-0.16971786,9.756313,0.0005782183725386857,0.00028133217711001635,0.0007631677435711026,-10.907707214355467,18.96502113342285,-37.43630981445313,0.09795908629894257,-0.22486157715320587,0.05391216278076172,988.5548706054688,0,13.0,1,1
3.68,0.07611826,-0.16495039,9.770514,0.0007117548957467079,-0.00025136105250567203,0.0006301720859482883,-10.761016845703123,18.78679084777832,-38.21832656860352,0.09786489605903624,-0.22417940199375155,0.02553844451904297,988.56005859375,0,13.0,1,1
3.72,0.071299195,-0.13396679,9.775244,-0.00021997210569679737,-0.0006508963415399194,0.0006303343689069152,-10.92860221862793,19.26215362548828,-38.451271057128906,0.08316141366958618,-0.233101025223732,0.02557373046875,988.5702514648438,0,13.0,1,1
3.76,0.09754884,-0.2173806,9.761036,0.0001798802986741066,0.0006806216551922263,-3.5293109249323606e-05,-11.000425338745117,19.352741241455078,-38.13756561279297,0.10620772838592528,-0.20775814354419708,0.05879402160644531,988.56005859375,0,13.0,1,1
3.8,0.12379849,-0.16494752,9.796541,0.0009792066412046552,0.0008137180120684206,-0.0004346046480350197,-10.746753692626953,18.8520622253418,-36.992591857910156,0.0399850457906723,-0.25580888986587524,0.020895004272460938,988.5344848632812,0,13.0,1,1
3.84,0.085520804,-0.15064694,9.76103,-0.002216205466538668,-0.0018495020922273397,-0.00016812648391351104,-10.713407516479492,18.77855110168457,-37.994232177734375,0.030352026224136356,-0.2509238719940185,0.044577598571777344,988.552490234375,0,13.0,1,1
3.88,0.040073335,-0.1458794,9.770494,-0.001283721299842,0.0005472791963256897,0.0006309833843261002,-11.261301040649414,19.37184715270996,-38.098487854003906,0.12998129427433014,-0.2360500544309616,0.006742477416992188,988.5698852539062,0,13.0,1,1
3.92,0.09261191,-0.17686094,9.77996,0.0005808684509247541,0.0005472178454510869,0.0012969353701919315,-10.515222549438477,18.858871459960934,-38.18343353271485,0.07226167619228363,-0.19683517515659327,-0.007407188415527344,988.5626220703124,0,13.0,1,1
3.96,0.075843334,-0.17447673,9.775222,0.0005598091520369053,0.0005465861177071929,3.5127333831042045e-05,-11.042520523071287,18.522905349731445,-37.697601318359375,0.08147616684436798,-0.2104334682226181,0.021038055419921875,988.5596313476562,0,13.0,1,1
4.0,0.08536366,-0.1625594,9.770485,-0.00023875990882515907,-0.00011926500883419068,-0.0006305000861175357,-10.936211585998537,19.254785537719727,-38.06475067138672,0.08596615493297577,-0.2433214634656906,0.016330718994140625,988.5319213867188,0,13.0,1,1
4.04,0.10205367,-0.16017516,9.772848,-0.0005046970909461379,1.3831508113071322e-05,3.545184154063463e-05,-10.33005428314209,18.66356086730957,-38.27752685546875,0.04785279929637909,-0.23334072530269626,0.01634979248046875,988.5491333007812,0,13.0,1,1
4.08,0.087675035,-0.1625575,9.782312,-0.0007706343894824387,-0.001051493571139872,3.5614066291600466e-05,-10.421525955200195,18.840917587280273,-37.657936096191406,0.08132044970989227,-0.2327589839696884,0.02111148834228516,988.5545043945312,0,13.0,1,1
4.12,0.0971953,-0.16255654,9.7704735,-0.0003707821015268564,-0.000518923276104033,-9.738159133121373e-05,-10.559765815734863,19.290363311767575,-36.73912048339844,0.07206656038761139,-0.21758385002613068,0.030612945556640625,988.5795288085938,0,13.0,1,1
4.16,0.089986324,-0.14825593,9.77047,0.00042854424100369215,-0.001584248268045485,-0.0008961670682765543,-10.618051528930664,18.86798667907715,-38.24510955810547,0.09534040093421936,-0.2259379178285599,0.04014301300048828,988.5595092773438,0,13.0,1,1
4.2,0.10428643,-0.16493787,9.770466,-0.0002364882966503501,0.0006793139036744832,-0.0003632106236182153,-10.602127075195312,19.040645599365234,-37.79576110839844,0.07574042677879332,-0.2156893759965897,0.035449981689453125,988.5820922851562,0,13.0,1,1
4.24,0.09498775,-0.16971083,9.775225,-0.0002364882966503501,0.0006793139036744832,-0.0003632106236182153,-10.949909210205078,19.24152946472168,-37.36900329589844,0.08031421899795532,-0.20041851699352264,0.03549385070800781,988.5820922851562,0,13.0,1,1
4.28,0.09287679,-0.17686749999999998,9.770515,0.0008291536942124367,-0.00025285320589318866,3.642530646175146e-05,-10.557018280029297,18.661169052124023,-37.318603515625,0.08938466012477875,-0.19456158578395846,0.03548145294189453,988.559326171875,0,13.0,1,1
4.32,0.08808178,-0.17448385,9.765779499999999,0.0006873729289509356,-0.0007806464564055204,0.00016995263285934925,-10.52807903289795,19.10946083068848,-36.96437072753906,0.08417907357215881,-0.20323507487773892,0.035523414611816406,988.5743408203124,0,13.0,1,1
4.36,0.08328669999999999,-0.1625671,9.772881,0.0008206777856685221,0.0006840670248493552,0.0007026473176665603,-10.765040397644043,18.41408348083496,-37.887962341308594,0.0935542732477188,-0.2024802714586258,0.02608871459960937,988.56396484375,0,13.0,1,1
4.4,0.080881596,-0.16495003,9.761042999999999,0.00015503488248214126,-0.00024806236615404487,-0.0004957113415002823,-10.95143222808838,19.24005889892578,-37.29169464111328,0.08870135247707367,-0.21579958498477936,0.04506683349609375,988.5636596679688,0,13.0,1,1
4.44,0.09042597,-0.16256632,9.772877000000001,0.00042149756336584687,-0.0006475599948316813,-9.617459727451204e-05,-10.678815841674805,18.494680404663086,-37.67501068115234,0.06956961750984192,-0.21506713330745694,0.04509639739990234,988.5516967773438,0,13.0,1,1
4.48,0.07846123,-0.16971578,9.775243,-0.0002441454562358558,-0.0009138997411355377,-9.61116747930646e-05,-10.761154174804688,18.68087577819824,-37.51924896240234,0.10306620597839357,-0.20009879767894745,0.02145099639892578,988.5764770507812,0,13.0,1,1
4.52,0.08322585,-0.15303239999999999,9.779976,0.00015547528164461255,-0.0005144497263245286,-9.604869410395622e-05,-10.898032188415527,18.60557174682617,-37.80168914794922,0.08833052217960358,-0.21867211163043976,0.01674365997314453,988.5764770507812,0,13.0,1,1
4.56,0.0879904,-0.16971503,9.761037,-0.0006433256785385312,0.00028447405202314263,-0.0002291437704116106,-10.870615005493164,19.05238914489746,-37.370155334472656,0.07828639447689056,-0.2131568342447281,0.04518985748291016,988.5916137695312,0,13.0,1,1
4.6,0.087975144,-0.16733141,9.777606,-0.001442126464098692,0.0005507661262527108,-0.0004953966708853841,-11.099803924560547,18.890596389770508,-37.55632019042969,0.08259601891040802,-0.19850163161754608,0.02154064178466797,988.5737915039062,0,13.0,1,1
4.64,0.08557004,-0.16018124,9.761034,0.0005553895025514066,0.00015126849757507443,0.000303613836877048,-10.708681106567383,19.309194564819336,-37.102195739746094,0.08219616115093231,-0.22155873477458954,0.04051494598388672,988.5560913085938,0,13.0,1,1
4.68,0.08316489999999999,-0.16494735,9.770502,0.00015606248052790758,0.0004175605718046427,0.0005699926405213772,-10.435222625732422,18.827661514282227,-36.96218872070313,0.08168230950832367,-0.2062082141637802,0.03583240509033203,988.5636596679688,0,13.0,1,1
4.72,0.090319335,-0.15541388,9.761031,0.0006888410425744951,0.0005506946472451091,0.0003037397109437734,-10.803899765014648,19.32567024230957,-37.550392150878906,0.09108448028564453,-0.21973393857479093,0.0453338623046875,988.5662841796876,0,13.0,1,1
4.76,0.08552432,-0.17447974,9.775233,-0.00010995991760864854,1.8039019778370857e-05,-0.0003619871567934752,-10.4913911819458,19.67103385925293,-37.69573974609375,0.07114069163799286,-0.19505618512630465,0.01697540283203125,988.5712890625,0,13.0,1,1
4.8,0.0974586,-0.15064655,9.791802,0.0005559765850193799,0.0008169627981260419,0.00030386558501049876,-10.243287086486816,18.37586975097656,-37.96612548828125,0.06610485911369324,-0.2271060794591904,0.002827644348144531,988.5584716796876,0,13.0,1,1
4.84,0.09266358599999999,-0.16256262,9.761027,0.0004229655605740845,-0.00011516656377352773,-0.0007613352499902247,-10.397993087768556,19.020944595336914,-37.59510803222656,0.08513212203979492,-0.18840651214122767,0.04546070098876953,988.5712280273438,0,13.0,1,1
4.88,0.10220796,-0.16017897,9.768127,0.00042311224387958646,-0.0003815063100773841,-0.0006281142123043537,-10.441717147827148,19.295978546142575,-37.450496673583984,0.07552720606327057,-0.18775732815265656,0.03601837158203125,988.5662231445312,0,13.0,1,1
4.92,0.09263313,-0.15541206,9.7775955,2.378522185608745e-05,-0.00024837217642925685,0.0005703701172024013,-10.503321647644043,18.658823013305664,-37.403724670410156,0.08010995388031006,-0.1964539736509323,0.02185153961181641,988.5280151367188,0,13.0,1,1
4.96,0.09978759,-0.17209457,9.775227000000001,2.393213799223304e-05,1.791986869648099e-05,3.780133556574583e-05,-10.57392120361328,18.118745803833008,-37.592193603515625,0.07486207783222197,-0.1860426813364029,0.012425422668457031,988.5508422851562,0,13.0,1,1
5.0,0.07826325,-0.16971095,9.775225,2.4078821297734976e-05,0.0005505278240889312,-0.00022845179773867128,-10.6382417678833,19.32304573059082,-38.03767395019531,0.07917375862598419,-0.1898655742406845,0.02193832397460937,988.5712890625,0,13.0,1,1
5.04,0.10453689,-0.16256072,9.763388,0.0008231732645072043,0.00015103013720363379,3.792706411331892e-05,-10.746317863464355,19.59011650085449,-37.26679992675781,0.06050346791744232,-0.207952544093132,0.05037498474121094,988.566162109375,0,13.0,1,1
5.08,0.09735197,-0.17209344,9.772855,0.0005570041830651462,-0.0015800469554960726,3.7989986594766385e-05,-10.723081588745117,19.138002395629886,-37.628849029541016,0.060445934534072876,-0.18820936977863312,0.03619956970214844,988.5789794921876,0,13.0,1,1
5.12,0.09255695,-0.16255994,9.777588,-0.0003749546012841165,-0.000514807237777859,-0.0010272107319906354,-10.853873252868652,19.06859397888184,-38.22050857543945,0.08393722772598268,-0.20661939680576324,0.026763916015625,988.566162109375,0,13.0,1,1
5.16,0.09971142,-0.16494289999999998,9.782321000000001,-0.00010849192040041088,0.00041727453935891384,0.00030443171272054315,-10.852893829345703,19.438356399536133,-38.396263122558594,0.05503934621810913,-0.18666760623455048,0.017332077026367188,988.5584716796876,0,13.0,1,1
5.2,0.09013659,-0.16732581,9.784687,0.0005574444658122957,-0.0001153810299001634,-0.0002281371271237731,-10.752565383911133,19.05800437927246,-38.0815315246582,0.08341152966022491,-0.1953764408826828,0.01263427734375,988.5733032226562,0,13.0,1,1
5.24,0.10710588,-0.16733168,9.763404,0.00015811744378879666,0.00015091098612174392,-9.491626406088471e-05,-10.88197135925293,18.88414764404297,-38.051414489746094,0.05918118357658386,-0.190133199095726,0.036304473876953125,988.5813598632812,0,13.0,1,1
5.28,0.09037149,-0.16733159,9.758669,-0.0007747498457320036,-0.0006479130242951214,0.00030423101270571346,-10.880992889404297,19.2539119720459,-38.2271728515625,0.06859926879405975,-0.1986386626958847,0.0552825927734375,988.5687866210938,0,13.0,1,1
5.32,0.1023159,-0.16971473,9.779974000000001,0.0006885526818223298,0.0001512676244601607,-0.00022901571355760098,-10.844878196716307,18.971511840820312,-37.985260009765625,0.0542045533657074,-0.1931364983320236,0.02690410614013672,988.5733032226562,0,13.0,1,1
5.36,0.10709065,-0.16256471,9.758669,-0.00011034595081582664,-0.00051453011110425,-9.583670180290936e-05,-11.086787223815918,19.16622734069824,-37.65143585205078,0.06380240619182588,-0.1829974204301834,0.04112911224365234,988.5636596679688,0,13.0,1,1
5.4,0.09991586,-0.16971444,9.777605,-0.00011029728921130301,-0.0011803277302533386,0.0007031317800283433,-10.468156814575195,19.218923568725586,-38.05779266357422,0.06339752674102782,-0.17315606772899628,0.02694416046142578,988.5813598632812,0,13.0,1,1
5.44,0.090351164,-0.16018118,9.763402000000001,-0.0010423539206385612,0.000550717581063509,0.00017052103066816926,-10.977029800415039,19.426851272583008,-37.37566375732422,0.07279907166957855,-0.19186286628246307,0.05063247680664063,988.566162109375,0,13.0,1,1
5.48,0.10229561,-0.17209749,9.770502,-0.0008982130093500018,-0.00013873704301659018,-0.0005597925628535451,-11.241790771484377,19.179162979125977,-37.70529556274414,0.06307882070541382,-0.1816711276769638,0.04119110107421875,988.555419921875,0,13.0,1,1
5.52,0.09990066,-0.16971408,9.784706,-0.00036553223617374897,-0.00027190294349566097,-0.0001602976699359715,-10.997381210327148,19.35568618774414,-38.292179107666016,0.0626266747713089,-0.1812516301870346,0.008073806762695312,988.56103515625,0,13.0,1,1
5.56,0.09511578,-0.16256411,9.77997,-0.0006317503284662963,-0.0004050767747685313,0.00010606006253510714,-10.95876693725586,19.44452667236328,-38.303321838378906,0.06746084988117218,-0.18552766740322116,0.022294044494628903,988.5406494140624,0,13.0,1,1
5.6,0.09750062,-0.16494729,9.777603,-0.0006317503284662963,-0.0004050767747685313,0.00010606006253510714,-10.755609512329102,19.0550594329834,-37.926918029785156,0.061935529112815864,-0.18449513614177704,0.012874603271484377,988.5406494140624,0,13.0,1,1
5.64,0.097495496,-0.17686357,9.768133,0.00016724609304219484,0.0003938630397897213,0.00010608101729303597,-10.716451644897461,18.775604248046875,-37.83961868286133,0.06173272430896759,-0.16522298753261566,0.03182506561279297,988.5560913085938,0,13.0,1,1
5.68,0.09749046,-0.15779720000000003,9.763399,-0.0004984945990145206,0.0003938550071325153,-2.7055793907493356e-05,-10.91213607788086,19.06652069091797,-37.90347290039063,0.05654405057430267,-0.18834249675273892,0.04132556915283203,988.591064453125,0,13.0,1,1
5.72,0.10465509,-0.15541376,9.765765,-9.897188283503056e-05,0.00039384703268297017,-2.703495556488633e-05,-10.774577140808104,18.87944984436035,-38.221656799316406,0.061314880847930915,-0.20683996379375455,0.03661251068115234,988.5482788085938,0,13.0,1,1
5.76,0.09270054,-0.16018017,9.763398,-0.0006315547507256268,-0.000671424379106611,0.0006387757021002471,-10.789658546447754,18.97063636779785,-38.14768981933594,0.06589934229850769,-0.1918727606534958,0.04610919952392578,988.5584716796876,0,13.0,1,1
5.8,0.08552572,-0.16494663,9.7776,-9.887421038001776e-05,-0.00013880054757464674,0.0002393227186985314,-10.905750274658203,19.70454978942871,-37.787818908691406,0.07982070744037628,-0.18146656453609467,0.027210235595703125,988.5762939453124,0,13.0,1,1
5.84,0.085520625,-0.16017996,9.763397,0.00016749079804867506,0.0005269811954349278,0.00010618584929034114,-10.58813190460205,19.6860408782959,-38.06663513183594,0.07908816635608673,-0.19512854516506195,0.04618263244628906,988.5614624023438,0,13.0,1,1
5.88,0.09507513,-0.16017987,9.765764,-0.0003650921862572432,0.0014590788632631302,-0.00016010907711461186,-10.809307098388672,19.05740547180176,-37.841796875,0.05922427773475648,-0.1707179695367813,0.041481971740722656,988.5686645507812,0,13.0,1,1
5.92,0.09746,-0.16971283,9.770498,-0.0006313591729849577,0.0009264390682801603,0.00023938569938763973,-10.86452579498291,19.058279037475586,-37.67937469482422,0.0682850182056427,-0.18922214210033414,0.03204154968261719,988.5486450195312,0,13.0,1,1
5.96,0.09028521,-0.15779631,9.765761999999999,-0.0004981523379683496,0.0005269574467092752,0.00010624871356412768,-10.376279830932617,18.567358016967773,-37.87985229492188,0.06337566673755646,-0.1889985054731369,0.05099010467529297,988.5408325195312,0,13.0,1,1
6.0,0.08789024,-0.17209588,9.768129,-0.001030735089443624,-0.00040515622822567815,-0.0008258357993327081,-10.867975234985352,19.529541015625,-38.32229232788086,0.07284539937973022,-0.16879983246326447,0.03682804107666016,988.5432739257812,0,13.0,1,1
6.04,0.107004404,-0.1673292,9.770496000000001,0.0007003669161349535,-0.00027200611657463014,0.00010629073949530721,-10.741506576538086,18.594106674194336,-37.825138092041016,0.0534118115901947,-0.17747141420841214,0.027396202087402344,988.5635375976562,0,13.0,1,1
6.08,0.099829614,-0.16017927,9.77523,0.0005672579864040017,-0.00013885615044273436,0.000372627517208457,-10.985481262207033,19.155637741088867,-37.51245880126953,0.057742089033126824,-0.1672077625989914,0.02742958068847656,988.5380859375,0,13.0,1,1
6.12,0.09743464,-0.15779586,9.763392999999999,-9.848293848335743e-05,0.0005269256653264165,0.0006389642949216068,-10.627182960510254,18.85914802551269,-37.78127670288086,0.057283714413642876,-0.19527767598629,0.0369253158569336,988.555908203125,0,13.0,1,1
6.16,0.09981948,-0.15779568,9.763392999999999,-0.0008973815711215136,0.0007932335138320923,0.00023951154435053468,-11.139368057250977,19.64425468444824,-38.4411506652832,0.06174956262111664,-0.19448046386241916,0.04642772674560547,988.54833984375,0,13.0,1,1
6.2,0.087864876,-0.17686178,9.779963,0.0003010887885466218,-0.00027203792706131935,-0.0004262572037987411,-10.947707176208496,18.98062896728516,-38.04693603515625,0.07094375789165497,-0.16498492658138275,0.02752780914306641,988.5510864257812,0,13.0,1,1
6.24,0.10697901,-0.16494526,9.772861500000001,0.00030113779939711094,-5.729903932660818e-06,-0.0001599203678779304,-10.565577507019043,19.49630546569824,-37.82805633544922,0.04685676097869873,-0.17880286276340485,0.027547836303710938,988.56103515625,0,13.0,1,1
6.28,0.08785474,-0.16256185,9.758657000000001,-0.0008972350042313338,0.0005268938839435577,-0.0002930574701167643,-10.883493423461914,18.882673263549805,-37.97411346435547,0.07542558014392853,-0.17349161207675934,0.05124092102050781,988.566162109375,0,13.0,1,1
6.32,0.08784968,-0.15541191,9.768125999999999,-9.823834989219904e-05,-0.0006715355557389557,-0.00015987845836207268,-10.441036224365234,19.033601760864254,-38.051124572753906,0.06575319170951842,-0.18201620876789093,0.032340049743652344,988.5816040039062,0,13.0,1,1
6.36,0.083064735,-0.1554118,9.772860000000001,0.0005676003638654947,-0.0004052275908179581,-0.00015985762001946568,-11.175375938415527,18.820310592651367,-38.31040573120117,0.07997511327266693,-0.18596987426280973,0.03710651397705078,988.5636596679688,0,13.0,1,1
6.4,0.097399116,-0.17209463,9.770493,3.501749597489834e-05,-0.00040523556526750326,0.00010647933231666684,-11.12083625793457,19.081806182861328,-37.87220764160156,0.060313448309898376,-0.1659308820962906,0.03714942932128906,988.5662841796876,0,13.0,1,1
6.44,0.0926142,-0.16256137,9.770491,0.00030138203874230385,0.00039370413287542766,0.00010650017065927386,-11.061732292175293,19.34772300720215,-37.66592025756836,0.06960013508796692,-0.17022107541561127,0.02296733856201172,988.5687866210938,0,13.0,1,1
6.48,0.08543944,-0.17209442,9.782328,-0.0006306745344772935,-5.777590558864176e-06,0.00010652124183252454,-11.003905296325684,18.61174201965332,-37.70874786376953,0.07383783161640167,-0.16939397156238556,0.01826953887939453,988.5537719726562,0,13.0,1,1
6.52,0.087824285,-0.16494437,9.770491,0.0005677960580214857,0.0006600040942430496,-0.0004260895657353103,-10.917243957519533,19.430395126342773,-37.7700080871582,0.06384138762950897,-0.17331336438655853,0.02304172515869141,988.54150390625,0,13.0,1,1
6.56,0.09737882,-0.15779443,9.763389,-9.794486686587334e-05,0.000393680325942114,-0.0004260686109773815,-10.923194885253906,19.53041648864746,-38.15986633300781,0.06370778381824492,-0.16774730384349826,0.042008399963378906,988.5614624023438,0,13.0,1,1
6.6,0.09976363,-0.16971071,9.758654,0.00016841967590153215,-0.00040527523378841584,0.0003728999581653625,-10.79378890991211,19.704275131225586,-38.189979553222656,0.058268427848815925,-0.16230832040309906,0.04677677154541016,988.5516967773438,0,13.0,1,1
6.64,0.09497878,-0.16494401,9.777592,-0.00023100501857697964,0.0013257700484246016,-0.00015971082029864192,-11.12344455718994,19.81691551208496,-37.99180221557617,0.06232385337352753,-0.16178561747074127,0.03260326385498047,988.5635375976562,0,13.0,1,1
6.68,0.080634266,-0.17686032,9.782325,-9.779806714504956e-05,0.0011926041916012766,-2.6531924959272143e-05,-10.478129386901855,18.946237564086914,-38.117279052734375,0.07621200382709503,-0.15601040422916412,0.02317714691162109,988.56103515625,0,13.0,1,1
6.72,0.097358555,-0.16494377,9.77759,0.0003017245326191187,0.00039364860276691616,0.0003729628515429795,-10.580957412719727,18.95535469055176,-38.178955078125,0.056864857673645026,-0.1649814397096634,0.02793407440185547,988.54931640625,0,13.0,1,1
6.76,0.09257364,-0.16494365,9.758652,-0.00023085845168679955,-0.0001389911340083927,0.0003729838063009083,-10.532506942749023,19.210960388183594,-37.43153381347656,0.06632986664772034,-0.16924355924129486,0.05162620544433594,988.5715942382812,0,13.0,1,1
6.8,0.09734839,-0.17447667,9.775222,-0.000896599143743515,-0.0004053149023093283,-0.0008254167041741313,-10.309564590454102,18.840639114379886,-38.06009292602539,0.046623989939689636,-0.1447076052427292,0.023253440856933597,988.564208984375,0,13.0,1,1
6.84,0.08300388,-0.16017686,9.758652,0.00030187133233994246,0.0009262565290555358,-0.00015960604650899768,-10.59756088256836,19.04506492614746,-38.027679443359375,0.07982105016708374,-0.17744703590869906,0.046950340270996094,988.5720825195312,0,13.0,1,1
6.88,0.09972811,-0.17924298,9.772853999999999,-0.0003638206981122494,-0.000139022886287421,-0.0004258801345713437,-10.647672653198242,18.682069778442386,-37.99871444702149,0.06521651148796083,-0.15310262143611908,0.03276920318603516,988.5469360351562,0,13.0,1,1
6.92,0.09733313,-0.16017662,9.763385000000001,0.001234123483300209,0.0009262327803298832,0.0003730886382982135,-10.572505950927734,19.226564407348636,-38.04216003417969,0.059922069311141975,-0.16153226792812347,0.03281402587890625,988.5469360351562,0,13.0,1,1
6.96,0.09493819,-0.15064336,9.772852,0.001234123483300209,0.0009262327803298832,0.0003730886382982135,-10.990887641906738,18.88737297058105,-37.803871154785156,0.06925071775913239,-0.1751127988100052,0.03757858276367188,988.5469360351562,0,13.0,1,1
7.0,0.10449272400000001,-0.16255961,9.765751,-0.00031060579931363463,-0.0001992360776057467,-0.0005308954278007151,-10.85150909423828,19.333913803100586,-37.77449035644531,0.054827168583869934,-0.15969304740428925,0.032881736755371094,988.5619506835938,0,13.0,1,1
7.04,0.099729896,-0.16732658,9.765753,0.001021022675558925,-0.0007318757707253097,-0.00013140065129846332,-11.296330451965332,18.917667388916016,-38.14349365234375,0.06471702456474304,-0.15902118384838104,0.04236888885498047,988.5442504882812,0,13.0,1,1
7.08,0.10691726,-0.16971035,9.749184,-0.00031050812685862184,-0.0012645154492929578,-0.0003976955777034164,-10.927654266357422,18.41965675354004,-37.55529022216797,0.05075736343860626,-0.14896057546138766,0.051845550537109375,988.5316162109376,0,13.0,1,1
7.12,0.10930309,-0.16971023,9.756285,-0.00044393708230927587,-0.0013976293848827481,-0.0011967592872679234,-10.944663047790527,18.98357582092285,-38.20154571533203,0.03605927526950836,-0.15768004953861234,0.032939910888671875,988.5497436523438,0,13.0,1,1
7.16,0.08301002,-0.16017698,9.765753,0.00022178649669513106,0.0005997504340484737,0.00040110762347467244,-10.922109603881836,18.79383850097656,-37.96296691894531,0.07408660650253296,-0.17105607688426971,0.04244422912597656,988.5444946289062,0,13.0,1,1
7.2,0.104515076,-0.16017692,9.770487,0.000354984134901315,-0.00019920365593861786,0.0006674404721707107,-11.200132369995117,19.27094841003418,-37.871055603027344,0.04990600049495697,-0.17037974298000336,0.02826690673828125,988.5798950195312,0,13.0,1,1
7.24,0.102121055,-0.16970994,9.753916,-4.445010563358665e-05,0.00020026377751491964,0.00026798358885571355,-10.626203536987305,19.228910446166992,-37.95703506469727,0.059727802872657776,-0.14117591083049774,0.04722118377685547,988.5646362304688,0,13.0,1,1
7.28,0.12362605,-0.1649433,9.775221,-0.00017756834859028459,-0.0013976379996165633,0.00040115855517797167,-10.134912490844727,18.740936279296875,-38.31212615966797,0.002128109335899353,-0.1977575570344925,0.00937175750732422,988.5370483398438,0,13.0,1,1
7.32,0.08060372,-0.16494311,9.749182000000001,-0.0016422660555690527,-0.0004655387601815164,0.000534333405084908,-10.284647941589355,18.916223526000977,-37.37549591064453,0.12595878541469574,-0.15935273468494415,0.06619930267333984,988.5497436523438,0,13.0,1,1
7.36,0.082989514,-0.15540998,9.784689,8.882669499143958e-05,0.0005997183034196496,0.0009338242816738783,-10.593133926391602,18.94356918334961,-37.560508728027344,0.11103533208370207,-0.15426544845104218,0.02361011505126953,988.55712890625,0,13.0,1,1
7.4,0.08776519,-0.1506433,9.777586,-0.000710081250872463,0.00073286984115839,0.0005343673983588816,-10.507314682006836,19.49837303161621,-38.14509201049805,0.08669114112854004,-0.15811513364315033,0.014179229736328125,988.5396728515624,0,13.0,1,1
7.44,0.08298129,-0.17685924,9.770485,-0.00017740979092195633,0.00046654752804897726,0.00040122648351825774,-10.337526321411133,18.762113571166992,-38.59008026123047,0.09585966169834136,-0.1377451866865158,0.03316497802734375,988.5422973632812,0,13.0,1,1
7.48,0.10209641,-0.17447592,9.756281,0.0016868410166352987,0.0003333831264171749,1.7696293070912361e-06,-10.633676528930664,19.32746696472168,-38.26958847045898,0.06718449294567108,-0.1274324506521225,0.042659759521484375,988.56005859375,0,13.0,1,1
7.52,0.09014273,-0.15779282,9.763382,0.0003553011338226497,-0.0005987288895994425,-0.0002645292552188039,-11.05510139465332,18.985326766967773,-37.87668991088867,0.052742570638656616,-0.16012369096279144,0.04268455505371094,988.56005859375,0,13.0,1,1
7.56,0.10447806,-0.16494258,9.770484,-0.000177290930878371,-0.0001992615725612268,1.803564373403788e-06,-10.770691871643066,19.146244049072266,-37.85294723510742,0.02837905287742615,-0.1736670881509781,0.03324699401855469,988.5626220703124,0,13.0,1,1
7.6,0.08774465,-0.16494246,9.761014999999999,8.906429866328835e-05,0.0005996796535328032,0.0006676102057099342,-10.860504150390623,19.43099021911621,-38.00973892211914,0.042596325278282166,-0.1680160015821457,0.03801250457763672,988.5574951171876,0,13.0,1,1
7.64,0.082960725,-0.15779252,9.761014,0.00022226193686947227,6.704151746816933e-05,0.0012002589646726847,-10.85623550415039,18.80327033996582,-38.6665267944336,0.07550251483917236,-0.15776683390140533,0.04751300811767578,988.52978515625,0,13.0,1,1
7.68,0.09729603,-0.16255899,9.782318,-0.0008429220761172472,-6.612928700633347e-05,0.0006676612538285552,-10.891509056091307,19.349517822265625,-38.38511276245117,0.05125997960567474,-0.16664396226406095,0.019133567810058597,988.5629272460938,0,13.0,1,1
7.72,0.09251210000000001,-0.16732545,9.789419,-0.0008429220761172472,-6.612928700633347e-05,0.0006676612538285552,-10.891509056091307,19.349517822265625,-38.38511276245117,0.055606260895729065,-0.15186132490634918,0.004952430725097656,988.5629272460938,0,13.0,1,1
7.76,0.09011811,-0.15779223,9.770482000000001,0.00035553897032514215,0.00020018013310618696,0.0004013623110949993,-10.264999389648438,18.82945442199707,-37.68138885498047,0.055687397718429565,-0.16070033609867096,0.03338050842285156,988.5807495117188,0,13.0,1,1
7.8,0.08772409,-0.16494192,9.775215,-4.3895270209759474e-05,-0.0005987739423289895,0.000534537248313427,-10.492369651794434,19.30126953125,-37.51998519897461,0.05580443143844605,-0.1503186672925949,0.019202232360839844,988.5530395507812,0,13.0,1,1
7.84,0.08533007,-0.1554087,9.777582,-4.3855805415660136e-05,-0.0009982541669160128,0.0004013962752651423,-11.097548484802246,20.262258529663086,-37.48296356201172,0.05550120770931244,-0.1544964462518692,0.023962974548339844,988.5481567382812,0,13.0,1,1
7.88,0.099665344,-0.14587559,9.791786,-0.00017697404837235808,6.700280937366188e-05,-0.00026437651831656694,-10.632291793823242,19.223020553588867,-37.64781188964844,0.0452771782875061,-0.16333366930484772,0.02399444580078125,988.5679931640624,0,13.0,1,1
7.92,0.09010166,-0.1720915,9.772848,-4.3776526581496e-05,0.000999102252535522,0.0001351144164800644,-10.587045669555664,18.9494571685791,-37.86973571777344,0.058955132961273186,-0.14830265939235687,0.03349590301513672,988.5709228515624,0,13.0,1,1
7.96,0.09726724,-0.15779169,9.763378,-4.373694537207484e-05,0.0008659376762807369,0.000667763059027493,-10.35923957824707,19.215696334838867,-38.305335998535156,0.049230143427848816,-0.15215353667736053,0.03352832794189453,988.5556030273438,0,13.0,1,1
8.0,0.099653065,-0.16255821,9.777582,0.0008884083363227547,-0.00019933228031732145,0.00013514829333871603,-10.298612594604492,19.48308753967285,-38.176361083984375,0.044095009565353394,-0.13718421757221222,0.01935100555419922,988.5633544921876,0,13.0,1,1
8.04,0.093374014,-0.16734658,9.770561,-0.0004431314882822335,0.0005996089894324541,0.0002683232305571437,-10.679059982299805,19.49510955810547,-37.34859085083008,0.05700863897800445,-0.1460442692041397,0.038238525390625,988.5429077148438,0,13.0,1,1
8.08,0.11013502,-0.17688046,9.758728,-4.5747088734060526e-05,0.0008662639884278178,1.111824531108141e-06,-10.260976791381836,19.20216560363769,-38.01174926757813,0.04732784628868103,-0.13566581904888153,0.04773139953613281,988.537841796875,0,13.0,1,1
8.12,0.09582734,-0.1673481,9.763466000000001,0.0006152308196760714,-0.0004664306761696936,-0.00013688276521861553,-10.449050903320312,19.500446319580078,-38.46212768554688,0.037615567445755005,-0.14451907575130465,0.03828239440917969,988.5811157226562,0,13.0,1,1
8.16,0.09585905,-0.16258235,9.77057,-0.00018402229761704805,-0.00020006517297588291,-3.855791874229908e-06,-10.242009162902832,19.377769470214844,-37.71701049804688,0.051837727427482605,-0.15337921679019928,0.03830242156982422,988.5709228515624,0,13.0,1,1
8.2,0.09350085,-0.1601999,9.770572999999999,-0.00018463417654857042,0.0013979296199977398,-0.00040359160630032415,-10.617752075195312,19.500123977661133,-37.82023620605469,0.046197623014450066,-0.13368450105190274,0.02886199951171875,988.55615234375,0,13.0,1,1
8.24,0.08636287,-0.15543406,9.7634735,-0.00018463417654857042,0.0013979296199977398,-0.00040359160630032415,-10.522396087646484,19.58955955505371,-38.07112121582031,0.06522905826568604,-0.15725643932819364,0.0478057861328125,988.55615234375,0,13.0,1,1
8.28,0.1031239,-0.16973455,9.758742,-0.0008507293532602488,-0.00019991630688309667,0.00039522501174360514,-10.149559020996094,19.57017707824707,-38.51235961914063,0.04088389873504639,-0.1320413500070572,0.03838253021240234,988.5791015625,0,13.0,1,1
8.32,0.09359598,-0.17926843,9.768213000000001,0.001545808045193553,0.000599080987740308,0.0006614098092541099,-10.731639862060547,19.97313499450684,-38.1383056640625,0.0500624030828476,-0.12671081721782684,0.03840255737304688,988.54345703125,0,13.0,1,1
8.36,0.08645800000000001,-0.17211936,9.76585,-5.23926573805511e-05,0.00019965681713074448,-0.000270826683845371,-10.824496269226074,20.25493812561035,-38.14048767089844,0.06390552222728729,-0.12148196995258333,0.033687591552734375,988.5693359375,0,13.0,1,1
8.4,0.09843925,-0.16735359,9.775322000000001,-0.00031901401234790683,0.0005991801735945046,0.0001285161706618965,-10.355896949768066,19.85078239440918,-38.035072326660156,0.04889877140522003,-0.12086792290210725,0.03371238708496094,988.54638671875,0,13.0,1,1
8.44,0.09130126,-0.16497107,9.763489,-5.300441989675164e-05,0.0008655456476844847,0.00012838508700951934,-10.974528312683104,19.79808616638184,-37.62872314453125,0.04815411567687988,-0.14390583336353302,0.02900981903076172,988.5311889648438,0,13.0,1,1
8.48,0.09133297,-0.16973846,9.761124,-7.842417107895017e-05,0.0009515114361420274,-7.66150769777596e-05,-10.516446113586426,19.48953437805176,-37.68125915527344,0.05248524248600006,-0.13872675597667694,0.05269718170166016,988.5642700195312,0,13.0,1,1
8.52,0.08419499,-0.16735591,9.761127,-0.00021188758546486497,0.0005520872073248029,-0.00034306180896237487,-10.361984252929688,19.84488868713379,-37.72585678100586,0.05241179466247559,-0.12380103766918182,0.03851127624511719,988.561767578125,0,13.0,1,1
8.56,0.08900648,-0.15782358,9.770598,-0.00021219375776126983,-0.00037996884202584624,0.0004557546635624021,-10.03743839263916,20.096118927001953,-37.790565490722656,0.056915968656539924,-0.14669160544872284,0.04800987243652344,988.54443359375,0,13.0,1,1
8.6,0.10098767,-0.17212398,9.775335,0.0008527640602551402,-0.0001136033097282052,-0.00034332391805946827,-10.340272903442383,19.391305923461914,-38.010597229003906,0.03786937892436981,-0.11744441092014313,0.02435302734375,988.5388793945312,0,13.0,1,1
8.64,0.0890699,-0.16497497,9.763503,-0.00021280493820086122,-0.0007793434197083117,-7.713894592598079e-05,-10.103035926818848,20.298513412475586,-38.48516082763672,0.05203676223754883,-0.14100198447704315,0.05276679992675781,988.5464477539062,0,13.0,1,1
8.68,0.103441,-0.17212560000000002,9.775343,-0.0008789001149125397,-0.0005129779456183313,0.0003222038212697953,-10.456905364990234,20.493505477905273,-37.749183654785156,0.04236139357089996,-0.1121140569448471,0.029100418090820312,988.55712890625,0,13.0,1,1
8.72,0.1010828,-0.15544339,9.770611,-0.0008792055887170137,-0.00011345441453158855,0.00045523064909502864,-10.299837112426758,20.113752365112305,-37.6741828918457,0.04691039025783539,-0.14480583369731906,0.02912139892578125,988.5621337890624,0,13.0,1,1
8.76,0.09155494,-0.17451043,9.763512,0.00018575246213003996,-0.00024656282039359207,-0.0003438478452153504,-10.284616470336914,20.12848281860352,-38.44723129272461,0.046785056591033936,-0.10583387315273284,0.04808330535888672,988.5595703125,0,13.0,1,1
8.8,0.07963711,-0.16021152,9.7682495,0.00045176286948844785,1.9802653696388006e-05,-7.766293128952384e-05,-10.797375679016113,20.069618225097656,-38.13381958007813,0.07092471420764923,-0.13379083573818207,0.04336071014404297,988.5392456054688,0,13.0,1,1
8.84,0.08683854,-0.16736217,9.775354,-0.0002143331221304834,-0.0017112009227275848,0.00018852180801332,-10.265649795532227,20.304086685180664,-38.15249633789063,0.0560106486082077,-0.12818585336208346,0.04339027404785156,988.5296630859376,0,13.0,1,1
8.88,0.07970053,-0.16974618,9.763521,5.167716881260276e-05,0.0006856917170807719,5.523290019482374e-05,-10.261764526367188,20.570878982543945,-37.78377914428711,0.055702507495880134,-0.12293674051761627,0.04340648651123047,988.5170288085938,0,13.0,1,1
8.92,0.07973229999999999,-0.16498043,9.782461,0.00018452963558956983,0.0005525833694264293,0.0003214178723283112,-10.18344783782959,20.01197624206543,-37.60917663574219,0.0646851509809494,-0.1319107562303543,0.00555419921875,988.550048828125,0,13.0,1,1
8.96,0.08932358,-0.16259791,9.784831,-0.00021524965995922682,0.0005526329623535275,0.00018812890630215406,-9.893386840820312,19.440732955932614,-37.62044906616211,0.054970979690551765,-0.13135264813899994,0.005570411682128906,988.5296020507812,0,13.0,1,1
9.0,0.09365088,-0.15067045,9.775319999999999,-0.0002155551337637007,-0.0007788968505337834,-0.00021147599909454584,-10.13363552093506,19.742834091186523,-38.0630111694336,0.05474269390106201,-0.14958848059177401,0.038735389709472656,988.5347290039062,0,13.0,1,1
9.04,0.09794873,-0.17925794,9.772909,0.00018361321417614818,2.0100444089621305e-05,-0.00021160690812394023,-9.703514099121094,19.35576057434082,-38.6455307006836,0.04114891588687897,-0.10604165494441986,0.04831504821777344,988.5576782226562,0,13.0,1,1
9.08,0.0788219,-0.16019149,9.772908000000001,0.0001892001018859446,0.00015235133469104767,0.0005897353403270245,-10.049476623535156,20.19025230407715,-37.87120819091797,0.0649493932723999,-0.13355527818202972,0.024677276611328125,988.5626831054688,0,13.0,1,1
9.12,0.07642439,-0.16019131,9.763439,0.0009916857816278934,-0.000647170701995492,-0.00034085399238392716,-10.721124649047852,19.877531051635746,-37.98036193847656,0.060199841856956475,-0.13314189016819,0.03415870666503906,988.5508422851562,0,13.0,1,1
9.16,0.08597636,-0.16972424,9.761071000000001,-0.00033982034074142575,-0.0005140246357768773,5.865131970494986e-05,-10.750308990478516,20.429662704467773,-38.00817108154297,0.04573960602283478,-0.1323622316122055,0.034183502197265625,988.5330200195312,0,13.0,1,1
9.2,0.08596879,-0.15780772,9.780007000000001,0.00032604270381852984,-0.0010466682724654677,5.868275184184313e-05,-10.642807960510254,19.31862449645996,-37.805755615234375,0.0552295595407486,-0.13664640486240387,0.024732589721679688,988.5553588867188,0,13.0,1,1
9.24,0.10269046,-0.16257401,9.756336,-0.00047283159801736485,-0.00038089050212875014,-0.0006070756353437902,-10.345680236816406,19.12303733825684,-38.302005767822266,0.04109100997447968,-0.13590671122074127,0.053157806396484375,988.528076171875,0,13.0,1,1
9.28,0.09073335,-0.16257389,9.758702,5.9873622376471765e-05,-0.00038090243469923735,-0.0003407282056286931,-10.926239013671877,19.52747344970703,-38.00525665283203,0.040756851434707635,-0.13044102489948273,0.057917594909667976,988.5584106445312,0,13.0,1,1
9.32,0.07877621,-0.16495694,9.782373,0.0007257365505211054,1.8559512682259086e-05,-0.0004738547140732408,-10.666341781616213,19.138601303100586,-37.86857986450195,0.054931089282035835,-0.1250290423631668,0.0200653076171875,988.532958984375,0,13.0,1,1
9.36,0.06442919400000001,-0.11967452,9.768169,-0.00020629557548090816,-0.00011461036046966909,-0.0004738232819363475,-10.236900329589844,19.013896942138672,-37.8504753112793,0.0547412633895874,-0.1243339329957962,0.04376029968261719,988.5382690429688,0,13.0,1,1
9.4,0.12177919999999999,-0.20070578,9.784739,0.00019325170433148744,-0.00038093817420303816,-0.00020747596863657242,-10.940096855163574,18.98799133300781,-38.4334602355957,0.007280483841896056,0.11388134956359865,0.0863637924194336,988.5211181640624,0,13.0,1,1
9.44,0.076363504,-0.22215505,9.770535,-0.0012714122422039509,-0.001313055632635951,-7.428659591823816e-05,-10.501364707946776,19.39834976196289,-37.75523376464844,0.12600122392177582,-0.09936027228832243,0.09114551544189453,988.526123046875,0,13.0,1,1
9.48,0.042897224000000005,-0.14112346,9.7681675,0.0011255037970840929,0.0008174595423042773,0.0012573242420330644,-10.653461456298828,19.30831527709961,-37.264625549316406,0.0683765709400177,-0.2279113382101059,0.07221794128417969,988.5338745117188,0,13.0,1,1
9.52,0.109806895,-0.14112322,9.7586975,-0.00033908680779859424,-0.001179933431558311,-0.0004736660048365593,-10.527398109436037,18.84708595275879,-37.56499481201172,-0.031897187232971184,-0.170309379696846,0.05329036712646485,988.5136108398438,0,13.0,1,1
9.56,0.08112046,-0.15780605,9.775267,-0.00033908680779859424,-0.001179933431558311,-0.0004736660048365593,-10.292418479919434,18.382638931274414,-38.11291885375977,0.030047640204429626,-0.107747420668602,0.020170211791992188,988.5136108398438,0,13.0,1,1
9.6,0.09067249,-0.16972221,9.770533,0.0004599342937581241,-0.00011468183947727086,0.0003253130125813186,-10.494327545166016,18.561744689941406,-37.16847229003906,0.08215011656284332,-0.06867675483226776,0.02020549774169922,988.5237426757812,0,13.0,1,1
9.64,0.08827492599999999,-0.16733874,9.770533,0.0012589553371071815,-0.00011469365563243628,-7.41294352337718e-05,-10.66014575958252,18.038148880004886,-37.80514526367188,0.053146138787269585,-0.10141293704509736,0.02496337890625,988.5289306640624,0,13.0,1,1
9.68,0.08587742,-0.17210515,9.76343,-0.0003388666664250195,0.0001516102347522974,0.000591691758017987,-10.367284774780273,18.47027969360352,-37.64460754394531,0.02947905659675598,-0.1198752373456955,0.015508651733398438,988.5315551757812,0,13.0,1,1
9.72,0.09303951,-0.17210491,9.770531,-0.00020563526777550575,-0.0005141914007253945,0.000858039129525423,-10.181138038635254,18.644731521606445,-37.914451599121094,0.0671369731426239,-0.08560223877429962,0.04868507385253906,988.536865234375,0,13.0,1,1
9.76,0.07630259,-0.16257168,9.775265,6.075395504012704e-05,0.0006842181319370866,-0.0007398246088996531,-10.3209228515625,18.672399520874023,-38.741355895996094,0.043474003672599786,-0.14231692254543304,0.0250244140625,988.5572509765624,0,13.0,1,1
9.8,0.09302431,-0.15780486,9.765794999999999,0.0004603011184372008,-0.0014463206753134727,-0.0002071614726446569,-10.373534202575684,17.938167572021484,-38.45933151245117,0.048305794596672065,-0.127056285738945,0.04872417449951172,988.5165405273438,0,13.0,1,1
9.84,0.09062677599999999,-0.15780474,9.761059,0.0008598482818342745,-0.0010468588443472981,-0.0003402880392968654,-9.443510055541992,17.860544204711914,-38.13619995117188,0.043114006519317634,-0.13096992671489716,0.03928756713867188,988.55224609375,0,13.0,1,1
9.88,0.07388985,-0.15303795,9.761059,-7.218384416773915e-05,0.0004178666276857257,0.00032553309574723244,-10.046623229980467,18.454713821411133,-38.078025817871094,0.07147867977619171,-0.12586770951747894,0.04403495788574219,988.516845703125,0,13.0,1,1
9.92,0.08583176,-0.16495417,9.761059,6.104732165113091e-05,0.0005510125774890183,-0.000207067234441638,-9.503293991088867,17.85700035095215,-37.741859436035156,0.04266571998596192,-0.10586439073085784,0.044063568115234375,988.519287109375,0,13.0,1,1
9.96,0.071484745,-0.17210384,9.770526,0.001126384362578392,-0.00011478905798867344,-0.0002070357440970838,-9.872514724731444,18.723302841186523,-38.42851257324219,0.08033262193202972,-0.08133576810359955,0.03462505340576172,988.5549926757812,0,13.0,1,1
10.0,0.088523865,-0.16734485,9.7610855,0.00019435217836871743,1.835700822994113e-05,0.0007251012139022349,-9.673243522644043,18.067041397094727,-38.42081832885742,0.05648733675479889,-0.09984360635280608,0.05357837677001953,988.5425415039062,0,13.0,1,1
10.04,0.086462915,-0.16973622,9.775319999999999,-7.189036114141345e-05,-0.0006474445690400897,-0.00047328881919384,-9.565008163452148,18.32619285583496,-38.06774139404297,0.05566038191318512,-0.10404939949512483,0.039333343505859375,988.5324096679688,0,13.0,1,1
10.08,0.08170086,-0.16735335,9.770586,-7.543008541688323e-05,-0.00024973618565127254,-7.815536810085177e-05,-9.619247436523438,18.696828842163086,-38.08106994628906,0.051088660955429084,-0.12249885499477385,0.02514266967773437,988.5679321289062,0,13.0,1,1
10.12,0.08649838,-0.16735382,9.777689,0.0003238723729737103,-0.0009154981235042213,0.0007207189337350428,-9.240459442138672,18.57742118835449,-38.13245391845703,0.031348779797554016,-0.1169004887342453,0.0109710693359375,988.5450439453124,0,13.0,1,1
10.16,0.07934642,-0.16735424,9.765856,0.0005900171236135067,0.001081898808479309,-7.830205140635371e-05,-9.61384105682373,18.965097427368164,-37.78966522216797,0.055230721831321716,-0.11151869595050813,0.03465747833251953,988.52001953125,0,13.0,1,1
10.2,0.08892381,-0.15067170000000002,9.76349,5.7214230764657266e-05,-0.0009154425351880492,5.478254752233625e-05,-9.365438461303713,18.30206680297852,-37.63517761230469,0.045012205839157104,-0.1249999850988388,0.048890113830566406,988.52490234375,0,13.0,1,1
10.24,0.06982237,-0.17688824,9.761124,0.0005896749789826572,0.0008156385156325996,0.00045418299851007765,-9.10844612121582,18.01616859436035,-38.04296875,0.07324665784835815,-0.08615671098232269,0.04891490936279297,988.5152587890624,0,13.0,1,1
10.28,0.079399765,-0.16973881,9.76586,0.00032318785088136787,0.0004161924589425325,0.0005872675683349371,-9.508946418762207,18.589162826538086,-37.70684051513672,0.05414873361587525,-0.1000574678182602,0.02525234222412109,988.5078735351562,0,13.0,1,1
10.32,0.09375691400000001,-0.17450579,9.7634945,-0.0004759311559610068,-0.00038272741949185734,-0.0007443852373398839,-9.348291397094727,17.844064712524414,-37.68800354003906,0.03896969556808472,-0.09495992958545683,0.03947353363037109,988.5358276367188,0,13.0,1,1
10.36,0.08660495,-0.16258986,9.76823,5.652947584167123e-05,0.0012151957489550116,-0.0004781426978297532,-8.899744987487793,18.000883102416992,-38.07423400878906,0.04361869394779205,-0.1039428859949112,0.04422187805175781,988.53564453125,0,13.0,1,1
10.4,0.086622715,-0.18165652,9.763497000000001,-7.679959526285529e-05,-0.0003826718311756849,-0.0003450580989010632,-9.41152572631836,18.31178092956543,-37.93657684326172,0.04833623766899109,-0.08412934839725494,0.04897785186767578,988.530517578125,0,13.0,1,1
10.44,0.09381014,-0.1625907,9.772967999999999,0.0004556612693704665,-0.0006489598890766501,0.00018750023446045816,-9.480304718017578,18.405317306518555,-37.77748489379883,0.048123255372047424,-0.11238406598567964,0.025316238403320312,988.5562133789062,0,13.0,1,1
10.48,0.08426833,-0.16974099,9.775337,-0.0006097736186347902,-0.0002494583313819021,0.00032058494980447,-9.010183334350586,18.002634048461914,-37.74938201904297,0.057428613305091865,-0.10219193994998932,0.03953838348388672,988.5462036132812,0,13.0,1,1
10.52,0.07950628,-0.17689134,9.756401,0.00032216060208156705,0.0002832012251019478,0.00032051154994405806,-8.652864456176758,17.336381912231445,-37.84244155883789,0.03782616555690765,-0.0972120612859726,0.04901790618896485,988.5765991210938,0,13.0,1,1
10.56,0.084303856,-0.16735856,9.754036,-0.0002106421743519604,0.0006827029283158481,-0.000212193641345948,-8.776863098144531,17.430793762207028,-37.52092742919922,0.04733793437480927,-0.10130278766155244,0.044300079345703125,988.533935546875,0,13.0,1,1
10.6,0.08432156,-0.17450888,9.770607,5.550257628783584e-05,-0.0007820067694410683,-0.0008780566859059036,-9.064860343933104,17.63521957397461,-37.48851013183594,0.05189606547355652,-0.09108327329158784,0.030117034912109375,988.553955078125,0,13.0,1,1
10.64,0.067610055,-0.16497622,9.761141,0.00032164744334295387,1.696869730949402e-05,-0.0008781300275586544,-9.037601470947266,17.555814743041992,-38.1809196472168,0.0706978291273117,-0.09564520418643953,0.03959465026855469,988.5313720703124,0,13.0,1,1
10.68,0.093916714,-0.16259329,9.751673,-0.0007437874446623027,0.0002833124017342925,-0.00021241366630420091,-9.105945587158203,18.38740539550781,-38.29602813720703,0.03707894682884216,-0.10913924872875214,0.06328868865966797,988.5391235351562,0,13.0,1,1
10.72,0.096324384,-0.16974361,9.763511,0.0008539364789612591,-0.00024929153732955456,5.3828756790608174e-05,-8.865015029907227,17.822927474975586,-38.45409393310547,0.02786165475845337,-0.09885065257549286,0.034895896911621094,988.5313720703124,0,13.0,1,1
10.76,0.09395224,-0.1673608,9.761144999999999,0.0007206076406873763,-0.0018471591174602509,-0.0004788762307725847,-8.999667167663574,17.907026290893555,-37.59143829345703,0.046889737248420715,-0.09330423176288603,0.034915924072265625,988.5215454101562,0,13.0,1,1
10.8,0.09397,-0.1625946,9.765882000000001,0.0005872785695828497,0.0001502378145232797,-0.0008784233941696584,-9.350217819213867,18.316797256469727,-38.4082260131836,0.03221482038497925,-0.0927165299654007,0.044403076171875,988.5216674804688,0,13.0,1,1
10.84,0.07964837599999999,-0.15306199999999998,9.772984,-7.868226384744048e-05,-0.00011605030158534646,-0.00034586514811962843,-9.488755226135254,18.134103775024414,-37.91427993774414,0.05620670318603516,-0.1062612682580948,0.039687156677246094,988.5623168945312,0,13.0,1,1
10.88,0.07966608,-0.17689522,9.756416,0.0007200940162874758,-0.0005154963000677526,-0.0002127803745679557,-9.645282745361328,18.14556884765625,-37.89083099365234,0.05125387012958527,-0.09128977358341216,0.0539093017578125,988.527099609375,0,13.0,1,1
10.92,0.08924347,-0.16736247,9.768253,0.0003204489476047456,-0.0003823105653282255,-7.96958920545876e-05,-9.248506546020508,17.832002639770508,-37.47172546386719,0.03183750808238983,-0.0908171683549881,0.03972053527832031,988.5347900390624,0,13.0,1,1
10.96,0.07492182,-0.1602131,9.758786,-0.00021235382882878184,0.00041666487231850624,0.0003197045298293233,-9.620226860046387,18.32706642150879,-37.905311584472656,0.05530725419521332,-0.10441102087497713,0.04921245574951172,988.5601806640624,0,13.0,1,1
11.0,0.08150253,-0.15543209,9.761099,0.0006257467903196813,0.00016295581008307636,-0.00039717322215437884,-9.801371574401855,18.895082473754886,-38.1415901184082,0.0413413941860199,-0.11821971833705902,0.058751106262207024,988.4944458007812,0,13.0,1,1
11.04,0.08388609,-0.16973163,9.756364999999999,-0.0003043696051463485,-0.00010368302173446864,-0.0002631626557558775,-9.898250579833984,18.804176330566406,-37.81340026855469,0.05103601515293121,-0.0893116444349289,0.04928779602050781,988.5175170898438,0,13.0,1,1
11.08,0.08626962,-0.16019835,9.756364999999999,-0.00030078040435910225,-0.001036371337249875,0.0006704811239615082,-9.58769989013672,18.41001319885254,-37.60723876953125,0.04601840674877167,-0.09819592535495758,0.04930877685546875,988.52001953125,0,13.0,1,1
11.12,0.09343299,-0.15781493,9.777667999999998,0.00023191235959529877,-0.00010427563393022864,0.00013787555508315563,-10.121490478515623,18.542360305786133,-37.60971450805664,0.036142721772193916,-0.10222397744655608,0.030396461486816406,988.5250244140624,0,13.0,1,1
11.16,0.093426675,-0.16258131,9.761097,0.0006314475322142242,0.00042834618943743413,4.743807949125767e-06,-10.431499481201172,18.568235397338867,-37.71742248535156,0.035839423537254333,-0.09689371287822723,0.03515052795410156,988.5225219726562,0,13.0,1,1
11.2,0.08147085,-0.16734768,9.775299,-3.428105264902115e-05,0.0004283362941350788,0.0001379278255626559,-9.989882469177246,18.45531463623047,-38.3177604675293,0.04974918067455292,-0.08656607568264008,0.030443191528320312,988.5582275390624,0,13.0,1,1
11.24,0.076684654,-0.17449744,9.770565,0.0008978855330497025,0.00029516840004362166,-0.0010604673298075797,-10.048145294189453,18.453245162963867,-38.00072479248047,0.04435606300830841,-0.08594052493572235,0.035202980041503906,988.510498046875,0,13.0,1,1
11.28,0.07189852,-0.15304773,9.761095,0.00023215706460177896,0.0010941063519567251,0.00027113815303891897,-10.41032886505127,18.48293876647949,-38.10061645507813,0.039327815175056464,-0.10415579378604888,0.04469871520996094,988.5227661132812,0,13.0,1,1
11.32,0.09579119,-0.16734724,9.761095,0.00036537600681185717,0.00029514855123125017,4.848581738770008e-06,-10.23208999633789,18.01788902282715,-38.40880966186523,0.034189850091934204,-0.08967866003513336,0.03997325897216797,988.510498046875,0,13.0,1,1
11.36,0.093394935,-0.15781398,9.768196000000001,-0.0003003525780513882,0.00016198077355511487,-0.00012828328181058168,-10.56783390045166,18.12464141845703,-37.90141296386719,0.0290926992893219,-0.09888584911823273,0.039986610412597656,988.5410766601562,0,13.0,1,1
11.4,0.09338859,-0.17449678,9.761092999999999,-0.00016713317018002272,-0.00023750303080305454,0.00013805902563035488,-10.488645553588867,19.041841506958008,-38.27522277832031,0.0383918434381485,-0.0837981253862381,0.06368255615234375,988.5335083007812,0,13.0,1,1
11.44,0.09099233,-0.16019695,9.744522,0.00023240200243890283,0.0008277505403384566,-0.0001282306620851159,-10.42954158782959,19.307762145996094,-38.068939208984375,0.042923703789711,-0.08396358788013457,0.058949470520019524,988.535888671875,0,13.0,1,1
11.48,0.07903647400000001,-0.15543021,9.76346,-0.00123227434232831,-0.00023752287961542606,0.00013811147073283792,-10.60821533203125,19.034757614135746,-37.48654174804688,0.0471179336309433,-0.10249121487140657,0.04950237274169922,988.5640258789062,0,13.0,1,1
11.52,0.09336954,-0.16257991,9.782396,-0.0001669496996328235,0.001094046514481306,0.0009370852494612336,-10.33918571472168,18.65472412109375,-37.813697814941406,0.02356073260307312,-0.092622771859169,0.025835037231445312,988.5513916015624,0,13.0,1,1
11.56,0.09097332,-0.15781315,9.770560000000001,-0.0004332044627517462,-0.001302806194871664,-0.0006607838440686464,-9.876537322998047,18.350595474243164,-38.09814453125,0.04239930212497711,-0.09673653542995453,0.021121978759765625,988.5233154296876,0,13.0,1,1
11.6,0.09096699999999999,-0.16257961,9.761091,0.0003658041823655367,-0.00010439471225254238,-0.0002612838288769126,-10.494190216064453,18.66766166687012,-37.8675537109375,0.03251434862613678,-0.09185446798801422,0.05426979064941406,988.5513916015624,0,13.0,1,1
11.64,0.09096065,-0.17211254,9.756355000000001,-0.0008325560484081508,0.0004282270965632051,5.058187525719404e-06,-10.390382766723633,19.02830696105957,-37.98163604736328,0.04180428385734558,-0.08678631484508514,0.04481315612792969,988.5391845703124,0,13.0,1,1
11.68,0.090954304,-0.17211242,9.775292,-0.00043302122503519064,0.0005613751709461212,0.0001382423797622323,-10.290054321289062,18.6479549407959,-37.666900634765625,0.0321265310049057,-0.08150927722454071,0.021157264709472656,988.5569458007812,0,13.0,1,1
11.72,0.09811765,-0.16496243,9.775291000000001,0.0003659875364974141,-0.00023758244060445577,0.0010703741572797296,-10.387774467468262,18.293201446533203,-37.862037658691406,0.02722465991973877,-0.08589692413806915,0.03537178039550781,988.53662109375,0,13.0,1,1
11.76,0.09572142,-0.17449541,9.772924,-0.00016658310778439042,-0.00023759232135489586,-0.00026117905508726835,-10.346658706665039,18.75327491760254,-38.12625122070313,0.0414847731590271,-0.075667604804039,0.04486083984375,988.5444946289062,0,13.0,1,1
11.8,0.09810501,-0.17687850000000002,9.765821,0.00036610965617001057,-0.0002376022894168273,-0.00012799503747373822,-10.575007438659668,18.85532569885254,-37.78909301757813,0.031899914145469666,-0.07531563937664032,0.04013633728027344,988.5367431640624,0,13.0,1,1
11.84,0.09331885,-0.17449506,9.765821,-0.00016646087169647217,-0.00023761218471918252,-0.0003942846087738872,-10.310108184814453,19.20892906188965,-38.158546447753906,0.03672882914543152,-0.07028202712535858,0.04961109161376953,988.57470703125,0,13.0,1,1
11.88,0.08136299,-0.15542872,9.777657000000001,-0.00016639987006783483,-0.0002376221091253683,5.215290002524853e-06,-10.388455390930176,18.555574417114254,-37.26141357421875,0.04655930399894714,-0.0843581110239029,0.04014682769775391,988.5576171875,0,13.0,1,1
11.92,0.08613646,-0.16734494,9.7587185,-0.0006989705143496393,-0.0010365796042606237,0.0002715574519243092,-10.195379257202148,18.999765396118164,-37.31715393066406,0.03715723752975464,-0.07413743436336517,0.04489612579345703,988.5648803710938,0,13.0,1,1
11.96,0.09396109,-0.16259442,9.763514,0.0007658279500901699,-0.0010365896159783006,-0.00012789026368409398,-10.001078605651855,18.813291549682614,-37.87507629394531,0.0366232693195343,-0.08326669037342073,0.04491519927978516,988.5470581054688,0,13.0,1,1
12.0,0.09704584,-0.16976134,9.765944500000002,-0.0002993745729327202,0.000694453832693398,0.0001384518691338599,-10.38983917236328,18.660017013549805,-37.88318634033203,0.025830820202827454,-0.07776585221290587,0.04954242706298828,988.5403442382812,0,13.0,1,1
12.04,0.08753317599999999,-0.16976239,9.768315,0.0006273627514019607,-0.0005073701031506062,0.0006638540653511883,-10.23247241973877,18.91240119934082,-37.3833122253418,0.029966786503791813,-0.08205503225326538,0.040088653564453125,988.55517578125,0,13.0,1,1
12.08,0.10430944,-0.18167998,9.761219,0.00022428983356803658,0.0008247935911640525,0.00012967991642653942,-10.765039443969727,18.41408348083496,-37.887962341308594,0.025269880890846246,-0.07651707530021667,0.025899887084960938,988.5527954101562,0,13.0,1,1
12.12,0.10435635,-0.17929791,9.75412,0.0010227850871160626,-0.0009061862365342676,-0.00040314585203304887,-10.359675407409668,18.47764205932617,-38.03113174438477,0.02012766152620316,-0.06667111814022064,0.0637826919555664,988.57080078125,0,13.0,1,1
12.16,0.085284054,-0.15069969,9.784899000000001,-0.00017608865164220333,0.0005586245679296553,-0.0004033395671285689,-10.063089370727539,18.650346755981445,-38.62582778930664,0.034418560564517975,-0.09457743167877196,0.011716842651367188,988.5857543945312,0,13.0,1,1
12.2,0.09967041,-0.16738375,9.7707,0.0004892487777397038,2.606620546430349e-05,0.0005285721272230148,-10.234835624694824,18.64708137512207,-37.82933044433594,0.029326558113098145,-0.08953379094600677,0.02592754364013672,988.5477294921876,0,13.0,1,1
12.24,0.09732741,-0.16023509,9.765969,-0.0005769196432083845,0.0002925290027633309,-0.00013760518049821258,-10.619029998779297,18.49822425842285,-38.06935119628906,0.024375207722187042,-0.09424436092376708,0.04012870788574219,988.5631713867188,0,13.0,1,1
12.28,0.08781475,-0.17215271,9.765974,-0.0005769196432083845,0.0002925290027633309,-0.00013760518049821258,-10.42856216430664,19.67752265930176,-38.24469757080078,0.03338514268398285,-0.06992363929748535,0.03540802001953125,988.5631713867188,0,13.0,1,1
12.32,0.08786169,-0.17453705,9.780182,0.0003547337837517261,0.0006920762825757265,0.000394832604797557,-9.77729606628418,18.70681953430176,-37.980316162109375,0.033393651247024536,-0.06494845449924469,0.016469955444335938,988.5508422851562,0,13.0,1,1
12.36,0.08790862599999999,-0.1673884,9.773085,-0.0009772981284186244,-0.0006394297233782709,0.0007941125659272075,-10.44948673248291,18.762392044067386,-38.18791961669922,0.033133260905742645,-0.07439014315605164,0.02120304107666016,988.5860595703124,0,13.0,1,1
12.4,0.087955534,-0.16023977,9.765986,-0.0008445924613624811,2.6433379389345653e-05,-0.0008039766107685863,-10.213665008544922,18.561786651611328,-38.2125244140625,0.0423351600766182,-0.0977037250995636,0.04015636444091797,988.5512084960938,0,13.0,1,1
12.44,0.09756210400000001,-0.16977398,9.768358000000001,0.0003533767303451896,0.0006922965403646232,-0.0004046967369504273,-10.151516914367676,18.83064842224121,-38.16085052490234,0.02795079350471497,-0.06863033771514893,0.030694961547851562,988.5203857421876,0,13.0,1,1
12.48,0.10477871,-0.17930822,9.754159,0.00048608228098601103,-0.0009055254049599172,-0.00013857457088306546,-10.603107452392578,18.670883178710934,-37.62000274658203,0.01844049245119095,-0.06364394724369049,0.059102058410644524,988.5614624023438,0,13.0,1,1
12.52,0.09526604400000001,-0.15071006,9.754164,-0.0007065149839036168,-0.0002352657320443541,-0.0005547311156988144,-10.192495346069336,18.47648811340332,-38.5957145690918,0.022782139480113983,-0.08718250691890718,0.059109687805175774,988.556396484375,0,13.0,1,1
12.56,0.08814329,-0.17454405,9.780207,-4.117755452170968e-05,0.0006969132809899747,0.0003771805786527693,-10.495574951171877,18.772104263305664,-38.48932647705078,0.041435658931732185,-0.06276075541973114,0.02598476409912109,988.5614624023438,0,13.0,1,1
12.6,0.090580106,-0.15547885,9.761274,-4.162994446232915e-05,0.0006969867390580474,-0.000421960954554379,-10.379865646362305,18.93270301818848,-37.823692321777344,0.04134319722652435,-0.08606667816638948,0.04966545104980469,988.5487670898438,0,13.0,1,1
12.64,0.10018664599999999,-0.16024663,9.766012,0.00022423366317525503,-0.0006345192668959497,0.0006431087385863067,-10.337664604187012,18.65619659423828,-37.89099884033203,0.021994344890117645,-0.08560627698898315,0.04967594146728516,988.5615234375,0,13.0,1,1
12.68,0.09784368,-0.16978092,9.766017,-0.0001756925485096872,0.0001645018346607685,0.00011028314474970102,-10.0294771194458,17.996713638305664,-38.130855560302734,0.02621712535619736,-0.08047111332416534,0.035483360290527344,988.5595092773438,0,13.0,1,1
12.72,0.10028052,-0.14833258,9.763655,0.00035648682387545705,0.0009635228780098259,-0.0005557003896683456,-10.682700157165527,18.227888107299805,-38.043724060058594,0.011996224522590635,-0.09424704313278197,0.040223121643066406,988.5213623046876,0,13.0,1,1
12.76,0.10032743,-0.17216645,9.763659,-4.3439387809485204e-05,-0.0007674569496884942,-0.0002895784564316273,-10.558265686035156,18.871530532836914,-38.63945007324219,0.01653926819562912,-0.07489785552024841,0.04496288299560547,988.5519409179688,0,13.0,1,1
12.8,0.10037439999999999,-0.17216761,9.761295,-0.0005765234236605464,0.0008305118535645306,-2.3456406779587272e-05,-10.276494026184082,18.555295944213867,-37.66357421875,0.020930789411067963,-0.07458575069904327,0.049704551696777344,988.5470581054688,0,13.0,1,1
12.84,0.0789122,-0.16025235,9.761299000000001,-4.434405127540231e-05,0.0002979535493068397,-0.0006894398247823119,-9.728707313537598,19.068342208862305,-37.93197250366211,0.03532680869102478,-0.07417355477809906,0.05444526672363281,988.5725708007812,0,13.0,1,1
12.88,0.0765692,-0.16263677,9.770773,0.00035422510700300336,0.0006975742871873081,0.0005085938028059901,-10.543864250183104,19.04271697998047,-38.11279678344727,0.05344484746456146,-0.08285990357398987,0.04026699066162109,988.55224609375,0,13.0,1,1
12.92,0.08856568,-0.16025467,9.763676,0.00035422510700300336,0.0006975742871873081,0.0005085938028059901,-10.543864250183104,19.04271697998047,-38.11279678344727,0.03917663544416428,-0.0823291540145874,0.04027748107910156,988.55224609375,0,13.0,1,1
12.96,0.102603674,-0.1793135,9.773117,0.0008864045958034693,-0.00023445795523002744,0.0007747157942503692,-10.285350799560547,18.75829124450684,-38.59789276123047,0.02000807225704193,-0.0676099956035614,0.030849456787109375,988.5648803710938,0,13.0,1,1
13.0,0.0859074,-0.16739793,9.761284,0.0002209912636317313,0.000564428570214659,0.00024224535445682704,-10.054532051086426,17.815216064453125,-38.11637496948242,0.024846568703651428,-0.0767018049955368,0.049793243408203125,988.5520629882812,0,13.0,1,1
13.04,0.10027978,-0.16263218,9.754185000000001,-0.00017041235696524382,-0.000374862807802856,0.00010593695333227515,-10.057437896728516,17.918184280395508,-38.66084289550781,0.01980269700288773,-0.08108040690422058,0.06400680541992188,988.5499877929688,0,13.0,1,1
13.08,0.08836326,-0.16501625,9.756556,9.55857103690505e-05,0.00042413646588101983,-2.73572513833642e-05,-9.876537322998047,18.3505916595459,-38.09814453125,0.029033623635768887,-0.07592654228210449,0.04034423828125,988.5294799804688,0,13.0,1,1
13.12,0.10512555,-0.16025050000000002,9.7731285,0.00036158342845737934,2.4714245228096846e-05,-0.0006932830438017845,-10.053552627563477,18.18497657775879,-38.29212951660156,0.009806826710700987,-0.08024449646472931,0.030884742736816406,988.5601806640624,0,13.0,1,1
13.16,0.10515854,-0.16740121,9.763662,-0.000437682494521141,0.0001579238451085985,0.00023868613061495123,-9.783681869506836,18.06879234313965,-38.09596633911133,0.009739458560943605,-0.07524152100086212,0.035622596740722656,988.5653076171876,0,13.0,1,1
13.2,0.08846223,-0.16978525,9.761299000000001,-0.0004380001919344068,-0.00024149841920007018,-0.0001609239261597395,-9.937408447265623,19.083627700805664,-37.90070343017578,0.028900057077407837,-0.07461009919643402,0.045101165771484375,988.5525512695312,0,13.0,1,1
13.24,0.10283461,-0.16025294,9.758934,0.0007601035758852959,-0.0005077626556158067,-2.7902249712496996e-05,-9.85841178894043,18.262353897094727,-38.32672882080078,0.014767326414585112,-0.07938051223754883,0.05929946899414064,988.572998046875,0,13.0,1,1
13.28,0.08613828,-0.15787049,9.768406,-0.0008381095249205827,-0.001040342845954001,-0.0009601442143321037,-10.228204727172852,18.284683227539066,-38.04010009765625,0.0336504802107811,-0.06946837902069093,0.02616786956787109,988.55810546875,0,13.0,1,1
13.32,0.08378136,-0.17455424,9.766042,-0.00030579580925405025,0.0005576040712185204,-0.0005608064820989965,-9.88901138305664,17.7066707611084,-37.904579162597656,0.03798460215330124,-0.06926421821117401,0.04037857055664063,988.5606689453124,0,13.0,1,1
13.36,0.08859417,-0.1674052,9.763678,-0.000439272029325366,0.00015818187966942787,-2.8311158530414104e-05,-10.187088012695312,18.7447566986084,-38.30430603027344,0.028375111520290375,-0.06440018117427826,0.03564262390136719,988.5479125976562,0,13.0,1,1
13.4,0.10296655,-0.16740604,9.766048,-0.0007059057243168354,-0.00010808237129822372,-0.0004279210697859525,-9.959717750549316,18.2729434967041,-38.46570587158203,0.0046004727482795715,-0.08326509594917297,0.054579734802246094,988.563232421875,0,13.0,1,1
13.44,0.08627021,-0.1721734,9.773152,-0.00030674971640110016,-0.0010401364415884018,-0.000294899451546371,-10.34154987335205,18.389406204223636,-38.25971221923828,0.03821136802434921,-0.06388793885707855,0.026175498962402344,988.5709228515624,0,13.0,1,1
13.48,0.09586283599999999,-0.15310802,9.76132,-0.00017390947323292494,-0.0002411371242487803,-0.0004281937144696713,-10.024749755859377,18.527353286743164,-37.23882293701172,0.02352709323167801,-0.08721952140331267,0.04512596130371094,988.5633544921876,0,13.0,1,1
13.52,0.09350586,-0.16979171,9.766057,0.00022524641826748848,0.00029154628282412887,0.00023745981161482632,-9.896184921264648,18.437360763549805,-37.792259216308594,0.03299092501401901,-0.0536741316318512,0.04039478302001953,988.555908203125,0,13.0,1,1
13.56,0.08875909400000001,-0.16502596,9.768428,-0.0004408614477142692,-0.0005073497886769474,0.0006367973983287811,-9.80677890777588,18.626819610595703,-38.43299865722656,0.037477664649486535,-0.07693880796432495,0.04514217376708984,988.558349609375,0,13.0,1,1
13.6,0.088792056,-0.1769432,9.768431,-4.17057890444994e-05,0.00029164948500692844,-0.0010943920351564882,-10.1765718460083,18.649150848388672,-38.14636993408203,0.022557869553565982,-0.05787263810634612,0.04041099548339844,988.5889282226562,0,13.0,1,1
13.64,0.103164464,-0.16741087,9.758965,-0.0003083392512053251,0.001223806757479906,-0.0012276862980797887,-10.39785385131836,19.126859664916992,-38.294189453125,0.012938007712364195,-0.07674188911914825,0.0498809814453125,988.5562744140624,0,13.0,1,1
13.68,0.08885804,-0.17217825,9.766069,-0.00044181500561535364,-0.00024087906058412045,-0.0012278225040063262,-9.970372200012207,18.26262855529785,-37.92456817626953,0.02224402874708176,-0.062131509184837334,0.0404205322265625,988.5787963867188,0,13.0,1,1
13.72,0.09845060000000001,-0.16502918,9.75897,-4.265899769961834e-05,0.00015864643501117828,-0.0001626951852813363,-9.908658981323242,17.793439865112305,-37.59869003295898,0.02718331664800644,-0.07617346942424774,0.040421485900878906,988.5822143554688,0,13.0,1,1
13.76,0.096093684,-0.16503002,9.77081,-0.000442450982518494,-0.0007734075770713389,-0.0004291473887860775,-10.282583236694336,18.549406051635746,-37.35435485839844,0.02184140682220459,-0.07079809904098511,0.04517173767089844,988.5489501953124,0,13.0,1,1
13.8,0.09373677,-0.16503085,9.763712,0.000755652436055243,0.0012240128125995398,0.00010334816761314868,-9.727079391479492,17.96347427368164,-37.636619567871094,0.02115433663129806,-0.06558084487915039,0.040454864501953125,988.5996704101562,0,13.0,1,1
13.84,0.08898997,-0.1602651,9.758980000000001,-4.361302126199007e-05,0.0014903806149959564,-0.00042941980063915247,-9.696615219116213,18.413236618041992,-37.35969543457031,0.03989729285240173,-0.07473178207874298,0.045197486877441406,988.5389404296876,0,13.0,1,1
13.88,0.08424312,-0.18171538,9.768452,8.922722190618515e-05,0.0001588527811691165,-0.0004295560065656901,-10.218774795532227,18.925657272338867,-38.07905578613281,0.030226022005081173,-0.04076145589351654,0.031007766723632806,988.5743408203124,0,13.0,1,1
13.92,0.0980376,-0.16740239999999998,9.773136000000001,0.0006215411704033612,-0.00010741146979853512,-0.0005628502694889903,-10.13534927368164,18.00288200378418,-38.03791809082031,0.0248740091919899,-0.04995684325695038,0.03575420379638672,988.5670776367188,0,13.0,1,1
13.96,0.09267771,-0.16262157,9.756511999999999,0.00022174906916916368,0.0009579036268405617,-0.00042982865124940867,-10.09727668762207,18.460012435913086,-38.14751815795898,0.03550095111131668,-0.0684497058391571,0.05954647064208984,988.5746459960938,0,13.0,1,1
14.0,0.092663765,-0.1650045,9.763613000000001,-3.7851277738809586e-05,-0.00010844995267689228,-0.0005601084558293222,-9.923604965209961,17.990543365478516,-38.223793029785156,0.030745700001716614,-0.06363652646541595,0.040610313415527344,988.5567626953124,0,13.0,1,1
14.04,0.09981954,-0.16738744,9.75651,0.00015680567594245076,-0.00034025247441604733,7.423420902341604e-05,-9.31203842163086,17.66758155822754,-38.14516830444336,0.021765947341918945,-0.06791391968727112,0.04535102844238281,988.5697631835938,0,13.0,1,1
14.08,0.09502572,-0.15785398,9.775446,-0.00024253403535112733,-0.0016718538245186212,-0.0004583399277180433,-9.836400032043457,18.440900802612305,-38.18659973144531,0.03622985631227493,-0.07745888829231262,0.03588294982910156,988.552001953125,0,13.0,1,1
14.12,0.09740168,-0.1650035,9.758875,-0.0010413469281047585,-0.00034029613016173244,0.0003406654577702284,-9.681097030639648,19.060102462768555,-37.7078742980957,0.017191283404827118,-0.05822946131229401,0.04535484313964844,988.56982421875,0,13.0,1,1
14.16,0.08782813,-0.16023658,9.758874,-0.0003754228237085045,-0.0008729497785679996,-0.0003250667359679937,-9.34274673461914,18.218246459960934,-38.09567260742188,0.026185669004917145,-0.06752966344356537,0.05010223388671875,988.5599975585938,0,13.0,1,1
14.2,0.09259400000000001,-0.15546967,9.773076,-0.0003752881311811507,0.0015238713240250945,0.0006070964736863972,-9.577481269836426,17.68227195739746,-37.874168395996094,0.026440121233463287,-0.07173436880111694,0.03117656707763672,988.5548706054688,0,13.0,1,1
14.24,0.087800205,-0.15308602,9.754137,0.0005569517961703241,-0.0011393093736842275,0.00020768027752637863,-9.993606567382812,18.71474266052246,-37.5625228881836,0.031229220330715183,-0.07612504065036774,0.05959510803222656,988.5497436523438,0,13.0,1,1
14.28,0.090176165,-0.17691852,9.763603999999999,0.0001576123177073896,-0.0006066993810236454,-0.00019173580221831799,-10.009530067443848,18.542081832885746,-38.01187133789063,0.021419890224933624,-0.03793804347515106,0.03119182586669922,988.5475463867188,0,13.0,1,1
14.32,0.08777231,-0.15785195,9.761236,-0.0009075163980014623,0.0007248581387102604,7.463764632120727e-05,-9.726940155029297,18.06938934326172,-38.335697174072266,0.030635826289653775,-0.07076400518417357,0.05961799621582031,988.5451049804688,0,13.0,1,1
14.36,0.09253818,-0.1650014,9.780171000000001,0.0004241973510943353,0.0004585204587783665,0.001006800914183259,-9.754741668701172,18.5170841217041,-37.74173355102539,0.011411227285861969,-0.07015158236026764,0.02649402618408203,988.6057739257812,0,13.0,1,1
14.4,0.09730404599999999,-0.15308465,9.768335,0.0002911738702096045,-7.413316052407026e-05,-0.0005910366307944058,-9.891618728637695,18.4417781829834,-38.024173736572266,0.035370923578739166,-0.07470957934856415,0.04543590545654297,988.5960083007812,0,13.0,1,1
14.44,0.09967998,-0.16023417,9.761232000000001,-0.0005076391971670091,-0.0006067866925150156,-5.834735929965973e-05,-9.759605407714844,17.880525588989258,-37.9346923828125,0.016409151256084442,-0.08390115201473236,0.0407094955444336,988.5732421875,0,13.0,1,1
14.48,0.094886184,-0.16261713,9.76123,0.0002914426731877029,-0.00047365057980641717,-0.00019144779071211812,-9.686941146850586,18.05378532409668,-37.725074768066406,0.006882414221763611,-0.06467029452323914,0.05018329620361328,988.5809326171876,0,13.0,1,1
14.52,0.09009242,-0.17214991,9.775433,-0.0003742121043615043,-7.419861503876746e-05,7.492583245038986e-05,-9.596693992614746,18.50709342956543,-37.84249114990234,0.026558764278888702,-0.05485348403453827,0.012309074401855469,988.5654907226562,0,13.0,1,1
14.56,0.10441789,-0.17453285,9.763596000000001,-0.00037407787749543786,-0.0018052736995741727,0.0006076152203604579,-9.729143142700195,18.33028984069824,-37.65776824951172,0.011731766164302826,-0.04488150775432587,0.050201416015625,988.5629272460938,0,13.0,1,1
14.6,0.090064555,-0.16261609,9.773064,0.0005581622826866807,0.000724705052562058,0.0003413570229895413,-9.746588706970217,18.156156539916992,-38.0298080444336,0.03559400886297226,-0.0589013546705246,0.03127288818359375,988.5584106445312,0,13.0,1,1
14.64,0.09005058,-0.16261579,9.754124000000001,-0.00010749296052381396,-7.426415686495602e-05,0.0002082567079924047,-9.72359848022461,18.704471588134766,-38.06543731689453,0.030261754989624023,-0.05864426493644714,0.05022430419921875,988.54052734375,0,13.0,1,1
14.68,0.10198617,-0.16023214,9.761225,-0.00010735850082710384,0.0009909775108098984,-0.0008569490164518356,-9.863519668579102,18.626222610473636,-38.193267822265625,0.006124064326286316,-0.06784598529338838,0.03129768371582031,988.5789794921876,0,13.0,1,1
14.72,0.10197219,-0.17214818,9.761223,-0.00024038174888119102,0.00032516606734134257,-5.794398020952939e-05,-10.021568298339844,18.636213302612305,-38.09251403808594,0.02521224319934845,-0.04365965723991394,0.04077816009521485,988.6016235351562,0,13.0,1,1
14.76,0.09717846,-0.16976453,9.75412,0.00029238424031063914,-7.432964048348367e-05,0.0002084295265376568,-9.520303726196287,18.420923233032227,-38.38810729980469,0.010888390243053436,-0.0573011040687561,0.050262451171875,988.5712280273438,0,13.0,1,1
14.8,0.08521497,-0.15308125,9.770688999999999,0.0009583086357451976,-7.435146835632622e-05,-0.0003241444937884808,-9.398508071899414,18.587411880493164,-38.03169631958008,0.025184504687786102,-0.07574082911014557,0.031340599060058594,988.5868530273438,0,13.0,1,1
14.84,0.09476060000000001,-0.17453046,9.758851,0.000558969157282263,-7.437329622916877e-05,7.538695354014635e-05,-9.917354583740234,18.522653579711914,-37.40906524658203,0.0204055979847908,-0.056220784783363335,0.04082298278808594,988.5841064453124,0,13.0,1,1
14.88,0.08040723,-0.16023041,9.76832,-0.00010655150981619954,0.001257162424735725,0.00020866026170551774,-9.592127799987793,18.511510848999023,-38.07440185546875,0.02478537708520889,-0.06064438819885254,0.026632308959960938,988.5567626953124,0,13.0,1,1
14.92,0.0929459,-0.16977799999999998,9.773108,0.0006925305933691561,0.0007245087763294578,0.00047503373934887355,-9.846372604370117,18.1682186126709,-38.246089935302734,0.02426416426897049,-0.05057397484779358,0.036121368408203125,988.5693969726562,0,13.0,1,1
14.96,0.084011614,-0.16026019,9.768431,0.0006925305933691561,0.0007245087763294578,0.00047503373934887355,-9.745610237121582,18.525920867919922,-38.20556640625,0.03255733102560043,-0.06946742534637451,0.04548168182373047,988.5693969726562,0,13.0,1,1
15.0,0.098385215,-0.16502757,9.768435,-0.0005144994938746095,-0.00020903529366478324,-0.0007303361780941486,-10.067655563354492,18.64592742919922,-38.39391326904297,0.008820749819278717,-0.059927031397819526,0.04074287414550781,988.5994873046876,0,13.0,1,1
15.04,0.08646995,-0.16264524,9.770804,-0.0010474610608071089,-0.0006084555061534048,-6.468803621828556e-05,-10.2589111328125,18.835344314575195,-37.9906005859375,0.02298504859209061,-0.07396441698074341,0.03601264953613281,988.5822143554688,0,13.0,1,1
15.08,0.09128404,-0.1674126,9.76844,1.747219357639551e-05,-0.000342086044838652,-0.0008637771243229507,-9.503156661987305,17.962915420532227,-38.44093322753906,0.018065303564071652,-0.04975523054599762,0.03601837158203125,988.5897827148438,0,13.0,1,1
15.12,0.09848797,-0.15788029,9.758975,0.0004166160942986608,5.7441357057541616e-05,-0.00019812898244708776,-10.281061172485352,18.550878524780273,-37.43165588378906,0.017570994794368744,-0.06375961005687714,0.0502309799194336,988.5822143554688,0,13.0,1,1
15.16,0.09374243,-0.17694737,9.766079,-0.0005158197600394487,0.0008564425515942277,-0.00033142848405987024,-9.610689163208008,17.861698150634766,-37.57161331176758,0.0271218940615654,-0.04919584095478058,0.05023479461669922,988.5846557617188,0,13.0,1,1
15.2,0.091386795,-0.16741507,9.76845,0.00014964002184569836,-0.00047508324496448035,6.790389306843281e-05,-9.384947776794434,18.494752883911133,-38.02836608886719,0.02727369964122772,-0.03949122130870819,0.045497894287109375,988.5848388671876,0,13.0,1,1
15.24,0.08664125,-0.16741596,9.756617,-0.00025016407016664743,-0.0007413455750793219,-6.539549212902784e-05,-9.82947063446045,18.710641860961914,-37.97249603271485,0.03673148900270462,-0.0486958771944046,0.03603363037109375,988.6151733398438,0,13.0,1,1
15.28,0.086675525,-0.1769499,9.7684555,0.00028213765472173685,-0.00047497602645307785,-6.553687853738666e-05,-9.85452651977539,18.529146194458008,-37.95801544189453,0.026935525238513947,-0.029226914048194882,0.03130817413330078,988.5799560546876,0,13.0,1,1
15.32,0.09387943,-0.16503434,9.770826,1.5491736121475697e-05,0.0008566569886170328,0.0007332692621275783,-10.117467880249023,18.91506767272949,-37.94007873535156,0.02175600081682205,-0.04788781702518463,0.045520782470703125,988.5902099609376,0,13.0,1,1
15.36,0.0915238,-0.16741844,9.761361,0.00041463540401309734,0.0004572367179207504,-0.0004652937641367316,-9.931618690490724,18.45738410949707,-38.63479614257813,0.012009210884571077,-0.0523306280374527,0.04552650451660156,988.600341796875,0,13.0,1,1
15.4,0.08677822,-0.16265275,9.754261999999999,-0.00011832627933472395,5.781644722446799e-05,-0.00019911921117454767,-9.379838943481444,18.13088035583496,-38.16182708740234,0.026134848594665527,-0.06645557284355164,0.059734344482421875,988.5877075195312,0,13.0,1,1
15.44,0.089202344,-0.15073718,9.766102,-0.0006512884283438325,5.7869998272508376e-05,-0.0001992606557905674,-9.703651428222656,19.24984169006348,-37.946449279785156,0.025677107274532318,-0.07088565826416016,0.04080486297607422,988.59521484375,0,13.0,1,1
15.48,0.091626465,-0.16742100000000001,9.751902000000001,0.00028048735111951833,0.0005905553116463125,-0.0007320339791476728,-9.606230735778807,18.97245979309082,-38.17618942260742,0.020731545984745026,-0.046890974044799805,0.045540809631347656,988.6105346679688,0,13.0,1,1
15.52,0.094050646,-0.16265528,9.7471695,-0.00011931685730814934,5.797721678391098e-05,-0.0003327016020193696,-9.895642280578613,18.06907081604004,-37.693809509277344,0.025356285274028775,-0.056265264749526984,0.06921577453613281,988.5800170898438,0,13.0,1,1
15.56,0.0893051,-0.16980593,9.768478,-0.000630206021014601,0.0002407117863185704,0.0006491470267064869,-9.87167263031006,18.98714637756348,-37.905189514160156,0.020247377455234528,-0.04152591526508331,0.031350135803222656,988.5927734375,0,13.0,1,1
15.6,0.101288855,-0.17219006,9.770847,0.00043472723336890334,0.0005070813349448143,0.0009153214632533492,-9.748109817504883,18.15468406677246,-37.9525032043457,0.015114754438400269,-0.05075407028198242,0.04082679748535156,988.5679931640624,0,13.0,1,1
15.64,0.0917635,-0.1578912,9.751913,0.0003012394881807268,0.0005071348859928548,0.0009151799604296683,-9.726099014282227,18.333234786987305,-37.81237030029297,0.015087418258190157,-0.0599416196346283,0.05029964447021485,988.56787109375,0,13.0,1,1
15.68,0.084628046,-0.16504188,9.770854,-0.0003648806014098227,-2.5443267077207565e-05,0.00024924881290644407,-9.263994216918944,18.397396087646484,-38.195274353027344,0.024169839918613437,-0.06477382779121399,0.026628494262695312,988.6010131835938,0,13.0,1,1
15.72,0.08944210400000001,-0.16027619,9.780327,-0.0006315264035947621,0.0003740841639228165,-1.7208512872457504e-05,-9.40848159790039,18.314727783203125,-38.0911865234375,0.019126534461975098,-0.055066809058189385,0.01716136932373047,988.5933837890624,0,13.0,1,1
15.76,0.08230668,-0.1793433,9.761391999999999,-0.00023238273570314047,0.0005072957137599587,0.00011580792488530278,-9.549382209777832,17.86671257019043,-38.04326248168945,0.028354071080684662,-0.04058465361595154,0.055042266845703125,988.580810546875,0,13.0,1,1
15.8,0.10862982,-0.15551127,9.77323,-0.0003658708301372826,-2.528255572542548e-05,0.0006482981843873857,-9.867681503295898,18.14759635925293,-37.163818359375,-0.005089931190013886,-0.06402401626110077,0.04084396362304688,988.5882568359376,0,13.0,1,1
15.84,0.0895448,-0.16981179999999998,9.763765,0.0002995888353325426,0.00010792899411171676,0.0002486829180270433,-9.364757537841797,18.03969383239746,-38.235801696777344,0.01854456216096878,-0.054007813334465034,0.050322532653808594,988.6010131835938,0,13.0,1,1
15.88,0.09674877,-0.15074642,9.763767,0.0004324166220612824,0.00037429848453029985,0.0006480152951553464,-9.706451416015623,18.24646759033203,-38.118263244628906,0.01814117282629013,-0.06820619106292725,0.02665424346923828,988.5756225585938,0,13.0,1,1
15.92,0.08970928,-0.17219912,9.775617,-0.00023370300186797974,0.00037435209378600115,-0.00015107379294931886,-9.405437469482422,18.317672729492188,-38.24580001831055,0.00846996158361435,-0.04384957253932953,0.036121368408203125,988.5986328125,0,13.0,1,1
15.96,0.08974731,-0.17458333,9.766150999999999,0.0004314147518016398,-0.0002913285861723125,0.00024811213370412594,-9.364757537841797,18.03969383239746,-38.235801696777344,0.036559075117111206,-0.0391571968793869,0.04559135437011719,988.601318359375,0,13.0,1,1
16.0,0.09934503,-0.16981776,9.76142,-0.0007623357814736664,0.0009009309578686953,-2.2201857063919306e-05,-9.422584533691406,18.775676727294922,-38.19297409057617,0.01290842890739441,-0.04847443103790283,0.045589447021484375,988.58642578125,0,13.0,1,1
16.04,0.09221333,-0.15790229,9.777994,3.624515375122428e-05,-0.0005637467838823795,0.00024395686341449613,-9.007001876831055,18.111495971679688,-38.60306930541992,0.008227407932281494,-0.057655408978462226,0.03612327575683594,988.5911254882812,0,13.0,1,1
16.08,0.10659087,-0.16505308,9.770895,0.0001690361532382667,-0.0005636871792376041,-0.0006883058813400568,-9.770665168762207,18.34442138671875,-38.19108581542969,0.0034422129392623897,-0.047814011573791504,0.01718902587890625,988.5738525390624,0,13.0,1,1
16.12,0.09228948,-0.16028734,9.778001,0.00016866944497451186,-3.0995928682386875e-05,-2.267345553264022e-05,-9.29611587524414,17.840242385864258,-37.69581985473633,0.007804274559020995,-0.052378028631210334,0.04086589813232422,988.5865478515624,0,13.0,1,1
16.16,0.08993766,-0.1555217,9.7567,-0.0006306451396085322,0.001034327200613916,-0.0009549362002871932,-9.276468276977539,17.753477096557614,-38.001708984375,0.022036999464035038,-0.06145964562892914,0.050342559814453125,988.5692138671876,0,13.0,1,1
16.2,0.10192522400000001,-0.17935549,9.773273,0.00030109385261312127,-0.0006966665387153625,-2.2987776901572946e-05,-9.157577514648438,18.02293586730957,-38.18976593017578,0.0025236830115318303,-0.04215750098228455,0.0408782958984375,988.5789794921876,0,13.0,1,1
16.24,0.07806426,-0.15552367,9.77091,3.4044089261442416e-05,0.0005018739029765129,-0.00015646015526726842,-9.680171966552734,17.79730224609375,-38.63491821289063,0.035666950047016144,-0.06561006605625153,0.04088687896728516,988.5936889648438,0,13.0,1,1
16.28,0.10200137,-0.15790789,9.768547,3.4044089261442416e-05,0.0005018739029765129,-0.00015646015526726842,-9.283940315246582,17.852027893066406,-38.31426239013672,0.016352042555809018,-0.03701698780059815,0.03141593933105469,988.5936889648438,0,13.0,1,1
16.32,0.0948697,-0.1602921,9.751978,-0.0006321125547401607,-0.0004301719600334764,0.00010969833238050342,-9.131437301635742,17.467853546142578,-38.00734329223633,0.006917528808116914,-0.06521235406398773,0.05509185791015625,988.569091796875,0,13.0,1,1
16.36,0.090127975,-0.17935927,9.744881,-9.984761709347369e-05,-0.0005632704123854638,-2.3616652470082048e-05,-9.346769332885742,17.845539093017578,-37.76530838012695,0.01650532335042954,-0.041352152824401855,0.06455707550048828,988.5640258789062,0,13.0,1,1
16.4,0.075826585,-0.17936017,9.775659,-0.00023337238235399127,-3.057904541492462e-05,0.00010938401101157068,-9.837814331054688,17.333086013793945,-37.73664093017578,0.0312562957406044,-0.031488239765167236,0.04561710357666016,988.5892944335938,0,13.0,1,1
16.44,0.09737381,-0.16744466,9.756724,0.00016573461471125484,-0.0020278885494917627,0.00010922673391178249,-9.37639045715332,17.65962028503418,-37.5189094543457,0.016693033277988434,-0.04565228521823883,0.03141498565673828,988.5594482421876,0,13.0,1,1
16.48,0.08785224,-0.16744561,9.761461,-0.00010094809113070367,0.000235856045037508,-2.4088483769446608e-05,-9.371824264526367,17.664039611816406,-37.750823974609375,0.00691310316324234,-0.040846750140190125,0.0503530502319336,988.5818481445312,0,13.0,1,1
16.52,0.08311045,-0.17221312,9.754364,-0.0005007887375541031,0.0005022315308451654,-2.424564445391297e-05,-9.880422592163086,18.083799362182614,-38.46685791015625,0.030707255005836487,-0.04079422354698181,0.05508613586425781,988.5974731445312,0,13.0,1,1
16.56,0.09509808,-0.16506423,9.759102,-0.0005011553294025363,0.00023597502149641514,-2.4402805138379332e-05,-9.22940158843994,18.113523483276367,-37.876060485839844,0.016134902834892273,-0.04530948400497437,0.045619964599609375,988.5774536132812,0,13.0,1,1
16.6,0.08796638,-0.17459829,9.766207000000001,3.11092589981854e-05,-3.028131322935224e-05,-2.4560082238167528e-05,-9.666314125061037,18.33677864074707,-38.20671844482422,0.01578889042139053,-0.03572876751422882,0.036151885986328125,988.5873413085938,0,13.0,1,1
16.64,0.08561456,-0.16268285,9.766211,-0.000768205092754215,0.0003692519385367632,0.00010844069765880704,-9.279511451721193,17.75052833557129,-37.84709167480469,0.02535921335220337,-0.04968379437923432,0.050357818603515625,988.5594482421876,0,13.0,1,1
16.68,0.09282231,-0.16983365,9.754377,0.0002966917236335576,-0.0004296360712032765,0.00010828353697434069,-9.518377304077148,17.94818878173828,-37.667884826660156,0.020188823342323303,-0.03533516824245453,0.0408926010131836,988.5773315429688,0,13.0,1,1
16.72,0.07852095,-0.15791811,9.761482,-0.00010314915562048553,0.000369371147826314,0.0001081263180822134,-9.701587677001953,18.88302421569824,-37.92530822753906,0.03041519969701767,-0.049178823828697205,0.040889739990234375,988.5748901367188,0,13.0,1,1
16.76,0.09289846,-0.16506885,9.773321000000001,-0.0003698315122164786,-0.0012284645345062015,-0.0001583466655574739,-9.324321746826172,18.762142181396484,-37.89938354492188,0.011198438704013823,-0.04914283752441406,0.040889739990234375,988.59521484375,0,13.0,1,1
16.8,0.09054655,-0.16983636,9.763857000000002,-0.00010388280497863887,-0.0006957731675356628,0.0005072857020422816,-9.157715797424316,17.917016983032227,-37.490684509277344,0.02532307058572769,-0.044227942824363715,0.04562568664550781,988.5748291015624,0,13.0,1,1
16.84,0.08819476,-0.15553765,9.763861,0.00016206660075113177,0.0003695498453453183,0.0006402863655239344,-9.176246643066406,18.479467391967773,-38.05963134765625,0.025092028081417084,-0.0628919005393982,0.036163330078125,988.610595703125,0,13.0,1,1
16.88,0.09548122,-0.16269036,9.756769,-0.00037129892734810715,0.00023651093943044546,-0.000425291305873543,-9.07037353515625,18.473297119140625,-38.15257263183594,0.010024294257164,-0.057912573218345635,0.059825897216796875,988.5574951171876,0,13.0,1,1
16.92,0.08604312,-0.16984318,9.761515,-0.00037129892734810715,0.00023651093943044546,-0.000425291305873543,-9.07037353515625,18.473297119140625,-38.15257263183594,0.01967497169971466,-0.038467928767204285,0.05036163330078125,988.5574951171876,0,13.0,1,1
16.96,0.08369762,-0.16746096,9.766253,0.000563458539545536,9.890020010061562e-05,-2.9147136956453327e-05,-8.958849906921387,17.734966278076172,-38.280521392822266,0.03377274423837662,-0.0477345734834671,0.04563140869140625,988.5751342773438,0,13.0,1,1
17.0,0.07657230000000001,-0.16031219,9.766257000000001,-0.00010313338134437801,9.903046884573996e-05,-0.00042896484956145287,-9.512289047241213,17.95408058166504,-37.97710418701172,0.033716149628162384,-0.04758913815021515,0.05036544799804688,988.5932006835938,0,13.0,1,1
17.04,0.08378643,-0.16746317,9.759161,-0.00036987755447626114,0.00023225796758197245,-0.00042914832010865217,-9.713518142700195,17.870813369750977,-37.63328552246094,0.01880209892988205,-0.04731971025466919,0.031434059143066406,988.5752563476562,0,13.0,1,1
17.08,0.08861065,-0.16508095,9.763899,0.00025427067885175353,0.0007309680222533642,-9.701034286990762e-05,-9.883306503295898,18.607074737548828,-37.18830108642578,0.018388353288173682,-0.04688026010990143,0.05038166046142578,988.5883178710938,0,13.0,1,1
17.12,0.08626512,-0.16269882,9.773371000000001,0.0003870002110488713,6.524781929329038e-05,0.000302279950119555,-9.367258071899414,17.668458938598633,-37.98274230957031,0.0231999009847641,-0.0370229035615921,0.03144645690917969,988.567626953125,0,13.0,1,1
17.16,0.08630952,-0.16746642,9.763906500000001,0.0003865725011564791,-0.0003341565025039017,-0.0006300089298747481,-9.277148246765137,18.01584815979004,-37.40107727050781,0.02291062474250793,-0.0558333545923233,0.03618431091308594,988.5706176757812,0,13.0,1,1
17.2,0.088743806,-0.16508420000000001,9.766278,-0.0006791190826334058,0.00033170264214277273,-9.756063809618354e-05,-9.195489883422852,18.09202766418457,-36.956214904785156,0.02309735864400864,-0.03664982318878174,0.050383567810058594,988.5402221679688,0,13.0,1,1
17.24,0.08639830000000001,-0.16985191,9.740242,0.00025255867512896657,-0.0009998072637245061,0.0003017297713086009,-9.112874984741213,18.11766624450684,-38.5101318359375,0.013231560587882996,-0.03155621886253357,0.05985927581787109,988.5858154296876,0,13.0,1,1
17.28,0.08883262,-0.16031985,9.75445,0.0003852887894026935,0.000598157464992255,0.00016838847659528258,-9.309537887573242,18.038818359375,-38.39822769165039,0.022793278098106384,-0.04106758534908295,0.04565143585205078,988.593505859375,0,13.0,1,1
17.32,0.09365687,-0.17700393,9.771025,-0.0006804027943871915,-0.0007333524408750236,-9.811081690713763e-05,-9.01048183441162,17.37049674987793,-38.17425155639648,0.01817416399717331,-0.031088843941688538,0.040920257568359375,988.5736694335938,0,13.0,1,1
17.36,0.07697189,-0.15078895,9.780497,0.0005175909609533846,-0.00033380917739123106,0.00016802171012386682,-9.514897346496582,18.68918800354004,-38.0967025756836,0.03694594651460648,-0.05463053286075592,0.02672290802001953,988.5809326171876,0,13.0,1,1
17.4,0.09135574,-0.16747294,9.75683,-1.546897692605853e-05,6.57341443002224e-05,-0.0011637411080300806,-9.767078399658203,17.979080200195312,-38.24724197387695,0.012719616293907166,-0.044549062848091125,0.06460762023925781,988.5709228515624,0,13.0,1,1
17.44,0.07945061,-0.17224063,9.763935,0.000783050956670195,0.0009979091119021175,0.00043397082481533284,-9.670879364013672,18.33236122131348,-37.97480010986328,0.022407621145248413,-0.030343502759933468,0.03145885467529297,988.5736694335938,0,13.0,1,1
17.48,0.08427483,-0.16747512,9.773408,-0.0005489567411132157,-0.0008662325562909245,0.0005669451784342527,-9.26923942565918,18.655349731445312,-37.36273193359375,0.017153128981590268,-0.0443643182516098,0.03146553039550781,988.5663452148438,0,13.0,1,1
17.52,0.084319234,-0.17224278,9.775780000000001,0.00011640525190159677,0.0005985743482597173,0.0005667619407176971,-9.552968978881836,18.232057571411133,-37.98710250854492,0.021883524954319,-0.03448644280433655,0.02200031280517578,988.5888671875,0,13.0,1,1
17.56,0.089143425,-0.16271077,9.766314999999999,-0.00015033880481496453,-0.00020030385348945856,3.3946591429412365e-05,-9.47671890258789,18.03997230529785,-37.833641052246094,0.01714401692152023,-0.03899969160556793,0.05040550231933594,988.5715942382812,0,13.0,1,1
17.6,0.0891878,-0.1674784,9.775787,0.00038143707206472754,-0.0009991126134991646,-0.0004990519373677671,-9.1220064163208,18.108827590942386,-38.046302795410156,0.012747548520565031,-0.038600653409957886,0.02673435211181641,988.5741577148438,0,13.0,1,1
17.64,0.09879184,-0.16271289,9.75922,0.00038143707206472754,-0.0009991126134991646,-0.0004990519373677671,-9.08893585205078,17.823484420776367,-37.6497802734375,0.0077602267265319816,-0.04779481887817383,0.04567718505859375,988.5741577148438,0,13.0,1,1
17.68,0.08927661,-0.16271402,9.752123,0.00024785142159089446,-6.693752948194742e-05,-0.0002329194103367627,-8.979476928710938,17.451971054077152,-37.79887771606445,0.021787740290164948,-0.03816373646259308,0.05041217803955078,988.5741577148438,0,13.0,1,1
17.72,0.07737151,-0.16748168,9.768697999999999,-1.889251871034503e-05,0.0003326057340018451,0.0002995288814418018,-9.333209991455078,17.752878189086914,-37.7619743347168,0.03597284108400345,-0.04712386429309845,0.04095268249511719,988.596923828125,0,13.0,1,1
17.76,0.09175533,-0.16748281,9.752131,0.0006464692414738237,-0.00019995649927295744,0.00043250346789136534,-9.279512405395508,17.750530242919922,-37.84709548950195,0.03123950958251953,-0.03277002274990082,0.05515193939208984,988.5843505859376,0,13.0,1,1
17.8,0.08701992,-0.16986711,9.761605,-0.0001529064611531794,-0.0003330449690110981,-0.00010031176498159766,-8.910154342651367,16.990144729614258,-37.859519958496094,0.017161563038825992,-0.03705999255180359,0.045684814453125,988.5715942382812,0,13.0,1,1
17.84,0.087064356,-0.16271839999999999,9.766342999999999,0.0006456132396124302,-0.0008656072895973921,3.266282146796584e-05,-8.49549674987793,17.58876609802246,-37.34257125854492,0.017495393753051758,-0.05515722930431366,0.04096031188964844,988.5894775390624,0,13.0,1,1
17.88,0.10005420400000001,-0.17460169,9.749649,0.0010446591768413782,-0.0007323798490688205,3.2479409128427505e-05,-8.709307670593263,17.967920303344727,-37.17784118652344,0.004517726600170136,-0.03589586913585663,0.060028076171875,988.581787109375,0,13.0,1,1
17.92,0.08570337,-0.16506831,9.766217999999999,0.0009143900242634118,-0.0008660067105665803,3.3717427868396044e-05,-8.977113723754883,17.717287063598633,-37.35285949707031,0.019136957824230198,-0.031040802597999576,0.05055809020996094,988.5693359375,0,13.0,1,1
17.96,0.10242128,-0.17936765,9.775686,-0.000536083010956645,-0.0010053310543298721,-9.714905172586441e-05,-9.20326042175293,17.558443069458008,-37.69363784790039,0.009525060653686523,-0.030884265899658207,0.05056285858154297,988.5745239257812,0,13.0,1,1
18.0,0.08568057400000001,-0.16268446,9.773317,-3.341352567076683e-06,5.9914687881246216e-05,0.00016921397764235735,-9.406415939331056,17.947908401489258,-38.070045471191406,0.018809735774993896,-0.04522423446178436,0.026894569396972656,988.5693969726562,0,13.0,1,1
18.04,0.080889314,-0.15076776,9.766214999999999,-0.0001363891642540693,0.0007256865501403809,-0.00023021269589662555,-9.322257041931152,18.395326614379886,-37.87823486328125,0.02800163626670837,-0.049225643277168274,0.03638458251953125,988.5800170898438,0,13.0,1,1
18.08,0.097607255,-0.15553404,9.759113000000001,0.0011953003704547882,0.0007256687385961412,0.00016930827405303717,-8.953442573547363,18.003232955932614,-37.989112854003906,0.0041177570819854745,-0.034471645951271064,0.04586315155029297,988.5698852539062,0,13.0,1,1
18.12,0.09759581,-0.16030033,9.766213,0.00039646262302994734,-0.00020645486074499786,0.0001693555386736989,-8.898659706115723,17.26430320739746,-37.8773307800293,0.0135408490896225,-0.043297484517097466,0.03167724609375,988.5393676757812,0,13.0,1,1
18.16,0.088024795,-0.16506661,9.770946499999999,0.0010623624548316002,5.984315066598356e-05,-0.0004963870160281658,-9.034695625305176,17.452844619750973,-37.636451721191406,0.02279926836490631,-0.047774717211723335,0.04115772247314453,988.5546264648438,0,13.0,1,1
18.2,0.09279317,-0.16506632,9.770946,-0.0001359489979222417,0.00019298322149552405,0.0007020815974101424,-9.42856502532959,17.663442611694336,-37.51109313964844,0.023269221186637882,-0.04752345383167267,0.03642368316650391,988.59033203125,0,13.0,1,1
18.24,0.111900955,-0.16029949999999998,9.763844,0.0003967926604673266,-0.0008722981438040732,-0.0002299768384546041,-9.038145065307617,17.924104690551758,-38.27936935424805,-0.01971493661403656,-0.04246966540813446,0.0458984375,988.5802612304688,0,13.0,1,1
18.28,0.09277034,-0.16268243,9.763842,0.000263744848780334,-0.00020652628154493868,0.00030270207207649946,-8.680527687072754,17.889989852905273,-37.94755554199219,0.018538877367973328,-0.03279678523540497,0.031699180603027344,988.5877075195312,0,13.0,1,1
18.32,0.102318525,-0.1579156,9.754372,0.00013069715350866318,0.0003260876110289246,3.643333911895752e-05,-8.803845405578613,17.722026824951172,-38.22666549682617,0.00436343252658844,-0.0466403067111969,0.060115814208984375,988.59033203125,0,13.0,1,1
18.36,0.087967694,-0.15553214,9.773309,0.0001308070495724678,-0.0007391937542706728,0.0003027963684871793,-9.266494750976562,18.026159286499023,-37.94221496582031,0.023445002734661102,-0.03690339624881744,0.03644847869873047,988.559814453125,0,13.0,1,1
18.4,0.1022957,-0.174598,9.756737,-2.2407621145248413e-06,-0.00033973783138208086,3.652769373729825e-05,-8.808411598205566,17.717607498168945,-37.9947509765625,0.0042630285024642936,-0.036766573786735535,0.04592132568359375,988.575439453125,0,13.0,1,1
18.44,0.09272468,-0.15076499,9.768572,-0.00040160457137972116,5.971817881800234e-05,3.657490015029907e-05,-9.392419815063477,18.593303680419922,-38.340919494628906,0.013817504048347471,-0.03203597664833069,0.0364532470703125,988.5704345703124,0,13.0,1,1
18.48,0.09032336,-0.15553124,9.759102,-0.00040138454642146826,-0.00020663350005634132,0.0001698270789347589,-9.403074264526367,18.582992553710934,-37.799781799316406,0.013693198561668396,-0.041544333100318916,0.04592609405517578,988.5906982421876,0,13.0,1,1
18.52,0.09270179,-0.16268076,9.766202999999999,-0.00040138454642146826,-0.00020663350005634132,0.0001698270789347589,-9.403074264526367,18.582992553710934,-37.799781799316406,0.018273428082466125,-0.03666011989116669,0.03646278381347656,988.5906982421876,0,13.0,1,1
18.56,0.08791059,-0.17698021,9.7591,-0.0004012745339423418,0.0007254543015733361,0.0008356639300473034,-9.672945022583008,18.69917869567871,-37.995948791503906,0.02771960198879242,-0.03145766258239746,0.05541229248046875,988.5631713867188,0,13.0,1,1
18.6,0.09745884,-0.15314712,9.763834,0.0006299930391833186,4.906125832349062e-05,0.0006733631016686559,-9.793058395385742,19.060380935668945,-37.30571746826172,-0.0008840262889862061,-0.050630375742912286,0.03647232055664063,988.5859985351562,0,13.0,1,1
18.64,0.085497886,-0.15791337,9.763832,-0.0005683184135705233,-0.0003504303749650717,7.620605174452066e-06,-10.179073333740234,18.27791404724121,-37.89330291748047,0.02294313907623291,-0.045428618788719184,0.055420875549316406,988.5784301757812,0,13.0,1,1
18.68,0.104605675,-0.15552987,9.778034,0.0003638972993940115,-0.00021729027503170076,0.0006734573980793357,-9.999556541442873,18.81476402282715,-37.9523811340332,-0.0006429776549339294,-0.03090551495552063,0.027016639709472656,988.5988159179688,0,13.0,1,1
18.72,0.087864965,-0.16506268,9.766197,-3.546662628650665e-05,-0.0006167819956317544,0.0002740307245403528,-9.548105239868164,18.868616104125977,-37.79414367675781,0.023062258958816532,-0.04029645025730133,0.04122638702392578,988.55810546875,0,13.0,1,1
18.76,0.09741315,-0.15552928,9.75436,-0.0004348303191363812,0.00031530571868643165,0.000407235900638625,-9.841508865356444,18.804777145385746,-38.053138732910156,0.013050936162471771,-0.040339410305023186,0.055434226989746094,988.5734252929688,0,13.0,1,1
18.8,0.09262192,-0.16744544,9.747257000000001,-0.00016840442549437284,0.0009810775518417358,0.00014096719678491354,-10.158041000366213,18.08670234680176,-37.57741928100586,0.003468036651611328,-0.025858163833618164,0.05543994903564453,988.5936889648438,0,13.0,1,1
