Timestamp,Ax,Ay,Az,Gx,Gy,Gz,Mx,My,Mz,LiAx,LiAy,LiAz,P,Value,Type,GroupType,Activities
0.0,0.07590181,-0.16241905,9.763923,0.0005403153481893241,-0.0008038389496505259,-0.0004051584110129625,6.825021743774414,20.22832489013672,-13.269796371459961,-0.017462506890296936,0.004915192723274231,0.036281585693359375,990.4869384765624,0,13.0,1,1
0.04,0.078189015,-0.14573357,9.773381,0.005970142316073179,0.0021425278391689058,-0.0004690498462878168,1.7495064735412598,21.534154891967773,-13.410913467407227,0.14626488089561462,-0.2447067201137543,0.011615753173828123,990.2228393554688,0,13.0,1,1
0.08,0.080476165,-0.15288094,9.780474,-0.0002872907789424062,0.00041131390025839215,0.0001971642777789384,1.6717326641082764,21.72477149963379,-13.487070083618164,0.15079361200332642,-0.25387129187583923,0.01638317108154297,990.2830200195312,0,13.0,1,1
0.12,0.08754307,-0.15287837,9.770995,-0.00015314226038753986,0.0008106269524432719,-0.0004682010039687157,1.5273823738098145,21.74802017211914,-14.082056045532227,0.1455078274011612,-0.2437296807765961,0.03063488006591797,990.3158569335938,0,13.0,1,1
0.16,0.07788074,-0.13619289,9.775721,-0.00015314226038753986,0.0008106269524432719,-0.0004682010039687157,1.6190147399902344,22.096881866455078,-13.577699661254885,0.1497364193201065,-0.2574407458305359,0.021213531494140625,990.3158569335938,0,13.0,1,1
0.2,0.0658285,-0.1433402,9.780446000000001,0.0005136375548318028,0.000810466124676168,6.48552377242595e-05,1.5333328247070312,21.647994995117188,-13.692201614379885,0.1633853167295456,-0.24725186824798584,0.02126789093017578,990.305908203125,0,13.0,1,1
0.24,0.075285345,-0.15048757,9.770967500000001,0.0009141020709648726,0.0014760950580239296,-0.0006005100440233946,1.4024052619934082,21.4726676940918,-13.584787368774414,0.1533374786376953,-0.24178341031074524,0.0355224609375,990.3284301757812,0,13.0,1,1
0.28,0.08235234,-0.14333513,9.77806,-0.00015017134137451651,0.000543828762602061,0.00033201996120624244,1.1872110366821291,21.95626640319824,-14.041826248168945,0.1478857696056366,-0.25546616315841675,0.016638755798339844,990.3182983398438,0,13.0,1,1
0.32,0.08702939999999999,-0.1504825,9.770947999999999,0.0007829243550077081,0.0008099838742054999,-0.0004665033193305135,1.504148244857788,22.200130462646484,-13.720010757446287,0.14758336544036865,-0.2358018159866333,0.040352821350097656,990.3084106445312,0,13.0,1,1
0.36,0.07497713,-0.15286323,9.766204,-0.00028134870808571577,0.0010761389276012778,-0.0007323947502300142,1.7580955028533936,21.911285400390625,-13.973196029663086,0.1516450196504593,-0.2348712980747223,0.030950546264648438,990.3283081054688,0,13.0,1,1
0.4,0.06531477,-0.15762731,9.763827000000001,0.0009180631022900344,0.0010759782744571569,-0.00033249653642997146,1.2112874984741209,21.76799774169922,-13.880548477172852,0.1602860540151596,-0.2295548617839813,0.02627086639404297,990.3256225585938,0,13.0,1,1
0.44,0.07955146,-0.15047494,9.773288,0.0006527372170239687,0.0009426595643162726,-0.00033207214437425137,1.3476219177246094,22.21159553527832,-13.696565628051758,0.1318214237689972,-0.2387381792068481,0.021556854248046875,990.315673828125,0,13.0,1,1
0.48,0.08488941,-0.14095548,9.770971000000001,0.0003874117974191904,0.000543024914804846,-0.00046480569289997215,1.3066434860229492,21.857437133789066,-14.131429672241213,0.13647957146167755,-0.257161945104599,0.02633190155029297,990.3206787109376,0,13.0,1,1
0.52,0.08787745,-0.13382033,9.761558,-0.0005437034415081143,-0.0003892413224093616,-0.00019806541968137023,1.8052687644958496,21.16499328613281,-13.474885940551758,0.1494401842355728,-0.2659614086151123,0.04045200347900391,990.3460083007812,0,13.0,1,1
0.56,0.09021789,-0.15765193,9.768655,0.0006411645445041357,1.4322868082672358e-05,0.0004674854862969369,1.764183521270752,21.917179107666016,-14.282415390014648,0.12519612908363342,-0.2320738732814789,0.021549224853515625,990.3457641601562,0,13.0,1,1
0.6,0.07821888,-0.15288416,9.766283,0.00024216755991801622,0.0001474034652346745,-6.494190893135966e-05,1.4335482120513916,21.660057067871094,-13.908487319946287,0.15327110886573792,-0.2405012845993042,0.021615028381347656,990.3204345703124,0,13.0,1,1
0.64,0.078169435,-0.152883,9.78995,0.00037580233765766025,0.00041364191565662617,-0.0005973692750558258,1.1780786514282229,21.94742774963379,-13.577993392944336,0.14837069809436798,-0.2355742454528809,-0.0020437240600585933,990.3080444335938,0,13.0,1,1
0.68,0.07811993,-0.15526494,9.77811,0.00024312123423442247,0.0009461963782086967,-0.0003308490558993072,2.124408006668091,21.14795684814453,-13.831010818481445,0.15222331881523132,-0.2348773181438446,0.026416778564453125,990.3076782226562,0,13.0,1,1
0.72,0.08285028,-0.15764704,9.778106,-0.0004221916315145791,0.00028032914269715553,-0.00033064474700950086,1.6702108383178709,21.723299026489254,-13.409761428833008,0.137557253241539,-0.22497734427452087,0.021709442138671875,990.3506469726562,0,13.0,1,1
0.76,0.0804109,-0.13619635,9.775733,-0.000288556853774935,0.0005465676658786833,-6.412455695681274e-05,1.2866969108581543,21.312068939208984,-14.25041389465332,0.14698049426078796,-0.2483525276184082,0.026472091674804688,990.3355102539062,0,13.0,1,1
0.8,0.08275133,-0.1552614,9.770994,-0.0004212379571981728,-0.00025245739379897714,-0.0003302360128145665,0.759995698928833,22.240373611450195,-12.914834976196287,0.14207012951374054,-0.22406363487243647,0.031232833862304688,990.3002319335938,0,13.0,1,1
0.84,0.09226146,-0.16717657,9.778091,0.0006445024046115577,0.0004132548638153821,6.944211781956255e-05,1.0611472129821775,22.41749382019043,-13.741449356079102,0.1223028600215912,-0.2230950891971588,0.02655601501464844,990.3153686523438,0,13.0,1,1
0.88,0.07309282,-0.15525892,9.770986,0.0005118213011883199,0.00041317747673019767,0.00020280436729080972,1.6207809448242188,21.09792900085449,-13.981424331665039,0.1408623605966568,-0.24140098690986636,0.021869659423828125,990.3078002929688,0,13.0,1,1
0.92,0.07304329,-0.14334133,9.775716000000001,0.00011282431660220027,0.0004131000605411828,0.0003361667040735483,1.6890175342559814,21.372684478759766,-14.238973617553713,0.15491823852062225,-0.24554920196533206,0.03137493133544922,990.3050537109376,0,13.0,1,1
0.96,0.084943354,-0.15525654,9.770976,-0.00015301472740247846,0.00014670677774120122,-0.00032941866084001964,1.6241235733032229,21.73301124572754,-13.71116828918457,0.1496044397354126,-0.2260221540927887,0.04088020324707031,990.3304443359376,0,13.0,1,1
1.0,0.07772416,-0.1385723,9.782807,0.00038009387208148837,0.0004129452863708138,0.00033657540916465223,1.3863444328308103,21.194087982177734,-13.335054397583008,0.13916964828968048,-0.23492664098739624,0.007788658142089844,990.345458984375,0,13.0,1,1
1.04,0.080064595,-0.14333764,9.763865,-1.890311250463128e-05,0.0012118155136704445,-6.269404548220335e-05,1.6081995964050293,21.560352325439453,-14.160516738891602,0.13397625088691711,-0.2390708327293396,0.02676582336425781,990.2899169921876,0,13.0,1,1
1.08,0.08479494,-0.14095318,9.780432000000001,0.0002478896058164537,-0.0002529992489144206,-0.0003288056177552789,1.41292142868042,21.37705993652344,-13.426836013793945,0.13382284343242645,-0.23825159668922424,0.02207183837890625,990.3353881835938,0,13.0,1,1
1.12,0.07757577,-0.15763494,9.77806,0.00038152438355609775,0.0002795550972223282,0.00033718848135322327,1.384959697723389,21.298532485961914,-13.956827163696287,0.13819169998168945,-0.22800445556640625,0.03158378601074219,990.3051147460938,0,13.0,1,1
1.16,0.072746515,-0.14810064,9.770953,0.0005151591612957418,0.000812109443359077,-0.00032839688356034463,1.232020378112793,20.944652557373047,-13.989538192749025,0.14222179353237152,-0.21785014867782596,0.031630516052246094,990.3250732421876,0,13.0,1,1
1.2,0.08703643,-0.15524921,9.768582,0.00011616217670962214,0.0001462423388147727,-0.0008608242496848106,1.4817006587982178,21.283525466918945,-13.585931777954102,0.13239778578281405,-0.22168037295341486,0.03641223907470703,990.30224609375,0,13.0,1,1
1.24,0.08220717,-0.14809817,9.766210000000001,0.00024979683803394437,0.00014616496628150344,-0.00019483026699163017,1.352731227874756,21.84772300720215,-13.830026626586914,0.1271670162677765,-0.2307118773460388,0.03171348571777344,990.3223876953124,0,13.0,1,1
1.28,0.08215767,-0.15286353,9.768573,-0.00014920037938281894,0.001211351016536355,-0.00019462589989416299,1.4880867004394531,21.921554565429688,-13.470285415649414,0.13580766320228574,-0.2252333164215088,0.03176689147949219,990.3298950195312,0,13.0,1,1
1.32,0.08210823,-0.14809582,9.785139,0.0002507503959350288,1.2852207873947917e-05,0.00020505225984379652,1.0526959896087646,22.146282196044922,-13.87824821472168,0.14031310379505155,-0.2387486696243286,0.02707386016845703,990.3399047851562,0,13.0,1,1
1.36,0.084448636,-0.15047777,9.775664,0.0006507010548375548,0.0006785644800402224,-6.105928332544863e-05,1.3132739067077637,21.495037078857425,-14.342195510864258,0.1397859752178192,-0.2234700620174408,0.017661094665527344,990.3248901367188,0,13.0,1,1
1.4,0.08917901,-0.14809331,9.766192,0.0003848614287562668,0.0005453291814774276,-0.0005934867076575756,1.4952607154846191,21.19086456298828,-13.582601547241213,0.11051957309246063,-0.22311094403266907,0.036629676818847656,990.3070678710938,0,13.0,1,1
1.44,0.079569936,-0.14570883,9.775656,0.0003848614287562668,0.0005453291814774276,-0.0005934867076575756,1.200770378112793,21.863605499267575,-14.038492202758787,0.1338060349225998,-0.2414714992046356,0.03194141387939453,990.3070678710938,0,13.0,1,1
1.48,0.08420572,-0.15523842,9.770909,-0.000280451204162091,0.0009447255870327351,0.00047198118409141904,1.2314777374267578,21.31294250488281,-14.087987899780273,0.12364183366298676,-0.22184959053993225,0.03199195861816406,990.3500366210938,0,13.0,1,1
1.52,0.08176255,-0.15047053,9.770904,0.00038397981552407146,0.001346455654129386,7.792329415678978e-05,1.0322070121765137,21.96920394897461,-14.095682144165039,0.1227998286485672,-0.22536367177963254,0.01313018798828125,990.3497314453124,0,13.0,1,1
1.56,0.07931939,-0.15046921,9.780368,0.0005180964362807572,0.0006805103039368987,0.0004778079746756703,0.8370654582977295,21.891828536987305,-14.06108283996582,0.1319984495639801,-0.22923925518989566,0.013177871704101562,990.3069458007812,0,13.0,1,1
1.6,0.07687622,-0.15523449,9.789832,0.0005180964362807572,0.0006805103039368987,0.0004778079746756703,0.8370654582977295,21.891828536987305,-14.06108283996582,0.12235638499259947,-0.21954044699668884,0.008454322814941406,990.3069458007812,0,13.0,1,1
1.64,0.08399266,-0.15761647,9.77089,-0.0006265707779675722,3.670607111416757e-05,0.00016546124243177474,1.59822678565979,21.28766632080078,-14.220010757446287,0.12652672827243805,-0.218524307012558,0.03692054748535156,990.3121337890624,0,13.0,1,1
1.68,0.07676971,-0.1528486,9.785088,-0.0006265707779675722,3.670607111416757e-05,0.00016546124243177474,1.59822678565979,21.28766632080078,-14.220010757446287,0.13577698171138766,-0.2182975709438324,0.01800251007080078,990.3121337890624,0,13.0,1,1
1.72,0.08388620599999999,-0.15046403,9.761411,0.0004392061673570424,3.66227759514004e-05,0.00016568118007853627,1.5330348014831543,21.015857696533203,-14.117074966430664,0.13100923597812653,-0.22234603762626648,0.04170703887939453,990.3092651367188,0,13.0,1,1
1.76,0.079053104,-0.15046272,9.763774,4.0759012335911386e-05,-0.0010288073681294918,0.00043243711115792405,1.1030504703521729,21.50885009765625,-14.23362922668457,0.1255815476179123,-0.21683737635612488,0.04649257659912109,990.3370971679688,0,13.0,1,1
1.8,0.07899985,-0.15761122,9.770869,4.0759012335911386e-05,-0.0010288073681294918,0.00043243711115792405,1.1030504703521729,21.50885009765625,-14.23362922668457,0.12045218050479888,-0.2069315314292908,0.03704833984375,990.3370971679688,0,13.0,1,1
1.84,0.0813365,-0.1599932,9.773232,0.0005744172958657147,0.0005689211538992822,0.00016656119260005653,1.0467453002929688,22.246307373046875,-14.268106460571287,0.1293332725763321,-0.2057865858078003,0.02764511108398437,990.31201171875,0,13.0,1,1
1.88,0.08367312,-0.15284207,9.785063000000001,0.0005744172958657147,0.0005689211538992822,0.00016656119260005653,1.0467453002929688,22.246307373046875,-14.268106460571287,0.1337929219007492,-0.21519392728805545,0.018192291259765625,990.31201171875,0,13.0,1,1
1.92,0.07884008,-0.15760735,9.782691,-0.0006229773862287402,3.612274304032326e-05,3.3843243727460504e-05,1.5405371189117432,22.129566192626953,-14.876253128051758,0.1336042582988739,-0.20494389533996585,0.008759498596191406,990.3065795898438,0,13.0,1,1
1.96,0.09073633,-0.15283945,9.761382000000001,4.3325620936229825e-05,-0.0002302765060449019,0.0004335370904300362,1.8591041564941408,21.2685604095459,-14.259088516235352,0.1141238808631897,-0.21842870116233826,0.03721332550048828,990.3065795898438,0,13.0,1,1
2.0,0.07395375,-0.15045488,9.773213,-0.00022247710148803892,-9.720190428197384e-05,-0.0004983484977856278,1.734263896942139,21.099124908447266,-14.46088981628418,0.1280457228422165,-0.2038525640964508,0.037235260009765625,990.3041381835938,0,13.0,1,1
2.04,0.08346009,-0.1480703,9.782677,-0.00035512165050022304,0.00110113644041121,-0.00036497067776508635,1.183868408203125,21.321184158325195,-14.312089920043945,0.12273840606212615,-0.21267178654670715,0.01360797882080078,990.3064575195312,0,13.0,1,1
2.08,0.09057653,-0.14330241,9.770835,0.0005774972960352898,0.00016894738655537367,-9.843474254012108e-05,1.4140379428863523,21.852739334106445,-14.301675796508787,0.12254829704761505,-0.21656450629234314,0.027853965759277344,990.2888793945312,0,13.0,1,1
2.12,0.0809637,-0.14806768,9.768464,-0.0003540949837770313,-0.0006300836103037,-0.0006308464799076319,1.3586809635162354,21.747699737548828,-13.44017219543457,0.12704722583293915,-0.22080901265144348,0.03261852264404297,990.2762451171876,0,13.0,1,1
2.16,0.08330035,-0.15283296,9.773193,0.0003122079942841083,-0.0003638510825112462,0.00030147907091304665,1.368791580200195,22.126300811767575,-14.079751968383787,0.11703896522521973,-0.20524999499320984,0.023215293884277344,990.3187866210938,0,13.0,1,1
2.2,0.08563697,-0.16236475,9.780289999999999,0.00031272138585336506,0.0001686973264440894,-0.00023093269555829463,1.4752068519592283,21.751840591430664,-14.074243545532227,0.11694830656051634,-0.19078972935676572,0.009022712707519531,990.2987670898438,0,13.0,1,1
2.24,0.09036353,-0.15521362,9.766082,-0.0006188709521666169,-0.00023085980501491576,3.5603210562840104e-05,1.3698782920837402,21.38971710205078,-13.882852554321287,0.1118338704109192,-0.2095211148262024,0.03745460510253906,990.3012084960938,0,13.0,1,1
2.28,0.08792034,-0.15997887,9.775546,-0.0007515156175941229,0.0008343203808180988,-0.000763124437071383,1.667304754257202,21.82626724243164,-13.954233169555664,0.1159091740846634,-0.21347114443778992,0.02803802490234375,990.27587890625,0,13.0,1,1
2.32,0.08069742,-0.155211,9.77554,4.794544656760991e-05,0.00043476320570334787,-0.0003634306194726377,1.5590682029724119,21.567119598388672,-14.307310104370115,0.12982550263404846,-0.19396570324897766,0.01859951019287109,990.293701171875,0,13.0,1,1
2.36,0.07347444,-0.14805984,9.782638,-0.0008836467750370502,-0.0006305836723186076,-0.00023005265393294394,1.3768072128295898,21.65945816040039,-13.668752670288086,0.13444706797599792,-0.21271637082099915,0.013885498046875,990.3114013671876,0,13.0,1,1
2.4,0.07581106,-0.15044183,9.773164,-8.418571087531745e-05,0.0007009124965406954,-0.0006293064216151834,1.5369195938110352,21.282649993896484,-13.748361587524414,0.12450842559337615,-0.1978168189525604,0.023389816284179688,990.3160400390624,0,13.0,1,1
2.44,0.08053726,-0.1575903,9.766058000000001,0.0004489592101890594,-0.0012965400237590075,0.000569335010368377,1.6913809776306152,21.638002395629886,-13.79295539855957,0.11966925859451295,-0.20639607310295105,0.028166770935058594,990.3010864257812,0,13.0,1,1
2.48,0.07331395,-0.16712213,9.784989,-0.00048263286589644855,0.00043442990863695735,-0.0006288664881139994,1.605454683303833,22.189542770385746,-13.581037521362305,0.13330385088920593,-0.19146716594696045,0.03294658660888672,990.2959594726562,0,13.0,1,1
2.52,0.08760008,-0.14805457,9.775516,4.3364852899685495e-05,0.0008358677150681615,-8.40648717712611e-05,1.4599874019622805,21.737110137939453,-13.301191329956055,0.11344024538993835,-0.21464627981185916,0.01878833770751953,990.2933349609376,0,13.0,1,1
2.56,0.07798719400000001,-0.14567,9.770777,0.0001770365342963487,0.0005694684805348517,4.931323928758502e-05,1.354115009307861,21.7432804107666,-13.208253860473633,0.1275099217891693,-0.20434162020683289,0.04249858856201172,990.3035888671876,0,13.0,1,1
2.6,0.07315409,-0.15996838,9.768405,0.0003107078664470464,0.00016991127631627023,-8.362461812794209e-05,1.3672699928283691,22.124826431274414,-14.002450942993164,0.11742466688156128,-0.1892671883106232,0.03307533264160156,990.2833251953124,0,13.0,1,1
2.64,0.07549071,-0.1575838,9.780236,0.0003112217236775905,-0.0007622776320204139,0.00031606931588612497,1.0657129287719729,22.421913146972656,-13.973363876342773,0.12693272531032562,-0.19322305917739868,0.014173507690429688,990.2830200195312,0,13.0,1,1
2.68,0.08260712,-0.1647323,9.773128999999999,0.0003112217236775905,-0.0007622776320204139,0.00031606931588612497,1.6221961975097656,22.205745697021484,-14.431390762329102,0.11666634678840634,-0.18808096647262573,0.03787899017333984,990.2830200195312,0,13.0,1,1
2.72,0.07060432400000001,-0.14566478,9.766022999999999,-0.00022089664707891646,0.0005692184204235673,0.000582605367526412,1.3458008766174316,21.57798767089844,-14.044130325317385,0.1352761834859848,-0.2015106976032257,0.03792762756347656,990.2782592773438,0,13.0,1,1
2.76,0.08250058,-0.15043002,9.784957,-0.00048669878742657596,3.650324651971459e-05,-8.296428131870925e-05,1.0463094711303709,21.50825309753418,-13.993898391723633,0.106186643242836,-0.1962071657180786,0.00955486297607422,990.2781982421876,0,13.0,1,1
2.8,0.077667475,-0.15519527,9.770747,4.6446482883766294e-05,0.000835367478430271,5.041380063630641e-05,1.509256362915039,21.836261749267575,-13.853475570678713,0.10113875567913057,-0.21001240611076355,0.03325653076171875,990.2930908203124,0,13.0,1,1
2.84,0.07522431,-0.15042743,9.775477,-0.00035251359804533417,-0.0004962952225469053,5.0633883802220225e-05,1.3361268043518066,21.93743705749512,-13.678750991821287,0.12450933456420897,-0.2186918258666992,0.033303260803222656,990.2855224609376,0,13.0,1,1
2.88,0.084730625,-0.14804283,9.777841,-0.00035200032289139926,0.00043572692084126174,-8.230394450947641e-05,1.1635398864746094,21.670324325561523,-13.405572891235352,0.1145741641521454,-0.20404088497161865,0.02386093139648437,990.27783203125,0,13.0,1,1
2.92,0.077507615,-0.15519139,9.768366,-0.0004846444062422961,3.616968751884997e-05,-0.0006147155654616653,1.4093341827392578,21.74240493774414,-13.370683670043945,0.12432599067687987,-0.1889106631278992,0.033362388610839844,990.2930908203124,0,13.0,1,1
2.96,0.091793776,-0.1504235,9.782565,0.0001821724290493876,-0.001162418513558805,0.0007173040066845715,1.5197725296020508,21.74065399169922,-13.695535659790039,0.10023099184036256,-0.20696130394935608,0.02867603302001953,990.3104858398438,0,13.0,1,1
3.0,0.07979095,-0.14565566,9.758887,0.0001821724290493876,-0.001162418513558805,0.0007173040066845715,1.5197725296020508,21.74065399169922,-13.695535659790039,0.10009855031967163,-0.20646575093269348,0.042903900146484375,990.3104858398438,0,13.0,1,1
3.04,0.077347785,-0.1623373,9.765985,-8.362994412891567e-05,-0.0004967121640220284,0.00031805032631382346,1.288219928741455,21.31353759765625,-14.327722549438475,0.1189081072807312,-0.19152715802192688,0.028734207153320312,990.29052734375,0,13.0,1,1
3.08,0.06534499,-0.16471925,9.768347,0.00031635750201530755,0.00016899415641091764,-0.0007469930569641293,1.24090838432312,21.95391845703125,-14.126947402954102,0.13781127333641052,-0.1860594153404236,0.038238525390625,990.2828369140624,0,13.0,1,1
3.12,0.07963109,-0.14565167,9.770709,0.000850016251206398,-0.0003638043417595327,-0.0007465528906323017,1.2212600708007812,22.04068756103516,-13.82105827331543,0.10814334452152252,-0.20363226532936096,0.024117469787597656,990.275146484375,0,13.0,1,1
3.16,0.0700182,-0.15280020000000002,9.775437,0.0005537960678339005,0.0009704447584226726,-0.0002839273074641824,1.6021122932434082,21.55446052551269,-13.851297378540039,0.13149893283843994,-0.19342559576034546,0.03362751007080078,990.3080444335938,0,13.0,1,1
3.2,0.07235485,-0.16471532,9.7706995,-0.00011148033081553876,0.00030457170214504004,0.0006483983597718179,1.388439655303955,22.039531707763672,-14.385644912719727,0.1265271157026291,-0.17870739102363584,0.033649444580078125,990.3003540039062,0,13.0,1,1
3.24,0.07947123,-0.14803103,9.777797,0.00042166540515609086,-0.0008939331746660172,-1.717123086564243e-05,1.7662477493286133,21.55036163330078,-14.261270523071287,0.11230604350566864,-0.20623445510864255,0.02422428131103516,990.2928466796876,0,13.0,1,1
3.28,0.07463816,-0.15041300000000002,9.765955,-0.00024361113901250064,-0.0008940165280364453,0.00011620679288171233,1.396592617034912,21.678606033325195,-14.673715591430664,0.1312164068222046,-0.19619616866111755,0.033718109130859375,990.2801513671876,0,13.0,1,1
3.32,0.06502527,-0.14802839999999998,9.775418,2.3218715796247125e-05,-0.0002283101639477536,0.000249584874836728,1.0971002578735352,21.60887336730957,-14.623483657836914,0.14485284686088562,-0.1908518373966217,0.01955604553222656,990.2998657226562,0,13.0,1,1
3.36,0.07692146,-0.15041038,9.763579,-0.00024258389021269974,0.0011031859321519732,-1.6510894056409594e-05,1.3830318450927734,21.77126693725586,-14.67704963684082,0.12973068654537198,-0.1993863582611084,0.03855037689208984,990.2900390625,0,13.0,1,1
3.4,0.067308605,-0.1623255,9.789613000000001,-0.00010891209240071476,0.00030415481887757784,-0.0001494487514719367,1.316455364227295,21.60390281677246,-15.195886611938475,0.12454457581043245,-0.17529147863388062,0.005431175231933594,990.297607421875,0,13.0,1,1
3.44,0.07684681,-0.13610888,9.763571,0.00015791718033142388,0.0004372294060885906,-0.0004155444912612438,1.4965152740478516,21.7724609375,-15.156515121459961,0.11912648379802705,-0.21238118410110474,0.029158592224121094,990.2901000976562,0,13.0,1,1
3.48,0.079217255,-0.1456416,9.763569,0.00015820263070054352,0.00030402501579374075,-0.0001491063740104437,1.4352078437805176,21.76744270324707,-14.68486213684082,0.113878071308136,-0.19260895252227786,0.04812908172607422,990.2874755859376,0,13.0,1,1
3.52,0.0696069,-0.15040687,9.773033,2.1097395801916722e-05,0.00043844987521879375,0.0009252538438886404,1.3509104251861572,21.214111328125,-14.177591323852539,0.12296313047409058,-0.18703821301460266,0.04343700408935547,990.2850341796876,0,13.0,1,1
3.56,0.07194608400000001,-0.15278894,9.768294000000001,0.0004210601618979126,0.0005715283332392572,0.00012651571887545288,0.9133167266845704,21.69974136352539,-13.907625198364258,0.12692995369434354,-0.1814284026622772,0.03875160217285156,990.272216796875,0,13.0,1,1
3.6,0.08384484,-0.15755418,9.770658000000001,0.0006878649583086371,0.0003051331441383809,-0.0006722224643453956,1.002180099487305,22.25749397277832,-14.646814346313475,0.10281965136528017,-0.18047675490379333,0.029326438903808594,990.2847900390624,0,13.0,1,1
3.64,0.08140421,-0.14325333,9.768285,0.00042203816701658065,-0.000627051864285022,0.0003932507534045726,1.3333277702331543,20.934064865112305,-13.850557327270508,0.11208023130893707,-0.19382360577583316,0.02937030792236328,990.2973022460938,0,13.0,1,1
3.68,0.06462419,-0.15040186,9.76118,0.0002893691707868129,-9.449943900108336e-05,0.00012714441982097924,1.3917288780212402,21.04205322265625,-14.866670608520508,0.1259024143218994,-0.1881323754787445,0.053089141845703125,990.2745971679688,0,13.0,1,1
3.72,0.057403712999999995,-0.1480174,9.777745,0.0004230162885505706,0.0007043688092380763,-0.0005384357064031066,1.173351764678955,21.41678810119629,-14.470029830932615,0.1256064772605896,-0.1872817873954773,0.02472400665283203,990.2822875976562,0,13.0,1,1
3.76,0.07169241,-0.15754923,9.76117,2.403141115792096e-05,-0.0002278161991853267,0.00039387945435009897,1.6780655384063718,20.7302360534668,-14.122709274291992,0.1157388836145401,-0.16765987873077393,0.03895759582519531,990.2870483398438,0,13.0,1,1
3.8,0.08359116,-0.1503982,9.768267,-0.00024179552565328774,-0.0004942114464938642,0.0006604049121960998,1.373465061187744,21.024375915527344,-13.93901252746582,0.09637689590454103,-0.19068220257759091,0.015322685241699219,990.2821655273438,0,13.0,1,1
3.84,0.06203133,-0.16231328,9.780099,0.00029181435820646584,3.82615253329277e-05,-0.00040443940088152885,1.5380363464355469,21.75832748413086,-14.623193740844727,0.12446503341197968,-0.1704275608062744,0.015382766723632812,990.2694091796876,0,13.0,1,1
3.88,0.061980575,-0.14801243,9.765889999999999,0.00029181435820646584,3.82615253329277e-05,-0.00040443940088152885,1.5380363464355469,21.75832748413086,-14.623193740844727,0.1194312870502472,-0.18887069821357727,0.039084434509277344,990.2694091796876,0,13.0,1,1
3.92,0.06670964,-0.16707733,9.761151,0.0002923034189734608,0.00043765598093159497,0.0003947178192902357,1.206017017364502,21.605653762817386,-14.871034622192385,0.1235211044549942,-0.16919726133346558,0.05806159973144531,990.28955078125,0,13.0,1,1
3.96,0.07382864,-0.15754303,9.770616,0.00016012359992600977,-0.0007609241874888539,0.00039513697265647346,1.2716152667999268,21.403255462646484,-14.176443099975586,0.10899350047111513,-0.1773987114429474,0.043914794921875,990.3096313476562,0,13.0,1,1
4.0,0.07616776,-0.15277520000000003,9.768244000000001,0.00016012359992600977,-0.0007609241874888539,0.00039513697265647346,1.4908323287963867,21.2923641204834,-14.049764633178713,0.11363694071769714,-0.1813732981681824,0.039214134216308594,990.3096313476562,0,13.0,1,1
4.04,0.09045645599999999,-0.16230711,9.772973,0.00016012359992600977,-0.0007609241874888539,0.00039513697265647346,1.4908323287963867,21.2923641204834,-14.049764633178713,0.1041182577610016,-0.16659489274024966,0.02976512908935547,990.3096313476562,0,13.0,1,1
4.08,0.07845619,-0.15992251,9.772969,0.0001606125442776829,-0.0006278457585722207,-0.000669916975311935,0.9405746459960938,21.620338439941406,-14.600034713745115,0.10902024805545807,-0.1654735803604126,0.03927421569824219,990.2973022460938,0,13.0,1,1
4.12,0.08796507,-0.1408551,9.763494999999999,0.0001615906658116728,-0.00022853068367112428,-0.00027002394199371343,1.6444520950317385,21.383869171142575,-14.617681503295898,0.09892769157886504,-0.18787768483161926,0.03934001922607422,990.2841796875,0,13.0,1,1
4.16,0.07357493,-0.1503869,9.780061,0.0006947113433852793,-9.545210923533888e-05,-0.0004029723349958658,1.4186038970947266,21.857158660888672,-14.533590316772461,0.1083185225725174,-0.17273715138435364,0.01570606231689453,990.29443359375,0,13.0,1,1
4.2,0.07113433,-0.15276900000000002,9.780057000000001,0.0006947113433852793,-9.545210923533888e-05,-0.0004029723349958658,1.4186038970947266,21.857158660888672,-14.533590316772461,0.10819007456302644,-0.16774803400039673,0.025186538696289062,990.29443359375,0,13.0,1,1
4.24,0.07586336,-0.14800116,9.765849000000001,0.00029572649509646,-0.0006281632231548429,0.0006625007372349501,1.6362996101379397,21.744792938232425,-14.329607009887695,0.11273083090782166,-0.1814498007297516,0.03468513488769531,990.3019409179688,0,13.0,1,1
4.28,0.07103282,-0.14799997,9.765842999999998,-0.0003695741470437497,-0.00022876882576383653,-3.079388989135623e-06,1.2630572319030762,22.23838806152344,-14.685892105102539,0.12180881202220915,-0.17572790384292605,0.03473186492919922,990.3065795898438,0,13.0,1,1
4.32,0.07815179,-0.16229835,9.768207,-0.0005022429395467043,-9.569026587996632e-05,-0.0002691856352612376,1.135577917098999,21.591796875,-13.935556411743164,0.09752994775772096,-0.17011457681655884,0.039505958557128906,990.276611328125,0,13.0,1,1
4.36,0.07332125,-0.15038076,9.770569,0.0008298252942040563,-0.00022892758715897799,-2.660235622897744e-06,1.783830642700195,21.83040809631348,-14.58830451965332,0.1020934283733368,-0.16911646723747253,0.01587677001953125,990.304443359375,0,13.0,1,1
4.4,0.08760995,-0.15276274,9.765830000000001,0.0008303142385557294,-9.58490272751078e-05,-0.0001356084831058979,1.4493107795715332,21.306495666503906,-14.58308219909668,0.09652456641197203,-0.1829165816307068,0.030117034912109375,990.322021484375,0,13.0,1,1
4.44,0.085169286,-0.15276155,9.78713,3.1855684937909245e-05,0.0005698612658306956,0.0006635485915467143,1.4422447681427002,20.93083953857422,-14.098108291625975,0.09138663113117218,-0.1629030406475067,0.015956878662109375,990.2968139648438,0,13.0,1,1
4.48,0.07555896,-0.14084384,9.770555,-0.00023348219110630455,-9.608718391973524e-05,0.0006639678031206131,1.4608056545257568,21.58065414428711,-14.600893020629885,0.11962532997131348,-0.17676693201065066,0.034923553466796875,990.2891845703124,0,13.0,1,1
4.52,0.08506781,-0.15514234,9.761082,-0.0006324670976027846,3.699134686030448e-05,-0.00013477029278874397,1.0789742469787598,21.69711685180664,-14.394906997680664,0.09510773420333862,-0.16132771968841553,0.044447898864746094,990.3142700195312,0,13.0,1,1
4.56,0.063508004,-0.14084134,9.761077,0.0004332854005042464,0.0003032279491890222,-0.0005340345669537783,1.4196901321411133,21.12057876586914,-14.336687088012695,0.10422253608703612,-0.17527124285697934,0.03973674774169922,990.3218994140624,0,13.0,1,1
4.6,0.08496636,-0.15275654,9.775275,3.430063952691853e-05,0.0007026222301647067,-0.00013435119763016698,1.2119674682617188,21.5056266784668,-14.481176376342773,0.08468128740787506,-0.16043874621391296,0.02556324005126953,990.3195190429688,0,13.0,1,1
4.64,0.07296616,-0.15275526,9.7776375,-0.0002315262972842902,-0.00036272060242481535,0.0003984901413787156,1.349388599395752,21.21263885498047,-14.100290298461914,0.10365448892116548,-0.16413646936416626,0.030344009399414062,990.2891235351562,0,13.0,1,1
4.68,0.0800851,-0.14083764,9.772899,-0.00028832518728449935,-0.0008690679678693414,0.00020979784312658006,1.3017785549163818,21.220882415771484,-14.32438850402832,0.10812976956367493,-0.17345917224884033,0.039826393127441406,990.309326171875,0,13.0,1,1
4.72,0.08481416,-0.1599026,9.761059,-0.0006873099482618272,0.00019611624884419143,7.684942102059722e-05,1.4412956237792969,21.773338317871094,-14.994089126586914,0.08876208961009979,-0.15362513065338135,0.03986167907714844,990.3065795898438,0,13.0,1,1
4.76,0.075203836,-0.14321843,9.772889,0.00024528458015993243,-0.00033659490873105824,-5.609888467006385e-05,1.3549337387084959,21.586820602416992,-14.507959365844727,0.11220961809158324,-0.18130874633789065,0.035175323486328125,990.3067626953124,0,13.0,1,1
4.8,0.07754299,-0.15513358,9.765783,-0.0002868581213988364,-0.00020351634884718808,0.0007430583355017006,1.2966704368591309,21.584753036499023,-14.190923690795898,0.10267707705497743,-0.15750724077224731,0.03991031646728516,990.2786254882812,0,13.0,1,1
4.84,0.09422159,-0.16228220000000002,9.765779,-0.0005526850582100451,-0.0003367536701261997,0.00034379400312900543,0.9183187484741212,22.442214965820312,-14.413747787475586,0.07820571959018707,-0.14675813913345334,0.030500411987304688,990.3064575195312,0,13.0,1,1
4.88,0.07983142,-0.15274778,9.768142,0.00011359358904883264,-7.051719876471907e-05,7.768769864924252e-05,1.042180061340332,22.24188995361328,-14.036188125610352,0.09720019996166228,-0.1560070812702179,0.035247802734375,990.3140258789062,0,13.0,1,1
4.92,0.0797807,-0.15274659,9.777606,-1.9075407180935144e-05,-7.059652125462891e-05,7.789727533236146e-05,1.0181038379669192,22.430152893066406,-14.197465896606445,0.09669287502765657,-0.16011685132980347,0.02581501007080078,990.2989501953124,0,13.0,1,1
4.96,0.08450979,-0.15751186,9.765765,-0.00028490222757682204,0.00019563999376259744,0.00047758067375980323,1.366291046142578,21.75506401062012,-13.826696395874025,0.07726876437664032,-0.15466266870498654,0.04478549957275391,990.2913208007812,0,13.0,1,1
5.0,0.07728934,-0.14559427,9.772861500000001,-0.00015125534264370802,6.240265793167055e-05,-0.000853789271786809,1.042180061340332,22.24188804626465,-14.036191940307615,0.09629246592521667,-0.16846075654029846,0.03060626983642578,990.3140869140624,0,13.0,1,1
5.04,0.07723862,-0.15750936,9.777591000000001,-0.000283924222458154,-0.0006034665275365113,-0.0008535796077921988,1.36338472366333,21.8580322265625,-14.371164321899414,0.10527192056179048,-0.153298020362854,0.03065013885498047,990.2863159179688,0,13.0,1,1
5.08,0.09152728,-0.14559177,9.77522,0.00024919648421928287,0.0007280335994437338,-0.0005870542954653503,1.3388726711273191,21.308246612548828,-14.258234024047852,0.0808066874742508,-0.16715475916862488,0.04961681365966797,990.2863159179688,0,13.0,1,1
5.12,0.06757754,-0.15750685,9.770480000000001,-0.0008155780960805714,0.0005947962636128067,-0.0001873707806225866,1.129084825515747,22.06011199951172,-14.423868179321287,0.10398279130458833,-0.13789433240890506,0.030717849731445312,990.2987670898438,0,13.0,1,1
5.16,0.08425611,-0.15035585,9.772843,0.00038333231350407004,-0.0006037045968696475,0.0007449444383382798,1.1335129737854004,21.958614349365234,-13.956701278686525,0.08487793803215027,-0.15133076906204224,0.04021930694580078,990.2910766601562,0,13.0,1,1
5.2,0.08420539,-0.15750438,9.765737,-1.5163503121584656e-05,-0.00033754750620573764,-0.0003199000784661621,1.4179232120513916,22.11953353881836,-13.932962417602539,0.09436984360218048,-0.15526551008224487,0.04972457885742188,990.2986450195312,0,13.0,1,1
5.24,0.074595034,-0.14082024,9.779935,-1.5163503121584656e-05,-0.00033754750620573764,-0.0003199000784661621,1.5650193691253662,21.46709442138672,-13.917451858520508,0.09389004111289978,-0.16855695843696594,0.02136421203613281,990.2986450195312,0,13.0,1,1
5.28,0.07693422,-0.14796877,9.782297999999999,-1.5163503121584656e-05,-0.00033754750620573764,-0.0003199000784661621,1.5650193691253662,21.46709442138672,-13.917451858520508,0.0983276218175888,-0.1586146056652069,0.02611827850341797,990.2986450195312,0,13.0,1,1
5.32,0.07927337,-0.14320102,9.760989,-0.00041365920333191747,-0.00020454834157135338,-0.00018632298451848328,1.612222671508789,21.93305969238281,-14.490884780883787,0.09833218157291412,-0.16256174445152285,0.04509067535400391,990.3187255859376,0,13.0,1,1
5.36,0.07559496,-0.1503779,9.763457,-0.00014685437781736255,-0.0008704174542799593,0.0007459921762347221,1.6498589515686035,21.65213394165039,-14.326272964477539,0.1016966998577118,-0.15230539441108704,0.05448436737060547,990.285888671875,0,13.0,1,1
5.4,0.080347955,-0.15276048,9.7729225,-2.4800305254757404e-05,-0.00033563305623829365,-4.900177009403706e-05,1.5659973621368408,21.83685874938965,-14.093206405639648,0.0964577943086624,-0.14218997955322266,0.03557777404785156,990.30615234375,0,13.0,1,1
5.44,0.08271107,-0.14322677,9.765819,-2.4800305254757404e-05,-0.00033563305623829365,-4.900177009403706e-05,1.5659973621368408,21.83685874938965,-14.093206405639648,0.0962599366903305,-0.1563527286052704,0.03558635711669922,990.30615234375,0,13.0,1,1
5.48,0.07312465,-0.15752575,9.761083,-0.00029496802017092705,0.0001976241183001548,-0.0009827581234276297,1.2777023315429688,21.40914726257324,-14.485658645629885,0.0960087925195694,-0.15087631344795227,0.05455303192138672,990.2808837890624,0,13.0,1,1
5.52,0.08026755,-0.13845882,9.770549,0.0003713384503498674,-0.0012671973090618847,0.0006153585854917765,1.512300968170166,21.839204788208008,-14.008085250854492,0.09098488092422484,-0.16389811038970947,0.030928611755371094,990.2808227539062,0,13.0,1,1
5.56,0.082630664,-0.15752444,9.775281,0.0003713384503498674,-0.0012671973090618847,0.0006153585854917765,1.512300968170166,21.839204788208008,-14.008085250854492,0.08115945756435394,-0.13974884152412415,0.02621078491210937,990.2808227539062,0,13.0,1,1
5.6,0.08499375,-0.15752378,9.765808999999999,0.00010528077837079765,0.0003306562139187008,-0.0007161102257668973,1.5554823875427246,21.93246078491211,-14.251153945922852,0.09023667871952057,-0.14380040764808655,0.03571319580078125,990.2987060546876,0,13.0,1,1
5.64,0.08257705,-0.14322343,9.768174,-2.7360278181731698e-05,-6.890148506499827e-05,0.00034937489544972783,1.0508751869201658,21.512672424316406,-14.22581672668457,0.08023370802402496,-0.1523902714252472,0.026284217834472656,990.2656860351562,0,13.0,1,1
5.68,0.08016032,-0.16467223,9.770538,-2.7360278181731698e-05,-6.890148506499827e-05,0.00034937489544972783,1.0508751869201658,21.512672424316406,-14.22581672668457,0.08940421044826508,-0.13301917910575867,0.031037330627441406,990.2656860351562,0,13.0,1,1
5.72,0.082523465,-0.14083883,9.763434,-0.0006928917719051242,-0.000601575244218111,-0.0007157779764384031,1.3764019012451172,22.133665084838867,-14.466279983520508,0.07903909683227539,-0.16087836027145386,0.031076431274414062,990.2885131835938,0,13.0,1,1
5.76,0.08249664,-0.14322141,9.768167,0.00023973069619387388,0.0009962361073121428,-0.00031608270364813507,1.054218053817749,22.147754669189453,-13.95555305480957,0.092415913939476,-0.14561757445335388,0.04059410095214844,990.2858276367188,0,13.0,1,1
5.8,0.07530010000000001,-0.15752049999999998,9.756328,-0.0005589586216956377,0.000996194314211607,8.35019163787365e-05,1.6051554679870603,21.55740737915039,-14.00590705871582,0.0877804309129715,-0.14533522725105286,0.05007266998291016,990.2957763671876,0,13.0,1,1
5.84,0.08005312,-0.15036997,9.782364,-2.6068417355418205e-05,-0.0014006906421855092,8.361265645362437e-05,1.8431801795959477,21.09590148925781,-14.708436965942385,0.08275160193443297,-0.15377992391586304,0.02170848846435547,990.2957763671876,0,13.0,1,1
5.88,0.06568688,-0.15275264,9.770526,0.00010734784882515668,-0.0003354690852575004,0.00048319721827283496,1.4746639728546145,22.120132446289066,-14.172693252563475,0.11114022135734558,-0.13905486464500427,0.031195640563964844,990.285888671875,0,13.0,1,1
5.92,0.08716917,-0.14798537,9.78236,-0.0002918675309047103,-0.0011344585800543427,8.383407839573921e-05,1.2876763343811035,21.68183135986328,-14.426168441772461,0.08274631202220918,-0.1481635570526123,0.031206130981445312,990.2831420898438,0,13.0,1,1
5.96,0.07041308,-0.14560142,9.768155,-2.529320772737265e-05,-0.0003355529624968767,-0.0004486868565436453,1.312593936920166,21.75741195678711,-13.741571426391602,0.09669354557991028,-0.15681222081184387,0.04544734954833984,990.262939453125,0,13.0,1,1
6.0,0.07516608,-0.14798406,9.770518,-0.0005576667608693242,-0.0006019108113832773,-0.0004485761455725879,1.5596113204956057,21.198829650878906,-14.208856582641602,0.09189434349536896,-0.14194127917289734,0.035999298095703125,990.2932739257812,0,13.0,1,1
6.04,0.09186858,-0.1479834,9.777617,-0.00029109243769198656,-0.0010014264844357967,0.0008831139421090485,1.038294792175293,21.975095748901367,-14.404901504516602,0.05303175747394562,-0.14661026000976562,0.01707744598388672,990.2957763671876,0,13.0,1,1
6.08,0.07272255400000001,-0.15989915,9.820226,-0.001489255460910499,0.0007295846007764338,0.00048375088954344386,1.4004778861999512,21.94540023803711,-14.305009841918945,0.09091749787330627,-0.1556178629398346,-0.07758712768554688,990.3259887695312,0,13.0,1,1
6.12,0.07747555,-0.14798203,9.77288,-0.0001574179623275995,-0.00046887868666090066,0.00035070363082923,1.164656162261963,22.146005630493164,-14.280405044555664,0.09087875485420227,-0.13585540652275085,0.04079627990722656,990.2957763671876,0,13.0,1,1
6.16,0.077448726,-0.16228113,9.768142,0.0014379279455170035,0.00024947535712271934,0.0004746565246023237,1.5326292514801023,21.490062713623047,-14.91459846496582,0.0808965414762497,-0.13961690664291382,0.012431144714355469,990.3057250976562,0,13.0,1,1
6.2,0.07025224,-0.1408309,9.768139999999999,0.0007723965682089329,0.00011627536150626838,0.0002084513544104993,1.2415883541107178,21.69154357910156,-14.727571487426758,0.0898841917514801,-0.15275108814239502,0.03615093231201172,990.295654296875,0,13.0,1,1
6.24,0.07022542,-0.14559689,9.772872,0.0011721287155523894,0.00024939136346802115,0.0006080358871258795,1.2338404655456543,21.578264236450195,-13.641969680786133,0.08932195603847504,-0.14656198024749756,0.022003173828125,990.300537109375,0,13.0,1,1
6.28,0.07497841,-0.14797947,9.765767,0.0005065974546596408,-0.0004164401907473802,7.55148648750037e-05,1.020711898803711,21.695045471191406,-14.07786750793457,0.09376150369644164,-0.1318196952342987,0.04569530487060547,990.2830810546876,0,13.0,1,1
6.32,0.074781656,-0.1527412,9.763382,0.0005068557802587748,0.00011614958930294961,-5.753227742388845e-05,1.3186814785003662,21.7633056640625,-14.050790786743164,0.08881445229053497,-0.12143146991729735,0.03152275085449219,990.2979125976562,0,13.0,1,1
6.36,0.0841341,-0.1527361,9.770465,0.00010764040052890778,-0.00015020830323919654,-0.00019057959434576333,1.3237898349761963,21.39943504333496,-14.184259414672852,0.09321631491184236,-0.1348809003829956,0.026862144470214844,990.2957763671876,0,13.0,1,1
6.4,0.07453388,-0.15273514,9.765725999999999,-0.0001588903833180666,0.0002513540675863624,0.00021738404757343235,1.2544679641723633,21.861257553100586,-14.123613357543945,0.0828610360622406,-0.12020668387413025,0.03636074066162109,990.2953491210938,0,13.0,1,1
6.44,0.07449332,-0.15035081,9.760988000000001,-0.0006907398346811532,0.00011806916154455394,-0.0003149124386254698,1.2840890884399414,22.047176361083984,-14.370012283325195,0.08721591532230377,-0.12458878755569458,0.03164863586425781,990.2855224609376,0,13.0,1,1
6.48,0.067283034,-0.15511641,9.77282,-0.0006907398346811532,0.00011806916154455394,-0.0003149124386254698,1.2840890884399414,22.047176361083984,-14.370012283325195,0.09675051271915436,-0.1338830590248108,0.036393165588378906,990.2855224609376,0,13.0,1,1
6.52,0.088751525,-0.15273213,9.704169,-0.0005571907386183739,-0.0005477840895764531,-0.0001815868599805981,0.8439946174621582,22.16156768798828,-13.846979141235352,0.08229847252368927,-0.1284521520137787,0.031683921813964844,990.2928466796876,0,13.0,1,1
6.56,0.06959169999999999,-0.15749767,9.843829,-0.001355355721898377,0.0011831421870738268,-0.0003144094080198556,1.289198398590088,21.68330383300781,-14.503473281860352,0.10500836372375487,-0.1517941653728485,0.0648651123046875,990.2904663085938,0,13.0,1,1
6.6,0.07911074,-0.14796361,9.770442,-0.001355355721898377,0.0011831421870738268,-0.0003144094080198556,1.289198398590088,21.68330383300781,-14.503473281860352,0.09557856619358064,-0.1366671323776245,0.05068683624267578,990.2904663085938,0,13.0,1,1
6.64,0.08146006,-0.14796254,9.765704,0.0005092467181384563,-0.0004148166626691818,0.0004847058735322207,1.5120019912719729,21.207069396972656,-14.432954788208008,0.07606065273284912,-0.14535394310951233,0.050724029541015625,990.290283203125,0,13.0,1,1
6.68,0.074249774,-0.15272817,9.779904,0.0005092467181384563,-0.0004148166626691818,0.0004847058735322207,1.5120019912719729,21.207069396972656,-14.432954788208008,0.09012213349342346,-0.12601211667060852,0.02233123779296875,990.290283203125,0,13.0,1,1
6.72,0.07659906,-0.15272716,9.7727995,0.0003768706228584051,-1.546986459288746e-05,-0.00018074855324812236,1.669614315032959,20.459022521972656,-14.259500503540039,0.0945097804069519,-0.11989393830299375,0.04132080078125,990.2776489257812,0,13.0,1,1
6.76,0.07655847,-0.15987599,9.775163000000001,0.0003768706228584051,-1.546986459288746e-05,-0.00018074855324812236,1.669614315032959,20.459022521972656,-14.259500503540039,0.0752050131559372,-0.12935292720794678,0.031859397888183594,990.2776489257812,0,13.0,1,1
6.8,0.07651791,-0.14795864,9.772791999999999,-0.0002881363034248352,-0.00014875475608278066,-4.725522012449801e-05,1.3398516178131104,21.678009033203125,-14.433984756469727,0.08419327437877655,-0.11855101585388185,0.027177810668945312,990.27783203125,0,13.0,1,1
6.84,0.07647732,-0.15272412,9.756217,0.0005112024955451488,0.00025065551744773984,-0.0007128772558644414,1.251966953277588,21.490020751953125,-13.870553970336914,0.0787418931722641,-0.1181468665599823,0.05087661743164063,990.2977905273438,0,13.0,1,1
6.88,0.07404685,-0.15510646,9.770416,0.0005112024955451488,0.00025065551744773984,-0.0007128772558644414,1.251966953277588,21.490020751953125,-13.870553970336914,0.08347570896148683,-0.11302617192268373,0.04615592956542969,990.2977905273438,0,13.0,1,1
6.92,0.090735555,-0.15510544,9.777514,-0.0005536698736250402,0.0007832238916307688,8.623799658380449e-05,1.3258552551269531,21.032615661621094,-14.163110733032227,0.05922104418277741,-0.12208831310272215,0.013037681579589844,990.2928466796876,0,13.0,1,1
6.96,0.078745484,-0.16225427,9.763308,0.0005119848065078259,-1.578735827933997e-05,-0.00044622612767852843,1.423574924468994,21.38737297058105,-13.967973709106445,0.08294376730918884,-0.1167294979095459,0.04146862030029297,990.3028564453124,0,13.0,1,1
7.0,0.07631495599999999,-0.16463661,9.770406,0.00024645135272294283,-0.000814861967228353,-4.641702980734408e-05,1.359499216079712,21.591243743896484,-14.739870071411133,0.06849254667758943,-0.12068742513656615,0.03676605224609375,990.3204956054688,0,13.0,1,1
7.04,0.08105418,-0.1551024,9.74673,-0.0004189473111182451,-0.00041545165004208684,-4.624936264008284e-05,1.2258260250091553,22.04510498046875,-14.052972793579102,0.06779980659484862,-0.13422968983650208,0.06520938873291016,990.3229370117188,0,13.0,1,1
7.08,0.06906411,-0.15271819,9.777499,0.0003803914878517389,0.0009160642512142658,-0.00031239757663570344,1.607764720916748,20.822296142578125,-13.886312484741213,0.09157589077949524,-0.12441733479499816,0.022611618041992188,990.297607421875,0,13.0,1,1
7.12,0.08097303,-0.15986702,9.765659,-0.00015184888616204262,0.0005165268667042255,-0.000578545848838985,1.1856892108917236,21.95479393005371,-13.964521408081055,0.05755576491355896,-0.1239149570465088,0.04157638549804688,990.3002319335938,0,13.0,1,1
7.16,0.06659299,-0.16224929999999999,9.7680235,-1.8299557268619534e-05,0.0002501474809832871,0.00048688540118746465,1.370857000350952,21.759483337402344,-14.058610916137695,0.07598637044429779,-0.11373183131217955,0.0416107177734375,990.2899780273438,0,13.0,1,1
7.2,0.08089185,-0.14318213,9.758552,0.00011524953879415989,0.0015816634986549616,8.757927571423352e-05,1.3624062538146973,21.488269805908203,-14.195405960083008,0.08969148993492126,-0.12247326970100406,0.06058406829833984,990.2899780273438,0,13.0,1,1
7.24,0.06890175,-0.14794758,9.784587,0.0005151145160198212,-0.00014945340808480978,-4.5410997699946165e-05,1.3509111404418943,21.214113235473636,-14.177595138549805,0.07950899004936217,-0.13582578301429749,0.018016815185546875,990.2850952148438,0,13.0,1,1
7.28,0.08798033,-0.1670129,9.758544,-0.00015028403140604496,-0.0001495168689871207,-0.0003115592116955668,0.9866616725921632,21.61062812805176,-14.298635482788086,0.06013235449790955,-0.09753268957138063,0.036965370178222656,990.264892578125,0,13.0,1,1
7.32,0.07379109,-0.15033361,9.768025,-0.00014989287592470646,0.0005162092857062817,-0.000311391573632136,1.6389071941375732,21.00968742370605,-14.210012435913086,0.07877397537231445,-0.12067273259162906,0.04173088073730469,990.3076782226562,0,13.0,1,1
7.36,0.085902184,-0.13842121,9.779878,-0.0005503406282514334,0.0006495254347100854,-0.0008444406557828188,1.3920269012451172,21.67418670654297,-14.441804885864258,0.07311785221099854,-0.1533428132534027,0.03225898742675781,990.2950439453124,0,13.0,1,1
7.4,0.08587682,-0.14795372,9.765672,-2.114451490342617e-05,-0.00041439809137955313,0.00022261968115344644,1.2364792823791504,22.055416107177734,-14.594110488891602,0.0583033561706543,-0.12900477647781372,0.037016868591308594,990.3076782226562,0,13.0,1,1
7.44,0.07868171,-0.14080322,9.7562,-2.0900042727589607e-05,0.0014497734373435376,0.0006221982184797525,1.2868342399597168,21.41798591613769,-14.949495315551758,0.07208998501300813,-0.14287316799163818,0.060711860656738274,990.3001098632812,0,13.0,1,1
7.48,0.07626647,-0.16940191,9.777503,-0.0005532872164621949,0.00011815430480055512,8.96713463589549e-05,1.1833252906799316,21.689472198486328,-14.410539627075195,0.08103257417678833,-0.0949963927268982,0.03705787658691406,990.280029296875,0,13.0,1,1
7.52,0.078630984,-0.1503351,9.763297,-0.00015356880612671378,0.0007839043973945081,8.977606194093823e-05,0.8842391967773438,21.14553642272949,-13.562776565551758,0.07606528699398041,-0.12291163206100465,0.05128765106201172,990.2824096679688,0,13.0,1,1
7.56,0.076215744,-0.14795122,9.772763000000001,-0.0006859562126919628,-0.0010803465265780687,-0.00017643498722463846,1.1501171588897705,21.8689022064209,-14.107980728149414,0.07120230793952942,-0.13198137283325195,0.013426780700683594,990.2824096679688,0,13.0,1,1
7.6,0.08097017,-0.15986696,9.763292,0.00037955201696604485,-0.000547754461877048,0.0003563015488907695,1.1004431247711182,22.24395751953125,-14.353227615356445,0.07573875784873962,-0.11251500248908997,0.051319122314453125,990.2900390625,0,13.0,1,1
7.64,0.0785549,-0.1598663,9.775126,-0.0002859932137653232,0.00038431142456829553,-0.0001762253814376891,1.241152286529541,20.953489303588867,-14.453367233276367,0.07527294754981995,-0.1023085117340088,0.032410621643066406,990.2748413085938,0,13.0,1,1
7.68,0.07135981,-0.1503326,9.765655,0.0005054796347394586,-0.00027224686346016824,0.0003757204685825855,1.4706411361694336,21.74742126464844,-13.842325210571287,0.07971803843975067,-0.11571064591407774,0.04191112518310547,990.3178100585938,0,13.0,1,1
7.72,0.07372436,-0.15271529999999997,9.76802,0.000505724223330617,0.0005266610532999039,-0.0004231224011164159,1.4611048698425293,22.212787628173828,-14.176027297973633,0.06488481163978578,-0.11528900265693665,0.037199974060058594,990.3202514648438,0,13.0,1,1
7.76,0.073699,-0.14794806,9.763284,0.00010673943324945868,0.001725003239698708,-0.0005560707068070768,1.4407224655151367,20.929367065429688,-14.02079963684082,0.07300892472267151,-0.11416539549827576,0.046723365783691406,990.3101196289062,0,13.0,1,1
7.8,0.08084329999999999,-0.14556414,9.76328,-0.00029249003273434937,0.0005265420768409966,-0.00015649208216927946,1.128542184829712,22.428401947021484,-14.522317886352539,0.06293389201164246,-0.11366683244705199,0.03728008270263672,990.32275390625,0,13.0,1,1
7.84,0.073648244,-0.14794683,9.753810000000001,-2.5929562980309132e-05,-0.0008050771430134772,0.000376244424842298,1.881253242492676,21.55302619934082,-14.81804084777832,0.06768710911273956,-0.13691258430480954,0.051502227783203125,990.2772216796876,0,13.0,1,1
7.88,0.07362285,-0.14556295,9.770377,-2.5929562980309132e-05,-0.0008050771430134772,0.000376244424842298,1.881253242492676,21.55302619934082,-14.81804084777832,0.06265965104103087,-0.12729620933532715,0.02783679962158203,990.2772216796876,0,13.0,1,1
7.92,0.0759874,-0.13841245,9.75854,-2.5929562980309132e-05,-0.0008050771430134772,0.000376244424842298,1.7686109542846682,21.815677642822266,-13.815256118774414,0.07625222206115723,-0.12669673562049866,0.04680442810058594,990.2772216796876,0,13.0,1,1
7.96,0.087911546,-0.15509477,9.777474,-0.000558316707611084,-0.00013932707952335477,-0.0002894404751714319,1.6454310417175293,21.753633499145508,-14.793436050415039,0.0714753121137619,-0.10678228735923767,0.03262615203857422,990.2974853515624,0,13.0,1,1
8.0,0.08071643,-0.14794436,9.775105,0.0003742780245374888,-0.0005388802383095026,0.00037655886262655264,1.3287925720214844,22.141904830932614,-14.690378189086914,0.06651513278484343,-0.12458956241607665,0.027932167053222656,990.3026123046876,0,13.0,1,1
8.04,0.085470885,-0.15032703,9.7609,0.0007739962311461568,-0.00040576205356046563,-0.0005554419476538897,1.252946138381958,21.859786987304688,-14.046308517456055,0.06198307871818544,-0.10957092046737672,0.04215431213378906,990.282470703125,0,13.0,1,1
8.08,0.083055615,-0.15270966,9.753795,0.0007739962311461568,-0.00040576205356046563,-0.0005554419476538897,1.252946138381958,21.859786987304688,-14.046308517456055,0.06172740459442139,-0.10943207144737244,0.05163288116455078,990.282470703125,0,13.0,1,1
8.12,0.07825047,-0.15270898,9.772731,0.0003747669688891619,-0.001337907277047634,0.0006430842913687228,1.5680627822875977,21.47003936767578,-14.072061538696287,0.0660964846611023,-0.1183951199054718,0.032718658447265625,990.3101196289062,0,13.0,1,1
8.16,0.08300489,-0.15509167,9.775096000000001,-0.000290778378257528,0.0006594221340492367,0.000776347063947469,1.3362643718719482,22.043354034423828,-14.377824783325195,0.07060667872428894,-0.10849827527999878,0.03746986389160156,990.3225708007812,0,13.0,1,1
8.2,0.07103002,-0.15747437,9.782195,-2.421767567284405e-05,0.00025990858557634056,0.0001106621348299086,1.0038089752197266,21.15262222290039,-14.351461410522461,0.0607280433177948,-0.11277380585670473,0.02801990509033203,990.300048828125,0,13.0,1,1
8.24,0.07817435,-0.15270716,9.767989,-2.3728614905849103e-05,-0.00013964466052129862,0.0003771876508835703,1.3754229545593262,21.763900756835934,-14.290529251098633,0.06499384343624115,-0.12166091799736024,0.05172252655029297,990.2973022460938,0,13.0,1,1
8.28,0.073369175,-0.1431734,9.749051,-2.3728614905849103e-05,-0.00013964466052129862,0.0003771876508835703,1.3754229545593262,21.763900756835934,-14.290529251098633,0.06483995914459229,-0.11667999625205995,0.07066822052001953,990.2973022460938,0,13.0,1,1
8.32,0.08064175,-0.14555922,9.767997,-0.00015664219972677532,0.0002597894344944507,0.0001109764853026718,1.5344495773315432,22.123676300048828,-14.567033767700195,0.06401421129703523,-0.12078779935836792,0.023344039916992188,990.2948608398438,0,13.0,1,1
8.36,0.08301139,-0.14555874,9.765628,-0.0002929729234892875,0.0003941293689422309,-0.0004167873994447291,1.208487033843994,20.76462745666504,-14.052362442016602,0.05890071392059326,-0.1153537929058075,0.03757190704345703,990.2874145507812,0,13.0,1,1
8.4,0.08538097,-0.15747467,9.767992999999999,-0.00015991998952813447,0.0002609884832054377,0.0003821152786258608,1.7562754154205322,21.27767372131348,-14.320764541625975,0.06322035193443297,-0.09577083587646484,0.042326927185058594,990.3050537109376,0,13.0,1,1
8.44,0.07341117,-0.15747413,9.770358,0.0002397495263721794,0.0002609567600302398,-0.00015043275197967887,1.383873701095581,22.035114288330078,-14.153726577758787,0.07260651886463165,-0.09952378273010254,0.03289127349853516,990.3050537109376,0,13.0,1,1
8.48,0.0829505,-0.15747360000000002,9.770356,0.0005062607815489173,-0.0005380226066336036,-1.7191050574183464e-05,1.1843047142028809,22.05923843383789,-14.58629035949707,0.053520619869232185,-0.0991918444633484,0.03289985656738281,990.300048828125,0,13.0,1,1
8.52,0.0805403,-0.16223970000000001,9.767987,0.00010698239202611147,-0.00013858055172022432,0.00024920864962041383,0.7472538948059082,22.176576614379886,-14.217874526977539,0.062426403164863586,-0.10331106185913086,0.03766536712646485,990.2947998046876,0,13.0,1,1
8.56,0.09246957,-0.15270612,9.758517,-0.00015913779498077932,0.0002608615322969854,-0.00041649723425507545,1.0121221542358398,21.317916870117188,-13.515584945678713,0.04781530797481537,-0.1077767014503479,0.04241085052490234,990.300048828125,0,13.0,1,1
8.6,0.085279584,-0.15747216,9.756148,0.00037368942867033184,0.001059777452610433,-0.00028325547464191914,1.1732139587402344,21.31087303161621,-13.770952224731445,0.042297914624214165,-0.09270504117012024,0.028242111206054688,990.2947998046876,0,13.0,1,1
8.64,0.08764917,-0.15032181,9.7656145,-0.00029190492932684714,0.0002607980277389288,-0.00015001371502876282,1.1892757415771484,21.58944702148437,-14.02067756652832,0.0515105277299881,-0.1064181625843048,0.03299903869628906,990.3073120117188,0,13.0,1,1
8.68,0.08045918,-0.16700423,9.770347000000001,0.00010776458657346666,0.00026076630456373096,-0.0004162457771599293,1.292646884918213,21.212045669555664,-13.860559463500975,0.05620945990085602,-0.08710286021232605,0.023538589477539062,990.2947387695312,0,13.0,1,1
8.72,0.08043891,-0.1717703,9.765611,-2.5197892682626847e-05,-0.0006713709444738925,-0.0005493200151249766,1.5802383422851562,21.481822967529297,-14.690500259399414,0.046402573585510254,-0.07709604501724243,0.03776073455810547,990.2847290039062,0,13.0,1,1
8.76,0.08280852400000001,-0.15032032,9.775078,0.00037447139038704336,0.00012754501949530095,-0.0008155521936714648,1.0523979663848877,21.514144897460934,-14.303117752075195,0.05575750768184662,-0.1097506582736969,0.018846511840820312,990.2922973632812,0,13.0,1,1
8.8,0.075618535,-0.15270314,9.76324,-0.0001579647941980511,0.00012751315080095083,-1.6520731151103973e-05,0.9519317150115968,21.78858184814453,-13.918771743774414,0.059901729226112366,-0.1043553352355957,0.02834320068359375,990.29248046875,0,13.0,1,1
8.84,0.08276796,-0.14555275,9.765605,0.00010854643187485637,0.0005269552930258213,-0.0006822266150265932,1.2028355598449707,21.496788024902344,-14.017343521118164,0.04545395076274872,-0.1038113534450531,0.03782939910888672,990.30224609375,0,13.0,1,1
8.88,0.0827477,-0.15270206,9.775072,-2.441593096591532e-05,-0.00040518207242712384,0.00024996278807520866,1.203378677368164,21.12849998474121,-13.918893814086914,0.04084685444831848,-0.098763108253479,0.028367042541503906,990.2744750976562,0,13.0,1,1
8.92,0.068387985,-0.1503183,9.765601,0.0005084114382043482,-0.0006715297349728644,-0.00028258515521883965,1.6760005950927734,21.0970516204834,-14.143854141235352,0.07384689152240753,-0.09288525581359863,0.05207633972167969,990.2821044921876,0,13.0,1,1
8.96,0.073147506,-0.14555126,9.775068,0.0003754488134291023,-0.00013892962306272238,0.0001169724273495376,1.5138225555419922,21.84067916870117,-14.085390090942385,0.05430708825588226,-0.09250663220882416,0.04736042022705078,990.2796020507812,0,13.0,1,1
9.0,0.07551712,-0.14555079,9.767964,-0.000423303252318874,0.0002605124027468264,0.00011705618817359209,1.8045649528503416,21.007061004638672,-14.697286605834961,0.054126545786857605,-0.11136406660079956,0.05210399627685547,990.2796020507812,0,13.0,1,1
9.04,0.07549685,-0.14793354,9.756127000000001,0.00024287748965434733,-0.0004053407465107739,0.000250381650403142,1.2777035236358645,21.40914535522461,-14.485658645629885,0.06847463548183441,-0.10103374719619752,0.052127838134765625,990.264404296875,0,13.0,1,1
9.08,0.08264625,-0.15269956,9.777431,0.00024287748965434733,-0.0004053407465107739,0.000250381650403142,1.2777035236358645,21.40914535522461,-14.485658645629885,0.053735986351966865,-0.09588955342769624,0.03320503234863281,990.264404296875,0,13.0,1,1
9.12,0.0778462,-0.14793253,9.78453,-0.000289558811346069,0.0005267331725917757,0.0005167813505977391,1.297649383544922,21.95451545715332,-14.366678237915039,0.04865485429763794,-0.09571315348148346,0.014279365539550781,990.2721557617188,0,13.0,1,1
9.16,0.08977538,-0.1431655,9.76559,-2.304735244251788e-05,0.00012722752580884844,-0.00014892453327775002,1.691518783569336,21.74391746520996,-14.492036819458008,0.03863413631916046,-0.09965382516384123,0.04271602630615234,990.2896728515624,0,13.0,1,1
9.2,0.070635885,-0.159848,9.767956,-0.0001995895872823894,0.00031629545264877384,-0.00025517179165035486,0.7646989822387695,22.350709915161133,-13.845830917358398,0.05746923387050629,-0.08020521700382233,0.03326225280761719,990.28955078125,0,13.0,1,1
9.24,0.08734494400000001,-0.15746424,9.777422999999999,-0.00019939400954172012,-8.321007771883159e-05,-0.0003882460296154022,1.2634625434875488,21.764179229736328,-13.888364791870115,0.043143704533576965,-0.0940062403678894,0.03327655792236328,990.2947387695312,0,13.0,1,1
9.28,0.077843636,-0.15031576,9.770327,-0.00019939400954172012,-8.321007771883159e-05,-0.0003882460296154022,1.2634625434875488,21.764179229736328,-13.888364791870115,0.04771851003170013,-0.08899237215518951,0.042756080627441406,990.2947387695312,0,13.0,1,1
9.32,0.09702593,-0.15985042,9.770332000000002,0.0004664107109420002,0.00018310334417037663,-0.0005213974509388208,1.3481650352478027,21.843303680419922,-13.598112106323242,0.032970741391181946,-0.07890434563159943,0.04276084899902344,990.3073120117188,0,13.0,1,1
9.36,0.07550287,-0.1550835,9.751392999999998,0.0004664107109420002,0.00018310334417037663,-0.0005213974509388208,1.3481650352478027,21.843303680419922,-13.598112106323242,0.056534826755523675,-0.09278710186481476,0.0711822509765625,990.3073120117188,0,13.0,1,1
9.4,0.0683192,-0.1598498,9.760861,-0.0008676345460116862,-0.00021591545373667032,0.0008123605512082577,1.4406147003173828,22.03571319580078,-14.393457412719727,0.06082238256931305,-0.08309806883335114,0.047524452209472656,990.2694702148438,0,13.0,1,1
9.44,0.07547492,-0.15508285,9.772696,0.00019776378758251667,0.0004498523776419461,0.0001466285903006792,1.3564553260803225,21.58829689025879,-14.585260391235352,0.06545604765415193,-0.08716103434562683,0.028606414794921875,990.2871704101562,0,13.0,1,1
9.48,0.08502057,-0.1526992,9.767961,6.474019028246403e-05,0.0003166725509800017,-0.0002527876349631697,1.396592617034912,21.678606033325195,-14.673715591430664,0.04119876027107239,-0.09147141873836516,0.028623580932617188,990.2846069335938,0,13.0,1,1
9.52,0.073057115,-0.1526989,9.763225,-6.828317418694496e-05,0.00031665078131482,-0.00025272989296354353,1.0467457771301272,22.246307373046875,-14.268106460571287,0.06016737222671509,-0.08193068206310272,0.05230045318603516,990.2896728515624,0,13.0,1,1
9.56,0.09455228,-0.15269855,9.76559,-0.0010001198388636112,5.02912444062531e-05,-0.00011945675942115486,1.2613973617553709,22.13099670410156,-13.909513473510742,0.02657006680965424,-0.09613202512264253,0.03810405731201172,990.2517700195312,0,13.0,1,1
9.6,0.08258879,-0.14078179,9.76559,-0.0010001198388636112,5.02912444062531e-05,-0.00011945675942115486,1.2613973617553709,22.13099670410156,-13.909513473510742,0.05024932324886322,-0.10548071563243866,0.04758071899414063,990.2517700195312,0,13.0,1,1
9.64,0.07779506,-0.15508112,9.763221000000001,-0.0007335348054766655,5.024755955673754e-05,0.0010790800442919137,1.1681056022644043,21.67474365234375,-13.637483596801758,0.05014491081237793,-0.10005350410938264,0.033397674560546875,990.2794189453124,0,13.0,1,1
9.68,0.07778108,-0.14793095,9.765586,0.00033186341170221567,-0.0006155640003271401,0.000812821788713336,1.2299556732177734,21.31147003173828,-14.010683059692385,0.04526449739933014,-0.09026987850666046,0.03814029693603516,990.2693481445312,0,13.0,1,1
9.72,0.07776713,-0.16223034,9.763218,-0.00046695000492036337,-0.0004824279458262025,-0.00011922602425329387,1.2649836540222168,21.76565361022949,-13.965669631958008,0.05470114946365357,-0.0706309974193573,0.03815841674804688,990.2919921875,0,13.0,1,1
9.76,0.07775316,-0.15269685,9.765584,0.00019897450692951682,-0.0003492917749099433,0.00014714739518240094,1.3754229545593262,21.763900756835934,-14.290521621704102,0.05447082221508026,-0.08923617005348206,0.042908668518066406,990.2792358398438,0,13.0,1,1
9.8,0.07295939,-0.14554664,9.76795,0.0004654247313737869,0.0003164760419167578,0.0004135209892410785,1.3714003562927246,21.391191482543945,-13.960161209106445,0.06381675601005554,-0.08868357539176941,0.042926788330078125,990.312255859375,0,13.0,1,1
9.84,0.08011514,-0.14554629,9.77505,-0.00020023004617542028,-0.0004824934294447303,1.4104851288720965e-05,1.2141928672790527,21.66502952575684,-13.336084365844727,0.04901142418384552,-0.1071448028087616,0.028746604919433594,990.312255859375,0,13.0,1,1
9.88,0.07532138,-0.15507910000000003,9.767947,6.622006185352801e-05,0.00031643244437873363,0.0008131100912578403,1.3547959327697754,21.480907440185547,-13.808881759643555,0.04836985468864441,-0.0878339409828186,0.03349590301513672,990.302001953125,0,13.0,1,1
9.92,0.080087245,-0.15031222,9.770313,0.00019951257854700089,0.0011153582017868755,0.0005468519520945847,1.276181697845459,21.407672882080078,-14.408357620239258,0.052991285920143134,-0.08265507221221924,0.03824424743652344,990.2767944335938,0,13.0,1,1
9.96,0.07290357,-0.14316198,9.777413000000001,-0.0005993004888296128,-0.00034940103068947787,0.00028059372561983764,1.2469961643218994,21.95980834960937,-14.436166763305664,0.06236028671264648,-0.10607506334781648,0.028789520263671875,990.2869262695312,0,13.0,1,1
10.0,0.07766944,-0.15031150000000001,9.760841000000001,-6.653426680713892e-05,-0.00034942285856232047,-0.0006514543201774359,0.9513888359069824,22.156871795654297,-14.017221450805664,0.06189325451850891,-0.0818692296743393,0.052478790283203125,990.2894287109376,0,13.0,1,1
10.04,0.077655494,-0.14792785,9.76084,0.00019991630688309667,0.0008489767205901443,-0.0006513965781778097,1.238544464111328,21.6885986328125,-14.572961807250975,0.03761787712574005,-0.08617521822452545,0.05249595642089844,990.2994995117188,0,13.0,1,1
10.08,0.07764149,-0.16461053,9.775043,-0.0004657390527427197,0.00044948112918064004,0.0006802404532209039,0.9715800285339355,21.701812744140625,-14.224664688110352,0.046972036361694336,-0.08593019843101501,0.03830337524414063,990.2667846679688,0,13.0,1,1
10.12,0.082407355,-0.14316064,9.782142,-0.0005987623007968067,4.9985479563474655e-05,-0.00011864953557960689,1.3794455528259275,22.13661193847656,-14.620889663696287,0.041756123304367065,-0.09496724605560304,0.02411937713623047,990.2792358398438,0,13.0,1,1
10.16,0.08239335,-0.14077699,9.770306,-6.599631160497665e-05,4.996362258680165e-05,0.00041403996874578297,1.1480531692504885,22.235715866088867,-14.129129409790039,0.05098237097263336,-0.10415196418762207,0.03833675384521485,990.2992553710938,0,13.0,1,1
10.2,0.07520971,-0.15507632,9.772672,6.729655433446169e-05,0.00044941558735445136,0.0005472555058076979,1.5095021724700928,20.83583068847656,-14.179895401000975,0.05538444221019745,-0.07487691938877106,0.04309368133544922,990.2691650390624,0,13.0,1,1
10.24,0.07041594400000001,-0.14315963,9.763202,0.0007332204841077327,0.0007157095824368298,1.468139817006886e-05,1.5831451416015625,21.37885284423828,-14.146036148071287,0.05043692886829376,-0.08386567234992981,0.043109893798828125,990.299560546875,0,13.0,1,1
10.28,0.07059246,-0.13839734,9.763217,-0.0007313818205147983,-0.0010153654729947448,0.00028105499222874636,1.486947536468506,21.025569915771484,-14.418478012084961,0.055119335651397705,-0.09780991077423096,0.03363227844238281,990.2919311523438,0,13.0,1,1
10.32,0.0753659,-0.15508017,9.775052,-0.0001997572835534811,-0.0007488861447200179,0.0005469393217936158,1.1124811172485352,22.149826049804688,-14.272584915161133,0.04987084865570069,-0.09266607463359833,0.03838348388671875,990.2337036132812,0,13.0,1,1
10.36,0.084919155,-0.15031344,9.767951,-6.72093592584133e-05,-0.00034931325353682036,0.0002803620009217412,1.351346731185913,21.952167510986328,-14.451799392700195,0.049569889903068536,-0.0780562162399292,0.04786396026611328,990.274169921875,0,13.0,1,1
10.4,0.075353205,-0.15031335,9.753747,0.005925020202994347,-0.002879334148019552,1.4098506653681396e-05,1.1400060653686523,21.49029922485352,-13.46839714050293,0.05976945161819457,-0.08436207473278046,0.062136650085449226,990.2843627929688,0,13.0,1,1
10.44,0.08490652,-0.15031317,9.777417999999999,-0.0009991312399506569,0.0007159205269999803,-0.0007848230889067054,1.285611629486084,22.048646926879886,-14.447317123413086,0.04014603793621063,-0.07955193519592285,0.03373908996582031,990.5065307617188,0,13.0,1,1
10.48,0.08251023,-0.15269631,9.779784,-0.0009991312399506569,0.0007159205269999803,-0.0007848230889067054,1.285611629486084,22.048646926879886,-14.447317123413086,0.0391538143157959,-0.08535046875476837,0.014790534973144531,990.5065307617188,0,13.0,1,1
10.52,0.070554405,-0.16222927,9.765581,-0.003928545862436295,0.002313805744051933,0.00041362468618899584,1.345258712768555,21.946273803710934,-14.142580032348633,0.06199657917022705,-0.0755106657743454,0.03848457336425781,990.213623046875,0,13.0,1,1
10.56,0.07771778,-0.14554611,9.763213,-0.003928545862436295,0.002313805744051933,0.00041362468618899584,1.345258712768555,21.946273803710934,-14.142580032348633,0.0635470449924469,-0.08273647725582123,0.05745601654052735,990.213623046875,0,13.0,1,1
10.6,0.07293162,-0.15984568,9.760846,6.625405512750149e-05,0.0015148483216762545,-0.0002521389105822891,1.658172607421875,21.817432403564453,-13.490400314331055,0.05278095602989197,-0.0738580971956253,0.03851985931396485,990.2086181640624,0,13.0,1,1
10.64,0.06814545400000001,-0.15507892,9.770313999999999,0.005525791086256504,-0.004210953135043383,-0.00038527059950865805,1.6944248676300049,21.640949249267575,-13.947565078735352,0.047295808792114265,-0.07925896346569061,0.04324913024902344,990.3399047851562,0,13.0,1,1
10.68,0.058579504000000004,-0.14792892,9.775048,-0.004993625916540623,0.0035121976397931576,1.4229532098397614e-05,1.6051554679870603,21.55740737915039,-14.005903244018555,0.06615695357322693,-0.08845944702625275,0.033791542053222656,990.3222045898438,0,13.0,1,1
10.72,0.082472205,-0.15507862,9.770311999999999,-0.0005993521772325039,-0.000216234679101035,0.00014741360791958869,1.4735476970672607,21.644451141357425,-13.297861099243164,0.041695162653923035,-0.0785953551530838,0.03854179382324219,990.1884155273438,0,13.0,1,1
10.76,0.08007592,-0.15269521,9.767944,-0.0008989879861474037,-0.00010942771041300148,2.9310642275959253e-05,1.4078121185302734,21.74093246459961,-13.293375015258787,0.041416451334953315,-0.06829424202442169,0.03856468200683594,990.2537841796876,0,13.0,1,1
10.8,0.075289786,-0.14316189999999998,9.770311999999999,0.0002994945098180324,0.0013552997261285784,-0.00010382113396190107,1.634096622467041,22.00569725036621,-13.651674270629885,0.04143798351287842,-0.08693158626556396,0.03857421875,990.2793579101562,0,13.0,1,1
10.84,0.08245319,-0.14316174,9.760842,0.00016645880532450974,-0.0002426154387649149,0.000961494748480618,0.9209265708923341,21.707107543945312,-14.294145584106445,0.04060284048318863,-0.09540446102619173,0.04334545135498047,990.304443359375,0,13.0,1,1
10.88,0.080056936,-0.15269470000000002,9.772677,0.00016645880532450974,-0.0002426154387649149,0.000961494748480618,0.9209265708923341,21.707107543945312,-14.294145584106445,0.035642251372337334,-0.07134716212749481,0.02914905548095703,990.304443359375,0,13.0,1,1
10.92,0.08722025,-0.15269452,9.77031,0.00043289692257530987,0.0009557861485518515,-0.0002368743007536977,1.3185439109802246,21.65738677978516,-13.351716995239258,0.0448463186621666,-0.07081317901611328,0.03863716125488281,990.2562866210938,0,13.0,1,1
10.96,0.0776543,-0.1526944,9.7703085,-9.967360529117286e-05,0.0005563024315051733,-0.0006363219581544398,1.6383647918701172,21.377975463867188,-14.308465957641602,0.058587513864040375,-0.07039095461368561,0.048122406005859375,990.2943725585938,1,1.0,2,2
11.0,0.075258076,-0.15269423,9.75137,0.00016670351033098996,-0.0001094972249120474,-0.00023682191385887563,1.715893268585205,22.18779182434082,-13.905885696411133,0.04897034913301468,-0.060254216194152825,0.057606697082519524,990.251220703125,1,1.0,2,2
11.04,-0.068142354,-0.17652693,9.779777000000001,0.001098870299756527,-0.0017074025236070154,0.00016267821774818003,1.8949732780456543,21.98658943176269,-13.690759658813475,0.32493263483047485,-0.05328309535980225,0.033942222595214844,990.276611328125,1,1.0,2,2
11.08,-0.0084011555,-0.016847074,9.812917,-0.0002326480753254145,-0.0033053075894713397,-0.3057011067867279,1.4455864429473877,21.565921783447266,-13.827844619750975,0.5598681569099426,0.7171061038970947,0.005261421203613281,990.2562866210938,1,1.0,2,2
11.12,0.33573836,-0.40055475,9.855527,-0.0898478776216507,-0.013691635802388193,-0.852580726146698,0.3253922462463379,21.096385955810547,-13.55076789855957,-0.05501781404018402,0.0976342260837555,-0.03855514526367188,990.2515258789062,1,1.0,2,2
11.16,0.36202097,-0.5054189,10.059106,-0.08598624914884567,-0.007300065830349922,-0.08359358459711075,-0.0886678695678711,21.76203727722168,-13.217981338500975,-0.3587259650230408,0.15265995264053345,-0.19154071807861328,990.1758422851562,1,1.0,2,2
11.2,-0.1565941,-0.12171087,9.263724,-0.13472197949886322,0.06846679747104645,0.15342757105827332,0.7220611572265625,21.889162063598636,-13.504312515258787,-0.1182371750473976,0.17286482453346252,-0.13515567779541016,990.2285766601562,1,1.0,2,2
11.24,0.077609956,-0.30283990000000005,10.295825,-0.13299088180065155,0.21787001192569733,0.3141492307186127,0.8077425956726074,22.33804702758789,-13.389814376831055,0.14665067195892334,-0.27376049757003784,-0.28021717071533203,990.2208862304688,1,1.0,2,2
11.28,-0.14704719,-0.63411546,9.874461,-0.5855946540832521,-0.30810388922691345,0.15143026411533356,0.7807836532592773,23.04958724975586,-12.272531509399414,0.3749917447566986,-0.12139225006103516,-0.23102569580078125,990.2586669921876,1,1.0,2,2
11.32,-0.17573236,-0.8843595,9.791608,-0.6444503664970398,-0.025010110810399052,-0.05403241887688637,0.9708151817321776,23.49083709716797,-12.173666000366213,0.5596879124641418,-0.2497164011001587,-0.15303993225097656,990.2841186523438,1,1.0,2,2
11.36,0.57469046,-1.3610151000000001,9.552522,-0.8725498914718628,-0.08892593532800674,-0.4143577516078949,0.26875829696655273,24.36091232299805,-11.808454513549805,-0.4214175343513489,-0.10237646102905272,0.18583202362060547,990.2765502929688,1,1.0,2,2
11.4,0.42173046,-1.0059063,9.812913,-0.820618212223053,-0.12993858754634854,-0.2493750602006912,-0.05106210708618164,24.640323638916016,-10.851709365844727,-0.08283576369285582,-0.4114730358123779,-0.11954593658447266,990.2942504882812,1,1.0,2,2
11.44,-0.07537548,-2.1284304,9.417589999999999,-0.808101236820221,0.02931829914450645,-0.06095655634999275,-0.527653694152832,25.931625366210934,-9.54509162902832,0.5527164936065674,0.27123069763183594,0.2159738540649414,990.2916870117188,1,1.0,2,2
11.48,0.1898973,-2.7480826,9.315799,-0.8218165040016174,0.14196990430355072,-0.09970549494028093,-0.35781145095825195,26.82792663574219,-9.238794326782227,0.012669280171394348,0.2404365539550781,0.5591039657592773,990.2815551757812,1,1.0,2,2
11.52,-0.3836855,-2.4763884999999997,9.417588,-0.6467137932777405,0.21613885462284088,-0.11062441766262054,-0.8654088973999023,28.03775787353516,-8.307550430297853,0.7010965943336487,-0.1518232822418213,0.08229255676269531,990.2588500976562,1,1.0,2,2
11.56,0.108627945,-2.824347,9.273189,-0.6785385012626648,0.08883987367153168,-0.3162202537059784,-1.1556086540222168,28.50308609008789,-7.5972023010253915,0.2255353778600693,0.010565996170043944,0.20096969604492188,990.32177734375,1,1.0,2,2
11.6,0.15641960000000002,-2.8934622,10.035426,-0.6118262410163879,0.15941356122493744,-0.6300734281539917,-1.2870793342590332,28.696044921875,-7.588233947753906,-0.3619988560676575,-0.20618677139282227,-0.6922445297241211,990.3043212890624,1,1.0,2,2
11.64,0.013019145,-3.4868984,8.690856,-0.9146273732185364,0.15208986401557922,-0.4435192048549652,-2.0488142967224117,28.45623779296875,-6.456026077270508,0.4569770991802216,-0.2770729064941406,-0.07462692260742188,990.3041381835938,1,1.0,2,2
11.68,0.44797492,-3.9158888,9.249514999999999,-1.4111732244491575,0.2664725482463837,-0.6729502677917479,-2.612173557281494,30.03522872924805,-5.460809707641602,-0.4853301644325256,-0.028581619262695312,0.23031139373779294,990.2991943359376,1,1.0,2,2
11.72,-0.36937785,-3.9778532999999996,8.835253999999999,-1.0278115272521973,0.17272932827472687,-0.41289278864860535,-3.3997511863708496,30.98264312744141,-4.086149215698241,0.3508792519569397,-0.35294294357299805,-0.5089559555053711,990.2688598632812,1,1.0,2,2
11.76,0.33324699999999996,-4.809617,7.781847,-1.5291509628295898,0.1764577329158783,-0.34205275774002075,-3.4358429908752437,31.685344696044922,-2.5050373077392583,-0.08985459804534912,-0.3308553695678711,0.7856631278991699,990.3243408203124,1,1.0,2,2
11.8,0.46229535,-4.809617,8.534616999999999,-1.5291509628295898,0.1764577329158783,-0.34205275774002075,-4.265218257904054,32.43505859375,-0.26553916931152344,-0.237450510263443,-0.10935211181640624,0.12169265747070312,990.3243408203124,1,1.0,2,2
11.84,0.6391418000000001,-5.2100077,8.340506,-0.9678902626037598,0.11121034622192384,-0.20490005612373352,-4.207200527191162,33.43755340576172,-0.25615692138671875,-0.6823598742485046,-0.3631143569946289,0.2914924621582031,990.2942504882812,1,1.0,2,2
11.88,-0.12563318,-6.375431,8.965447,-0.5054327249526978,-0.35138031840324396,0.4871217906475067,-3.8899645805358887,34.313552856445305,0.4905281066894531,-0.13394153118133545,1.6698346138000488,-1.0589590072631836,990.279052734375,1,1.0,2,2
11.92,-1.0839902,-4.921631,6.2455305999999995,-0.2624194324016571,-0.2918587625026703,0.7576987147331238,-2.743491649627685,34.333927154541016,-0.3032054901123047,0.6075511574745178,-0.32590389251708984,2.235830783843994,990.4201049804688,1,1.0,2,2
11.96,0.4574902,-3.5965278,9.973874,0.21188923716545105,1.0487754344940186,0.3993707597255707,-1.2930984497070312,34.32253646850586,-0.6800098419189453,-0.3633612394332886,-0.7245702743530273,-0.6418132781982422,990.4404907226562,1,1.0,2,2
12.0,-0.4841375,-4.587971700000001,9.843677,-0.034186579287052155,-0.1646929383277893,1.121086835861206,-0.0483098030090332,35.961936950683594,-0.4288616180419922,-0.4795472621917725,-1.589101791381836,-1.7615327835083008,990.4632568359376,1,1.0,2,2
12.04,-0.8975969000000001,-4.950229599999999,8.465964,-0.024066511541605,-1.3945395946502686,1.2730200290679932,0.14933347702026367,36.410545349121094,-0.7165241241455078,0.7279343605041504,0.7953915596008301,-0.20572185516357425,990.32177734375,1,1.0,2,2
12.08,-0.43635216,-3.6537260000000003,10.262671000000001,0.6190864443778992,0.061542373150587075,-0.6279426217079163,-1.1200757026672363,35.32770538330078,-1.2273921966552734,0.7237909436225891,-0.9570479393005372,-0.25122547149658203,990.3394165039062,1,1.0,2,2
12.12,0.13779569,-4.545086,9.408164,0.7860665321350098,-0.13326771557331085,-0.1756051480770111,-1.8122663497924805,33.205333709716804,-2.305273056030273,0.07438181340694427,0.1462574005126953,-0.6265239715576172,990.3923950195312,1,1.0,2,2
12.16,-0.07728939,-4.2114277,9.945519,0.9751508831977844,-0.8599106669425964,-0.15576457977294922,-2.8146796226501465,33.321537017822266,-4.2361812591552725,0.08563949167728424,0.6138675212860107,-0.8842620849609375,990.3065795898438,1,1.0,2,2
12.2,0.22145444,-3.3391476000000004,10.191709,0.9559706449508668,-0.4037106037139893,0.05355734750628472,-3.920953273773194,31.44452667236328,-6.804298400878906,0.37922143936157227,-0.18851161003112796,-1.2175064086914062,990.3466796875,1,1.0,2,2
12.24,0.27164847,-2.6336975,9.408164999999999,1.364898681640625,-0.35923582315444946,0.2682079076766968,-4.0367159843444815,29.65136337280273,-8.221223831176758,-0.3966217637062073,-0.3359014987945557,0.1312112808227539,990.30126953125,1,1.0,2,2
12.28,0.28121424,-2.6670632000000003,10.511282000000001,0.6627566814422607,0.3807228803634644,0.049695715308189385,-3.915080547332764,29.29163360595703,-8.98875617980957,0.04226245731115341,-0.23326992988586426,-0.9248056411743164,990.2785034179688,1,1.0,2,2
12.32,0.21669295,-2.4001365000000003,10.080451,0.6303992867469788,0.1767248809337616,-0.008361167274415493,-3.966735363006592,28.50686264038086,-10.70551872253418,-0.23655536770820615,-0.11873197555541992,-0.8405570983886719,990.293701171875,1,1.0,2,2
12.36,0.3457538,-1.7232854,9.633052000000001,1.0284082889556885,-0.0018398927059024566,-0.17147968709468842,-4.2013869285583505,26.44423675537109,-11.934385299682615,-0.1894357055425644,-0.19867420196533206,-0.06323432922363281,990.2607421875,1,1.0,2,2
12.4,-0.17523873,-2.24999,10.939747,0.8185513019561768,0.11587173491716385,-0.24724656343460086,-4.622292995452881,25.313507080078125,-13.266061782836914,0.13562455773353574,-0.13108599185943606,-0.8259305953979492,990.2454223632812,1,1.0,2,2
12.44,-0.3831541,-2.188025,10.364517999999999,0.84971022605896,0.007081707939505576,-0.2445834279060364,-4.960315227508545,23.628292083740234,-14.655054092407227,0.39105474948883057,0.5119179487228394,-0.01749897003173828,990.2656860351562,1,1.0,2,2
12.48,-0.5552209,-1.1250831000000001,9.436575,1.1225508451461792,0.5150792598724365,-0.0400528609752655,-3.993274211883545,21.58516502380371,-16.840078353881836,0.4693102836608887,0.16429126262664795,0.7475919723510742,990.2430419921876,1,1.0,2,2
12.52,-0.60540277,-1.0440516,10.790616,0.8162874579429626,0.437315046787262,0.045434515923261636,-3.620872974395752,20.82772445678711,-17.007112503051758,0.052837640047073364,0.2267688512802124,-1.0098037719726562,990.1951904296876,1,1.0,2,2
12.56,-1.0714276000000003,-1.0416687,10.352683,0.9366621375083924,0.16221073269844055,0.04610027745366097,-3.2339863777160645,18.714828491210934,-18.097864151000977,0.8636746406555176,0.9692388772964478,-0.7695226669311523,990.2506713867188,1,1.0,2,2
12.6,-0.18237789,0.5384449,9.654359,0.982601523399353,0.3265276551246643,0.2511634826660156,-2.871421337127685,17.790620803833008,-19.02346611022949,-0.2809522449970245,-0.4195990562438965,0.14192962646484375,990.24560546875,1,1.0,2,2
12.64,-0.83959484,-0.29093620000000003,10.257997,0.9740794897079468,0.055418085306882865,0.10255920141935347,-2.570758819580078,15.597126007080078,-20.32716560363769,0.3250292241573334,0.6813010573387146,-0.36117076873779297,990.2127685546876,1,1.0,2,2
12.68,-0.24928296,0.9888841,10.2485285,0.9963167905807496,-0.10250721871852876,-0.03126455843448639,-3.1994175910949707,13.639183044433596,-20.731599807739254,-0.2534238398075104,-0.055995821952819824,-0.6353654861450195,990.2279663085938,1,1.0,2,2
12.72,-0.25166675,0.78868866,8.186696000000001,1.0064367055892944,0.0779218003153801,0.01653912104666233,-2.005389213562012,12.018753051757812,-22.05252265930176,-0.25976893305778503,0.6543868780136108,1.1574831008911133,990.2506103515624,1,1.0,2,2
12.76,-0.6722834,1.0699154,11.851125,0.9530402421951294,-0.25444039702415466,-0.0068967086263000965,-2.698941707611084,10.421138763427734,-21.929147720336914,0.20527738332748413,-0.5231904983520508,-0.4487371444702149,990.2127685546876,1,1.0,2,2
12.8,-0.7774329000000001,1.2486612,9.673299,0.779002845287323,-1.0436674356460571,-0.12301045656204225,-4.305369853973389,8.443141937255861,-22.18174171447754,0.8753003478050232,1.942488431930542,-0.826481819152832,990.2807006835938,1,1.0,2,2
12.84,0.17614403,3.0337365000000003,9.39397,0.9843322634696959,-0.041520841419696815,0.24610333144664764,-4.655951976776123,7.640652656555176,-21.92679023742676,-0.1248183697462082,-0.9175219535827636,0.9594650268554688,990.3287963867188,1,1.0,2,2
12.88,0.25979674,2.7501261,10.047317999999999,0.9268079996109008,-0.8926663994789124,-0.0448467954993248,-5.492767810821533,5.32969856262207,-22.201509475708008,0.5049656629562378,0.09296393394470216,-1.1578235626220703,990.2352294921876,1,1.0,2,2
12.92,0.42231620000000003,3.0385027,11.06995,0.4623529613018036,-0.12807348370552066,-0.21262584626674647,-7.393857479095459,2.7062721252441406,-21.13917732238769,0.2650637626647949,0.15410470962524414,-2.0270824432373047,990.2073364257812,1,1.0,2,2
12.96,0.7760276999999999,2.4307662999999997,10.312447,0.4623529613018036,-0.12807348370552066,-0.21262584626674647,-7.393857479095459,2.7062721252441406,-21.13917732238769,-0.0189703106880188,0.7563757896423341,-1.2019195556640625,990.2073364257812,1,1.0,2,2
13.0,0.967226,3.3840779999999997,10.158578,0.7510393857955933,-0.15257452428340912,-0.057763192802667625,-7.789844036102295,1.6511192321777344,-21.786256790161133,-0.3120328783988953,0.11997699737548828,-1.033625602722168,990.21240234375,1,1.0,2,2
13.04,0.6923934,3.3530949999999997,10.613082,0.8935182690620422,-0.4405951499938965,-0.25683432817459106,-8.171184539794924,-0.233271598815918,-22.23310661315918,0.08416223526000978,0.06803679466247559,-1.5498733520507812,990.192138671875,1,1.0,2,2
13.08,0.7560538,3.0742726,8.813930000000001,0.8497092723846436,-0.2250124365091324,-0.3708175718784332,-8.493562698364258,-1.957660675048828,-21.77459144592285,0.12226319313049315,1.2142422199249268,-0.6316490173339844,990.1972045898438,1,1.0,2,2
13.12,0.8531196,4.509029,8.285958,1.2208203077316284,-0.1839997619390488,-0.359632283449173,-9.020944595336914,-5.138452529907227,-20.968313217163086,0.1212310791015625,0.09274816513061523,-0.3760337829589844,990.1869506835938,1,1.0,2,2
13.16,0.77179825,3.9584932,8.854080999999999,1.2208203077316284,-0.1839997619390488,-0.359632283449173,-9.020944595336914,-5.138452529907227,-20.968313217163086,0.09695738554000853,1.0332865715026855,-0.6023845672607422,990.1869506835938,1,1.0,2,2
13.2,0.43714738,4.29692,8.761754,1.0426690578460691,-0.441795825958252,-0.4010314047336577,-9.878089904785156,-7.1002564430236825,-20.336515426635746,0.3036660552024841,0.6894931793212891,-0.3130006790161133,990.1716918945312,1,1.0,2,2
13.24,0.49683022,4.6758633000000005,8.321448,1.0967317819595337,-0.21875634789466855,-0.4608190655708313,-10.434656143188477,-9.728915214538574,-19.558046340942386,0.22944915294647214,1.0989522933959959,-0.4659671783447266,990.1871337890624,1,1.0,2,2
13.28,0.43462807,4.7974120000000005,8.423233,0.9932687878608704,-0.13180431723594666,-0.44071194529533386,-10.447023391723633,-11.47917938232422,-18.9918155670166,0.7223140001296997,1.15114164352417,-0.6007561683654785,990.201904296875,1,1.0,2,2
13.32,0.19796312,5.5815125,7.9805600000000005,1.1611814498901367,-0.3266144692897797,-0.33778056502342224,-10.344524383544922,-13.332691192626953,-18.283281326293945,0.1934717893600464,0.589841365814209,-0.4894814491271973,990.2046508789062,1,1.0,2,2
13.36,0.07123363,5.17159,8.212539999999999,0.8274883031845093,0.1375739872455597,-0.2192697525024414,-9.927993774414062,-14.83936595916748,-17.797399520874023,0.5323436260223389,1.318075180053711,-1.1111407279968262,990.2045288085938,1,1.0,2,2
13.4,0.34122790000000003,5.9866724,6.6525474,0.7515890002250671,0.4639439880847931,-0.1910399943590164,-9.60942840576172,-15.700371742248535,-17.180238723754886,0.3582172095775604,1.2067923545837402,-0.003207683563232422,990.1968383789062,1,1.0,2,2
13.44,1.1393905,6.978117999999999,7.5591800000000005,1.2567907571792605,-0.01901994273066521,-0.1577502191066742,-9.077646255493164,-18.204814910888672,-17.577543258666992,-0.5516120195388794,0.0661931037902832,-0.280458927154541,990.1817016601562,1,1.0,2,2
13.48,0.042360722999999996,6.110606,6.9721074000000005,1.0297570228576658,0.3841822147369385,0.0427858904004097,-8.652122497558594,-19.80856704711914,-16.856416702270508,-0.4679675102233887,0.947650909423828,-0.9221529960632324,990.143798828125,1,1.0,2,2
13.52,0.17374063,7.0591526,4.496008,1.5566643476486206,0.09536243230104446,-0.4674748182296753,-7.905017375946045,-23.48264503479004,-14.600992202758787,-0.04307902604341507,0.8457298278808594,1.6489224433898926,990.1917724609376,1,1.0,2,2
13.56,0.27883172,8.033915499999999,5.651197,1.1131157875061035,0.3318507969379425,-0.21607233583927155,-7.595881938934326,-24.98462677001953,-13.944868087768555,-0.3699139654636383,0.4701857566833496,-0.3062252998352051,990.1639404296876,1,1.0,2,2
13.6,-0.5409694,6.949525,6.29507,0.9629144072532654,-0.17108681797981262,-0.4026263356208801,-7.051063060760497,-26.79312896728516,-12.614267349243164,0.18322305381298065,1.333763599395752,-1.5005173683166504,990.1737670898438,1,1.0,2,2
13.64,-0.06544359,7.638294,4.5646396,1.4914187192916868,-0.7298176288604736,-0.4841187298297882,-7.47461462020874,-29.192970275878906,-10.09904670715332,0.12051088362932205,0.9422931671142578,0.1371312141418457,990.1939697265624,1,1.0,2,2
13.68,-0.5960664999999999,7.5429645,4.408398,1.3677157163619995,-0.4360713064670563,-0.20688363909721372,-7.68362283706665,-30.60177803039551,-7.59788703918457,0.18033383786678314,1.1352262496948242,-0.04903125762939453,990.1334228515624,1,1.0,2,2
13.72,0.8640989,8.78942,4.8936687,1.0149809122085571,-0.25484347343444824,-0.099691241979599,-8.023441314697267,-32.500301361083984,-7.5114192962646475,-0.11824320256710052,0.3832530975341797,-0.6554927825927734,990.1610717773438,1,1.0,2,2
13.76,0.31913656,8.022007,4.043837,0.5740956664085388,0.3865782022476196,0.1867317706346512,-7.98800802230835,-32.52032470703125,-6.668882369995117,-1.0143822431564329,0.8540840148925781,-0.6604757308959961,990.1736450195312,1,1.0,2,2
13.8,0.46007609999999993,8.794189999999999,3.7195244,1.0021990537643433,0.4158729016780853,-0.1577475666999817,-7.126410961151122,-34.611183166503906,-6.140413284301758,-0.3530306816101074,0.5961875915527344,-0.14277172088623047,990.20654296875,1,1.0,2,2
13.84,0.68944204,9.058736,3.1016784,1.056528091430664,0.3421032726764679,-0.16879941523075104,-7.020272731781006,-35.19747543334961,-4.736745834350586,-1.2253108024597168,0.2876911163330078,-0.6335599422454834,990.143310546875,1,1.0,2,2
13.88,-0.71349525,8.238891,1.7713047999999998,1.3649224042892456,0.31107738614082336,-0.4794566333293915,-5.858341693878174,-36.95476150512695,-3.7351894378662114,-0.5898071527481079,1.1531848907470703,0.455987811088562,990.1409301757812,1,1.0,2,2
13.92,-1.8631026999999998,8.303241,0.8078476,1.6121975183486938,0.01000717468559742,-0.6971696019172668,-5.311976909637451,-38.34148406982422,-0.6588649749755859,1.6862976551055908,1.3474454879760742,0.8288149237632751,990.1281127929688,1,1.0,2,2
13.96,-0.013383269,9.127856,0.43382370000000003,1.391954779624939,-0.035799261182546616,-0.1971612274646759,-4.667074680328369,-39.52991104125977,1.3128890991210938,-0.6163461208343506,0.848114013671875,0.7171959877014159,990.1229858398438,1,1.0,2,2
14.0,-0.41734135,9.039676,0.7841637,1.0613242387771606,0.037171192467212684,-0.03151249885559082,-4.80023717880249,-40.65660095214844,3.1699752807617188,-0.6336480379104614,0.5773258209228516,0.4739039540290833,990.1304321289062,1,1.0,2,2
14.04,-0.7806711999999999,9.063511,1.0966285,0.7280306220054626,0.16167376935482025,-0.2806507647037506,-4.2540011405944815,-41.35728454589844,4.050615310668944,0.03736603260040283,0.3608388900756836,-0.27116984128952026,990.1328735351562,1,1.0,2,2
14.08,-0.06376526,9.740363,-0.36157405,0.696739137172699,0.4791221916675568,-0.2682667970657349,-2.7526865005493164,-41.9541015625,5.239906311035156,-1.2990036010742188,0.3631477355957031,-0.014528244733810425,990.162841796875,1,1.0,2,2
14.12,-1.1990333999999998,9.08258,-1.3676409999999999,0.9418835639953612,0.7363831996917725,-0.4960997402667999,-1.8795428276062007,-42.13823699951172,6.501852035522461,-0.8861739635467529,0.6247062683105469,0.9347519278526306,990.1805419921876,1,1.0,2,2
14.16,-2.0666323,9.185063000000001,-2.0233616999999997,1.5473531484603882,-0.3971904218196869,-1.0405824184417725,-0.9502291679382324,-43.16574096679688,8.497347831726074,1.0517956018447876,0.6185359954833984,1.9216866493225095,990.1658325195312,1,1.0,2,2
14.2,-0.9577825999999999,9.723685000000001,-0.79242265,0.9057989716529846,-0.4186289608478546,-0.882124125957489,0.8233187198638916,-43.613426208496094,10.328822135925293,-1.6801905632019043,-0.4423990249633789,-0.2179468274116516,990.1756591796876,1,1.0,2,2
14.24,-2.9701447,8.825191,-2.4707751,0.33175566792488104,0.34489861130714417,-1.1537660360336304,2.6733620166778564,-45.25361251831055,11.987335205078125,0.07564425468444824,0.4386148452758789,1.0949254035949707,990.190673828125,1,1.0,2,2
14.28,-4.2535870000000005,7.8599644,-1.2374684999999999,0.6614553928375244,-0.13127432763576508,-1.4300684928894043,5.127285957336426,-44.90552520751953,12.666606903076172,0.5815632343292236,1.0301008224487305,0.4813166856765747,990.1932983398438,1,1.0,2,2
14.32,-4.0935283,8.098293,-1.2351072,0.5461412072181702,-0.6762898564338684,-1.3080955743789673,7.3107643127441415,-45.28522491455078,14.122997283935547,0.4305641651153565,0.9546270370483398,-0.5469750761985779,990.1881713867188,1,1.0,2,2
14.36,-3.9860472999999996,8.012497999999999,-2.160689,0.6133866310119629,-0.26136985421180725,-0.8850525021553041,8.99311637878418,-45.343711853027344,15.175909042358398,-0.09078550338745116,0.7384986877441406,0.6350240707397461,990.19580078125,1,1.0,2,2
14.4,-4.399565,7.96245,-1.703825,0.6133866310119629,-0.26136985421180725,-0.8850525021553041,10.70160961151123,-45.95727920532226,16.41124153137207,0.06903457641601562,0.5343751907348633,0.044465422630310066,990.19580078125,1,1.0,2,2
14.44,-3.854732,8.160264,-2.4092574,0.5998051166534424,-0.18094253540039065,-0.827128529548645,12.818809509277346,-45.87220764160156,17.773664474487305,-0.9653854370117188,0.01839160919189453,-0.18081259727478027,990.1653442382812,1,1.0,2,2
14.48,-4.6434646,7.452431699999999,-3.4792387000000002,0.6413509845733643,-0.18440476059913635,-0.8287262320518494,14.11172103881836,-45.82159423828125,19.41909408569336,-0.5028285980224609,0.7283844947814941,1.442077398300171,990.1753540039062,1,1.0,2,2
14.52,-6.0129423,7.273687400000001,-3.1833443999999997,0.4677142798900604,0.2440973222255707,-1.203299045562744,18.90287971496582,-45.6557846069336,20.28776359558105,0.9757766723632812,0.569732666015625,0.6251301765441895,990.1476440429688,1,1.0,2,2
14.56,-5.6377926,7.221256299999999,-2.0305228,0.4677142798900604,0.2440973222255707,-1.203299045562744,18.90287971496582,-45.6557846069336,20.28776359558105,0.4487719535827637,0.6259832382202148,-0.8142151832580566,990.1476440429688,1,1.0,2,2
14.6,-4.8874283,7.2808399999999995,-2.9868784,0.11697687953710555,0.15661244094371796,-1.1865206956863403,20.69664764404297,-45.34626007080078,20.840065002441406,-1.3803610801696775,0.01422882080078125,0.5227992534637451,990.1476440429688,1,1.0,2,2
14.64,-6.0752745,6.6754894,-3.966906,0.11431436240673065,0.10334917157888412,-0.960684597492218,22.730262756347656,-44.86462783813477,21.037399291992188,-0.4865198135375977,0.3494138717651367,0.949122667312622,990.1878662109376,1,1.0,2,2
14.68,-6.1781044000000005,6.446696299999999,-2.7217636,0.1594555377960205,0.2049485743045807,-1.1420456171035769,24.979507446289066,-44.12854766845703,21.41757202148437,0.2319655418395996,0.8181777000427246,0.6165626049041748,990.1801147460938,1,1.0,2,2
14.72,-6.0897427,6.234586,-3.4934776,0.08542033284902573,0.2339769005775452,-1.1927783489227295,27.26791000366211,-43.67192077636719,21.885046005249023,-1.0549745559692385,-0.039198875427246094,0.33795642852783203,990.1801147460938,1,1.0,2,2
14.76,-6.4028845,5.781765,-3.2875366,-0.3598591983318329,0.25102099776268005,-0.8288574814796448,28.78531646728516,-42.77789306640625,21.75287628173828,-0.5477538108825684,0.3740596771240233,1.4441494941711426,990.1878051757812,1,1.0,2,2
14.8,-7.2513647,4.952385400000001,-0.8990355999999999,-0.12589944899082184,-0.3151667714118957,-1.0546928644180298,32.58324813842773,-40.8544807434082,20.97809600830078,-0.2973122596740723,1.0939307212829592,-2.012123346328736,990.1825561523438,1,1.0,2,2
14.84,-7.2777185,5.0501013,-3.476925,-0.026429850608110428,0.12731698155403134,-1.0557577610015871,34.57854461669922,-39.829551696777344,21.611452102661133,-0.2632880210876465,0.3431005477905273,0.6136281490325928,990.2051391601562,1,1.0,2,2
14.88,-6.044594,4.837990799999999,-2.8401535,0.6803731322288513,-0.4487243890762329,-0.976528525352478,35.928226470947266,-38.566078186035156,21.94541549682617,-1.2723503112792969,0.3487634658813477,-0.08016729354858397,990.1622314453124,1,1.0,2,2
14.92,-10.0705385,3.3460332999999998,-3.1714664,0.534565806388855,-0.6718971729278564,-1.2188757658004759,38.05833435058594,-37.09903335571289,22.84006309509277,0.5351638793945312,0.9474225044250488,1.5291399955749512,990.1317749023438,1,1.0,2,2
14.96,-11.146035000000001,3.112473,-2.830593,0.2420079857110977,-0.5629723072052002,-1.5554943084716797,40.27755355834961,-36.07465744018555,22.66910171508789,2.628578186035156,0.8504099845886229,0.04439592361450195,990.1467895507812,1,1.0,2,2
15.0,-9.80056,3.179206,-4.3550754000000005,0.4117807745933533,-0.6692318320274353,-0.7789186835289001,41.695613861083984,-34.430526733398445,22.04644203186035,1.0785131454467771,0.948179006576538,2.5026192665100098,990.167236328125,1,1.0,2,2
15.04,-10.192544999999999,3.2793047,-1.736953,-0.02843895740807056,-0.7173018455505371,-0.3309752941131592,41.94749450683594,-34.35254669189453,21.772113800048828,1.3802976608276367,0.7429141998291016,0.7379143238067627,990.1897583007812,1,1.0,2,2
15.08,-9.3991375,3.8798913999999995,-1.7961366,-0.3956881761550903,-0.7362103462219238,-0.197151392698288,41.93268585205078,-34.04952621459961,20.44793128967285,1.0694026947021484,0.2244782447814941,-0.17131471633911133,990.1669311523438,1,1.0,2,2
15.12,-7.7812149999999995,4.3470154,-2.1370175,-0.2245798408985138,-0.3067760765552521,0.02801886573433876,42.0863037109375,-33.958023071289055,19.88001251220703,-1.0949163436889648,-0.4072377681732178,0.580291748046875,990.1820678710938,1,1.0,2,2
15.16,-8.443258,4.2135525000000005,-1.2067107,-0.13283362984657288,-0.4814793765544891,-0.03669572249054909,42.26924896240234,-34.31273651123047,18.64082908630371,-0.5943136215209961,-0.3596179485321045,0.1762620210647583,990.1871337890624,1,1.0,2,2
15.2,-8.462419,3.9966752999999997,-1.4529035,-0.21139641106128693,-0.12115403264760972,-0.15893453359603882,42.18498229980469,-33.65380859375,18.07636833190918,-0.5646295547485352,-0.13574004173278809,-0.032802820205688484,990.1820068359376,1,1.0,2,2
15.24,-9.600052,3.4652052,-1.2422262,-0.1111280918121338,-0.0007793212425895035,-0.21699124574661252,42.76598358154297,-33.3201904296875,17.50541114807129,0.3472566604614258,0.2334272861480713,0.1845453977584839,990.2047119140624,1,1.0,2,2
15.28,-9.521225999999999,3.5224050000000005,-1.3700588,-0.15214034914970398,0.07285695523023605,-0.2343016117811203,43.10810852050781,-32.78890991210937,17.113666534423828,0.9071903228759766,0.3526904582977295,0.22407710552215576,990.1920776367188,1,1.0,2,2
15.32,-8.656121,3.8060160000000005,-1.6422908,-0.2124605178833008,0.2783195674419403,0.0051165372133255005,43.09563446044922,-33.432830810546875,17.307235717773438,-0.2586326599121094,0.11826777458190918,0.28648078441619873,990.1871337890624,1,1.0,2,2
15.36,-9.110244,3.6797032,-1.6635993000000002,-0.023109521716833115,0.08550682663917543,0.030949342995882038,43.22254180908203,-33.630210876464844,17.530181884765625,0.21114730834960935,0.09414505958557128,0.290408730506897,990.2047119140624,1,1.0,2,2
15.4,-8.450671,3.8941993999999998,-1.5949543,-0.05919492989778519,0.20348471403121948,0.06610321253538133,42.95601272583008,-32.878944396972656,17.604278564453125,-0.3237466812133789,-0.003275156021118164,0.5123616456985474,990.1742553710938,1,1.0,2,2
15.44,-8.52002,3.684472,-1.2990576,-0.08236402273178099,0.2028188556432724,0.10671653598546982,42.70261001586914,-32.958389282226555,17.95591163635254,-0.5275173187255859,0.2157423496246338,-0.3599511384963989,990.1766357421876,1,1.0,2,2
15.48,-9.148603999999999,3.7798038,-2.2151685000000003,0.1625138223171234,0.1679314225912094,-0.0020733207929879427,42.655540466308594,-33.318435668945305,17.830265045166016,0.3966522216796875,0.031653642654418945,0.9373376369476318,990.1464233398438,1,1.0,2,2
15.52,-8.976571,3.8703693999999995,-1.812748,0.12043630331754684,0.12878292798995972,0.06916634738445282,42.78480529785156,-33.25049591064453,18.499229431152344,-0.0659341812133789,-0.09682989120483397,0.3464878797531128,990.2069702148438,1,1.0,2,2
15.56,-8.393476,3.789339,-1.8293221000000002,0.12043630331754684,0.12878292798995972,0.06916634738445282,42.46468734741211,-33.603225708007805,19.031103134155273,-0.4996395111083984,0.1272141933441162,0.01825106143951416,990.2069702148438,1,1.0,2,2
15.6,-9.165455,3.5843778,-1.8529977999999998,-0.0682477205991745,0.03397433459758758,0.02881982363760472,42.30555725097656,-32.856651306152344,18.934955596923828,0.2882804870605469,0.4490017890930176,0.22051000595092773,990.1742553710938,1,1.0,2,2
15.64,-8.847639,3.9323373,-1.7725167000000002,-0.0682477205991745,0.03397433459758758,0.02881982363760472,42.712005615234375,-33.52967071533203,18.98868751525879,0.2145557403564453,0.2268071174621582,0.3261528015136719,990.1742553710938,1,1.0,2,2
15.68,-8.7592535,3.8822900000000002,-1.5713083,-0.25706490874290466,0.06753000617027283,0.1685028374195099,42.442378997802734,-34.413917541503906,18.466102600097656,0.016208648681640625,0.22800135612487796,0.05818843841552735,990.1942749023438,1,1.0,2,2
15.72,-8.450994999999999,3.9752388,-1.2659428,-0.25706490874290466,0.06753000617027283,0.1685028374195099,42.11968612670898,-32.81926727294922,17.806644439697266,-0.3159732818603516,0.10623550415039062,-0.04304957389831543,990.1942749023438,1,1.0,2,2
15.76,-8.632669,4.096787,-1.5713155,-0.23296290636062625,0.014666236937046053,0.09193719178438188,42.16808319091797,-34.196231842041016,17.802772521972656,-0.2657642364501953,0.04795455932617188,-0.07434582710266112,990.2017822265624,1,1.0,2,2
15.8,-8.852580999999999,3.9204254,-1.2612158000000002,-0.12603668868541718,-0.07148700952529907,0.0222957581281662,41.83734130859375,-33.34701156616211,17.804048538208008,0.08494186401367188,0.1106569766998291,-0.0634986162185669,990.206787109375,1,1.0,2,2
15.84,-8.699667999999999,3.8441615,-1.2138753999999998,-0.161190003156662,0.09282982349395752,-0.07530884444713593,42.35368347167969,-33.653488159179695,17.434478759765625,-0.15531253814697266,0.17122602462768555,-0.19390082359313965,990.1967163085938,1,1.0,2,2
15.88,-8.98117,3.6677866000000003,-1.3085171999999998,-0.2787680923938751,0.0559450089931488,-0.09142078459262848,42.72845077514648,-34.145606994628906,17.713462829589844,0.1970806121826172,0.43761754035949707,-0.0762932300567627,990.20654296875,1,1.0,2,2
15.92,-8.779877,3.7702541,-1.3487102,-0.19847343862056727,-0.00916928704828024,-0.056666400283575065,42.27438735961914,-33.464344024658196,17.435630798339847,-0.11610984802246095,0.2983405590057373,-0.14384496212005615,990.1837768554688,1,1.0,2,2
15.96,-9.045152,3.8798847000000003,-1.4623356,-0.23655621707439425,0.08004647493362428,-0.018849378451704982,42.1422119140625,-33.429317474365234,16.222198486328125,0.35587501525878906,0.2902286052703857,0.07180416584014893,990.1713256835938,1,1.0,2,2
16.0,-8.736851,4.0419480000000005,-1.4765384,-0.21832393109798431,0.11040814965963364,-0.0293732900172472,42.62825775146485,-33.65933990478516,16.699649810791016,-0.17249584197998047,0.002829551696777344,0.03723406791687012,990.1786499023438,1,1.0,2,2
16.04,-8.763137,4.018115,-1.5499213,-0.16585975885391235,0.07458867877721786,-0.0006111913826316595,42.69649505615234,-33.38458251953125,16.442106246948242,0.1493825912475586,0.14868497848510742,0.0972905158996582,990.1837768554688,1,1.0,2,2
16.08,-8.555211,4.075313599999999,-1.5215145,-0.16293029487133026,0.12385713309049605,-0.021117530763149258,42.63891220092773,-33.64902114868164,16.158515930175778,-0.35501956939697266,0.004331111907958984,0.1526331901550293,990.1861572265624,0,0.0,0,1
16.12,-8.758348,4.046714,-1.4599669,-0.25680676102638245,0.13863767683506012,-0.012728611007332802,42.57499694824219,-32.918933868408196,16.510566711425778,0.08573436737060547,0.1297309398651123,0.0444943904876709,990.1912231445312,0,0.0,0,1
16.16,-8.720106,4.013348000000001,-1.3865833,-0.2311072647571564,0.10122030228376387,0.0067124320194125175,42.65193176269531,-33.37339401245117,16.063396453857422,-0.12098503112792967,0.08092021942138672,-0.05937266349792481,990.1912841796876,0,0.0,0,1
16.2,-8.595828,4.0562468,-1.5475528,-0.22444941103458405,0.12399031221866608,0.01816399954259396,42.89329528808594,-33.199817657470696,15.631124496459961,-0.12937068939208984,0.10431146621704103,0.15565907955169678,990.2188110351562,0,0.0,0,1
16.24,-8.71532,4.0776962999999995,-1.4457626000000001,-0.20713892579078674,0.04822344332933426,0.04159978404641152,42.46896362304688,-33.43898391723633,15.479555130004885,-0.045327186584472656,0.1680469512939453,0.017238974571228027,990.21630859375,0,0.0,0,1
16.28,-8.772673,4.049097,-0.9060402,-0.2504153251647949,0.1061471551656723,0.05797819420695305,42.61910629272461,-34.088478088378906,15.3404541015625,0.08385944366455078,0.0975632667541504,-0.3582078218460083,990.2060546875,0,0.0,0,1
16.32,-8.392674000000001,3.9895148000000002,-1.1545961,-0.1674579381942749,0.04649240151047706,0.07076133787631989,42.99596405029297,-33.735153198242195,14.56884765625,-0.2881698608398437,0.2481551170349121,-0.3479781150817871,990.2288208007812,0,0.0,0,1
16.36,-8.6818495,4.0538635,-1.3013622999999999,0.0013862964697182178,0.02026029303669929,0.05491552874445915,42.60209655761719,-33.52455902099609,14.69420337677002,-0.16391277313232422,0.3207497596740723,-0.1987820863723755,990.2138061523438,0,0.0,0,1
16.4,-8.896936,4.0824622999999995,-1.4149877,-0.013793746940791609,0.098290853202343,0.033743396401405334,42.64872741699219,-33.90256118774414,15.0940580368042,0.19462299346923828,0.18490314483642575,-0.07166039943695067,990.1910400390624,0,0.0,0,1
16.44,-8.526498,4.2445260000000005,-1.3202993,-0.21779175102710724,0.2725945711135864,0.13281288743019104,41.7852783203125,-33.657569885253906,15.28976058959961,-0.12902259826660156,0.13312673568725586,-0.1994004249572754,990.2062377929688,0,0.0,0,1
16.48,-8.36159,4.1706433,-1.4126197,-0.2207212746143341,0.12798509001731873,0.2081802636384964,41.415626525878906,-33.52932357788086,14.877313613891602,-0.2419643402099609,0.18415307998657227,-0.130393385887146,990.2186889648438,0,0.0,0,1
16.52,-8.371146000000001,4.1372776,-0.7947795999999999,-0.230708122253418,0.11213929951190947,0.19513076543807986,41.50391387939453,-33.81554412841797,15.111409187316895,-0.1683502197265625,0.4365739822387695,-0.3734318017959595,990.1631469726562,0,0.0,0,1
16.56,-8.380702000000001,4.5043025000000005,-0.9368114,-0.1787765920162201,-0.0031754726078361273,0.1955302506685257,41.269752502441406,-33.50754547119141,14.359626770019533,0.0862283706665039,0.4587874412536621,-1.2294341325759888,990.19091796875,0,0.0,0,1
16.6,-7.835800999999999,4.4709363,-1.1096168,0.1973945647478104,-0.20344500243663788,0.1895381063222885,41.07156753540039,-33.58787155151367,14.548835754394533,-0.4889106750488281,0.4583210945129394,0.3795847892761231,990.2032470703124,0,0.0,0,1
16.64,-8.079566999999999,4.880860299999999,-0.27872846,-0.04428713023662567,-0.3869366645812988,0.07555489242076874,40.569862365722656,-34.110633850097656,15.118640899658205,-0.6212148666381836,-0.24396514892578125,-1.0102859735488892,990.1754150390624,0,0.0,0,1
16.68,-8.158430000000001,5.0238566,-0.7758404999999999,-0.08849561214447021,-0.0925244390964508,-0.01991935819387436,40.70082092285156,-32.72304534912109,13.939486503601074,-0.3308448791503906,-0.2590951919555664,-0.5165028572082521,990.1831665039062,0,0.0,0,1
16.72,-8.146478,5.3646650000000005,-0.9462788000000001,0.11523601412773132,-0.15470917522907254,-0.05826885998249054,40.05064392089844,-32.488922119140625,13.87200927734375,-0.4901609420776367,-0.8157792091369629,-0.2465753555297852,990.188232421875,0,0.0,0,1
16.76,-8.344834,4.8498774000000004,-1.5309774999999999,0.3553197383880615,-0.3007834255695343,-0.21073471009731293,40.311927795410156,-32.982234954833984,14.630455017089846,-0.4832048416137695,-0.5244855880737305,0.014747977256774902,990.208251953125,0,0.0,0,1
16.8,-8.638788,4.542434,-1.4362891000000002,0.2306838780641556,0.10960932821035384,-0.3102037310600281,40.44839859008789,-32.432723999023445,14.115365982055664,-0.13422107696533206,-0.27771806716918945,0.3980703353881836,990.165283203125,0,0.0,0,1
16.84,-9.917382,3.9156318,-1.6517041000000001,0.07781852036714554,0.0901682823896408,-0.2766479551792145,40.73267364501953,-32.37772750854492,14.83818531036377,1.0437841415405271,0.33092093467712397,0.12263166904449466,990.2032470703124,0,0.0,0,1
16.88,-9.317832000000001,4.04672,-1.8931875,0.18660850822925568,-0.05417491868138313,-0.11432841420173645,40.60424423217773,-32.18181610107422,14.692543029785154,0.902512550354004,0.3990738391876221,0.4260510206222534,990.1979370117188,0,0.0,0,1
16.92,-8.517549,4.146826,-1.9689683999999998,-0.10327407717704773,0.05208475887775421,0.2686347663402557,40.17534637451172,-32.425399780273445,14.77288818359375,-0.0946035385131836,0.2740163803100586,0.9776664972305298,990.1851196289062,0,0.0,0,1
16.96,-8.833036,4.0800943,-1.3392947,-0.10327407717704773,0.05208475887775421,0.2686347663402557,39.68291473388672,-32.83340835571289,14.179784774780273,0.09180736541748047,0.4994120597839356,0.07955610752105713,990.1851196289062,0,0.0,0,1
17.0,-9.002742,4.361322400000001,-0.89899695,-0.28276705741882324,-0.02568012103438377,0.3483980596065521,38.8753662109375,-32.851669311523445,13.612434387207033,0.3651828765869141,0.3576550483703613,-0.05591893196105957,990.1953735351562,0,0.0,0,1
17.04,-8.866538,4.4352045,-1.3061578,-0.21272577345371246,-0.040061213076114655,0.3112470805644989,38.08732986450195,-33.062610626220696,13.438274383544922,0.5205669403076172,0.5328125953674316,-0.11812794208526613,990.1826171875,0,0.0,0,1
17.08,-8.646689,4.8332120000000005,-1.3937461000000002,-0.06159130483865737,-0.06962230801582336,0.3442703485488892,37.54508972167969,-33.201473236083984,13.29900360107422,0.24454116821289065,0.053252220153808594,0.3260596990585327,990.2180786132812,0,0.0,0,1
17.12,-9.000417,4.5758185,-1.3156303999999999,0.09327159076929092,0.005478739738464356,0.39620205760002136,37.12572479248047,-33.910438537597656,13.71304702758789,0.8721857070922852,0.8852748870849609,0.4997715950012207,990.2206420898438,0,0.0,0,1
17.16,-7.9225917,5.2669697,-0.65044856,0.1398770809173584,-0.22954505681991574,0.31697311997413635,36.43388748168945,-33.76809310913086,13.811328887939453,-0.4020709991455078,-0.4332141876220703,-0.6632093787193298,990.1952514648438,0,0.0,0,1
17.2,-8.23569,5.1644893,-1.3440409,-0.1256396472454071,-0.1877335011959076,0.3603827357292175,35.74686050415039,-34.621761322021484,13.351273536682127,-0.21526336669921875,0.10534048080444336,0.5612062811851501,990.2052001953124,0,0.0,0,1
17.24,-8.465143,4.969061,-0.34981784,-0.1731768399477005,-0.007038215175271034,0.2619791030883789,36.0478744506836,-34.550559997558594,13.223737716674805,0.3759250640869141,0.2540211677551269,-0.06396090984344482,990.1776733398438,0,0.0,0,1
17.28,-8.254852,5.0596266,-0.7877523,-0.0994071215391159,-0.12621457874774933,0.03561069071292877,36.22817993164063,-35.38242721557617,12.93669319152832,0.03859424591064453,0.13183259963989258,-0.33096253871917725,990.1876220703124,0,0.0,0,1
17.32,-8.62531,4.8189154,-0.9416224,-0.11232322454452516,-0.23087677359580994,-0.06412451714277267,36.16494369506836,-34.91471099853516,12.688116073608398,0.0842580795288086,0.30379581451416016,0.03906887769699097,990.195068359375,0,0.0,0,1
17.36,-8.577534,4.81415,-0.7640842,-0.21578651666641235,0.08550643175840378,-0.14095649123191833,36.779693603515625,-35.12880706787109,11.913053512573242,0.4464759826660156,0.3223981857299805,0.09174096584320067,990.1799926757812,0,0.0,0,1
17.4,-8.314666,4.852282499999999,-0.76171887,-0.33602797985076904,0.11386903375387193,-0.004336339421570301,36.81928634643555,-34.670204162597656,11.726150512695312,-0.037624359130859375,0.3097743988037109,-0.06636786460876465,990.1900634765624,0,0.0,0,1
17.44,-8.350535,4.8236837,-0.67650163,-0.4805041253566742,0.3747254014015198,0.016303231939673424,36.56425094604492,-33.644779205322266,11.782432556152346,0.08680152893066406,0.28429317474365234,-0.13710904121398926,990.1922607421876,0,0.0,0,1
17.48,-8.305149,4.828451,-0.75462127,-0.380102813243866,0.2487579733133316,-0.020048795267939568,37.19201278686523,-33.58324813842773,10.912252426147461,-0.014546394348144531,0.3210039138793945,-0.16439235210418698,990.1721801757812,0,0.0,0,1
17.52,-8.395986,4.7259703,-1.254103,-0.30193892121315,0.21307159960269928,-0.04801187664270401,36.80683898925781,-34.10186767578125,10.847983360290527,0.06629657745361328,0.3672327995300293,0.3312408924102783,990.1922607421876,0,0.0,0,1
17.56,-8.508333,4.959532299999999,-0.83511007,-0.3798360824584961,0.2094763070344925,-0.0645233690738678,37.100379943847656,-33.93210983276367,10.407896041870117,0.03898048400878906,0.1941924095153809,0.2002282738685608,990.1544189453124,0,0.0,0,1
17.6,-8.833383,4.904717,-0.6149621999999999,-0.4852969646453858,0.12971465289592746,-0.05786538496613504,37.31158447265625,-33.576160430908196,10.12356948852539,0.6110286712646484,0.2819666862487793,-0.08664995431900024,990.17724609375,0,0.0,0,1
17.64,-8.037564999999999,5.178795,-0.5865578,-0.5163225531578064,0.18177936971187592,-0.00034106592647731304,37.46824645996094,-33.481704711914055,9.401042938232422,-0.1530141830444336,0.008111000061035156,-0.17044055461883545,990.1922607421876,0,0.0,0,1
17.68,-8.171422,5.252676999999999,-0.43742603,-0.4249760210514069,0.1419651359319687,0.061710618436336524,37.38841247558594,-32.92427444458008,9.303743362426758,-0.17105388641357422,0.043099403381347656,-0.019549787044525143,990.1770629882812,0,0.0,0,1
17.72,-8.137984,5.5458207,0.03364528,-0.4402889907360077,0.1094745546579361,0.06823545694351196,37.343299865722656,-32.5447998046875,8.826583862304688,-0.05100250244140625,-0.22491216659545896,-0.5088982582092285,990.1920776367188,0,0.0,0,1
17.76,-7.8727274000000005,5.917612999999999,0.37215322,-0.407931387424469,0.0961587205529213,0.13920871913433075,37.44170379638672,-32.452415466308594,8.421092987060549,-0.3673181533813477,-0.5245761871337891,-0.9211201071739196,990.166748046875,0,0.0,0,1
17.8,-7.956395,6.0701427,0.23958795,-0.3167179822921753,0.2012203186750412,0.12149882316589355,37.64263153076172,-33.00128936767578,7.652402877807617,-0.16828441619873047,-0.6777577400207521,-0.5802958011627197,990.1870727539062,0,0.0,0,1
17.84,-7.903839,5.8413486,0.045475364000000004,-0.15959139168262482,0.16912920773029327,0.016037806868553158,37.30982208251953,-31.785245895385746,7.6325321197509775,-0.37029504776000977,-0.6147994995117188,-0.8148277401924133,990.184326171875,0,0.0,0,1
17.88,-8.191127999999999,5.3766217,-0.1912907,0.018174665048718446,0.1998886615037918,-0.13509635627269745,37.745216369628906,-32.00997543334961,8.040494918823242,-0.0912761688232422,-0.2289714813232422,-0.5180101990699768,990.1767578125,0,0.0,0,1
17.92,-8.14815,5.0906296,-0.6718365,0.13841694593429565,0.1600743681192398,-0.2279002666473389,38.33064270019531,-31.777854919433594,7.9367008209228525,-0.11967754364013672,0.04833173751831055,-0.16085189580917358,990.1865844726562,0,0.0,0,1
17.96,-8.222278,4.7927203,-0.8825213,0.17636847496032715,0.157011479139328,-0.21125487983226776,38.41230010986328,-31.701675415039066,8.381567001342772,-0.22429656982421875,0.19721126556396484,0.0018097758293151851,990.201904296875,0,0.0,0,1
18.0,-8.762437,4.563927,-0.8209777,0.09620777517557144,0.1914993077516556,-0.2180457711219788,38.76067733764648,-30.638282775878906,8.804550170898438,0.2990379333496094,0.4857439994812012,-0.16434162855148315,990.1766357421876,0,0.0,0,1
18.04,-8.752917,4.544862,-0.8848958,0.002198666799813509,0.22785136103630066,-0.16118714213371274,38.812278747558594,-31.48608016967773,9.770018577575684,0.4465169906616211,0.4052577018737793,-0.08577108383178711,990.2119750976562,0,0.0,0,1
18.08,-8.523528,4.6354275000000005,-0.8422898999999999,-0.07117096334695816,0.1913660168647766,-0.054660625755786896,39.37846374511719,-31.64139175415039,10.76963996887207,0.1644906997680664,0.4550580978393554,-0.3166269063949585,990.2044067382812,0,0.0,0,1
18.12,-8.516397999999999,4.666411,-0.88016886,-0.13721692562103271,0.25807809829711914,0.0031300820410251613,39.76485443115234,-31.75343513488769,10.331732749938963,0.11240863800048828,0.27815675735473633,-0.06614971160888672,990.1990356445312,0,0.0,0,1
18.16,-8.621594,4.623513,-0.66002274,-0.15492653846740725,0.12998010218143466,-0.04653766006231308,39.72279357910156,-31.371013641357425,9.699962615966797,0.2706422805786133,0.3878211975097656,-0.5017275810241699,990.178955078125,0,0.0,0,1
18.2,-8.509309,4.6258974,-0.9038483,-0.15492653846740725,0.12998010218143466,-0.04653766006231308,40.10079193115234,-30.12170791625977,9.876550674438477,0.09115123748779297,0.3025069236755371,-0.18817555904388428,990.178955078125,0,0.0,0,1
18.24,-8.495011,4.654497599999999,-0.46828679999999995,-0.15931996703147888,0.07631731778383255,-0.016843108460307118,40.20623016357422,-30.865930557250977,10.057818412780762,0.1115884780883789,0.3049111366271973,-0.7318951487541199,990.2091674804688,0,0.0,0,1
18.28,-8.203484,4.933342,-0.5345721999999999,-0.15931996703147888,0.07631731778383255,-0.016843108460307118,40.20623016357422,-30.865930557250977,10.057818412780762,-0.0006246566772460938,0.1948261260986328,-0.7390159368515015,990.2091674804688,0,0.0,0,1
18.32,-8.100759,5.1454544,-0.77603054,-0.1806248426437378,0.09043199568986893,0.04148023948073387,39.89980697631836,-31.205400466918945,9.89394760131836,-0.3625369071960449,-0.10646486282348633,-0.2755709290504456,990.2037963867188,0,0.0,0,1
18.36,-8.530981,5.1383057,-0.6387364999999999,-0.07915809750556946,0.1086745709180832,0.09101516753435136,40.05785751342773,-31.21539688110352,9.793193817138672,0.15610218048095706,-0.10309505462646484,-0.368147075176239,990.18896484375,0,0.0,0,1
18.4,-8.189264999999999,5.414767299999999,-0.8423196,-0.028557687997817993,0.03850027173757553,0.014848986640572546,39.827980041503906,-31.11481475830078,10.20765209197998,-0.029038429260253906,-0.2960467338562012,-0.3559655547142029,990.1862182617188,0,0.0,0,1
18.44,-8.143898,5.457667400000001,-0.8825658000000002,-0.04200625047087669,0.031709153205156326,0.0338907428085804,39.77678680419922,-30.74122428894043,10.039712905883787,-0.28567028045654297,-0.4460501670837401,-0.08218860626220703,990.1937255859376,0,0.0,0,1
18.48,-8.643428,5.0215287,-0.64111483,-0.04134007170796394,0.0038790814578533173,0.06345196813344955,39.72765731811523,-30.734458923339844,9.892919540405273,0.18936443328857425,-0.10528945922851562,-0.4228032827377319,990.2012329101562,0,0.0,0,1
18.52,-8.304103,4.852317,-0.8186587,-0.12256602942943573,-0.02514941431581974,-0.08129054307937622,40.3032455444336,-30.669103622436523,9.030555725097656,0.11020565032958984,0.15109491348266602,-0.40067410469055176,990.1835327148438,0,0.0,0,1
18.56,-8.347161,4.7140875,-1.2139852,-0.0667724460363388,-0.009836314246058464,-0.1661119908094406,40.648529052734375,-31.24122810363769,8.856857299804688,-0.1784534454345703,0.17441129684448242,0.19432485103607175,990.2063598632812,0,0.0,0,1
18.6,-8.469087,4.661656400000001,-1.1595433000000002,0.0410858690738678,0.03224153444170952,-0.08781494945287703,40.59857940673828,-31.07800102233887,10.00976848602295,0.14960098266601562,0.30342817306518555,-0.004528522491455078,990.1908569335938,0,0.0,0,1
18.64,-8.015046,4.9023685,-1.4081032,0.04561363160610199,0.03690199926495552,-0.09726899117231368,40.76934051513672,-31.44449806213379,9.38902473449707,-0.331416130065918,0.05981636047363281,0.2032337188720703,990.1909790039062,0,0.0,0,1
18.68,-7.917101,4.976251,-1.5880143999999998,0.0311001930385828,0.03916555643081665,0.0583929754793644,40.17688369750977,-30.840015411376953,8.906059265136719,-0.43679141998291016,0.046396732330322266,0.5078058242797852,990.208740234375,0,0.0,0,1
18.72,-8.1895895,5.2050467000000005,-1.202164,-0.022428905591368675,0.024384958669543263,0.04960471764206886,40.46724319458008,-30.77911949157715,9.319658279418944,-0.3514432907104492,-0.2346343994140625,0.10353362560272217,990.1934204101562,0,0.0,0,1
18.76,-8.364094,5.3647275,-1.1382535,-0.013773247599601746,0.02318647317588329,0.018445927649736404,40.937904357910156,-31.55009651184082,9.446212768554688,0.07754325866699219,-0.2903447151184082,-0.13673663139343262,990.2059326171876,0,0.0,0,1
18.8,-8.115584,5.4719763,-1.5477831,0.09301980584859848,0.015330092981457709,0.060524005442857735,40.5463981628418,-31.074180603027344,10.017585754394533,-0.23665809631347656,-0.4666519165039063,0.5620832443237305,990.196044921875,0,0.0,0,1
18.84,-8.227888,5.390944,-1.3157952,0.1402912735939026,-0.09412579983472824,0.023239945992827412,40.09785461425781,-31.231000900268555,10.403818130493164,-0.08783435821533203,-0.3647441864013672,0.10917484760284424,990.1681518554688,0,0.0,0,1
18.88,-7.869376700000001,5.238414,-1.5477786,0.16106398403644562,-0.04805316403508186,-0.033352136611938484,40.28218078613281,-31.69015312194824,9.786405563354492,-0.4488210678100586,-0.367699146270752,0.3037585020065308,990.190673828125,0,0.0,0,1
18.92,-8.094063,4.8618565,-1.7584629,0.16572216153144834,0.013865675777196884,-0.10631950199604034,40.78124237060547,-31.644550323486328,10.168739318847656,-0.3668041229248047,-0.02143239974975586,0.5136305093765259,990.1856689453124,0,0.0,0,1
18.96,-8.29485,4.568714,-1.6874502,0.09874407202005386,0.05514458194375038,-0.1807546466588974,40.702247619628906,-30.82326889038086,10.594762802124023,-0.2032785415649414,0.17572259902954102,0.436883807182312,990.2080688476562,0,0.0,0,1
19.0,-8.314005,4.385203,-1.8365871,0.15280653536319733,-0.01662760227918625,-0.1515928953886032,41.19905471801758,-32.14932632446289,10.903736114501953,-0.10823631286621094,0.4016928672790527,0.3663725852966309,990.1954345703124,0,0.0,0,1
