Timestamp,Ax,Ay,Az,Gx,Gy,Gz,Mx,My,Mz,LiAx,LiAy,LiAz,P,Value,Type,GroupType,Activities
0.0,0.07767758,-0.14639159,9.7439995,0.0011817654594779015,-0.004319714847952128,-0.00019314594101160765,-9.844874382019043,22.12086296081543,-39.01649475097656,-0.027705367654562,0.017476350069046017,0.04599571228027344,988.3328857421876,0,13.0,1,1
0.04,0.08008480000000001,-0.14639191,9.765305999999999,0.0002490124898031354,0.0015393393114209175,7.289240602403879e-05,-9.441169738769533,22.0770320892334,-38.38328552246094,0.005485542118549347,0.051273174583911896,0.05579853057861328,988.4219970703124,0,13.0,1,1
0.08,0.08249205,-0.15592547,9.760572,0.00023979711113497612,0.0007343479664996266,5.424767732620239e-05,-6.039555072784424,25.472368240356445,-38.02835083007813,-0.004120707511901856,0.06082984060049058,0.05106258392333984,988.2560424804688,0,13.0,1,1
0.12,0.06578010000000001,-0.15115936,9.753473,0.00023979711113497612,0.0007343479664996266,5.424767732620239e-05,-6.039555072784424,25.472368240356445,-38.02835083007813,0.005457386374473572,0.0557023212313652,0.05579185485839844,988.2560424804688,0,13.0,1,1
0.16,0.07774699,-0.15115975,9.767677,0.0002394626499153674,0.00046808633487671614,5.410425364971161e-05,-6.782292366027832,26.62042808532715,-37.67314147949219,-0.008940428495407104,0.06513016670942308,0.03211688995361328,988.2808837890624,0,13.0,1,1
0.2,0.061035007,-0.14162709,9.772413,0.0005056111258454621,0.00046811357606202364,-0.00021228333935141566,-6.856616497039795,26.33978080749512,-37.10637283325195,0.019361838698387143,0.045881882309913635,0.04632091522216797,988.29150390625,0,13.0,1,1
0.24,0.07300189,-0.15592714,9.772414999999999,0.00010597013169899584,0.00020182481966912744,-0.00034551299177110195,-6.122437477111816,26.02685356140137,-37.97104263305664,0.0048848241567611686,0.06455407291650772,0.05105113983154297,988.29150390625,0,13.0,1,1
0.28,0.07540917400000001,-0.15354432,9.760581,-0.0004268289194442332,0.00046816782560199505,5.3889176342636354e-05,-6.082437992095947,26.01124763488769,-37.36042022705078,-0.00020215660333633423,0.054575830698013306,0.06525039672851562,988.2992553710938,0,13.0,1,1
0.32,0.07985097,-0.14638616,9.767652,0.00023879349464550612,0.00046819506678730255,-0.0003456564154475928,-6.037191867828369,25.73768424987793,-37.58233642578125,-0.0046928003430366525,0.05433179438114166,0.03210258483886719,988.3117065429688,0,13.0,1,1
0.36,0.07471156,-0.15114392,9.760517,0.0002386262058280408,-0.0007301993318833411,-7.941212970763445e-05,-6.311628341674805,25.849454879760746,-37.54658508300781,0.0009384900331497193,0.058918952941894524,0.04163360595703125,988.3444213867188,0,13.0,1,1
0.4,0.07231027,-0.14876040000000001,9.777086,0.00011050369357690215,-0.0003315429203212261,-0.0002104121376760304,-6.316056251525879,25.95094871520996,-38.01374816894531,-0.0035799294710159297,0.0584825873374939,0.02742481231689453,988.2966918945312,0,13.0,1,1
0.44,0.06273925,-0.14637677,9.765249,-0.00015400262782350183,-0.00046499463496729726,-0.00047595240175724035,-6.545790195465088,26.15744590759277,-38.29837036132813,0.019950047135353092,0.04395683109760285,0.06056785583496094,988.2966918945312,0,13.0,1,1
0.48,0.06511772,-0.1582929,9.767615,-0.00015389261534437537,0.0004670930793508887,0.00018988444935530424,-6.134368896484375,25.0146427154541,-37.67902374267578,0.010702602565288544,0.05289764702320099,0.05109310150146485,988.288818359375,0,13.0,1,1
0.52,0.07944572,-0.15114279,9.772348,-0.000286940427031368,-0.0008645041380077599,5.677371518686414e-05,-5.902432441711426,24.5472469329834,-38.07233428955078,-0.008438028395175934,0.06224864721298218,0.032154083251953125,988.29638671875,0,13.0,1,1
0.56,0.0770444,-0.15114249999999999,9.777082,0.0001126432907767594,0.0002007414004765451,5.6820805184543126e-05,-6.193717956542969,25.7491512298584,-37.55888748168945,0.001047469675540924,0.04761183261871338,0.027418136596679688,988.2816162109376,0,13.0,1,1
0.6,0.074643075,-0.15352555,9.788917999999999,-0.0002867202856577933,-0.00033190820249728864,0.00019002595217898488,-6.480329990386963,25.84913444519043,-36.90469741821289,0.005966886878013611,0.05188681185245514,0.008475303649902344,988.288818359375,0,13.0,1,1
0.64,0.08658114,-0.15829179999999998,9.767611,-2.0294624846428636e-05,-6.56101037748158e-05,-0.0006088746013119818,-6.168257236480713,25.45644187927246,-36.77583694458008,-0.017777040600776672,0.04685580730438232,0.04161357879638672,988.2913818359376,0,13.0,1,1
0.68,0.077010155,-0.15352495,9.774712,0.0001129735610447824,0.00033384584821760654,-0.0006088273366913199,-6.368774890899657,26.32306480407715,-38.10438537597656,-0.008515283465385437,0.050773754715919495,0.03687477111816406,988.2836303710938,0,13.0,1,1
0.72,0.0746088,-0.13922505,9.781813,-0.0014848117716610432,0.00033382803667336697,-7.614842616021633e-05,-6.12493896484375,25.65561866760254,-37.71797943115234,0.010439753532409668,0.04580210894346237,0.03213977813720703,988.294189453125,0,13.0,1,1
0.76,0.0865469,-0.14637454,9.769976,-1.9854342099279165e-05,-0.0015304188709706068,0.00019026186782866722,-6.433424472808838,25.68296241760254,-37.90299987792969,-0.012840837240219116,0.04532995074987412,0.04160118103027344,988.294189453125,0,13.0,1,1
0.8,0.06741631,-0.14637429999999998,9.777077,-1.9854342099279165e-05,-0.0015304188709706068,0.00019026186782866722,-6.433424472808838,25.68296241760254,-37.90299987792969,0.006228148937225342,0.04532904922962189,0.03213310241699219,988.294189453125,0,13.0,1,1
0.84,0.08413416,-0.15352388,9.75577,0.00011341372737661004,0.00033377448562532663,-7.600686512887478e-05,-6.091837406158447,26.58253288269043,-38.39319610595703,-0.0029461905360221863,0.05925045162439346,0.055800437927246094,988.2867431640624,0,13.0,1,1
0.88,0.06739342,-0.148757,9.769972000000001,-0.0002859501983039081,-0.00046519114403054124,0.0004566719580907375,-6.27605676651001,25.93534278869629,-37.40312576293945,0.0067743659019470215,0.049422696232795715,0.03212451934814453,988.27392578125,0,13.0,1,1
0.92,0.08411133,-0.14875676,9.755768,0.00024679157650098205,-0.0009978406596928835,0.00045671907719224686,-6.59878396987915,26.317724227905273,-36.99084854125977,-0.00706317275762558,0.049076281487941735,0.041586875915527344,988.2943725585938,0,13.0,1,1
0.96,0.0697605,-0.15113969,9.762869,-1.9414059352129694e-05,-0.0009978585876524446,-7.586547872051597e-05,-6.241869926452638,26.12568473815918,-37.881439208984375,0.007421433925628662,0.0581856369972229,0.04158306121826172,988.27392578125,0,13.0,1,1
1.0,0.07930869,-0.15828924,9.774704,-0.0004187779850326479,6.738706724718213e-05,5.733966827392578e-05,-6.231353759765625,26.030073165893555,-37.72349548339844,-0.0015846490859985352,0.05820199847221375,0.032111167907714844,988.2867431640624,0,13.0,1,1
1.04,0.067347765,-0.14637263,9.767600999999999,0.000380279787350446,-0.0016636839136481285,5.738670006394386e-05,-6.156486034393311,25.94243049621582,-38.191810607910156,0.007994517683982849,0.058019347488880164,0.02737617492675781,988.2613525390624,0,13.0,1,1
1.08,0.0816758,-0.14875560000000002,9.774701,0.0007798636215738952,-0.0003321224940009415,-7.572403410449624e-05,-5.915801048278809,26.37838554382324,-38.02345275878906,-0.0018724054098129272,0.033665597438812256,0.04157733917236328,988.2840576171876,0,13.0,1,1
1.12,0.08644414,-0.15113856,9.767599,-0.0006847637123428285,0.0005999651039019227,-0.0006083085900172591,-5.928818225860597,26.10275077819824,-37.92833709716797,-0.011393800377845764,0.05260738730430603,0.03210735321044922,988.2989501953124,0,13.0,1,1
1.16,0.07926303,-0.17020456,9.767597,0.0005137676489539443,0.0008662632899358869,-0.0006082614418119192,-6.25336503982544,25.85152244567871,-37.863624572753906,0.0027323514223098755,0.06657072901725769,0.03210639953613281,988.28662109375,0,13.0,1,1
1.2,0.07686174,-0.14637144,9.758127,-0.000285069749224931,0.00020045565906912088,5.757540930062533e-05,-6.374863624572754,26.317174911499023,-37.795166015625,-0.001986049115657807,0.051847197115421295,0.04157161712646485,988.303955078125,0,13.0,1,1
1.24,0.076850295,-0.13922139,9.822041,-0.0005512757343240082,-0.00033219397300854325,0.00019078049808740616,-5.937812328338622,26.1998348236084,-38.16358184814453,0.002909064292907715,0.037025175988674164,0.0557708740234375,988.3240966796876,0,13.0,1,1
1.28,0.07922876,-0.15352078,9.810203999999999,-0.000498475506901741,-3.2423820812255144e-05,0.00024164881324395537,-6.279644012451173,26.30068778991699,-37.34696578979492,-0.02090349793434143,0.027485661208629608,-0.03418254852294922,988.268798828125,0,13.0,1,1
1.32,0.07761556,-0.14877327,9.767666,0.0005668980302289128,0.00023387419059872627,-0.0002909357426688075,-5.690633773803711,26.16746711730957,-37.506919860839844,0.002136439085006714,0.05569364130496979,0.05569648742675781,988.2865600585938,0,13.0,1,1
1.36,0.077635854,-0.14639045,9.760567,0.0005668980302289128,0.00023387419059872627,-0.0002909357426688075,-5.690633773803711,26.16746711730957,-37.506919860839844,0.007158428430557252,0.0507856234908104,0.05095672607421875,988.2865600585938,0,13.0,1,1
1.4,0.07765615,-0.14877422,9.767669999999999,0.00043196545448154216,-0.0004316274134907872,0.0001077775377780199,-6.156486988067628,25.94243431091309,-38.191810607910156,0.016313858330249786,0.05033310502767563,0.050952911376953125,988.2684936523438,0,13.0,1,1
1.44,0.065726936,-0.16069107,9.770039,-0.0006392287323251368,0.0014335464220494034,0.000771025603171438,-6.2162718772888175,25.93889045715332,-37.79747009277344,0.02102150022983551,0.05985090136528015,0.05095100402832031,988.296142578125,0,13.0,1,1
1.48,0.07769671,-0.15354185,9.765305999999999,0.0004258392145857215,-0.0006969487876631321,0.00010515208123251796,-6.622179985046388,26.24361991882324,-37.75275039672852,0.016445942223072052,0.07341969013214111,0.04147148132324219,988.296142578125,0,13.0,1,1
1.52,0.07293719,-0.15830885,9.755839,-0.00010698800906538963,-0.00029744318453595037,0.00010506826220080256,-6.2472777366638175,25.85741996765137,-38.17284393310547,0.007069990038871766,0.059099502861499786,0.03673267364501953,988.2941284179688,0,13.0,1,1
1.56,0.084907025,-0.14639296,9.774778,0.000425448059104383,-0.0008300431654788554,0.00023814232554286718,-6.154421806335449,25.575613021850586,-38.17066192626953,-0.0021469295024871826,0.030339069664478305,0.02725696563720703,988.30126953125,0,13.0,1,1
1.6,0.068197995,-0.1583098,9.770046,0.0002920945407822728,0.00010209408355876805,-2.825737465173006e-05,-6.683349132537843,26.344518661499023,-37.98017883300781,-0.002091236412525177,0.05380886793136597,0.04618930816650391,988.2886352539062,0,13.0,1,1
1.64,0.0706082,-0.14877720000000003,9.767681,-0.000507048680447042,-0.0009631376597099006,0.00037113265716470783,-5.978928565979004,25.73975944519043,-37.899375915527344,-0.0022066906094551086,0.034445181488990784,0.050919532775878906,988.3112182617188,0,13.0,1,1
1.68,0.080188096,-0.15592761,9.755846,-0.0003740862011909485,0.0006347892922349273,-2.8425012715160853e-05,-5.862539768218994,25.637983322143555,-37.83436965942383,-0.016607262194156647,0.03895500302314758,0.05091571807861328,988.2782592773438,0,13.0,1,1
1.72,0.06825888,-0.13924517,9.741645,-0.00024112395476549864,-0.0005636002751998602,-2.850883174687624e-05,-6.239805221557617,25.758867263793945,-37.86029052734375,-0.002039782702922821,0.029111534357070926,0.06037712097167969,988.3137817382812,0,13.0,1,1
1.76,0.082618594,-0.13924564,9.774788000000001,0.0002913122298195958,-0.00029725269996561115,0.0009035129332914947,-6.6707682609558105,25.88209342956543,-37.80109405517578,-0.007079049944877625,0.028925329446792606,0.03670310974121094,988.2860717773438,0,13.0,1,1
1.8,0.077859074,-0.15831228,9.767689,0.00015795871149748564,0.00023541087284684179,-0.0008276241132989527,-6.701230049133301,25.43233299255371,-38.07801818847656,-0.0072913095355033875,0.04764867573976517,0.031963348388671875,988.2913818359376,0,13.0,1,1
1.84,0.070709705,-0.14639641,9.779525999999999,-0.00010855298023670912,0.00023544259602203965,-0.00016191822942346332,-6.655685901641847,25.79090690612793,-37.87506484985352,0.011842846870422363,0.037957064807415015,0.03669452667236328,988.3037719726562,0,13.0,1,1
1.88,0.077899694,-0.15116353,9.77006,2.440938260406256e-05,0.0006349480827338995,0.00010431383270770313,-6.9160194396972665,25.44172477722168,-37.73753356933594,0.006872251629829407,0.046766676008701324,0.031951904296875,988.2835083007812,0,13.0,1,1
1.92,0.07791996,-0.14639749,9.777163,-0.0006415758980438112,0.00023550610058009624,-0.00029524380806833506,-6.5899505615234375,25.694425582885746,-37.87954711914063,-0.002624019980430603,0.03689785301685333,0.03668022155761719,988.2958374023438,0,13.0,1,1
1.96,0.07077056,-0.15354778,9.772428999999999,-0.00037545571103692055,-3.077805740758777e-05,0.0005036198999732734,-6.346358299255371,26.027406692504886,-37.166725158691406,0.0020424947142601013,0.04155189543962479,0.01774120330810547,988.3059692382812,0,13.0,1,1
2.0,0.07796055,-0.15354823,9.774797999999999,0.0001569804735481739,0.0005018856027163565,-0.0008280433248728514,-6.4479637145996085,25.405858993530273,-37.73057556152344,0.001521676778793335,0.04610027372837066,0.041413307189941406,988.2984619140624,0,13.0,1,1
2.04,0.08276063,-0.16784836,9.7748,-0.0001095309853553772,0.0010345489718019962,0.00037029429222457116,-6.21116304397583,25.57501792907715,-37.930931091308594,-0.0032990500330924988,0.05535059422254562,0.046142578125,988.26806640625,0,13.0,1,1
2.08,0.085170865,-0.15116604,9.760599000000001,2.3431493900716305e-05,-0.00043015659321099514,0.00037021047319285566,-6.518265247344972,25.49792289733887,-37.49417495727539,-0.008409850299358368,0.030933782458305362,0.04613590240478516,988.3009643554688,0,13.0,1,1
2.12,0.080411375,-0.15116651,9.760601,-0.0003762380219995976,0.0006351387710310519,-2.9347196687012907e-05,-6.416820049285889,25.59325218200684,-38.05427551269531,-0.0033386126160621643,0.05002366751432419,0.04613208770751953,988.2807006835938,0,13.0,1,1
2.16,0.075651854,-0.15116699,9.770072,0.0006888299249112606,-0.00043009305954910815,0.00010372692486271262,-5.8669681549072275,25.739484786987305,-38.30153274536133,0.006735086441040039,0.040226370096206665,0.03191947937011719,988.3108520507812,0,13.0,1,1
2.2,0.08284187,-0.15593402,9.77244,-0.00024347123689949512,-0.0010958510683849454,0.00010364310583099724,-5.936046123504639,25.20088005065918,-38.56731033325195,-0.002707444131374359,0.054355055093765266,0.0555877685546875,988.3035888671876,0,13.0,1,1
2.24,0.06852269,-0.16070105,9.770076,0.0002889648312702775,-0.0006963454070501031,-0.00029591459315270185,-6.377906799316406,26.31422233581543,-37.64055252075195,0.01187783479690552,0.04923441261053085,0.04611015319824219,988.288330078125,0,13.0,1,1
2.28,0.07571274,-0.15116854,9.762976,-0.0006433363305404782,-0.0001636819215491414,-0.00042915635276585823,-6.421088218688965,26.22096824645996,-37.39749145507813,0.0023931562900543213,0.044090501964092255,0.036635398864746094,988.30322265625,0,13.0,1,1
2.32,0.076809764,-0.14637019,9.760489999999999,0.00015541561879217625,-0.00029680810985155404,-0.0001629242324270308,-6.956264019012451,26.45776176452637,-38.02173614501953,0.003828980028629303,0.043933786451816566,0.04148387908935547,988.3184204101562,0,13.0,1,1
2.36,0.07438815,-0.15113597,9.781792,0.00029617070686072117,-0.0004311993252485991,0.00023980549303814772,-6.586064338684082,25.961217880249023,-37.51083755493164,-0.010324075818061829,0.048541702330112464,0.02254581451416016,988.295654296875,0,13.0,1,1
2.4,0.064796805,-0.14398535,9.765219,0.0007005316438153387,-3.251893213018775e-05,0.00010874198051169516,-6.32268762588501,26.31335258483887,-37.802978515625,0.00855032354593277,0.020166322588920597,0.05095863342285156,988.2782592773438,0,13.0,1,1
2.44,0.07432473,-0.14875115,9.762849000000001,-9.810971096158029e-05,-0.00016572652384638786,0.00037518906174227595,-6.202712059020996,25.846227645874023,-37.79413604736328,-0.0005370974540710449,0.03418584167957306,0.05095577239990234,988.2953491210938,0,13.0,1,1
2.48,0.07907283,-0.14398386,9.762846000000001,0.0004348276415839791,-0.0009647237602621317,0.00010900408960878848,-6.307606220245361,26.22216606140137,-37.876953125,-0.0102044939994812,0.03381621837615967,0.05095577239990234,988.2979125976562,0,13.0,1,1
2.52,0.06948149,-0.1511329,9.753374,-0.0003638145281001926,0.00010049017146229744,-0.0009561284678056836,-6.397852897644043,25.76885414123535,-37.75953674316406,-0.0004617273807525635,0.03849416226148605,0.04148769378662109,988.3381958007812,0,13.0,1,1
2.56,0.07422963,-0.14636554,9.760472,0.0004354390548542142,-0.0001658753608353436,0.00024242408107966182,-6.65318489074707,26.162145614624023,-38.12812805175781,0.009331218898296356,0.033941738307476044,0.041492462158203125,988.3030395507812,0,13.0,1,1
2.6,0.07419795,-0.16066445,9.769939,0.0005689029349014162,-0.0012311884202063086,-0.0006895505357533692,-6.348584175109862,25.86800575256348,-38.31182098388672,0.009195700287818907,0.052917830646038055,0.04622936248779297,988.30810546875,0,13.0,1,1
2.64,0.07177627,-0.15351377,9.774671000000001,0.0005689029349014162,-0.0012311884202063086,-0.0006895505357533692,-6.557721614837647,25.14523887634277,-38.00634765625,0.009425267577171327,0.04313309490680695,0.05096244812011719,988.30810546875,0,13.0,1,1
2.68,0.06935468,-0.15827955,9.762831,0.00030289252754300833,0.0007661309209652245,-2.3629923816770315e-05,-6.299452781677246,25.861238479614254,-38.1650276184082,0.005135990679264069,0.04278998076915741,0.04148960113525391,988.3003540039062,0,13.0,1,1
2.72,0.08366239,-0.16304536,9.762829,0.0004363559419289231,-0.0008318139589391649,0.0007754487451165915,-6.3902435302734375,25.776220321655273,-38.14606094360352,0.009765438735485077,0.0378262996673584,0.05095958709716797,988.2949829101562,0,13.0,1,1
2.76,0.069291264,-0.15589477,9.777028999999999,4.750268999487162e-06,0.0007908711559139192,-0.0007102114614099264,-6.5935378074646,26.05977439880371,-37.82339096069336,-0.014160610735416412,0.03710611164569855,0.02728366851806641,988.3074951171876,0,13.0,1,1
2.8,0.07164943,-0.16304381,9.760456,-0.0009270498412661254,-0.0002744421362876892,-4.42908494733274e-05,-6.271353721618652,26.04568290710449,-38.33412170410156,0.019339635968208316,0.04165629297494888,0.04622077941894531,988.3251953125,0,13.0,1,1
2.84,0.08595717,-0.16065972,9.767553,0.00013851997209712863,-0.0002744917874224484,0.00022215617354959247,-6.396873950958253,26.13861656188965,-37.93529510498047,0.03410903364419937,0.022615008056163788,0.05568981170654297,988.3099975585938,0,13.0,1,1
2.88,0.08831537,-0.14874263,9.767551,0.0004051414434798062,-0.0013398048467934134,8.912920020520687e-05,-6.281326770782472,25.77299690246582,-38.39360809326172,-0.012951098382472992,0.04108278453350067,0.055680274963378906,988.2872314453124,0,13.0,1,1
2.92,0.047655284000000006,-0.1344421,9.762814,-0.00012718484504148364,-0.00040774888475425536,-4.389783134683967e-05,-6.250619411468506,25.22233390808105,-38.44310760498047,0.06344455480575563,0.012304306030273438,0.05094718933105469,988.292236328125,0,13.0,1,1
2.96,0.08586198,-0.1558909,9.767546000000001,-0.0006595111335627736,-8.324685040861368e-06,-4.376686410978437e-05,-6.398151397705077,25.136720657348636,-38.18441009521485,0.0012841746211051939,0.05474422872066498,0.0367422103881836,988.2899780273438,0,13.0,1,1
3.0,0.06671113,-0.1535068,9.762808,-0.0002597318380139768,-0.0006741640390828253,0.00022268010070547467,-6.624979019165039,25.240243911743164,-37.924560546875,0.03026726096868515,0.0596734806895256,0.04147911071777344,988.2994384765624,0,13.0,1,1
3.04,0.07384911,-0.15588932,9.769907,0.0010721529833972454,-0.0005410556914284825,8.965312736108899e-05,-6.139339923858643,25.48443031311035,-38.24463653564453,0.0063929036259651175,0.04998456686735153,0.05094814300537109,988.3199462890624,0,13.0,1,1
3.08,0.057088017000000005,-0.13682233,9.769903,-0.00025912089040502906,-8.473580237478018e-06,0.0004892578581348062,-6.320622444152832,25.94653129577637,-37.78183364868164,0.020850785076618198,0.016365140676498413,0.02727699279785156,988.302001953125,0,13.0,1,1
3.12,0.09051499,-0.16065429,9.774635,0.0004069747519679368,-0.0002748390543274581,0.00035623094299808145,-6.0024614334106445,25.55973243713379,-37.96220016479492,-0.017164535820484158,0.04015238583087921,0.02727699279785156,988.3223266601562,0,13.0,1,1
3.16,0.08092368,-0.155887,9.765163000000001,0.00027412275085225696,-0.0009406784083694221,-4.31117950938642e-05,-5.961483478546143,25.91389274597168,-37.52732849121094,-0.012090824544429779,0.035130798816680915,0.04147815704345703,988.3324584960938,0,13.0,1,1
3.2,0.07850209,-0.14873634,9.746222999999999,-0.0002582035376690328,-0.00014178035780787468,-0.00017613882664591074,-6.361600875854492,25.592374801635746,-38.216705322265625,0.007118046283721924,0.03515277802944184,0.07462215423583984,988.3297119140624,0,13.0,1,1
3.24,0.06891072,-0.15350218,9.767525,0.0005410495796240866,-0.0005413037724792957,-0.00017600785940885544,-6.25420618057251,25.58767509460449,-38.38694763183594,0.02160137891769409,0.049264311790466316,0.05568408966064453,988.3170166015624,0,13.0,1,1
3.28,0.07903868,-0.13683312,9.753374,0.00014188181376084685,-0.00014187960186973214,-0.00030903471633791924,-6.214749336242676,25.940359115600586,-37.87477111816406,-0.0072933435440063485,0.011013641953468323,0.046217918395996094,988.30712890625,0,13.0,1,1
3.32,0.07964319,-0.13923128,9.758163,9.029696229845284e-06,0.0003907025675289333,0.0004900438943877816,-6.015042304992676,26.02215385437012,-38.14128494262695,0.005916759371757507,0.03451307862997055,0.05557441711425781,988.2994995117188,0,13.0,1,1
3.36,0.06771016,-0.13684835,9.786571499999999,-2.3195170797407627e-06,-0.0002732448047026992,0.00021886412287130952,-6.161893844604492,25.674169540405273,-38.48321533203125,0.01998607069253921,0.015621013939380647,0.02243614196777344,988.3121337890624,0,13.0,1,1
3.4,0.07967618,-0.14876522,9.777103,-2.478307578712702e-06,0.0003925706841982901,-0.0005801515653729439,-6.296408653259277,25.86418342590332,-38.319637298583984,0.010369583964347841,0.03407948464155197,0.04136562347412109,988.2916870117188,0,13.0,1,1
3.44,0.06774315,-0.1559154,9.770004,-0.0006684270338155329,0.00012628064723685384,8.557003457099199e-05,-6.0452070236206055,26.204530715942386,-37.99333953857422,0.014904312789440157,0.03847472369670868,0.04609394073486328,988.3244018554688,0,13.0,1,1
3.48,0.07253945,-0.15114926,9.760536,-0.00040227005956694484,0.0006589382537640631,0.0004849757242482156,-6.101703643798827,25.20350456237793,-38.08002853393555,0.0005208179354667664,0.038237206637859344,0.04135704040527344,988.3065185546876,0,13.0,1,1
3.52,0.07016602,-0.14638312,9.767641000000001,0.0002633606200106442,-0.0004062994848936796,0.00035174962249584496,-5.91957950592041,25.00524711608887,-38.019508361816406,-0.003664642572402954,0.02831204980611801,0.0318756103515625,988.28662109375,0,13.0,1,1
3.56,0.08452192,-0.16068311,9.770008,-0.0010683776345103981,-0.001604695338755846,-0.0003141082124784589,-6.4549994468688965,26.242467880249023,-38.31733322143555,-0.017982326447963715,0.04244562238454819,0.041342735290527344,988.3244018554688,0,13.0,1,1
3.6,0.079758644,-0.15591706,9.770010000000001,0.0005293586873449385,-6.7740329541265965e-06,-0.00031417631544172764,-6.252248764038086,26.327207565307614,-38.73845672607422,0.005804546177387238,0.046833865344524384,0.041337013244628906,988.3167114257812,0,13.0,1,1
3.64,0.07499528,-0.14400105,9.767645,-0.0004029059200547636,0.00025956763420253987,8.522951975464821e-05,-6.047569274902344,25.93920707702637,-38.439361572265625,0.010975569486618042,0.022785842418670654,0.04606246948242188,988.2963256835938,0,13.0,1,1
3.68,0.079791605,-0.14161818,9.770013,-0.0002699068863876164,-0.0009388281032443047,-0.0001811545225791633,-6.3621439933776855,25.96066856384277,-38.31515502929688,0.010874472558498384,0.02721912413835525,0.041324615478515625,988.3089599609376,0,13.0,1,1
3.72,0.079808116,-0.16545133,9.767649,-0.00013690785272046924,-0.00027301252703182405,-4.8064743168652064e-05,-6.559786319732666,25.51205635070801,-38.02749633789063,0.006515860557556152,0.06066499650478362,0.03658580780029297,988.3240356445312,0,13.0,1,1
3.76,0.07743472,-0.14638557,9.777119,0.0010613547638058662,-0.0008056185906752943,-0.0005807646084576845,-6.466494560241699,25.968305587768555,-38.29951858520508,0.0019918307662010197,0.031865090131759644,0.0318450927734375,988.3115844726562,0,13.0,1,1
3.8,0.070281476,-0.15591903,9.762917,-0.0005366996047087014,-0.00013980301446281374,-0.00018135900609195232,-6.62826681137085,26.23772621154785,-37.44352722167969,0.030074656009674076,0.03639241307973862,0.03658008575439453,988.3062744140624,0,13.0,1,1
3.84,0.07985756,-0.13685323,9.767652,-0.00013738468987867236,0.000792328326497227,0.0002180467708967626,-6.12784481048584,25.758588790893555,-38.262451171875,0.015759967267513275,0.03152180463075638,0.05551433563232422,988.3062744140624,0,13.0,1,1
3.88,0.09182358,-0.15591986,9.760551,0.0006614039302803576,-6.593530997633934e-06,-0.0007141269743442535,-5.959280967712402,25.652990341186523,-38.20526123046875,0.0111323744058609,0.06473029404878616,0.03657245635986328,988.30126953125,0,13.0,1,1
3.92,0.05599153,-0.1511537,9.76292,0.0002617713180370629,-0.000672357389703393,-0.0001815631985664368,-6.394511222839356,26.403940200805664,-37.48927688598633,0.015839099884033203,0.05013994127511978,0.03183269500732422,988.311279296875,0,13.0,1,1
3.96,0.07990706,-0.16307051,9.78186,-0.0004041774081997573,-0.00027285778196528554,0.00021784240379929543,-6.391765117645264,25.774747848510746,-38.068756103515625,0.0013876855373382568,0.0356878861784935,0.03656482696533203,988.2935791015624,0,13.0,1,1
4.0,0.07992351,-0.15115453,9.767658,-0.0004041774081997573,-0.00027285778196528554,0.00021784240379929543,-6.1595306396484375,25.939489364624023,-38.037200927734375,-0.008323706686496735,0.03067425638437271,0.03182697296142578,988.2935791015624,0,13.0,1,1
4.04,0.07755014,-0.1487716,9.772394,-0.00013802055036649108,0.0010587475262582302,-0.0005811734590679407,-6.4469847679138175,25.77562522888184,-37.90633010864258,-0.0035755187273025517,0.025675877928733826,0.041291236877441406,988.3087768554688,0,13.0,1,1
4.08,0.08234641,-0.16068847,9.767661,-5.180423613637686e-06,0.00025985139654949313,-0.0003149937838315964,-6.447825908660889,25.511777877807614,-38.42965316772461,-0.008265085518360138,0.035218797624111176,0.03655529022216797,988.3111572265624,0,13.0,1,1
4.12,0.07280332,-0.14162262,9.77003,0.0007936081965453923,-0.00040591246215626603,-0.0005813776515424253,-6.160914421081543,26.043928146362305,-38.658973693847656,0.006187446415424347,0.025626197457313538,0.03655147552490234,988.30615234375,0,13.0,1,1
4.16,0.08954909400000001,-0.13447322,9.76293,0.0007934492896310985,-0.0005390446167439221,-0.00044828781392425304,-5.94680643081665,26.296911239624023,-38.39883041381836,-0.0032470524311065674,0.02575302124023437,0.05075359344482422,988.3086547851562,0,13.0,1,1
4.2,0.08239591,-0.14162345,9.767666,0.00039381656097248197,0.00012677087215706706,0.00021743366960436103,-6.173633575439452,26.400434494018555,-38.13898086547852,0.006318271160125732,0.021060973405838013,0.03654956817626953,988.2957763671876,0,13.0,1,1
4.24,0.0752427,-0.14877363,9.765301,0.0005268154782243073,-0.0009384668665006756,-0.0003152661956846714,-6.271353721618652,26.04568290710449,-38.33412170410156,0.011155091226100922,0.03522991389036178,0.05074882507324219,988.3214721679688,0,13.0,1,1
4.28,0.07525918,-0.14162426,9.767669,-0.0003085006028413773,-0.00019412435358390207,-0.00024697760818526154,-6.3943729400634775,26.509855270385746,-38.1883544921875,0.0160500630736351,0.035194605588912964,0.03654289245605469,988.3137817382812,0,13.0,1,1
4.32,0.07288575,-0.15354098,9.770038000000001,0.0008897618390619756,0.00033853316563181585,0.00028558610938489437,-6.012542247772218,26.39339637756348,-38.39434814453125,0.006226576864719391,0.03493616729974747,0.031805992126464844,988.3087158203124,0,13.0,1,1
4.36,0.07290226,-0.14877490000000002,9.774773,-0.0008414504118263721,0.0008711906848475338,0.0002855179482139647,-6.140318870544434,25.11466789245605,-38.06887817382813,0.005709022283554077,0.029856927692890167,0.041274070739746094,988.3036499023438,0,13.0,1,1
4.4,0.07769853,-0.15830837,9.765305999999999,-0.00017581938300281766,0.00033858485403470695,0.00015229190466925502,-6.457064628601074,26.60928153991699,-38.33848190307617,0.0011219233274459839,0.034529365599155426,0.03653526306152344,988.2877197265624,0,13.0,1,1
4.44,0.07771510000000001,-0.14877571,9.765308000000001,-0.00017597852274775502,-6.086323992349208e-05,-0.00038040796061977744,-6.687234401702881,26.07773017883301,-38.34889221191406,0.010264195501804352,0.02451346069574356,0.045998573303222656,988.2980346679688,0,13.0,1,1
4.48,0.0801214,-0.14877613,9.767675,-4.297960549592972e-05,0.0008712682174518704,1.8997699953615665e-05,-6.916562080383301,25.81001091003418,-37.83597946166992,0.0055442824959754935,0.03359697014093399,0.05072689056396485,988.3004150390624,0,13.0,1,1
4.52,0.07774803,-0.14877649,9.762943,-0.0004426123341545463,-0.00019396955030970275,-0.0005137021071277559,-6.546769142150879,25.78768348693848,-38.12261199951172,0.0008448660373687744,0.03819077461957932,0.02705097198486328,988.3106689453124,0,13.0,1,1
4.56,0.08254433,-0.1487769,9.767679,-0.0007090872386470437,-6.078582373447716e-05,0.00041833525756374,-6.761420726776122,25.90299797058105,-38.481204986572266,0.0005171447992324829,0.028287306427955624,0.0507192611694336,988.2957763671876,0,13.0,1,1
4.6,0.07539111400000001,-0.15831040000000002,9.744009,-0.0004429301479831338,0.0004718717827927321,0.0005514251533895731,-6.490165710449219,25.6823673248291,-37.66326904296875,0.014305479824543001,0.03776797652244568,0.06965827941894531,988.3156127929688,0,13.0,1,1
4.64,0.07301769,-0.14639445,9.77005,0.0004890164127573371,0.001270845183171332,-0.0001144327106885612,-6.889442443847656,25.624696731567386,-37.82931518554688,0.004650764167308807,0.027919836342334747,0.045981407165527344,988.3079223632812,0,13.0,1,1
4.68,0.075424075,-0.14401157,9.765316,-0.00031009013764560217,0.00020560753182508046,0.0002849730080924928,-6.423450946807861,25.955644607543945,-37.843505859375,-0.0002495869994163513,0.013338625431060793,0.03177452087402344,988.3207397460938,0,13.0,1,1
4.72,0.06827086,-0.14401193,9.777154,8.922454435378313e-05,7.247531902976334e-05,-0.00024772697361186147,-6.239262580871582,25.390573501586914,-37.7618408203125,0.00916106253862381,0.03225181996822357,0.036507606506347656,988.318115234375,0,13.0,1,1
4.76,0.08200526,-0.14638041,9.760529,-0.00031040806788951164,0.0002056591620203108,-0.00024779507657513017,-6.18847131729126,25.49120140075684,-38.39143371582031,-0.005244381725788117,0.02254554629325867,0.04597091674804688,988.3004150390624,0,13.0,1,1
4.8,0.076595426,-0.13921513,9.765205,-0.0004437249153852463,0.00033884283038787544,-0.000514178944285959,-6.33045768737793,25.77976417541504,-38.5404052734375,0.005673408508300781,0.008096352219581604,0.04608345031738281,988.3207397460938,0,13.0,1,1
4.84,0.078968525,-0.15828086,9.762836,-0.0005684624775312841,-0.00045956147368997335,-0.00010873953578993678,-6.162437438964844,26.042463302612305,-38.5816650390625,-0.003779776394367218,0.03153305500745773,0.04607963562011719,988.3106079101562,0,13.0,1,1
4.88,0.0837315,-0.14159758,9.779406,9.897694690153004e-05,-0.000726145226508379,-0.00024119048612192276,-6.573346614837647,25.604719161987305,-38.03083038330078,0.005577407777309418,0.026239030063152317,0.03187274932861328,988.3201904296876,0,13.0,1,1
4.92,0.07893485,-0.1535135,9.769935,-0.0005666504730470479,0.0011380396317690609,2.519501140341163e-05,-6.570302486419678,25.6076602935791,-38.18543243408203,0.0005574002861976624,0.03583131730556488,0.017673492431640625,988.3125610351562,0,13.0,1,1
4.96,0.08369779599999999,-0.15112986,9.762831,9.930139640346171e-05,0.0007385394419543445,0.00015842245193198326,-6.6284284591674805,25.71150779724121,-38.567474365234375,-0.008669450879096985,0.035318851470947266,0.055542945861816406,988.322998046875,0,13.0,1,1
5.0,0.07651126400000001,-0.15589596,9.765198,-0.0013652732595801351,-0.0008593822713010013,-0.00010782387107610704,-6.553262233734131,26.255998611450195,-38.610923767089844,0.005639106035232544,0.03492865711450577,0.05080413818359375,988.3229370117188,0,13.0,1,1
5.04,0.07171464,-0.15351231,9.781766000000001,9.962607873603703e-05,-6.046087946742774e-05,2.540362766012549e-05,-6.861886501312256,26.177431106567386,-38.09686279296875,0.010430678725242616,0.025380335748195648,0.04133796691894531,988.3026123046876,0,13.0,1,1
5.08,0.0812574,-0.14397879,9.767561,0.00036610412644222384,-0.0005931190098635852,-0.00024084275355562568,-6.120234966278076,25.76595115661621,-38.64897155761719,0.0008417069911956787,0.02514065802097321,0.031867027282714844,988.3098754882812,0,13.0,1,1
5.12,0.07885063,-0.158278,9.762825999999999,9.995052823796868e-05,0.001137907849624753,0.0002918585669249296,-6.298909664154053,25.49294853210449,-38.06657409667969,-0.0042953118681907645,0.039372652769088745,0.03186988830566406,988.2951049804688,0,13.0,1,1
5.16,0.06927422,-0.15112777,9.772293,0.0003664288087747991,0.00047209183685481554,0.00015877018449828031,-6.040939331054688,25.57681083679199,-38.650123596191406,0.0054893195629119864,0.025163277983665463,0.04134082794189453,988.2952880859376,0,13.0,1,1
5.2,0.07642710000000001,-0.14874409,9.772291000000001,0.00010027521057054399,-0.0001937241904670373,-0.0005069499020464717,-6.307605266571045,26.22215843200684,-37.876953125,0.005209393799304961,0.029689952731132507,0.04607582092285156,988.3256225585938,0,13.0,1,1
5.24,0.07880017,-0.15827678,9.774657000000001,0.0001004372606985271,0.0007383550400845706,0.0002920672413893044,-6.781611919403076,26.35805320739746,-38.273773193359375,0.0002575218677520752,0.03444299846887588,0.031874656677246094,988.292236328125,0,13.0,1,1
5.28,0.076393396,-0.15112652,9.762819,0.00010059966007247569,-0.0001937768975039944,-0.0006399687263183296,-6.246734619140625,25.489126205444336,-38.07439422607422,-0.009121231734752657,0.024728789925575256,0.041342735290527344,988.3303833007812,0,13.0,1,1
5.32,0.078766465,-0.15350940000000002,9.767551,0.00010059966007247569,-0.0001937768975039944,-0.0006399687263183296,-6.616389751434326,25.61737632751465,-38.4868392944336,-0.0042739138007164,0.02440006285905838,0.041339874267578125,988.3303833007812,0,13.0,1,1
5.36,0.07635975,-0.14635916,9.777019500000002,-3.239588113501668e-05,-0.0001938031928148121,-0.000506741285789758,-6.306924819946289,25.95979118347168,-38.47758102416992,0.00508476048707962,0.01930519938468933,0.03660392761230469,988.3026123046876,0,13.0,1,1
5.4,0.07395303,-0.15589185,9.7675495,-0.0004317074199207127,0.00020564423175528648,-0.0005066717858426274,-6.494594097137451,25.783864974975586,-38.13042831420898,0.014328420162200928,0.028514109551906582,0.05080699920654297,988.3277587890624,0,13.0,1,1
5.44,0.08110589,-0.14874162,9.762814,-0.0002982249134220183,0.0011376971378922462,-0.0003733747289516032,-6.11221981048584,25.299108505249023,-38.23796844482422,-0.009537853300571442,0.01881764829158783,0.03660297393798828,988.2950439453124,0,13.0,1,1
5.48,0.08108902,-0.15589102,9.755711,-3.174674930050969e-05,-6.075063720345497e-05,-0.0005064631695859134,-6.400216102600098,25.50353813171387,-38.20555114746094,0.00026620924472808843,0.032663032412528985,0.04133129119873047,988.2973022460938,0,13.0,1,1
5.52,0.08107221,-0.14635752,9.762811,-0.00016474252333864567,-0.0004602507979143411,-0.0007727095508016647,-6.071103572845459,25.75918388366699,-38.50218200683594,-0.00010294467210769652,0.01815997064113617,0.04606723785400391,988.3201904296876,0,13.0,1,1
5.56,0.078665495,-0.15589018,9.760441,-0.0002977382973767817,0.0007381443283520639,0.00042578153079375625,-6.262359619140625,25.94860649108887,-38.09886932373047,-0.00973597913980484,0.037302568554878235,0.05554008483886719,988.3128051757812,0,13.0,1,1
5.6,0.07147893,-0.14873998,9.765174,0.0006345296860672535,0.0004718021373264492,0.00015953514957800508,-6.159691333770753,25.41326713562012,-39.16114807128906,0.014401935040950775,0.022907793521881104,0.05554008483886719,988.3154296875,0,13.0,1,1
5.64,0.08102167,-0.1558894,9.774641,0.00036837620427832013,-0.0003271719324402511,2.6446825359016657e-05,-6.033329486846924,25.58418083190918,-39.03665161132813,-0.005139395594596864,0.02735505998134613,0.03186798095703125,988.3074951171876,0,13.0,1,1
5.68,0.073835135,-0.14397253,9.765171,-0.0010961990337818859,0.0010043811053037646,0.0004259901470504701,-5.840826988220215,25.18440055847168,-38.11911010742188,-0.00015814602375030518,0.027274429798126217,0.03660106658935547,988.3226318359376,0,13.0,1,1
5.72,0.08337796,-0.15350531,9.762802,0.0006350164185278118,-0.00019406672799959781,0.00015974388225004077,-6.546769142150879,25.787687301635746,-38.12261199951172,-0.014860659837722778,0.03185895085334778,0.04133796691894531,988.3251953125,0,13.0,1,1
5.76,0.064947456,-0.16067202,9.772335,-0.00016376894200220704,0.000604854547418654,-0.0005059763207100332,-6.448369026184082,25.88006401062012,-38.52810287475586,0.013053305447101593,0.03137083351612091,0.03653526306152344,988.3148193359376,0,13.0,1,1
5.8,0.07929826,-0.12730639,9.760499000000001,-0.0013454373693093655,3.279943484812975e-06,0.0006302178371697664,-6.106812477111816,25.56737327575684,-37.94656372070313,-0.0015429630875587466,-0.006802082061767578,0.04600429534912109,988.350341796875,0,13.0,1,1
5.84,0.06736016,-0.15590598,9.762868,0.0006476989947259426,0.0008029148448258637,-3.7385907489806414e-05,-6.341654777526856,26.13774681091309,-38.09771728515625,0.00743982195854187,0.02193526923656464,0.05547809600830078,988.3124389648438,0,13.0,1,1
5.88,0.08171102400000001,-0.14875649,9.781806,0.0006475887494161725,0.0005366167752072215,0.0007615145877934992,-6.085099220275879,25.11379051208496,-38.23130798339844,-0.0068588927388191214,0.016930282115936283,0.027068138122558597,988.3198852539062,0,13.0,1,1
5.92,0.0888921,-0.14160688,9.781807,-0.0002846267307177186,0.000669792527332902,9.56777366809547e-05,-6.207576274871826,25.20967674255371,-37.98709106445313,-0.011665426194667816,0.026462271809577945,0.012864112854003906,988.3223876953124,0,13.0,1,1
5.96,0.07695407,-0.15590687,9.784175,0.0006473688408732414,0.0005366523982957006,0.0006282622925937176,-6.422908306121826,25.58735466003418,-37.74505615234375,0.007028378546237946,0.0216139554977417,0.03653717041015625,988.30712890625,0,13.0,1,1
6.0,0.08174527,-0.14875735,9.767607,-0.0005511626368388535,0.0006698282668367027,0.0004950572038069367,-6.647097110748291,26.16803550720215,-38.437347412109375,0.0021436065435409546,0.02159920334815979,0.04127025604248047,988.3150634765624,0,13.0,1,1
6.04,0.07219708,-0.14160772,9.765239999999999,0.0007803067564964294,0.00027037231484428054,0.0003618521732278168,-6.284370422363281,25.770055770874023,-38.23899841308594,0.0014719590544700625,0.012063831090927124,0.046009063720703125,988.2894287109376,0,13.0,1,1
6.08,0.07459837,-0.16067423,9.762874,-0.0001519088400527835,0.0020014431793242693,-3.766885492950678e-05,-6.237602710723878,25.49796485900879,-38.53822326660156,0.0009637251496315002,0.036105424165725715,0.05548381805419922,988.3023681640624,0,13.0,1,1
6.12,0.076999724,-0.14399160000000003,9.784180000000001,0.001445876550860703,0.000803039874881506,0.000494915759190917,-6.038874626159668,25.209997177124023,-38.62898254394531,0.0007815584540367126,0.022010490298271183,0.03654956817626953,988.2944946289062,0,13.0,1,1
6.16,0.07223129,-0.14875837,9.769978,0.00038050278089940553,0.0004035838064737618,0.0010275003733113408,-6.089229106903076,25.84742546081543,-38.273597717285156,-0.004304371774196625,0.012080103158950806,0.041278839111328125,988.3173217773438,0,13.0,1,1
6.2,0.07941243,-0.14399220000000001,9.779448,-0.0008180284639820457,0.0009362334385514259,9.534764103591442e-05,-6.185427665710449,25.4941463470459,-38.546043395996094,-0.004861384630203247,0.026152268052101132,0.04601287841796875,988.317626953125,0,13.0,1,1
6.24,0.06986421,-0.14875896,9.7723465,-0.00015234877355396748,0.0005367773119360209,-3.78573895432055e-05,-6.5071754455566415,26.24629020690918,-38.30951690673828,0.005005314946174622,0.0070904791355133065,0.02707195281982422,988.3048706054688,0,13.0,1,1
6.28,0.07704532,-0.15352578,9.779449000000001,0.0003801727434620261,0.00013732153456658125,-3.7904479540884495e-05,-6.4839396476745605,25.794172286987305,-38.67156600952149,-0.00017172843217849731,0.030722633004188538,0.022337913513183597,988.3349609375,0,13.0,1,1
6.32,0.077056766,-0.15114285,9.769981,-1.9410857930779457e-05,0.0008031290490180254,-3.7951627746224397e-05,-6.5247578620910645,25.966238021850586,-37.98248291015625,-0.009492143988609314,0.0304047167301178,0.03179931640625,988.3627319335938,0,13.0,1,1
6.36,0.07706818,-0.15590964,9.760514,-0.0006853105733171105,-0.0009279062505811453,0.0004946329281665385,-6.522256851196289,26.33747291564941,-38.23554611206055,0.00015112757682800293,0.02070385217666626,0.05073356628417969,988.286865234375,0,13.0,1,1
6.4,0.08185935,-0.14399357,9.760515,0.00024668488185852766,-0.0006615725578740238,-0.0004375198623165488,-6.110016822814941,25.03820991516113,-38.9159049987793,-0.004618316888809204,0.02037203311920166,0.05072784423828125,988.2998657226562,0,13.0,1,1
6.44,0.079480916,-0.15352698,9.762883,-0.00041921471711248165,0.0008031826000660657,0.0006276965723372996,-6.405623435974121,25.23527336120605,-38.49696350097656,-0.009832106530666351,0.020589038729667664,0.036529541015625,988.3299560546876,0,13.0,1,1
6.48,0.07949227,-0.14876063,9.779454,0.0009122545598074793,0.0006700424710288644,-3.814022056758404e-05,-6.29630184173584,24.75784111022949,-37.94697952270508,-0.014423772692680359,0.030044287443161014,0.02232265472412109,988.3067626953124,0,13.0,1,1
6.52,0.0747239,-0.14161111,9.769987,0.0001131970202550292,-0.00026204524328932166,0.0006276023341342808,-6.125236988067628,25.023481369018555,-38.14285278320313,-0.004773840308189392,0.015549615025520325,0.03652191162109375,988.34033203125,0,13.0,1,1
6.56,0.07951513,-0.1439947,9.77709,-0.0006858606357127428,0.0002706043887883425,0.0006275551859289408,-6.0549354553222665,24.93141746520996,-38.379249572753906,-0.005101375281810761,0.01562364399433136,0.031787872314453125,988.2919921875,0,13.0,1,1
6.6,0.077136636,-0.15591128,9.753418,0.00037929287645965815,0.0006700961384922267,-3.828166518360376e-05,-6.4925289154052725,25.417051315307614,-38.109283447265625,-0.00016207993030548096,0.029727369546890262,0.05072212219238281,988.3078002929688,0,13.0,1,1
6.64,0.084317744,-0.13684542,9.774725,0.0002460249233990908,-0.0005283075151965021,0.0004943028907291591,-6.256409168243407,25.84857749938965,-37.70901489257813,-0.009797625243663788,0.010547339916229248,0.03651618957519531,988.3223876953124,0,13.0,1,1
6.68,0.08193928,-0.16067846,9.765257,0.0002460249233990908,-0.0005283075151965021,0.0004943028907291591,-6.3335018157958975,25.77681541442871,-38.38579559326172,-0.0147344172000885,0.029235318303108212,0.03651142120361328,988.3223876953124,0,13.0,1,1
6.72,0.07426554,-0.15589948,9.762843,-2.0400970242917534e-05,0.0006701318779960276,0.0002279399195685983,-6.680740833282472,25.60940742492676,-37.86058044433594,0.009444564580917358,0.024395227432250977,0.05071067810058594,988.3248291015624,0,13.0,1,1
6.76,0.080899835,-0.14635332,9.77463,0.0002456948859617114,-0.00026193802477791905,0.00022784562315791845,-6.114146709442139,25.771841049194336,-38.958194732666016,-0.01351068913936615,0.014648169279098509,0.041335105895996094,988.3299560546876,0,13.0,1,1
6.8,0.071309745,-0.15588565,9.767527000000001,-0.00027950038202106947,-0.000795777072198689,9.787466842681171e-05,-6.726828575134277,25.619123458862305,-38.1619873046875,0.0059900954365730286,0.023943260312080383,0.04133224487304688,988.31982421875,0,13.0,1,1
6.84,0.07127929,-0.14158519,9.760422,-0.00027924246387556195,0.00027177727315574884,0.00010153069160878658,-6.5527191162109375,25.88770866394043,-38.51247024536133,0.005982570350170136,0.014112934470176697,0.06027030944824219,988.3248901367188,0,13.0,1,1
6.88,0.076028645,-0.13205136,9.767521,0.00012052507372573018,-0.0003940600727219135,0.0005011304747313262,-5.956779003143311,26.02422523498535,-38.45832061767578,0.0010279789566993713,0.018688485026359558,0.03659820556640625,988.3198852539062,0,13.0,1,1
6.92,0.080778,-0.15350012,9.772252,-0.0004118132055737078,0.0006711558671668173,-0.0004308493807911873,-6.777481555938722,25.62441825866699,-38.23147964477539,0.0011215582489967346,0.023581236600875854,0.04133796691894531,988.34521484375,0,13.0,1,1
6.96,0.07357782,-0.16064920000000002,9.760413,0.00038742815377190715,-0.0005273133283481002,-0.0002975655952468514,-6.673130989074707,25.61677360534668,-38.247108459472656,0.001288391649723053,0.023489713668823242,0.04133796691894531,988.317626953125,0,13.0,1,1
7.0,0.08549684,-0.1439655,9.76041,-0.00027806806610897183,0.00040474464185535913,0.00036834983620792633,-6.710362434387207,25.423494338989254,-37.61418914794922,-0.003614112734794617,0.02800452709197998,0.0555419921875,988.30712890625,0,13.0,1,1
7.04,0.08068663,-0.14634807,9.7793455,0.0005211732932366432,0.0002715389709919691,0.00023531774058938024,-6.431221961975098,25.42206382751465,-38.58092880249024,-0.0036825984716415405,0.008747071027755737,0.02240180969238281,988.3074951171876,0,13.0,1,1
7.08,0.07109654,-0.14396404,9.762772,-0.0005437968648038805,0.0005378072382882237,0.000501759466715157,-5.994308471679688,25.198808670043945,-38.25027465820313,0.0011484771966934204,0.018207252025604248,0.03187274932861328,988.2947387695312,0,13.0,1,1
7.12,0.08062568,-0.15587963,9.774606,-1.0871386621147394e-05,-0.0005275039002299309,-0.00016390439122915268,-6.205618381500244,25.949201583862305,-38.338600158691406,0.0006848648190498352,0.022769615054130558,0.05081367492675781,988.282470703125,0,13.0,1,1
7.16,0.09015483,-0.15111239,9.77697,-0.00041005172533914447,0.0014698175946250556,-0.0002969366032630205,-6.248661518096924,25.96185874938965,-38.79461669921875,-0.018527612090110782,0.017864719033241272,0.04608154296875,988.3096313476562,0,13.0,1,1
7.2,0.082954705,-0.14634515,9.762764,0.00012287386925891042,5.032517947256565e-06,0.00023582112044095996,-6.324752330780028,26.68016624450684,-37.824127197265625,-0.008449397981166841,0.017636537551879883,0.05554676055908203,988.3098754882812,0,13.0,1,1
7.24,0.07575452,-0.15111084,9.774597,-0.00014314864529296756,-0.0007939627394080162,0.0005022626137360929,-6.902566432952881,26.45540809631348,-38.10685729980469,0.0058173462748527536,0.017487123608589172,0.02240753173828125,988.33251953125,0,13.0,1,1
7.28,0.07333413,-0.13919373,9.776961,0.0003897768328897655,0.00027125305496156216,0.000102914753369987,-6.229151248931885,25.76917839050293,-38.40142440795898,-0.008305400609970095,-0.0013285577297210693,0.017676353454589844,988.324951171875,0,13.0,1,1
7.32,0.07569358,-0.14872615,9.769855999999999,0.00012045440962538124,-0.00040837842971086497,-0.00013948127161711454,-6.474946022033691,25.69709587097168,-38.436317443847656,0.005966946482658386,0.017891228199005127,0.0366201400756836,988.3121337890624,0,13.0,1,1
7.36,0.07088333,-0.14634208,9.769853999999999,0.00038706423947587615,0.0003905214834958315,0.0003932763065677136,-5.929957389831543,25.206769943237305,-38.87652587890625,-0.0034215003252029423,0.008378550410270691,0.036622047424316406,988.317626953125,0,13.0,1,1
7.4,0.08041251,-0.15110786,9.776954,0.0006536732544191183,-8.999952115118504e-06,0.000659717945381999,-6.297930240631104,25.86271095275879,-38.242332458496094,-0.003512643277645111,0.01329834759235382,0.046095848083496094,988.317626953125,0,13.0,1,1
7.44,0.06365269400000001,-0.15349041,9.753278,0.0003876513219438493,-0.0006748373270966113,-0.00040541961789131165,-6.551877975463867,26.15155601501465,-37.9891471862793,0.011333189904689787,0.022734716534614563,0.036624908447265625,988.3402099609376,0,13.0,1,1
7.48,0.087521255,-0.14157327,9.77458,0.0006542604533024133,-0.0008080428815446794,-0.0001389780081808567,-6.237602233886719,25.49796485900879,-38.53822326660156,-0.0074945688247680655,0.01298476755619049,0.02241992950439453,988.28955078125,0,13.0,1,1
7.52,0.08510089,-0.15587212,9.779312,-0.0008101829444058241,-0.0005417746724560857,-0.0001388521632179618,-6.284370422363281,25.77005195617676,-38.2390022277832,-0.007336877286434174,0.02236896753311157,0.03662300109863281,988.2772827148438,0,13.0,1,1
7.56,0.068341136,-0.15110488,9.772207,-1.0942050721496344e-05,-0.0006749802851118147,0.00012758944649249315,-6.212685108184815,25.573545455932614,-37.8536262512207,0.012714862823486328,0.02211262285709381,0.04608345031738281,988.317626953125,0,13.0,1,1
7.6,0.07787025,-0.15587072,9.767469,-0.000676437804941088,-0.002006607363000512,0.0002608732902444899,-6.276761054992676,25.77741813659668,-38.625526428222656,-0.0012765824794769287,0.021621957421302795,0.04134464263916016,988.3150634765624,0,13.0,1,1
7.64,0.07067013,-0.14633681,9.7627325,-0.00027667084941640496,-0.0006750755710527301,0.0003941570175811648,-6.496520519256593,26.2565975189209,-38.85065460205078,-0.005524374544620514,0.011970221996307371,0.04134178161621094,988.3129272460938,0,13.0,1,1
7.68,0.07780936,-0.1344197,9.7722,-0.0002763767843134701,-0.001074597123079002,-0.00040466466452926403,-6.163714408874513,25.04055595397949,-38.83078002929688,0.003640368580818176,0.011829718947410585,0.031876564025878906,988.30712890625,0,13.0,1,1
7.72,0.07589713,-0.14634784,9.765141,-0.0002760836505331099,0.0007895664311945437,-0.0006708548171445727,-6.132410526275635,25.75417137145996,-38.03053283691406,0.0038966983556747437,0.006898730993270874,0.04607868194580078,988.317626953125,0,13.0,1,1
7.76,0.08357495,-0.16780977,9.772289,-0.000143837823998183,-0.0006750228349119425,-5.456153303384781e-06,-6.655548572540282,25.896825790405273,-38.57414245605469,-0.01108456403017044,0.030705183744430545,0.04598236083984375,988.3201904296876,0,13.0,1,1
7.8,0.07880533,-0.15827687,9.767555999999999,-1.9049097318202254e-05,-0.0008068221504800023,-0.0006748324958607553,-6.706040859222412,26.4283390045166,-37.51968383789063,0.0036123320460319523,0.0211433619260788,0.05071258544921875,988.3052978515624,0,13.0,1,1
7.84,0.06686592,-0.14874406,9.758088,0.0003803269355557859,-0.0009399642003700137,0.0001240731216967106,-6.7078614234924325,25.79472923278809,-37.86724853515625,0.0038825646042823787,0.016288399696350098,0.03650569915771485,988.317626953125,0,13.0,1,1
7.88,0.0812155,-0.15589412,9.772292,0.00038022926310077315,-0.0005404745461419225,-0.0008080744883045554,-6.2110252380371085,25.68093681335449,-38.63000869750977,0.003920599818229675,0.01613117754459381,0.03176689147949219,988.2772827148438,0,13.0,1,1
7.92,0.069276154,-0.14636125,9.779394,-0.00028565822867676616,-0.0006736166542395949,0.0002571472723502666,-6.101565837860107,25.309423446655273,-38.77910614013672,0.009019739925861359,0.011184245347976685,0.02702808380126953,988.3078002929688,0,13.0,1,1
7.96,0.07645595,-0.14636149,9.758091,-0.0004189139581285417,-0.0005404427647590637,-0.0012076320126652718,-6.071646213531494,26.12747383117676,-38.60063171386719,0.014369726181030272,0.011099562048912048,0.05542755126953125,988.3026123046876,0,13.0,1,1
8.0,0.07885605,-0.15589495,9.75099,-0.0004189139581285417,-0.0005404427647590637,-0.0012076320126652718,-6.477691650390625,26.326284408569336,-37.856834411621094,0.0045563578605651855,0.015765219926834106,0.0648956298828125,988.3026123046876,0,13.0,1,1
8.04,0.08125606,-0.14636205,9.758092999999999,0.00011362013174220921,-0.0021383222192525864,-0.000541884102858603,-6.084801197052003,25.74592399597168,-37.806434631347656,-0.0052402690052986145,0.02502487599849701,0.04595470428466797,988.297607421875,0,13.0,1,1
8.08,0.07409650000000001,-0.14636232,9.781766000000001,-0.0001528913271613419,0.0002585523761808872,-0.0004088099813088775,-5.918600559234619,25.37501335144043,-38.19526672363281,0.0044636428356170646,0.015487775206565857,0.02228069305419922,988.3204345703124,0,13.0,1,1
8.12,0.07888645,-0.15351237,9.767564,-1.9831175450235605e-05,-0.0008066951995715499,-0.0005420098314061762,-6.245755195617676,25.8588924407959,-38.25015258789063,0.004330925643444061,0.015352308750152588,0.04594993591308594,988.3153686523438,0,13.0,1,1
8.16,0.07650667400000001,-0.15589584,9.767565,-0.00015308678848668933,0.0002585842739790678,-0.0005420517409220338,-6.0295820236206055,25.74505424499512,-37.9688606262207,0.0047009140253067025,0.024734124541282654,0.05067920684814453,988.3154296875,0,13.0,1,1
8.2,0.07651687,-0.15589608,9.769933,-0.0002863425179384649,-0.0004071896255481988,-0.0006752515910193324,-6.582042694091798,26.333932876586914,-37.84120178222656,7.449090480804443e-05,0.019683867692947388,0.04593849182128906,988.3128051757812,0,13.0,1,1
8.24,0.081306756,-0.15351309,9.765199,-0.00015328236622735858,-7.699884008616209e-06,0.00025681211263872683,-6.3846983909606925,26.15040397644043,-38.5537338256836,0.004716776311397553,0.024247840046882633,0.04593658447265625,988.3154296875,0,13.0,1,1
8.28,0.083706796,-0.15351333,9.786505,0.0002460937830619514,-0.00014084205031394958,-0.0002758615300990641,-6.453913688659668,25.50588798522949,-38.12043380737305,-0.01407373696565628,0.029144912958145138,0.01279449462890625,988.3280029296876,0,13.0,1,1
8.32,0.07893717,-0.14636372,9.77467,0.00037915393477305764,-0.0008066158625297247,-9.587500244379044e-06,-6.834467887878418,26.624250411987305,-37.665321350097656,0.014698177576065062,0.019725069403648376,0.05066967010498047,988.3079223632812,0,13.0,1,1
8.36,0.078947246,-0.14636399,9.77467,0.0002458980889059603,-0.0006734420312568545,0.0003898443537764251,-6.514241695404053,25.87063026428223,-37.82453918457031,0.0005013793706893921,0.014681607484817503,0.041194915771484375,988.3156127929688,0,13.0,1,1
8.4,0.07895747,-0.14636429,9.7604685,-2.0515231881290674e-05,0.00012552144471555948,-0.0006754610221832992,-6.120234966278076,25.76595115661621,-38.64897537231445,0.005421057343482971,0.010113269090652466,0.045928955078125,988.3001098632812,0,13.0,1,1
8.44,0.06940797,-0.13921471,9.758100500000001,0.0003788605681620538,-0.00027393648633733386,-0.0005423451075330377,-6.102246284484862,25.57179832458496,-38.17848205566406,0.005255952477455139,-0.0042802244424819955,0.041194915771484375,988.3078002929688,0,13.0,1,1
8.48,0.08614743,-0.14874808,9.765203,0.00011244701454415916,-7.60471448302269e-06,-0.00014291307888925076,-6.3335018157958975,25.77682304382324,-38.38579559326172,-0.00417734682559967,0.014849618077278137,0.04119396209716797,988.2850952148438,0,13.0,1,1
8.52,0.08376768,-0.1487483,9.7770405,-0.00028712447965517635,-0.0006733785849064589,-0.0008087445748969913,-6.399535655975343,25.24116325378418,-38.80618286132813,-0.0038281530141830453,0.009896054863929749,0.026984214782714844,988.29248046875,0,13.0,1,1
8.56,0.083777785,-0.14874853,9.760471,-0.00015406444435939193,-0.0002738888724707067,-0.00014299689792096618,-6.200509548187256,25.5853328704834,-38.472068786621094,0.0012211427092552185,0.01909641921520233,0.05538177490234375,988.3229370117188,0,13.0,1,1
8.6,0.06944853,-0.14636551,9.746269,-0.0009531096438877283,-0.0010728206252679227,-9.88086685538292e-06,-6.096701622009277,25.94597816467285,-38.58615112304688,0.0015009865164756775,0.004849359393119812,0.06484794616699219,988.3154296875,0,13.0,1,1
8.64,0.07662839,-0.1511323,9.769943,0.000911003618966788,-0.00027385709108784795,-9.922659955918789e-06,-6.096403121948242,26.57811546325684,-38.161277770996094,0.006618477404117584,0.01902584731578827,0.03170108795166016,988.3181762695312,0,13.0,1,1
8.68,0.06707895,-0.16304891,9.769943,-0.00015435757813975215,-0.0013391047250479462,0.0005226671928539872,-6.4958176612854,26.41452980041504,-37.62825775146485,0.011569276452064514,0.03328491747379303,0.04590129852294922,988.287841796875,0,13.0,1,1
8.72,0.08158821,-0.1559033,9.767591,0.00011186051415279506,-0.00014066742733120918,-0.00027632236015051603,-6.3139915466308585,25.58413505554199,-37.99260330200195,0.0023205503821372986,0.023396223783493042,0.04114341735839844,988.3028564453124,0,13.0,1,1
8.76,0.07921481,-0.1511371,9.774694,-2.2155523765832182e-05,-0.0016052655410021546,0.0002559416461735964,-6.518670082092285,25.97212791442871,-38.29170608520508,-0.0019267797470092773,0.009165182709693907,0.026935577392578125,988.3028564453124,0,13.0,1,1
8.8,0.0816212,-0.14875431,9.772329,-0.0005556911346502602,-0.0008061710977926849,0.00012239639181643724,-5.963165760040282,25.38619804382324,-38.573974609375,-0.002292506396770477,-0.0005492568016052246,0.03166770935058594,988.3030395507812,0,13.0,1,1
8.84,0.07685792400000001,-0.16067101,9.75576,0.0006523870979435742,0.0007660717237740755,0.00031738838879391546,-6.4598636627197275,25.60590934753418,-38.510292053222656,0.006885729730129242,0.03323549032211304,0.06481552124023438,988.3334350585938,0,13.0,1,1
8.88,0.0840441,-0.14875506,9.781801,0.0006523870979435742,0.0007660717237740755,0.00031738838879391546,-6.4598636627197275,25.60590934753418,-38.510292053222656,-0.0030116140842437744,0.009293094277381895,0.022205352783203125,988.3334350585938,0,13.0,1,1
8.92,0.0816707,-0.1487555,9.772333,-0.0006793513312004508,0.0014318872708827255,5.100428825244308e-05,-6.702178955078125,26.27482795715332,-38.9739990234375,0.0016140565276145935,0.013853982090950012,0.04587364196777344,988.3004150390624,0,13.0,1,1
8.96,0.088856876,-0.13922276,9.753397,0.00025259534595534205,-0.0001659822737565264,-8.222163887694478e-05,-6.474265575408936,25.43472099304199,-39.03694152832031,-0.002991959452629089,-0.0004938840866088867,0.06954383850097656,988.2928466796876,0,13.0,1,1
9.0,0.08170366,-0.14875631,9.755766,0.00011927849845960735,-0.0006985882064327598,5.0868198741227395e-05,-6.345540046691895,25.870954513549805,-38.4664306640625,0.002182051539421081,0.018640249967575077,0.045866966247558594,988.3007202148438,0,13.0,1,1
9.04,0.07216048,-0.15113993,9.741564,0.0002521186252124608,-0.00043222075328230863,-0.0004818997695110737,-5.9940104484558105,25.83094596862793,-37.82540130615234,0.02149525284767151,0.018586456775665283,0.0695343017578125,988.29541015625,0,13.0,1,1
9.08,0.079346746,-0.14399053,9.765238,0.0002521186252124608,-0.00043222075328230863,-0.0004818997695110737,-5.9940104484558105,25.83094596862793,-37.82540130615234,0.016482718288898468,0.018503874540328983,0.03165912628173828,988.29541015625,0,13.0,1,1
9.12,0.08414298,-0.14160769,9.760505,-0.0005469881580211222,-0.00016587904246989638,-8.249416714534162e-05,-6.290458679199219,25.76415824890137,-37.929779052734375,-0.002068839967250824,0.0092526376247406,0.060063362121582024,988.3109130859376,0,13.0,1,1
9.16,0.08654946,-0.15114118,9.762874,0.0006512744002975522,-0.0008316429448314012,0.00018375361105427143,-6.352170944213867,26.23335075378418,-38.25566101074219,-0.0021106153726577763,0.008993268013000488,0.05532360076904297,988.305908203125,0,13.0,1,1
9.2,0.07461637,-0.15829141,9.765244000000001,0.00011848373105749488,-0.0001658274122746661,0.00018368550809100268,-6.155806541442871,25.6800594329834,-38.79243469238281,0.0027313232421875,0.0230444073677063,0.04111480712890625,988.3160400390624,0,13.0,1,1
9.24,0.0698531,-0.14875866,9.769978,-0.0006806228193454443,-0.00029895961051806813,0.0007162492256611586,-6.2879576683044425,26.13539695739746,-38.18284225463867,0.012366242706775664,0.008245021104812622,0.04110527038574219,988.3106079101562,0,13.0,1,1
9.28,0.0770393,-0.15829222,9.774714,-0.0006806228193454443,-0.00029895961051806813,0.0007162492256611586,-6.2879576683044425,26.13539695739746,-38.18284225463867,0.002875320613384247,0.012943178415298462,0.026899337768554688,988.3106079101562,0,13.0,1,1
9.32,0.07705578,-0.15114279,9.767614,-0.0006807817262597383,-3.2617885153740644e-05,5.039136158302426e-05,-6.467336654663086,25.7044620513916,-38.822845458984375,0.0031049251556396484,0.013015687465667723,0.045833587646484375,988.3160400390624,0,13.0,1,1
9.36,0.06751263,-0.14875992,9.762881,-0.0001483089872635901,-0.0008315396844409406,0.0005829550209455192,-5.8989524841308585,25.288244247436523,-38.50115203857422,0.021712258458137512,0.017511546611785892,0.06477165222167969,988.32080078125,0,13.0,1,1
9.4,0.08186856,-0.14637704,9.774719000000001,-0.00041494268225505953,0.0003669332945719361,-0.00021612882846966383,-6.390786170959473,26.144514083862305,-38.24451446533203,-0.006812155246734619,-0.00168687105178833,0.031624794006347656,988.3162231445312,0,13.0,1,1
9.44,0.07232547,-0.14876069,9.762885,0.00011753017315641046,-0.00029883056413382286,0.0003164347726851702,-7.058548927307129,26.098581314086914,-37.98495864868164,0.01661442220211029,0.0028534680604934692,0.04582691192626953,988.3009643554688,0,13.0,1,1
9.48,0.06995201,-0.15352775,9.760519,0.00011737114982679485,0.000899616745300591,-0.0002162651508115232,-6.801557540893555,25.81268119812012,-38.39275360107422,0.002239368855953217,0.02657841145992279,0.03162097930908203,988.3080444335938,0,13.0,1,1
9.52,0.06996852,-0.14161171,9.762888,-0.0006817354005761446,0.0007664845325052737,-8.31751967780292e-05,-6.26069974899292,26.05599021911621,-38.87525177001953,0.02091718465089798,0.007405713200569153,0.04109001159667969,988.3162231445312,0,13.0,1,1
9.56,0.06281528,-0.14876194,9.762888,0.0003833692171610892,-3.2437324989587075e-05,0.0001830724650062621,-6.8213133811950675,27.00579643249512,-38.45951843261719,0.0206347331404686,0.007627755403518677,0.055298805236816406,988.3060913085938,0,13.0,1,1
9.6,0.06044188,-0.16067873,9.758156,-1.6263511497527358e-05,0.0010328521020710466,0.00044932027230970567,-6.860501766204834,26.07298469543457,-37.4750862121582,0.015450239181518556,0.0310722291469574,0.050559043884277344,988.3157348632812,0,13.0,1,1
9.64,0.07479781,-0.15114601,9.77236,-0.0005490542971529067,0.00010077224578708409,0.0005824100226163863,-6.705796241760254,25.42791557312012,-37.84610366821289,0.0008102878928184509,0.02155284583568573,0.03635692596435547,988.29345703125,0,13.0,1,1
9.68,0.07231429,-0.14399389999999998,9.758148,0.0005160502041690052,0.0007665877928957343,0.00018286815611645582,-6.1634159088134775,25.672697067260746,-38.40591430664063,0.010312259197235107,0.016759082674980164,0.050559043884277344,988.2883911132812,0,13.0,1,1
9.72,0.074603915,-0.15590782,9.772343,-0.00014989840565249324,0.000899771461263299,0.00018279993673786518,-6.2324934005737305,25.134092330932614,-38.67168426513672,0.0053507983684539795,0.0216662734746933,0.04584884643554688,988.3162841796876,0,13.0,1,1
9.76,0.0698317,-0.14875819,9.769977,0.0005199451115913688,-0.0001690094213699922,0.0007139508379623294,-6.316599845886231,26.31924247741699,-38.11219787597656,0.0006676539778709412,0.012042611837387085,0.04111099243164063,988.3010864257812,0,13.0,1,1
9.8,0.05788985,-0.16067477,9.765244000000001,0.00012066058116033672,0.00023043371038511395,-0.00035123166162520647,-6.421248912811278,25.69474601745605,-38.52143859863281,0.029479958117008213,0.03087206184864044,0.045841217041015625,988.2808227539062,0,13.0,1,1
9.84,0.06506717,-0.15352513,9.767611,0.00012058712309226394,-0.0007016599993221463,0.000181368668563664,-6.427336692810059,25.68885612487793,-38.21221923828125,0.015324532985687256,0.01187363266944885,0.04110527038574219,988.2885131835938,0,13.0,1,1
9.88,0.060294985999999995,-0.14637546,9.772346,0.0002536717220209539,-0.0011011217720806599,0.0008471269393339753,-5.867510795593263,26.107770919799805,-38.39998245239258,0.019745483994483948,0.02154044806957245,0.03637504577636719,988.3007202148438,0,13.0,1,1
9.92,0.06508237,-0.14399238,9.7723465,0.0002535982639528811,0.0006299432716332376,-0.00021816801745444536,-6.313555717468263,26.32218742370605,-38.26681137084961,0.015033639967441559,-0.0022874623537063603,0.05057716369628906,988.2860107421876,0,13.0,1,1
9.96,0.06509,-0.14875908,9.7770815,0.00012036686530336738,-3.5834498703479774e-05,-0.00021819944959133863,-6.395650386810303,25.50795555114746,-38.43746948242188,0.02406477928161621,0.0026815086603164677,0.02691173553466797,988.2732543945312,0,13.0,1,1
10.0,0.06748754,-0.15114261,9.772348,0.0006529252859763801,0.00036365119740366936,0.0004475587629713118,-6.114284992218018,25.665929794311523,-38.25911712646485,0.009475678205490112,0.017072349786758426,0.02691364288330078,988.3037109375,0,13.0,1,1
10.04,0.07466483,-0.14875944,9.774714999999999,0.00012022018199786542,0.0008962948340922594,0.00018121139146387574,-6.117733955383301,26.137189865112305,-38.90203475952149,0.0048642754554748535,0.01698186993598938,0.03637886047363281,988.3062744140624,0,13.0,1,1
10.08,0.069892645,-0.14875968,9.769983,0.00025330454809591174,-3.57987591996789e-05,-8.513592183589935e-05,-6.298229217529298,25.230573654174805,-38.66720581054688,0.0045841559767723075,0.01690706610679626,0.03164386749267578,988.30615234375,0,13.0,1,1
10.12,0.081849754,-0.15590967,9.762881,0.00025323120644316077,-0.00016894476721063256,-0.0007509571732953192,-6.3982582092285165,26.24306297302246,-38.55706787109375,-0.00986645370721817,0.017145410180091858,0.05532073974609375,988.3137817382812,0,13.0,1,1
10.16,0.067517996,-0.15590988,9.762882000000001,0.0002531578647904098,0.0004968568682670593,0.00031427497742697597,-6.322549819946289,26.41927146911621,-38.50205993652344,0.014043539762496948,0.012274399399757384,0.04584884643554688,988.3213500976562,0,13.0,1,1
10.2,0.06991549999999999,-0.1535268,9.760515,0.000253084406722337,-0.0003020789008587599,-0.00021838827524334192,-6.340132713317871,26.139219284057614,-38.175025939941406,0.008901283144950867,0.011889755725860596,0.04584503173828125,988.3189697265624,0,13.0,1,1
10.24,0.06992310000000002,-0.16067679,9.774719000000001,-0.0004127786378376186,0.0011626703198999164,0.0001810541143640876,-6.340973854064941,25.8753719329834,-38.69834899902344,0.008490122854709625,0.021451354026794437,0.031645774841308594,988.3290405273438,0,13.0,1,1
10.28,0.06993073,-0.15829374,9.777088000000001,0.00025293760700151324,0.0004968926077708602,-0.0004847670206800104,-5.985177040100098,25.2076473236084,-38.71410369873047,0.008398354053497314,0.016766473650932312,0.04585075378417969,988.3037109375,0,13.0,1,1
10.32,0.07232827,-0.14161094,9.779455,0.00038602208951488137,0.0003637465997599065,-0.0006179563933983445,-6.009390830993652,25.289995193481445,-38.17630004882813,0.00767187774181366,0.002346530556678772,0.031650543212890625,988.29638671875,0,13.0,1,1
10.36,0.07472575,-0.15114428,9.751049,-0.0002503787400200963,0.0014270669780671597,-0.0010124149266630411,-6.765007972717285,26.26833915710449,-38.42504501342773,0.012471958994865416,0.011829480528831482,0.06952476501464844,988.3341674804688,0,13.0,1,1
10.4,0.06995356,-0.15352775,9.760519,-0.00011729414109140637,0.0008944473229348661,5.281704943627119e-05,-6.5032896995544425,26.513078689575195,-37.94080352783203,-0.002258852124214173,0.011431679129600523,0.05058383941650391,988.3065185546876,0,13.0,1,1
10.44,0.065181375,-0.15352787,9.767622,1.5716999769210815e-05,-0.0011028979206457734,5.275418516248465e-05,-6.254887104034424,25.85004997253418,-37.78631591796875,0.002893008291721344,0.016208037734031674,0.05057907104492188,988.3011474609376,0,13.0,1,1
10.48,0.07235873,-0.13684522,9.762888,1.5716999769210815e-05,-0.0011028979206457734,5.275418516248465e-05,-6.254887104034424,25.85004997253418,-37.78631591796875,0.002785250544548035,0.006711184978485107,0.04584503173828125,988.3011474609376,0,13.0,1,1
10.52,0.07236633,-0.16306134,9.777092,-0.0006501461612060666,0.000628167181275785,-0.00034675118513405323,-6.104311466217041,25.93861198425293,-38.19962692260742,0.007532805204391478,0.01579979062080383,0.05057334899902344,988.3139038085938,0,13.0,1,1
10.56,0.06759414,-0.14399539,9.755787,-0.0006502195028588176,-0.0004370844108052552,-0.00047994055785238743,-6.12784481048584,25.758588790893555,-38.262451171875,0.012015081942081451,-0.00815759599208832,0.05057430267333984,988.3114624023438,0,13.0,1,1
10.6,0.072381556,-0.14876206,9.774726,0.00028181262314319616,0.0006281909300014378,-0.00047997198998928065,-6.422908306121826,25.58735466003418,-37.74505615234375,0.01207549124956131,0.02064399421215057,0.03637218475341797,988.3062744140624,0,13.0,1,1
10.64,0.07477909,-0.15352885,9.774727,0.00028181262314319616,0.0006281909300014378,-0.00047997198998928065,-6.262795448303223,25.21055030822754,-37.82466125488281,-0.0069023147225379935,0.020796969532966614,0.017434120178222656,988.3062744140624,0,13.0,1,1
10.68,0.06663519,-0.15112169,9.767536,0.000548055162653327,-0.0007033764850348233,0.0004521021619439125,-6.2487993240356445,25.85594749450684,-38.09553527832031,0.00428067147731781,0.011284992098808287,0.03645610809326172,988.32177734375,0,13.0,1,1
10.72,0.06660354,-0.15350415,9.762798,0.0006811397615820169,0.00022874103160575035,5.259690806269646e-05,-6.4273362159729,25.68885612487793,-38.21221923828125,0.003999538719654082,0.015910938382148743,0.05539703369140625,988.3014526367188,0,13.0,1,1
10.76,0.05940211,-0.14873679,9.769897,-0.0003773044445551932,0.00023007445270195606,-0.00020778941689059136,-6.733458995819093,25.98151969909668,-37.95121765136719,0.02315708994865417,0.025174185633659363,0.04119300842285156,988.2990112304688,0,13.0,1,1
10.8,0.059370400000000004,-0.14873607,9.758058,0.00015563279157504442,-3.629102138802409e-05,-0.0006071322713978589,-6.603808879852295,25.15495109558105,-38.30775451660156,0.013725496828556059,0.006580352783203125,0.05066967010498047,988.311767578125,0,13.0,1,1
10.84,0.064118534,-0.15350182,9.762789,0.0016206756699830296,-0.0008352882578037679,0.00045826219138689334,-6.705658435821532,25.53382682800293,-38.54518127441406,0.008641116321086884,0.020886540412902832,0.041207313537597656,988.3092041015624,0,13.0,1,1
10.88,0.07125655,-0.15826757,9.765153999999999,-0.00037638802314177155,0.0008957154350355268,-0.0010063443332910538,-6.402579307556152,25.23821830749512,-38.65157318115234,0.013485170900821686,0.025446444749832157,0.050675392150878906,988.304443359375,0,13.0,1,1
10.92,0.076004654,-0.16779993,9.765151,2.3391272407025102e-05,-0.0005690715624950826,0.0001922081573866308,-6.5120391845703125,25.609731674194336,-38.50247192382813,0.004179477691650391,0.030247271060943607,0.04594230651855469,988.3041381835938,0,13.0,1,1
10.96,0.05924362,-0.14396642,9.75568,-0.00010946119436994195,-0.0005691212136298418,-0.00047345057828351855,-6.397715091705322,25.87477302551269,-38.4586181640625,0.01872454583644867,0.005996435880661011,0.05540752410888672,988.2990112304688,0,13.0,1,1
11.0,0.075941265,-0.14873217,9.774614,-0.00010915572056546807,-3.653898602351546e-05,0.0003256279742345214,-6.701773166656494,25.80061912536621,-38.17646789550781,-0.005214489996433258,0.02503351867198944,0.03173828125,988.2939453125,0,13.0,1,1
11.04,0.0711298,-0.14158155,9.765141999999999,0.00015746563440188768,-0.00016974651953205466,-0.0007395046413876116,-6.818161964416504,25.90239524841309,-38.24147415161133,-0.00040522962808609014,-0.008341759443283081,0.03647518157958984,988.3068237304688,0,13.0,1,1
11.08,0.061538517,-0.14873065,9.769874,-0.0006411771173588933,0.00022967776749283075,-0.00113884755410254,-6.6626152992248535,25.521169662475586,-38.08916473388672,0.01830021291971207,0.01556694507598877,0.050685882568359375,988.319580078125,0,13.0,1,1
11.12,0.075846255,-0.14157999999999998,9.772238,-0.00010824023047462106,0.0004959441139362752,0.00019286252791062,-6.459022521972656,25.8697566986084,-37.98696899414063,0.0040058791637420646,-0.003660544753074646,0.04121875762939453,988.2841796875,0,13.0,1,1
11.16,0.063865036,-0.1487291,9.765133,0.00029153906507417565,9.642075747251509e-05,0.0004593093181028962,-6.325486660003662,25.30997657775879,-37.97479248046875,0.01802784204483032,0.005780547857284546,0.04122352600097656,988.3170776367188,0,13.0,1,1
11.2,0.06861314,-0.14872829999999998,9.755662,-0.00010762928286567329,0.0006290028104558588,-7.31915351934731e-05,-6.624542236328125,25.97829627990723,-38.198768615722656,0.003916002810001372,0.010426446795463562,0.050690650939941406,988.3041381835938,0,13.0,1,1
11.24,0.05902183,-0.15111084,9.767494000000001,0.00029215001268312335,-0.000702626071870327,-0.00047253438970074063,-6.332118034362793,25.67237663269043,-37.76402282714844,0.018051721155643463,0.010476768016815186,0.041228294372558594,988.3297119140624,0,13.0,1,1
11.28,0.075719446,-0.14872675,9.76039,0.00015929754590615633,0.0006289036246016622,0.0008591759251430631,-6.2367610931396475,25.761816024780273,-38.01490020751953,-0.005889140069484711,0.01035463809967041,0.050698280334472656,988.3069458007812,0,13.0,1,1
11.32,0.066128135,-0.16064234,9.765121,-0.0007725025643594563,0.00022938032634556293,0.0005929909530095756,-6.4013023376464835,26.2401180267334,-38.40245819091797,0.008130885660648346,0.010141655802726746,0.05070018768310547,988.29443359375,0,13.0,1,1
11.36,0.066096485,-0.14872517,9.769853999999999,0.00015990849351510406,0.00022933067521080372,0.0001936480402946472,-6.583564758300781,26.332460403442386,-37.76390075683594,0.0035665184259414673,-0.003917455673217773,0.036502838134765625,988.2969970703124,0,13.0,1,1
11.4,0.06845468,-0.15110768,9.762749000000001,-0.00010579644003883004,0.00049554742872715,0.0003270678280387074,-6.187492370605469,25.86096000671387,-38.56718444824219,0.003171779215335846,0.010355398058891295,0.04124546051025391,988.3043212890624,0,13.0,1,1
11.44,0.06364316,-0.14872362,9.774582,-0.00010579644003883004,0.00049554742872715,0.0003270678280387074,-6.187492370605469,25.86096000671387,-38.56718444824219,0.012716621160507202,0.01487027108669281,0.01757049560546875,988.3043212890624,0,13.0,1,1
11.48,0.07317108,-0.141573,9.753275,2.766697434708476e-05,0.0002291818964295089,6.088282680138946e-05,-6.505652904510497,26.24776268005371,-38.38682556152344,0.007981345057487488,0.010119497776031494,0.06491756439208984,988.299560546875,0,13.0,1,1
11.52,0.07074952,-0.14395554,9.776943,-0.00010518549242988227,-0.0001703415182419121,-0.0002053020871244371,-6.239805221557617,25.75886344909668,-37.86029052734375,0.003297619521617889,0.009898379445075987,0.027042388916015625,988.2791137695312,0,13.0,1,1
11.56,0.065937996,-0.14633797,9.772206,-0.0001048800186254084,0.0002290826523676514,6.114470306783915e-05,-6.172410011291504,25.769777297973636,-38.64115905761719,0.017454288899898533,0.000476837158203125,0.03651618957519531,988.3068237304688,0,13.0,1,1
11.6,0.06351641,-0.15110375,9.767469,0.00016174133634194732,9.587517706677318e-05,-0.0002050402108579874,-6.1960811614990225,25.48383140563965,-38.0049057006836,0.012677803635597227,0.014699146151542662,0.04598712921142578,988.3147583007812,0,13.0,1,1
11.64,0.06895101,-0.14873655,9.781732,-0.00010426907101646066,0.0003621414653025568,6.140657933428885e-05,-6.393287181854247,25.77327537536621,-37.99145126342773,0.007677488029003144,0.005290240049362183,0.036525726318359375,988.3096313476562,0,13.0,1,1
11.68,0.08398706,-0.16781987,9.751021000000001,0.00042866816511377687,9.577599121257664e-05,-0.0004710943321697414,-6.485056877136231,25.31849479675293,-37.796730041503906,-0.012826547026634216,0.028932943940162662,0.060069084167480476,988.3170776367188,0,13.0,1,1
11.72,0.06250203,-0.14637096,9.769962,-0.000244493770878762,0.0004942714585922658,5.569745553657413e-05,-6.51812744140625,25.60384178161621,-38.19325256347656,0.006064362823963164,0.005005627870559692,0.05059814453125,988.2918701171876,0,13.0,1,1
11.76,0.07208574,-0.16305448,9.777064999999999,-0.0002480090479366481,9.53682465478778e-05,-7.896701572462916e-05,-6.842780590057372,26.45895195007324,-38.501197814941406,-0.0037053227424621578,0.01891203224658966,0.03638839721679688,988.3273315429688,0,13.0,1,1
11.8,0.06971994,-0.14398886,9.772333,-0.0002482414129190147,0.0006280376692302525,-0.00034538237378001213,-6.269831657409668,26.047155380249023,-38.41142654418945,0.0011931359767913818,0.014186725020408632,0.01744842529296875,988.3045654296876,0,13.0,1,1
11.84,0.064964235,-0.14398949,9.774704,0.00015100016025826335,-0.0009698198991827668,0.00018714979523792863,-6.458043575286865,26.23952293395996,-38.16272354125977,0.015268795192241669,-0.00020276010036468503,0.03164958953857422,988.302001953125,0,13.0,1,1
11.88,0.06259847,-0.16305627,9.758135000000001,2.5588087737560272e-06,0.0009692770545370877,-0.0008836416527628899,-6.66633939743042,25.78059959411621,-37.33393096923828,0.010138995945453644,0.028338566422462463,0.04111766815185547,988.2875366210938,0,13.0,1,1
11.92,0.065012425,-0.16305687,9.765239,-0.0003971474943682552,0.0004366831271909177,0.0001815222203731537,-6.632152557373048,25.97093391418457,-37.81224060058594,0.009709082543849943,0.028146058320999142,0.04585075378417969,988.2945556640624,0,13.0,1,1
11.96,0.06981635,-0.13684143,9.760507,2.094078809022904e-06,0.0007030366105027497,0.0008472123881801963,-6.704519271850586,26.4298152923584,-37.59698867797852,3.0703842639923096e-05,-0.010119274258613586,0.05058193206787109,988.30224609375,0,13.0,1,1
12.0,0.06984043,-0.14399184,9.784180000000001,2.094078809022904e-06,0.0007030366105027497,0.0008472123881801963,-6.223606586456299,26.14335823059082,-38.80909729003906,0.009762786328792572,0.018308237195014957,0.012701034545898438,988.30224609375,0,13.0,1,1
12.04,0.06747466,-0.15352555,9.781816000000001,0.0001350197708234191,0.00030360068194568157,-8.499261457473041e-05,-6.4563846588134775,26.34691429138184,-38.939109802246094,-0.0046532973647117615,0.008779123425483705,0.01743316650390625,988.2994995117188,0,13.0,1,1
12.08,0.06749874,-0.15829267,9.769981,1.3972166925668716e-06,-0.00022895570145919916,-0.00048466550651937723,-6.368231773376465,25.95477104187012,-38.00593566894531,3.419071435928345e-05,0.0135049968957901,0.05057144165039063,988.3050537109376,0,13.0,1,1
12.12,0.06991273,-0.15591,9.758148,-0.0001319929724559188,0.0001705558388493955,0.0007136563071981072,-6.085749626159668,26.58842658996582,-38.702415466308594,0.009274795651435852,0.008750393986701965,0.05530548095703125,988.3121337890624,0,13.0,1,1
12.16,0.06993681,-0.14637746,9.767619,0.000400406657718122,0.0003037514979951084,0.0005803987733088434,-6.247820854187013,26.22570610046387,-38.27129364013672,0.0045998021960258475,-0.0009574294090270996,0.03636264801025391,988.3001098632812,0,13.0,1,1
12.2,0.07235086,-0.17021085,9.769988,-0.000265615526586771,-0.00102779024746269,0.00031398341525346035,-6.137817859649657,25.485902786254886,-38.32194519042969,0.00029377639293670654,0.03697289526462555,0.02215099334716797,988.30224609375,0,13.0,1,1
12.24,0.055645645,-0.16067834,9.758154,4.682224243879318e-07,-0.0004951207665726542,0.0007133577018976213,-6.503045082092285,25.51265525817871,-38.26722717285156,0.009776227176189423,0.01784166693687439,0.04581928253173828,988.3126220703124,0,13.0,1,1
12.28,0.06283945,-0.14399596,9.774727,0.0001333937980234623,0.00043702247785404325,4.74684638902545e-05,-6.147492408752441,25.845354080200195,-37.95656204223633,0.019001752138137814,0.017933428287506104,0.04582118988037109,988.2869873046876,0,13.0,1,1
12.32,0.06764334400000001,-0.14637984,9.762894000000001,3.725290298461914e-09,-0.00022872950648888946,-0.0002189468359574676,-6.065696716308594,26.027456283569336,-38.21077346801758,0.009626440703868866,-0.0011555850505828855,0.050551414489746094,988.3026733398438,0,13.0,1,1
12.36,0.06527752,-0.15353025,9.779466000000001,-0.0006660183425992727,3.7624093238264316e-05,0.0005799010978080332,-6.277740001678468,25.407655715942386,-38.44977188110352,0.004677198827266693,0.003561347723007202,0.04108142852783203,988.3175659179688,0,13.0,1,1
12.4,0.067691505,-0.14876436,9.758163,0.0007984866388142109,-0.0002286540693603456,-0.000618619960732758,-6.6736741065979,25.98506736755371,-38.34556198120117,0.004270553588867188,0.008185595273971558,0.04581356048583984,988.3123779296876,0,13.0,1,1
12.44,0.067715645,-0.13684852,9.774736,-0.0002670090179890394,0.001502437051385641,4.707020707428456e-05,-6.7506065368652335,26.43952751159668,-37.89839172363281,0.008851848542690277,-0.010782063007354736,0.03160953521728516,988.2973022460938,0,13.0,1,1
12.48,0.07729936,-0.14876552,9.784207,0.0006648640846833588,3.77372489310801e-05,-0.00021934520918875933,-6.109175682067871,25.30205345153809,-38.39258575439453,-0.0006978288292884827,0.01306605339050293,0.01740550994873047,988.3154296875,0,13.0,1,1
12.52,0.067763805,-0.15114938,9.758169,-0.0002674735151231289,-9.538303129374981e-05,0.00031318713445216423,-6.556742668151856,25.51500129699707,-38.182106018066406,0.003980070352554321,0.00827750563621521,0.0410757064819336,988.280029296875,0,13.0,1,1
12.56,0.07734752,-0.14876671,9.767641000000001,-0.0002677061129361391,-0.00022850319510325792,-0.00021954416297376159,-6.597858905792236,25.0549259185791,-37.91789245605469,-0.005397193133831024,0.008358046412467957,0.03633880615234375,988.3052978515624,0,13.0,1,1
12.6,0.055862546,-0.1535338,9.760541,0.0010636411607265472,-0.0002284655056428164,-0.0003528017550706864,-6.1337947845458975,25.85861396789551,-38.652305603027344,0.02354659140110016,0.013004615902900696,0.03633308410644531,988.2826538085938,0,13.0,1,1
12.64,0.07021039999999999,-0.16068383,9.777113,-0.00013501255307346582,-0.0011605334002524614,0.0005792041774839162,-6.4104347229003915,26.23127555847168,-37.938621520996094,0.004548944532871246,0.013243287801742555,0.026864051818847656,988.2649536132812,0,13.0,1,1
12.68,0.06304824,-0.14876764,9.765278,0.000397424097172916,-9.523818152956663e-05,-0.000219827052205801,-5.972840309143066,25.74565315246582,-38.208595275878906,0.009286396205425262,0.003619179129600525,0.04580116271972656,988.2952880859376,0,13.0,1,1
12.72,0.070240796,-0.1487682,9.770014,0.0004011209239251912,-0.00036522070877254015,0.00017663766629993916,-6.0736045837402335,25.387948989868164,-38.249122619628906,0.00431482493877411,-0.0011831074953079224,0.0363311767578125,988.3026733398438,0,13.0,1,1
12.76,0.06309396,-0.15115203,9.758181,-0.0005312050343491137,0.00043376261601224536,4.338519647717476e-05,-6.644489288330077,25.43292808532715,-38.3177490234375,-0.0006686151027679442,0.012760803103446959,0.05526447296142578,988.3001098632812,0,13.0,1,1
12.8,0.07267642,-0.14638610000000002,9.758182000000001,-0.0003982672351412475,0.00070011435309425,-0.00022302509751170874,-6.663701057434082,26.257753372192386,-38.28606796264648,0.008712276816368103,0.007840186357498169,0.04105758666992188,988.3204345703124,0,13.0,1,1
12.84,0.05835980000000001,-0.16068627,9.767653,-0.000531645433511585,3.4360389690846205e-05,-0.0004894352750852704,-6.604191780090332,26.04946327209473,-37.28225708007813,0.008884534239768982,0.017314419150352478,0.036316871643066406,988.3076782226562,0,13.0,1,1
12.88,0.06555238,-0.15353696,9.77239,0.0005333979497663677,-0.0003650776925496757,-0.0006226875120773911,-6.423015594482423,26.693700790405273,-38.117713928222656,0.008863009512424469,0.012233734130859377,0.05051422119140625,988.2802124023438,0,13.0,1,1
12.92,0.06557524,-0.14638774,9.777125999999999,-0.0009315595380030572,-0.0008976737735792994,0.0005756395403295755,-6.3084468841552725,25.95831871032715,-38.40027618408203,0.01873300969600677,-0.006954848766326904,0.04103946685791016,988.282958984375,0,13.0,1,1
12.96,0.07037783,-0.16307126,9.765291,0.00026664166944101453,-9.869033237919211e-05,-0.00022340251598507169,-6.1549644470214835,25.943906784057614,-38.26911544799805,0.013881519436836244,0.021956056356430054,0.045777320861816406,988.300537109375,0,13.0,1,1
13.0,0.060841112999999995,-0.14877214,9.765295,0.0007990531739778818,-0.0003649705031421036,-0.00022349681239575148,-6.420407772064209,25.958593368530273,-37.99811553955078,0.013714887201786041,0.012321889400482178,0.036304473876953125,988.3283081054688,0,13.0,1,1
13.04,0.06564379,-0.15830578,9.767664,-0.00026643049204722047,0.00016769702779129148,0.00017588259652256966,-6.302358627319336,25.964208602905273,-38.7094955444336,0.008784957230091095,0.021677017211914062,0.03630161285400391,988.2775268554688,0,13.0,1,1
13.08,0.06088683,-0.14877327,9.7724,0.00013282295549288392,0.00016773276729509234,-0.0004900014027953149,-6.139883041381836,25.85272026062012,-38.34308624267578,0.01823167502880096,-0.006834566593170166,0.04103660583496094,988.3055419921876,0,13.0,1,1
13.12,0.0632996,-0.15115710000000002,9.751097,-0.0006663449457846582,-0.0004980211379006505,0.00017569377087056637,-6.171568393707275,26.03361701965332,-38.117835998535156,0.008587583899497986,0.011866509914398192,0.06943511962890625,988.2699584960938,0,13.0,1,1
13.16,0.053762794,-0.1487744,9.774772,0.0002655406133271754,0.0007004361250437796,-0.0004901903448626398,-6.081076622009277,25.486501693725586,-38.56167221069336,0.01812800019979477,0.002408862113952637,0.031558990478515625,988.2952880859376,0,13.0,1,1
13.2,0.06334525,-0.15115823,9.774775,-9.9564203992486e-07,-0.00023163377773016688,0.0005749788833782077,-6.092273235321045,25.84448051452637,-38.118988037109375,0.008444979786872864,0.025867566466331482,0.0031452178955078125,988.3080444335938,0,13.0,1,1
13.24,0.07770753,-0.14877553,9.765307,-0.0004006897215731442,-9.84400394372642e-05,-0.0004903789376839995,-6.183606624603272,26.12775230407715,-38.19847106933594,-0.005632556974887848,0.011392682790756227,0.05048274993896485,988.3004150390624,0,13.0,1,1
13.28,0.068170786,-0.14400952,9.779511999999999,-0.0009335417416878042,-0.0012968257069587708,0.00017531617777422068,-6.294887065887451,25.86565971374512,-38.39694213867188,0.01844559609889984,0.0015817731618881226,0.03153800964355469,988.3006591796876,0,13.0,1,1
13.32,0.07536334,-0.15115987,9.770045,-0.0009335417416878042,-0.0012968257069587708,0.00017531617777422068,-6.345540523529053,25.870954513549805,-38.4664306640625,-0.0010068491101264954,0.010714799165725708,0.04100131988525391,988.3006591796876,0,13.0,1,1
13.36,0.06343666,-0.15354373,9.762946000000001,-0.0004011303535662592,0.000567421258892864,-0.00022425199858844283,-6.380568504333496,25.41677284240723,-38.51144409179688,0.008059769868850708,0.005821496248245239,0.031531333923339844,988.29052734375,0,13.0,1,1
13.4,0.07062924,-0.1583109,9.767683,-0.0010245415614917872,0.0005970204947516322,-0.0007435758016072214,-6.067761421203612,26.394269943237305,-38.23191833496094,0.012666136026382445,0.024838536977767944,0.02679538726806641,988.2903442382812,0,13.0,1,1
13.44,0.073041975,-0.1511616,9.760583,0.0003065973287448287,0.00019761823932640252,5.518313264474273e-05,-5.883870124816895,25.197057723999023,-38.57512664794922,0.007673248648643494,0.015201687812805176,0.05520057678222656,988.2879638671876,0,13.0,1,1
13.48,0.08023456,-0.14877884,9.772421000000001,-0.0002262546913698316,0.0008634435944259168,0.0005877204821445048,-6.199667930603027,25.84917640686035,-37.94874572753906,-0.0021189898252487183,0.01052206754684448,0.04099750518798828,988.2832641601562,0,13.0,1,1
13.52,0.070697784,-0.14401288,9.767689,-0.00022647494915872807,0.0005971634527668357,5.499430699273944e-05,-6.534731388092041,25.693552017211914,-38.04197692871094,-0.006470724940299989,-0.0038097798824310303,0.04572677612304688,988.3106689453124,0,13.0,1,1
13.56,0.07072061,-0.14401342,9.767691000000001,0.0005722525529563428,-0.0014001699164509773,0.0005875317147001624,-6.119393348693848,26.02979850769043,-38.12565231323242,0.0032064691185951233,-0.003962218761444092,0.03151702880859375,988.2933959960938,0,13.0,1,1
13.6,0.06118387,-0.15831370000000003,9.767693,3.940053284168243e-05,-0.001000660238787532,0.00032112147891893983,-6.534730911254883,25.69355583190918,-38.04197692871094,0.013253934681415558,0.024879992008209232,0.03151416778564453,988.2782592773438,0,13.0,1,1
13.64,0.06776935,-0.14638294,9.777108,0.0003054960398003459,-0.0007343086181208491,-7.844675565138459e-05,-6.607395648956299,25.520299911499023,-38.25159454345703,-0.00046190619468688965,0.015285074710845947,0.02683258056640625,988.313720703125,0,13.0,1,1
13.68,0.06776807,-0.14876617,9.777107,-9.130861144512892e-05,-0.00046842603478580713,-0.00021046079928055408,-6.527121543884277,25.70091819763184,-38.428504943847656,0.009118728339672087,0.0056704431772232064,0.03629970550537109,988.298095703125,0,13.0,1,1
13.72,0.062987,-0.14638288,9.765272,-8.846505079418421e-05,-6.941382889635861e-05,-0.0003423999878577888,-6.161052703857423,25.93801689147949,-37.95989608764648,0.013346880674362184,0.005387306213378906,0.05050373077392578,988.2705078125,0,13.0,1,1
13.76,0.06298572,-0.16306579999999998,9.777108,-0.00048792676534503704,0.001395321567542851,0.0005897107766941191,-6.599624633789063,26.05387687683105,-37.51416778564453,0.012942366302013395,0.02001357078552246,0.017370223999023438,988.2984619140624,0,13.0,1,1
13.8,0.06776425,-0.15353264,9.772373,0.0007105072727426888,0.00019689803593792019,0.0001902421936392784,-6.259315490722656,25.95155143737793,-38.25348281860352,0.007928803563117981,0.020016476511955258,0.03157520294189453,988.3082275390624,0,13.0,1,1
13.84,0.08210242,-0.15829916,9.767638999999999,0.00031104544177651405,0.0008626857306808232,0.0008560371352359653,-6.800579071044923,26.18244743347168,-38.568504333496094,-0.011151134967803957,0.02450571954250336,0.0315704345703125,988.2984619140624,0,13.0,1,1
13.88,0.072541535,-0.15114932,9.772373,-0.00022157421335577965,0.0005963679868727922,-0.0003423792659305036,-6.295866012573242,25.495893478393555,-38.221187591552734,0.007905751466751099,0.014830708503723145,0.03156852722167969,988.2858276367188,0,13.0,1,1
13.92,0.06537056,-0.13446636,9.760538,-0.00035471958108246326,-0.00033573963446542615,0.0001902578515000641,-5.797102928161621,24.90936851501465,-38.26372528076172,0.003059722483158112,-0.008858814835548401,0.05051040649414063,988.2756958007812,0,13.0,1,1
13.96,0.07014909400000001,-0.15829901,9.767638999999999,0.00031108211260288954,0.00033004806027747685,0.00019026309018954637,-6.0294437408447275,25.850969314575195,-38.66793823242188,-0.0018251910805702212,0.01972444355487824,0.03157234191894531,988.2984008789062,0,13.0,1,1
14.0,0.07253772,-0.14876594,9.779474,-8.837971836328506e-05,6.3730200054124e-05,-0.0004755212576128542,-6.08770751953125,25.84889793395996,-38.35090637207031,0.0026373416185379033,0.019919589161872864,0.007906913757324219,988.2705078125,0,13.0,1,1
14.04,0.07014656,-0.14876594,9.762903,0.0005774226738139987,0.00046320210094563663,-0.0003423580783419311,-5.8217220306396475,25.46592140197754,-38.5234489440918,-0.0016189664602279663,-0.0027499496936798096,0.05052947998046875,988.2883911132812,0,13.0,1,1
14.08,0.07970488,-0.15591575,9.784208,0.003773225005716085,-0.0016673270147293804,-0.0007418267778120935,-6.1445860862731925,25.74238395690918,-37.41209411621094,-0.005530118942260742,0.007312014698982239,0.01739025115966797,988.3397827148438,0,13.0,1,1
14.12,0.06536421,-0.14161600000000002,9.772372,-0.00035465892869979143,-0.0011346972314640882,0.0009892317466437817,-6.431061744689941,25.948286056518555,-37.45698165893555,-0.0013898015022277832,-0.008918076753616333,0.050507545471191406,988.4964599609376,0,13.0,1,1
14.16,0.060583174000000004,-0.16068216,9.777106,-0.003683594521135092,0.0019279335392639039,0.00032344722421839833,-6.527503967285156,26.59542655944824,-37.40300369262695,0.002935826778411865,0.01936037838459015,0.02683544158935547,988.1973876953124,0,13.0,1,1
14.2,0.0725314,-0.14638253,9.76527,-0.0004877921892330051,0.0007295099785551429,0.00019029463874176145,-6.2449140548706055,26.12273597717285,-37.72682571411133,-0.001815803349018097,-0.009449601173400879,0.0363006591796875,988.204833984375,0,13.0,1,1
14.24,0.09642914,-0.14399926,9.777107,-0.0004877801984548568,-0.0004689134657382965,-0.0006086479988880455,-6.09477424621582,25.473241806030273,-37.86592864990234,-0.030385293066501617,0.005920514464378357,0.03157997131347656,988.2529907226562,0,13.0,1,1
14.28,0.07969856,-0.15353222,9.760536,0.002574865240603685,0.00019687428721226752,5.714711733162404e-05,-5.679574012756348,25.70357322692871,-37.250526428222656,-0.01661093533039093,0.009993270039558409,0.05998134613037109,988.3397827148438,0,13.0,1,1
14.32,0.08925688,-0.14161588,9.760536,-0.0012867029290646315,0.0011289778631180525,-0.00034232152393087745,-6.350404262542725,25.23439598083496,-38.65938568115234,-0.016271643340587616,0.00044664740562438965,0.04104137420654297,988.283935546875,0,13.0,1,1
14.36,0.07491621400000001,-0.14876570000000003,9.772371000000001,-0.00022142764646559956,-0.00020260349265299737,-0.0006086321664042772,-6.474785804748535,26.223318099975586,-37.31237030029297,0.011652924120426178,0.0005759596824645996,0.03157997131347656,988.2451782226562,0,13.0,1,1
14.4,0.08208465599999999,-0.15353216,9.774738000000001,0.00017805863171815872,0.0019279216649010773,0.0005897944793105125,-6.1599669456481925,25.20143699645996,-37.76299285888672,-0.003081455826759339,0.005257353186607361,0.036316871643066406,988.2679443359376,0,13.0,1,1
14.44,0.08686319,-0.14876558,9.779472,0.00017807097174227238,0.00033002431155182416,0.0009892736561596394,-5.964825630187987,25.278810501098636,-37.79759216308594,-0.01252468675374985,0.009862303733825684,0.04104804992675781,988.3089599609376,0,13.0,1,1
14.48,0.0653528,-0.1678318,9.770004,-0.0007540227379649878,0.0005963380681350827,0.00019033119315281508,-5.940450668334961,25.72267723083496,-37.2114486694336,0.010518081486225128,0.028752595186233517,0.05051994323730469,988.3165283203124,0,13.0,1,1
14.52,0.06774145,-0.13923247,9.762902,4.493736196309328e-05,0.0017947574378922582,0.00032349437242373824,-6.319100379943848,25.9480037689209,-37.85913848876953,0.00580238550901413,-0.0047978460788726815,0.02684497833251953,988.2813720703124,0,13.0,1,1
14.56,0.0844695,-0.15114878,9.767636,4.4949701987206936e-05,6.370243499986827e-05,5.7183729950338595e-05,-6.566960334777832,26.24274253845215,-37.91517639160156,-0.02283402532339096,4.95612621307373e-05,0.04104900360107422,988.303955078125,0,13.0,1,1
14.6,0.07478273,-0.15591218,9.765257,-0.0006208281265571712,6.370051414705813e-05,-0.00034228496951982384,-6.6016902923583975,26.420698165893555,-37.535316467285156,0.0008373036980628967,0.01882359385490417,0.026844024658203125,988.3143920898438,0,13.0,1,1
14.64,0.08181763,-0.15352567,9.765245,-8.8184024207294e-05,0.0005963302683085202,0.00045666805817745626,-6.561147689819336,26.036806106567386,-36.82624053955078,0.0010390058159828186,0.004293665289878845,0.0505361557006836,988.3037719726562,1,1.0,2,2
14.68,0.0698567,-0.15114208,9.769979,-8.8184024207294e-05,0.0005963302683085202,0.00045666805817745626,-6.525300979614258,26.33452796936035,-38.0809326171875,0.01046687364578247,0.008906245231628418,0.050537109375,988.3037719726562,1,1.0,2,2
14.72,0.074625075,-0.16305815,9.769978,-0.00048550043720752,0.00019650624017231166,-7.503927918151021e-05,-6.112602233886719,26.19362068176269,-37.21247100830078,-0.0182533860206604,0.01807296276092529,0.03632926940917969,988.2734985351562,1,1.0,2,2
14.76,0.07461366,-0.16305794,9.762876,-0.0007512959418818356,0.0005958954570814968,0.0005909735336899757,-6.3397274017333975,25.66501426696777,-37.37749481201172,-0.004054427146911621,0.013071030378341677,0.045795440673828125,988.2811889648438,1,1.0,2,2
14.8,0.07699215400000001,-0.14399137,9.767609,-0.00021855428349226716,-6.991199916228652e-05,0.0005910206818953156,-6.052816390991211,26.19716453552246,-37.60681915283203,-0.004045560956001282,0.003689512610435486,0.026862144470214844,988.3143920898438,1,1.0,2,2
14.84,0.07698077,-0.1654406,9.779444,0.00044734554830938583,0.00032954398193396633,0.0003247519489377737,-5.928818225860597,26.10275077819824,-37.92833709716797,-0.008903235197067259,0.027428492903709408,0.041065216064453125,988.2612915039062,1,1.0,2,2
14.88,0.0697996,-0.153524,9.772341,-0.00016843649791553617,-9.554659482091664e-05,-0.00020095036597922444,-6.061948776245117,26.188329696655273,-37.142982482910156,0.0009028539061546326,0.012941256165504456,0.026859283447265625,988.2865600585938,1,1.0,2,2
14.92,0.08890742,-0.16067345,9.777074,-0.00030148442601785064,-0.0008945121080614627,-0.0004672190989367664,-6.1351566314697275,26.383359909057614,-37.45105361938477,-0.02300906926393509,0.017624452710151672,0.012656211853027344,988.2662963867188,1,1.0,2,2
14.96,0.060217142,-0.15590663,9.758135000000001,9.809940820559859e-05,0.0008365233079530299,-0.0006003297748975456,-6.377906799316406,26.31422233581543,-37.64055252075195,0.005687937140464783,0.007959336042404175,0.04106044769287109,988.2740478515624,1,1.0,2,2
15.0,0.06976533,-0.15113981,9.765236,-0.0003012642846442759,-0.0007613899069838227,0.00033182287006638944,-6.385952472686768,25.56880760192871,-36.97982025146485,0.0057873502373695365,0.002972051501274109,0.04105854034423828,988.2764282226562,1,1.0,2,2
15.04,0.07453376,-0.1535228,9.751032,-0.0005674702697433531,-0.0006282498361542821,-0.0003339195973239839,-6.188746452331543,25.27936363220215,-36.9932746887207,0.0013848170638084412,0.01253555715084076,0.059994697570800774,988.3114013671876,1,1.0,2,2
15.08,-0.03063336,-0.10585699999999999,9.774703,9.842956205829978e-05,-9.563594358041884e-05,0.0003319171955808997,-5.978928565979004,25.73975944519043,-37.89937210083008,-0.012415885925292969,0.012104630470275879,0.04578304290771485,988.3117065429688,1,1.0,2,2
15.12,0.115139216,-0.35848420000000003,9.786537,-0.0007004080689512192,-0.0014272332191467285,-0.0017985629383474586,-6.1505370140075675,25.84240531921387,-37.80195236206055,1.3051894903182983,-0.9527777433395386,-0.020445823669433597,988.27880859375,1,1.0,2,2
15.16,0.21311378,0.013307497,9.772333,-0.003762930631637573,-0.0027588305529206987,-0.6405571699142456,-6.847920894622803,25.61056327819824,-37.295997619628906,-0.2552433013916016,-0.22602812945842746,0.002713203430175781,988.3043212890624,1,1.0,2,2
15.2,-0.06890604,-0.21310373,9.985380000000001,0.02380087599158287,-0.1725352257490158,-0.19314640760421756,-7.343639850616455,26.200040817260746,-37.40807342529297,0.17485123872756958,0.0981215387582779,-0.06993293762207031,988.2811889648438,1,1.0,2,2
15.24,0.27283847,-0.22501977,9.999582,-0.15063591301441193,-0.1526947021484375,-0.33309540152549744,-8.054040908813478,25.692567825317386,-36.80699920654297,-0.10824663937091827,-0.15836913883686066,-0.03947257995605469,988.2431030273438,1,1.0,2,2
15.28,0.4831385,-0.40853196,10.321521,-0.258893221616745,-0.00781888049095869,-0.2792995572090149,-8.028848648071289,25.979982376098636,-37.52056121826172,-0.701441764831543,0.15376120805740354,-0.5947608947753906,988.1799926757812,1,1.0,2,2
15.32,0.49268670000000003,-0.6134937,9.561648,-0.6423879861831665,0.20004063844680786,-0.14054889976978302,-8.187278747558594,26.88448143005371,-36.394309997558594,0.11841945350170135,-0.6647883057594299,0.030725479125976562,988.2002563476562,1,1.0,2,2
15.36,0.06010294,-1.8647145,9.322559,-1.1059106588363647,-0.048698414117097855,-0.16531623899936676,-8.650447845458983,27.977209091186523,-34.38528060913086,-0.151485875248909,0.6010410785675049,0.3903875350952149,988.2431030273438,1,1.0,2,2
15.4,-0.13110057,-1.1878632,10.276542,-0.9021789431571959,0.16741691529750824,-0.3209778070449829,-8.693437576293945,29.622426986694336,-34.09000396728516,0.2982088327407837,-0.2828871011734009,-0.41605567932128906,988.2734985351562,1,1.0,2,2
15.44,0.014672011,-2.0267768,9.528503,-0.8041744828224182,0.03905263915657997,0.0646476298570633,-8.540200233459473,30.60844993591309,-33.632423400878906,-0.16016638278961182,-0.000542759895324707,-0.1526165008544922,988.2562255859376,1,1.0,2,2
15.48,-0.35338432,-2.1769228,8.950906,-0.7322691679000854,0.3762085437774658,0.050532933324575424,-7.775696277618407,30.63936424255371,-33.52108764648437,0.07194818556308746,0.20058798789978027,0.9585227966308594,988.2891845703124,1,1.0,2,2
15.52,-0.31754717,-2.2960868,9.126078,-0.7573027014732361,0.2140221446752548,0.11524773389101027,-7.002985954284668,31.94192314147949,-32.946533203125,0.17324189841747284,-0.5064841508865356,-1.0054988861083984,988.288818359375,1,1.0,2,2
15.56,0.14608239999999997,-2.9657876,10.120302,-0.7284073829650879,0.10296839475631714,-0.014448050409555437,-7.401123046875,32.780235290527344,-32.16439437866211,-0.23134011030197146,0.4031603336334229,0.7431964874267578,988.2836303710938,1,1.0,2,2
15.6,-0.4514045,-2.8609232999999996,8.8514805,-1.1462568044662476,-0.6626898050308228,-0.002863256260752678,-7.7926063537597665,33.67646026611328,-29.76999664306641,0.6319595575332642,-0.8727798461914062,0.3455896377563477,988.3221435546876,1,1.0,2,2
15.64,0.21775657,-3.8142343,9.585312,-0.805372416973114,0.044378861784935,-0.14028221368789673,-8.220907211303711,34.6971435546875,-28.83990478515625,0.0005806460976600647,0.5956258773803711,-0.8986291885375977,988.34228515625,1,1.0,2,2
15.68,0.012213647,-3.711753,8.548475,-0.8049728274345398,0.12573833763599396,-0.5486775636672974,-8.821795463562012,35.450721740722656,-27.63664245605469,-0.11336460709571837,-0.17495465278625488,0.592987060546875,988.3117065429688,1,1.0,2,2
15.72,-0.44426906,-3.8047004,8.917759,-0.916425883769989,0.1819309890270233,-0.4353601634502411,-9.407303810119627,36.74524688720703,-26.082481384277344,0.7626314759254456,-0.4835731983184815,0.004975318908691406,988.3069458007812,1,1.0,2,2
15.76,0.33960736,-4.557816000000001,8.650265,-0.5359935760498047,0.275940477848053,-0.6176533102989197,-9.889057159423828,36.76785278320313,-25.393688201904297,-0.2673349380493164,0.4507894515991211,0.14054012298583984,988.31396484375,1,1.0,2,2
15.8,0.79845715,-4.581649,8.778091,-0.4817982017993927,0.40590262413024897,-0.8729169964790344,-11.264827728271484,37.69203186035156,-25.15878295898437,-0.4890922605991364,0.09729385375976562,0.04220294952392578,988.2813720703124,1,1.0,2,2
15.84,0.30373597,-4.7413282,8.726011999999999,-0.4611585736274719,0.3236109614372253,-0.6661226749420166,-12.478313446044922,36.7662353515625,-24.609676361083984,-0.4527733623981476,0.16924667358398438,-0.08906841278076172,988.2860717773438,1,1.0,2,2
15.88,0.17227995,-5.0606875,8.039522,-0.6466474533081055,0.034924548119306564,-0.0601208508014679,-11.982839584350586,37.17718505859375,-24.171184539794922,-0.0904245302081108,0.14124488830566406,0.1995229721069336,988.3162231445312,1,1.0,2,2
15.92,0.088621974,-5.160785,7.594488,-0.7941863536834717,-0.07652866840362549,0.1424124389886856,-11.931727409362793,38.33025360107422,-22.552875518798828,-0.004724025726318359,0.12412643432617188,0.8919258117675781,988.3240966796876,1,1.0,2,2
15.96,-0.064343154,-4.824742,8.3093815,-0.3462429642677307,-0.12912607192993164,0.21857881546020508,-11.843138694763185,38.676170349121094,-21.893909454345703,0.0700962245464325,-0.026129722595214844,0.3166227340698242,988.35693359375,1,1.0,2,2
16.0,0.18180531,-4.8819404,9.810186,-0.3462429642677307,-0.12912607192993164,0.21857881546020508,-11.94528579711914,38.42290496826172,-22.556209564208984,-0.047856107354164124,0.05157470703125,-0.8839654922485352,988.35693359375,1,1.0,2,2
16.04,-0.30335617,-4.3051867,8.288074499999999,0.3025026321411133,-0.12806084752082825,0.22230729460716248,-11.540901184082033,38.11671447753906,-22.523622512817386,-0.16075721383094788,-0.15337753295898438,-1.149333953857422,988.3264770507812,1,1.0,2,2
16.08,-0.42525262,-4.3171029999999995,7.783859700000001,0.6576350927352905,1.243732213973999,0.027630476281046867,-9.916315078735352,36.847259521484375,-24.701276779174805,0.006556391716003418,-0.09620046615600586,1.794261455535889,988.339111328125,1,1.0,2,2
16.12,-0.3248881,-3.4543557000000003,8.813592,0.6757447719573975,0.514692485332489,0.16265267133712769,-8.947400093078613,37.07030487060547,-25.78744506835937,-0.30943167209625244,-0.4220361709594727,-0.11481666564941405,988.2636108398438,1,1.0,2,2
16.16,-0.05344796,-3.6593513,9.069376,0.5609626770019531,-0.24816936254501346,0.5160538554191589,-9.019384384155273,36.634674072265625,-26.59769058227539,-0.4680134952068329,-0.8844013214111328,0.8166131973266602,988.2959594726562,1,1.0,2,2
16.2,-0.86121047,-4.4672837,10.804537,0.5902525186538696,-0.6650860905647278,0.2828922271728516,-9.306455612182617,35.57630157470703,-27.492321014404297,0.5553151369094849,1.038517951965332,-1.5790176391601562,988.3797607421876,1,1.0,2,2
16.24,-0.120316565,-2.9348361,12.023649,0.7529655694961548,-0.8746772408485413,0.29993104934692383,-9.779781341552734,35.44981384277344,-28.489761352539066,0.3305109441280365,0.3872137069702149,-3.092040061950684,988.46337890625,1,1.0,2,2
16.28,-0.8587719000000001,-1.5453857,10.177233,1.3918571472167969,-0.7222113609313965,0.520706832408905,-9.717846870422363,33.559898376464844,-30.31332778930664,0.6583341360092163,-1.3656318187713623,-0.9432449340820312,988.4660034179688,1,1.0,2,2
16.32,-0.8515779,-1.731282,11.256680000000001,0.9218094348907472,-0.0569542720913887,0.2695708274841309,-10.085735321044922,32.689193725585945,-31.12950134277344,1.0239404439926147,-0.7867611646652222,-1.6352615356445312,988.3746337890624,1,1.0,2,2
16.36,-0.38074288,-1.4858049,11.595191999999999,0.4668085277080536,0.0530342198908329,-0.02737145684659481,-9.923718452453613,31.419343948364254,-32.31191253662109,0.6970905065536499,-0.7695518732070923,-1.8984794616699217,988.3949584960938,1,1.0,2,2
16.4,0.15939927,-1.6812342,11.436592,0.9013026356697084,-0.30822324752807617,-0.18662846088409424,-11.56071662902832,30.09792518615723,-33.21408462524414,0.2023428976535797,-0.08914268016815187,-2.105415344238281,988.3821411132812,1,1.0,2,2
16.44,0.84054565,-1.7717994,11.562056,1.6211540699005127,-0.6243401765823364,-0.4959544837474823,-13.445491790771484,27.54459953308105,-35.62266540527344,0.1539921760559082,0.6231112480163574,-1.4640655517578125,988.402099609375,1,1.0,2,2
16.48,0.9289963,-1.0830325,10.11333,1.3552374839782717,-0.6108911633491516,-0.4851687252521515,-15.115753173828125,24.77004814147949,-36.97356796264648,-0.4022310972213745,0.7293016910552979,-0.9191827774047852,988.3483276367188,1,1.0,2,2
16.52,0.8764429,-1.2951449,9.893181,0.9668156504631042,-0.24457362294197085,-0.3876972794532776,-16.153385162353516,22.693586349487305,-39.00170135498047,0.3598781228065491,0.5697929859161377,0.31771278381347656,988.3289794921876,1,1.0,2,2
16.56,0.7713114000000001,-1.0520512,11.635446,0.6885153651237488,-0.4826599955558777,-0.4766468107700348,-17.443962097167972,21.69603157043457,-39.12937927246094,0.09505987167358397,0.9960877895355223,-1.7105894088745115,988.292724609375,1,1.0,2,2
16.6,0.7330973000000001,-1.2403308000000002,11.775112,0.15095648169517514,-0.09543664753437042,-0.3024763464927673,-18.030664443969727,20.462011337280273,-39.27470016479492,0.491456687450409,1.0194185972213743,-2.292855262756348,988.3231811523438,1,1.0,2,2
16.64,0.80242884,-1.2045821,10.19619,0.4897100329399109,-0.006886587478220464,-0.21086379885673526,-17.755844116210938,19.455734252929688,-40.3359489440918,0.04859435558319092,1.429646134376526,-0.893223762512207,988.2953491210938,1,1.0,2,2
16.68,0.48937600000000003,-0.25842118,10.508664,1.133129000663757,-0.032053396105766296,-0.27597811818122864,-17.7999210357666,17.466066360473633,-41.36750030517578,0.5755809545516968,1.201913833618164,0.1428842544555664,988.2090454101562,1,1.0,2,2
16.72,0.29581833,-0.56824785,11.933722,0.5155422091484071,0.3080320358276367,-0.2386939972639084,-17.217594146728516,16.062679290771484,-42.06797409057617,0.5974021553993225,1.0887280702590942,-2.361361503601074,988.1303100585938,1,1.0,2,2
16.76,0.262384,-1.171218,10.702778,0.6222015023231506,-0.03351805731654167,-0.2932888865470886,-16.87967872619629,14.482767105102539,-42.18156433105469,0.5533683896064758,2.2474236488342285,-1.6303024291992188,988.2568969726562,1,1.0,2,2
16.8,-0.54776835,-0.072527245,9.959479,1.1356582641601562,0.1981768012046814,-0.4854358732700348,-17.149059295654293,12.598100662231445,-43.030574798583984,1.1053593158721924,2.0349166393280034,0.34091949462890625,988.2699584960938,1,1.0,2,2
16.84,-0.6074916,-0.020095661,11.509999,0.5596168041229248,0.5385285019874573,-0.2898269593715668,-15.708694458007812,10.681459426879883,-44.218162536621094,1.1935222148895264,1.2111587524414062,-1.8409738540649412,988.2060546875,1,1.0,2,2
16.88,-0.8488474,-0.38235462,11.481596000000001,0.2128732651472092,0.15663158893585205,-0.3453539311885834,-15.000250816345215,10.449407577514648,-44.46772003173828,1.246564865112305,2.069434642791748,-2.209228515625,988.2693481445312,1,1.0,2,2
16.92,0.34134805,-0.20599262,10.522881,0.09263139963150024,0.22747164964675906,-0.06678758561611177,-14.57567310333252,9.688150405883787,-44.64257049560547,0.6554612517356873,2.389953374862671,-0.6946392059326172,988.3052978515624,1,1.0,2,2
16.96,0.7739446,1.2144407,11.185699000000001,0.9158135056495668,-0.29770323634147644,1.0088621377944946,-14.12465763092041,9.003942489624023,-44.21012878417969,-0.5262482762336731,1.134070634841919,-1.9695043563842771,988.3147583007812,1,1.0,2,2
17.0,0.34617656,1.4146353999999999,9.374791,1.6353987455368042,0.061956416815519326,0.6768993139266968,-13.891934394836426,7.167829513549805,-44.8314094543457,0.2774368524551392,2.1145994663238525,-0.4050474166870117,988.206298828125,1,1.0,2,2
17.04,0.8146217,3.1806445,9.154644000000001,1.5295379161834717,1.0333435535430908,0.29393693804740906,-12.03848648071289,4.215768814086913,-46.17603302001953,-0.5857023000717163,0.7571775913238525,0.20696163177490234,988.20068359375,1,1.0,2,2
17.08,1.106214,4.029091,8.243273,2.0567100048065186,0.5822045803070068,0.4414758384227753,-10.699861526489258,1.5716590881347656,-47.22838592529297,-0.8904120326042175,0.7781274318695068,-0.01806068420410156,988.1776123046876,1,1.0,2,2
17.12,1.2322104,5.227896,7.263190700000001,2.110771894454956,0.5684893131256104,0.2469319999217987,-10.184144020080566,-1.2113494873046875,-47.37596893310547,-1.7703808546066284,-0.18268156051635745,0.8486614227294922,988.2208251953124,1,1.0,2,2
17.16,0.30421805,5.39951,6.453542,1.7183551788330078,0.8434605598449707,0.13294868171215055,-8.879439353942871,-4.625916481018066,-46.453407287597656,-0.7063835859298706,0.4831442832946777,1.6263413429260254,988.1878662109376,1,1.0,2,2
17.2,0.6674515000000001,5.9524307,6.950652000000001,1.3254148960113523,0.9707598686218262,0.0077872006222605705,-7.140154838562013,-7.316799640655518,-46.717933654785156,-1.3943159580230713,0.0774526596069336,1.2945737838745115,988.1903686523438,1,1.0,2,2
17.24,-0.23835313,6.1907597,6.6216083,1.6162338256835938,0.4804720282554626,-0.08555568009614943,-5.874715805053711,-9.34557056427002,-46.255332946777344,-1.1646461486816406,0.33017683029174805,-0.08354425430297853,988.2509765625,1,1.0,2,2
17.28,-0.94101596,6.076363,5.108963,1.9119778871536253,0.3324003219604492,-0.3057987689971924,-5.243724822998047,-12.706035614013672,-45.46307373046875,0.3513460159301758,1.6392354965209959,1.3030862808227541,988.2611694335938,1,1.0,2,2
17.32,0.9230758,7.515864,5.807285,1.8644407987594604,0.4405245184898377,-0.06265226006507874,-4.437539577484131,-16.534500122070312,-44.82439422607422,-1.7424026727676392,-0.04323387145996094,0.7232890129089355,988.18505859375,1,1.0,2,2
17.36,0.44984359999999995,6.9414954,5.2912316,1.8644407987594604,0.4405245184898377,-0.06265226006507874,-4.673720359802246,-19.390548706054688,-43.08119583129883,-1.5294768810272217,1.331037998199463,-0.6549315452575684,988.18505859375,1,1.0,2,2
17.4,0.38767445,7.773259599999999,3.3051459999999997,1.8350130319595337,-0.015008840709924696,0.20259849727153775,-4.8220176696777335,-22.05861091613769,-41.90142822265625,-1.6071889400482178,0.7644748687744141,1.2405898571014404,988.1873168945312,1,1.0,2,2
17.44,-0.14530539999999997,8.009205,2.4695202999999997,1.9645764827728271,0.3142906427383423,-0.2349582463502884,-3.455692768096924,-29.57915306091309,-37.437782287597656,-1.1872494220733645,0.8218150138854979,1.520087718963623,988.15185546875,1,1.0,2,2
17.48,0.7198074000000001,8.512075999999999,1.5202695,1.652321457862854,0.27927008271217346,-0.4476113617420197,-2.6599693298339844,-31.679445266723636,-36.20574951171875,-2.381186962127685,0.6401901245117188,1.6496707201004028,988.1187744140624,1,1.0,2,2
17.52,-2.2867208,8.011589,2.1310048,1.2567094564437866,0.2835310697555542,-0.6614629030227661,-1.5544824600219729,-32.805187225341804,-34.539596557617195,0.4648902416229248,0.977574348449707,1.2052264213562012,988.1337280273438,1,1.0,2,2
17.56,-0.6831284000000001,8.650308,3.1678363999999997,0.6696164608001709,0.2640899419784546,-1.0004829168319702,0.1956696510314941,-33.32697296142578,-33.470020294189446,-1.3894842863082886,0.4752655029296875,0.09043073654174803,988.1463012695312,1,1.0,2,2
17.6,-1.3666719999999999,8.502546,2.8624644,0.5979777574539185,0.3642246425151825,-0.5577325224876404,1.832723617553711,-34.744468688964844,-32.94647979736328,-1.3585186004638672,0.6144561767578125,-0.7944796085357666,988.1818237304688,1,1.0,2,2
17.64,-1.8327346999999998,8.626477000000001,0.6183538000000001,0.9764130115509032,0.6173579096794128,-0.6721150875091553,3.1289215087890625,-35.69133758544922,-31.782081604003906,-0.9580254554748536,0.6559486389160156,1.1365423202514648,988.2326049804688,1,1.0,2,2
17.68,-2.0478575,8.929153999999999,0.5639052,1.509843826293945,0.21348978579044345,-0.7279081940650941,3.9829311370849614,-37.36925506591797,-29.0440673828125,-1.1624693870544434,0.2348823547363281,1.2116742134094238,988.1995239257812,1,1.0,2,2
17.72,-2.5234797,8.609797,1.4160951000000002,1.5559167861938477,-0.5009025931358337,-0.9177912473678588,4.738975524902344,-38.40150451660156,-26.174762725830078,-1.2529504299163818,0.3271799087524414,-0.4028757810592651,988.1842041015624,1,1.0,2,2
17.76,-3.5989672999999995,8.0497265,0.08335734,1.5683010816574097,-0.7570985555648804,-1.1854385137557983,5.677826881408691,-39.894386291503906,-23.845569610595703,-0.32486939430236816,0.923853874206543,0.19324815273284912,988.1641235351562,1,1.0,2,2
17.8,-3.5440311,8.080708999999999,0.005236782,1.5094453096389768,-0.2325894683599472,-1.196623682975769,8.146120071411133,-40.58737182617188,-21.567909240722656,-0.6677107810974121,1.0304327011108398,-0.2125707715749741,988.2191772460938,1,1.0,2,2
17.84,-4.1558776,7.656488,-1.1168201,1.366700291633606,0.03199530765414238,-0.9924925565719604,9.422395706176758,-41.6593017578125,-18.699466705322266,-0.16849136352539062,1.236492156982422,0.6204780340194702,988.1766357421876,1,1.0,2,2
17.88,-4.2801843,7.7256029999999996,-1.7607019,1.480550765991211,0.11748266965150833,-0.9272449016571044,11.26015853881836,-42.204933166503906,-16.795169830322266,-0.9600512981414796,0.3125219345092773,0.5146971940994263,988.224365234375,1,1.0,2,2
17.92,-4.602853,7.086886,-2.146559,1.3090436458587646,0.2961806058883667,-0.8959527015686035,13.292783737182615,-42.88502883911133,-13.52731704711914,-0.5741376876831055,1.0534081459045408,0.3614209890365601,988.1915893554688,1,1.0,2,2
17.96,-5.5660152,6.4791503,-2.9916532000000005,1.387340784072876,0.08379361033439636,-0.9783773422241212,15.2086181640625,-42.98913192749024,-11.121997833251953,-0.15675067901611328,1.2759284973144531,1.0304962396621704,988.216552734375,1,1.0,2,2
18.0,-5.9627705,6.176475,-3.4319556,1.3716284036636353,-0.024330690503120426,-1.0825067758560178,16.80422592163086,-42.33963012695313,-8.557458877563478,-0.20259475708007807,1.0740151405334473,0.6661539077758789,988.2014770507812,1,1.0,2,2
18.04,-6.1420449999999995,6.3290057,-4.658169,1.0589739084243774,0.048240333795547485,-1.0481518507003784,18.689191818237305,-42.41929626464844,-7.226592540740968,0.15284347534179688,0.9786725044250488,1.99454402923584,988.2215576171876,1,1.0,2,2
18.08,-6.381067,6.155026400000001,-3.5526888,0.4488445222377777,0.4577009677886963,-0.8308379650115967,20.336271286010746,-41.931541442871094,-5.892271518707275,0.0869913101196289,0.968458652496338,1.0715227127075195,988.1836547851562,1,1.0,2,2
18.12,-5.9050035,6.3742766,-2.799875,0.1600252240896225,0.08898656815290451,-0.8070025444030762,21.87166404724121,-41.231666564941406,-5.553947925567627,-0.6468954086303711,0.3597826957702637,0.32646656036376953,988.2011108398438,1,1.0,2,2
18.16,-6.610036,5.609245,-2.2128103,0.3278033435344696,-0.2729365825653076,-0.8440208435058594,23.04846000671387,-40.86744689941406,-5.371677875518799,-0.551030158996582,0.5742654800415039,-0.8816144466400146,988.196044921875,1,1.0,2,2
18.2,-7.2648807,5.332784999999999,-2.3264367999999997,0.7475137114524841,-0.6855924725532532,-1.1782487630844116,25.66445350646973,-40.156639099121094,-5.123527050018311,-0.5479221343994141,0.6129488945007324,-0.13554120063781738,988.1731567382812,1,1.0,2,2
18.24,-8.467011999999999,4.930011299999999,-1.9098101000000003,0.97721129655838,-0.939657747745514,-1.2714592218399048,27.29924964904785,-38.57432556152344,-3.543422222137451,0.4914035797119141,0.43474626541137695,-0.9391463994979858,988.1681518554688,1,1.0,2,2
18.28,-8.285391,4.7512655,-1.4647772,0.8134271502494812,-0.8397893905639648,-1.1394996643066406,29.18242454528809,-38.075340270996094,-3.6318573951721187,0.3898849487304688,0.24379825592041016,-1.0655012130737305,988.1602172851562,1,1.0,2,2
18.32,-8.239995,4.5343876,-2.406925,0.602505087852478,-0.5945124626159668,-0.7798400521278381,30.04647254943848,-37.056060791015625,-2.977818965911865,0.034615516662597656,0.12296199798583984,-0.2775909900665283,988.1602172851562,1,1.0,2,2
18.36,-8.548304,4.038666,-2.423496,0.5439156889915466,-0.27786293625831604,-0.5859620571136475,31.30837821960449,-37.08692169189453,-1.7077651023864746,0.07316207885742188,0.3913402557373047,-0.12465047836303712,988.1677856445312,1,1.0,2,2
18.4,-8.988058,3.5882263,-2.2459571,0.4935820996761322,-0.5704109072685242,-0.5299025177955627,31.91570472717285,-35.56990051269531,-2.0440878868103027,0.5595998764038086,0.7350230216979979,-0.1280827522277832,988.1604614257812,1,1.0,2,2
18.44,-8.694111,3.6811748,-2.1418009999999996,0.06454731523990631,-0.2853197753429413,-0.4442818462848663,33.05402374267578,-35.18860244750977,-2.5497488975524902,0.3000898361206055,0.6561379432678223,-0.15719056129455564,988.1983032226562,1,1.0,2,2
18.48,-8.462301,3.7455235,-2.0873563,-0.15103527903556824,-0.11820660531520845,-0.3394864797592163,34.017120361328125,-35.55157470703125,-1.8300909996032717,-0.1176462173461914,0.4366283416748047,-0.054171085357666016,988.2107543945312,1,1.0,2,2
18.52,-8.639166000000001,3.9409525000000003,-2.2199209,-0.020806701853871342,-0.31275036931037903,-0.3217764496803284,33.80138397216797,-34.69968414306641,-2.385585308074951,0.0014696121215820312,0.23726153373718264,-0.10789108276367188,988.2205200195312,1,1.0,2,2
18.56,-8.531630999999999,4.2912946,-2.0494835,0.06867554783821106,-0.24017931520938876,-0.24973799288272855,34.53075408935547,-34.01659393310547,-2.6919169425964355,-0.20883846282958984,-0.28302931785583496,0.20745611190795896,988.2203369140624,1,1.0,2,2
18.6,-8.954657000000001,3.9099708,-1.5855129,0.0199398510158062,-0.2574898600578308,-0.19967053830623627,34.62969970703125,-34.292503356933594,-2.998955249786377,0.07720375061035156,-0.13094711303710938,-0.4696513414382935,988.227783203125,1,1.0,2,2
18.64,-9.274914,3.5906114999999996,-1.8103981,-0.037451114505529404,-0.1355172097682953,-0.25586313009262085,34.60149383544922,-33.37060546875,-3.202521800994873,0.4311494827270508,0.273972749710083,-0.24141716957092285,988.2080688476562,1,1.0,2,2
18.68,-9.356182,3.5286465,-2.4826846000000002,-0.037451114505529404,-0.1355172097682953,-0.25586313009262085,35.30854797363281,-33.498214721679695,-4.073853015899658,0.4525575637817383,0.14524221420288086,0.38104116916656494,988.2080688476562,1,1.0,2,2
18.72,-9.530657000000001,3.5214968,-2.312247,0.14391009509563446,-0.143506720662117,-0.20246677100658414,35.850791931152344,-33.35935211181641,-3.934583187103272,0.729588508605957,0.2714188098907471,0.4708881378173828,988.2073364257812,1,1.0,2,2
18.76,-9.22954,3.6454277000000004,-1.7630572,0.06654556840658188,-0.13405252993106842,-0.02177133783698082,35.567222595214844,-33.25641632080078,-3.435003757476806,0.3820333480834961,0.06838512420654297,0.1491396427154541,988.2073364257812,1,1.0,2,2
18.8,-9.050310000000001,3.8003411,-2.392734,0.03804988041520119,-0.1838536262512207,0.08182558417320251,35.61801147460937,-33.155799865722656,-4.064591884613037,0.15084075927734375,-0.010365486145019531,0.06062507629394531,988.2200317382812,1,1.0,2,2
18.84,-8.474354,3.7336097,-1.3109237,0.10036791115999223,-0.10369255393743516,0.10233195126056673,35.154090881347656,-33.85356903076172,-4.0292582511901855,-0.3195228576660156,0.14537930488586426,-0.4092836380004883,988.2250366210938,1,1.0,2,2
