Timestamp,Ax,Ay,Az,Gx,Gy,Gz,Mx,My,Mz,LiAx,LiAy,LiAz,P,Value,Type,GroupType
0.0,0.102595985,-0.14666349,9.7537565,0.0005980916321277617,-0.0006394899683073162,2.816319465637207e-06,4.285447597503662,20.64360809326172,-15.13530158996582,-0.18244701623916626,0.8003057241439819,0.04791927337646485,989.9608154296876,0,0.0,0
0.04,0.08351356,-0.1490477,9.753758,0.00440963264554739,0.0016069670673459768,-0.0009991684928536415,-3.2270722389221187,17.400651931762695,-12.094236373901367,-0.16639792919158936,0.8214715719223022,0.038643836975097656,989.9225463867188,0,0.0,0
0.08,0.09072006,-0.14666528,9.75613,0.0036103306338191032,-0.0023877136409282684,-0.00033353071194142103,-2.8550772666931152,17.117420196533207,-13.058801651000975,-0.18958544731140134,0.7838875651359558,0.03419303894042969,989.8626098632812,0,0.0,0
0.12,0.10270631,-0.13951638,9.756133,-0.0010505516547709703,0.0006749766180291773,-6.73666363582015e-05,-3.185413360595703,17.492435455322266,-12.25999641418457,-0.1790851652622223,0.7873858213424683,0.05353546142578125,989.8602294921876,0,0.0,0
0.16,0.09557336599999999,-0.14905038,9.767972,0.0004138314398005605,0.0009413500083610417,0.0005982711445540191,-2.9345107078552246,17.200645446777347,-12.35856819152832,-0.17858949303627014,0.7979514598846436,0.01117229461669922,989.8651733398438,0,0.0,0
0.2,0.093220234,-0.14428473,9.767975999999999,2.0049279555678368e-05,0.0006946329958736898,0.0004163534031249583,-3.106255531311035,17.197380065917972,-11.562067031860352,-0.16376441717147827,0.7961754798889159,0.030228614807128906,989.9008178710938,0,0.0,0
0.24,0.1004267,-0.16811848,9.772714,0.0002860105596482754,2.8900816687382758e-05,-0.00038274613325484097,-2.956085681915283,17.760147094726562,-12.772905349731445,-0.19173312187194824,0.8108689785003662,0.02578258514404297,989.9055786132812,0,0.0,0
0.28,0.08851397,-0.14905307,9.756146000000001,-0.0007796072168275714,0.0008279059547930956,0.00014973376528359952,-2.7247228622436523,16.44877815246582,-12.192934036254885,-0.16715660691261292,0.778329610824585,0.026040077209472656,989.8956909179688,0,0.0,0
0.32,0.09811032,-0.14667073,9.758517,0.0001521439990028739,0.0002953317598439753,-0.0014483135892078278,-3.3308811187744136,17.04000473022461,-11.98015022277832,-0.19002851843833926,0.7744822502136229,0.016824722290039062,989.9310913085938,0,0.0,0
0.36,0.09575721599999999,-0.15620473,9.751419,1.8631690181791786e-05,-0.0005035583162680268,0.00014942995039746165,-3.2609848976135254,17.422149658203125,-13.014078140258787,-0.1840053498744965,0.768416166305542,0.026685714721679688,989.9110717773438,0,0.0,0
0.4,0.09818387,-0.15858892,9.77036,-0.0005143546732142569,0.0005617627175524831,-0.00011703782365657388,-3.272181987762451,17.780132293701172,-12.57139778137207,-0.1742975115776062,0.7763670682907104,0.036255836486816406,989.9262084960938,0,0.0,0
0.44,0.09822065,-0.15858987,9.765628999999999,0.0006837125401943923,-0.0003702853282447904,-0.0005166636547073722,-3.574173927307129,17.339160919189453,-12.268102645874025,-0.18286730349063876,0.7771122455596924,0.02231121063232422,989.9312133789062,0,0.0,0
0.48,0.095867515,-0.15859070000000003,9.756164,-0.0005150634096935391,-0.00023706984939053652,1.5816360246390108e-05,-3.28922176361084,17.131792068481445,-12.145910263061525,-0.1818183809518814,0.7731663584709167,0.0272979736328125,989.9110717773438,0,0.0,0
0.52,0.0887346,-0.15144178,9.7538,0.00028352986555546517,-0.0003701702516991645,-0.00025065147201530635,-3.8474946022033687,17.92660903930664,-13.107187271118164,-0.16152995824813846,0.7549737691879272,0.027547836303710938,989.9215087890624,0,0.0,0
0.56,0.098330975,-0.15620926,9.770373,0.0001500175567343831,-0.000370112742530182,0.0006813022773712872,-3.217099666595459,17.673337936401367,-12.034746170043945,-0.17509210109710693,0.7606025934219359,0.01832294464111328,989.931396484375,0,0.0,0
0.6,0.09597784,-0.13714388,9.765641,-0.00011665280908346176,-0.0002368972636759281,1.5360710676759478e-05,-3.3775115013122563,17.41800880432129,-12.380006790161133,-0.16022667288780212,0.7281316518783569,0.0422353744506836,989.9086303710938,0,0.0,0
0.64,0.0912348,-0.14906123,9.758544,-0.0006496389396488668,0.0005621078889816999,-0.0006505808560177684,-3.3358521461486816,17.509796142578125,-12.54576301574707,-0.16855737566947934,0.7622319459915161,0.03775310516357422,989.9136352539062,0,0.0,0
0.68,0.09127158,-0.15621191,9.770383,-0.0005168353673070669,-0.0006362560670822859,0.0004145307466387749,-2.6356987953186035,17.53274917602539,-11.808176040649414,-0.1724759340286255,0.7535477876663208,0.023792266845703125,989.9237670898438,0,0.0,0
0.72,0.0936982,-0.13952991,9.775121,-0.00011771603021770716,-0.00010356670827604829,0.00014806297258473933,-2.71431303024292,17.459514617919922,-12.407648086547852,-0.1669130027294159,0.7259316444396973,0.005084037780761719,989.9163818359376,0,0.0,0
0.76,0.0817855,-0.14906392,9.777492,-0.00011807039845734836,-0.00010350914089940488,-0.00011840471415780483,-3.034432411193848,17.106788635253903,-11.875772476196287,-0.1517155021429062,0.7316402196884155,0.019519805908203125,989.9495239257812,0,0.0,0
0.8,0.10333142,-0.14429823,9.75619,-0.0005178984720259905,-0.00010345163173042238,-0.0003848725173156709,-3.209490299224853,17.680702209472656,-12.421270370483398,-0.16517212986946106,0.718246340751648,0.048160552978515625,989.9339599609376,0,0.0,0
0.84,0.08424896,-0.14191589,9.758561,-0.00025193707551807165,-0.0006360257975757122,0.0001476073230151087,-3.430527210235596,17.15798568725586,-12.895513534545898,-0.16427461802959442,0.7240134477615356,0.04838657379150391,989.8890380859376,0,0.0,0
0.88,0.09145543,-0.14906660000000002,9.758564,1.4024320989847187e-05,0.0005624531186185777,0.00014745545922778547,-3.5798258781433105,18.07132339477539,-12.233091354370115,-0.15886375308036804,0.7253178358078003,0.02492046356201172,989.9214477539062,0,0.0,0
0.92,0.10314098,-0.1490601,9.763274000000001,0.0006794596556574106,2.9878865461796522e-05,0.00014730353723280132,-3.666487216949463,17.252674102783207,-12.171834945678713,-0.17695045471191406,0.7264901399612427,0.034603118896484375,989.9494018554688,0,0.0,0
0.96,0.08373976,-0.14905325,9.760882,1.3315700925886631e-05,-0.0003695373598020524,-0.0002523221482988447,-3.614855289459229,17.617141723632812,-12.278100967407227,-0.14705127477645874,0.7129280567169191,0.04436206817626953,989.926513671875,0,0.0,0
1.0,0.10048175,-0.14667025,9.770351,-0.0011773973237723114,-0.00024025521997828042,0.00027887546457350254,-3.236609935760498,17.86602020263672,-12.427934646606445,-0.16037458181381226,0.7137142419815063,0.030393600463867188,989.9215087890624,0,0.0,0
1.04,0.07420555,-0.1395207,9.763251,-0.0005117298569530249,-0.00010707748879212886,0.0006782968994230032,-3.4427037239074707,17.14620018005371,-12.277070999145508,-0.14983654022216794,0.6907563209533691,0.030622482299804688,989.9569702148438,0,0.0,0
1.08,0.09811726,-0.15620402,9.772721,-0.0007781678577885032,-0.0005065314471721648,1.2454867828637363e-05,-3.4494948387146,16.982379913330078,-13.190256118774414,-0.15871964395046234,0.7154988050460815,0.021375656127929688,989.9291381835938,0,0.0,0
1.12,0.09812993,-0.14667120000000003,9.763253,-0.00011250085663050413,0.0008250678656622767,0.0006781920092180371,-3.4796595573425293,17.164752960205078,-13.042306900024414,-0.1722399890422821,0.6977002620697021,0.026312828063964844,989.908935546875,0,0.0,0
1.16,0.09336281,-0.15143806,9.765622,2.0534847863018516e-05,-0.0002401758247287944,0.0004118236829526722,-3.373488426208496,17.790719985961914,-12.71037483215332,-0.1527702659368515,0.6942260265350342,0.02650928497314453,989.9216918945312,0,0.0,0
1.2,0.08620578,-0.14190528,9.763256,0.00028672849293798214,0.0006919496227055787,0.00041177132516168063,-3.2028594017028813,17.318302154541016,-12.632040023803713,-0.14698314666748047,0.6858822107315063,0.050384521484375,989.9241943359376,0,0.0,0
1.24,0.08382863,-0.15143862,9.76089,0.00015344831626862288,-0.0002401361271040514,0.0008111927891150117,-3.814860820770264,16.903213500976562,-12.436464309692385,-0.15575671195983887,0.7019006013870239,0.036355018615722656,989.9064331054688,0,0.0,0
1.28,0.093400896,-0.13952258,9.772727,0.001218589604832232,0.00015935752890072763,0.0005448244628496468,-3.398000240325928,17.24093246459961,-12.597444534301758,-0.1551843285560608,0.6745640635490417,0.012877464294433594,989.904052734375,0,0.0,0
1.32,0.088633776,-0.13475636,9.767994,-0.00011311250273138283,0.0004256933461874723,-0.0005204916233196856,-3.671457767486572,17.722461700439453,-12.737447738647461,-0.1454082727432251,0.6614593863487244,0.02254199981689453,989.9320678710938,0,0.0,0
1.36,0.10537577,-0.14905635,9.756159,1.9923318177461624e-05,0.0013578188372775912,-0.0003873860405292362,-3.814423084259033,17.641265869140625,-12.710664749145508,-0.1638297587633133,0.6772897243499756,0.04639434814453125,989.9144897460938,0,0.0,0
1.4,0.0982188,-0.14190683,9.767996,0.00028599484357982874,-0.00010687894246075301,0.00027829891769215465,-3.225550651550293,17.40212631225586,-12.171541213989258,-0.1436968296766281,0.6595699787139893,0.03238105773925781,989.9369506835938,0,0.0,0
1.44,0.10779106599999999,-0.15144023,9.753795,0.00028599484357982874,-0.00010687894246075301,0.00027829891769215465,-3.2038378715515137,16.948539733886722,-12.45628547668457,-0.16125155985355374,0.6782499551773071,0.051601409912109375,989.9369506835938,0,0.0,0
1.48,0.09585428,-0.14429072,9.782202,-0.00024675962049514055,-0.0007726487237960099,0.0008108781185001135,-3.3397374153137207,17.24300193786621,-12.914480209350586,-0.14608702063560486,0.6607635021209717,0.02810287475585937,989.906982421875,0,0.0,0
1.52,0.10303664,-0.15859076,9.763264999999999,0.0008183816680684687,-0.00023999706900212914,-0.00038759576273150737,-3.3328075408935547,17.512741088867188,-12.700380325317385,-0.16510973870754242,0.6781179904937744,0.023458480834960938,989.916748046875,0,0.0,0
1.56,0.10782915,-0.14429131,9.77747,0.00028562766965478664,0.0012247600825503466,1.1825672117993234e-05,-3.43966007232666,17.149147033691403,-12.431684494018555,-0.1691303253173828,0.663253903388977,0.004803657531738281,989.9292602539062,0,0.0,0
1.6,0.08633274,-0.13714179999999998,9.7609,0.0002855054335668683,0.0010916219325736165,0.0001449312549084425,-3.5379223823547363,17.16268539428711,-12.72526741027832,-0.14932149648666382,0.6361567974090576,0.028649330139160163,989.9318237304688,0,0.0,0
1.64,0.10546464,-0.15620837,9.763268,-0.0005135646788403392,2.6378314942121506e-05,0.0006775106303393841,-3.571673393249512,17.710399627685547,-12.52116584777832,-0.16339980065822599,0.6629196405410767,0.03347969055175781,989.9393920898438,0,0.0,0
1.68,0.10069752,-0.15620866,9.768004,1.894449815154076e-05,0.00042587210191413766,0.0005443000700324774,-3.693469524383545,17.543907165527347,-12.87757682800293,-0.14797204732894895,0.667510986328125,0.02426910400390625,989.9297485351562,0,0.0,0
1.72,0.09354046,-0.14667588,9.768005,0.001117204548791051,0.0003400040150154382,0.00032211607322096825,-3.2674775123596187,17.890464782714844,-13.502389907836914,-0.1430240124464035,0.6420060396194458,0.019620895385742188,989.9069213867188,0,0.0,0
1.76,0.10311282,-0.14905944,9.772741,-0.0006139707984402777,0.00034002380562014883,-0.0004768839571624993,-3.6690945625305176,17.987781524658203,-12.29142951965332,-0.14690396189689636,0.6479424238204956,0.04347991943359375,989.9322509765624,0,0.0,0
1.8,0.08400631,-0.15620962,9.758538,-0.0006140930345281959,-5.943013093201444e-05,-0.0002106204046867788,-3.548438549041748,17.25828742980957,-12.883211135864258,-0.13204741477966309,0.6450079679489136,0.04362964630126953,989.9423828125,0,0.0,0
1.84,0.095968485,-0.13952699999999998,9.75854,0.0011168374912813306,0.00020690564997494218,-0.0006101467879489063,-3.327155590057373,16.78057861328125,-12.735391616821287,-0.14978399872779846,0.6308519840240479,0.04860210418701172,989.9222412109376,0,0.0,0
1.88,0.09837109,-0.15144363,9.756173,0.0005840834928676486,7.376755092991516e-05,0.0005882222321815789,-3.375988483428955,17.419483184814453,-12.457315444946287,-0.16348013281822205,0.6385549306869507,0.03449249267578125,989.9295043945312,0,0.0,0
1.92,0.095834285,-0.14905679,9.760895,0.000184487464139238,-0.0007251601200550795,-0.0007434095023199916,-3.3621840476989746,16.326396942138672,-12.780397415161133,-0.13899849355220795,0.6208010315895081,0.03941249847412109,989.9119262695312,0,0.0,0
1.96,0.093450695,-0.15382347,9.76563,-8.138242992572486e-05,0.0006063468172214925,0.0003220450598746538,-3.536400318145752,17.16415786743164,-12.802576065063475,-0.14297232031822205,0.641533613204956,0.04430389404296875,989.9144897460938,0,0.0,0
2.0,0.09584695,-0.15144038,9.767997,0.0004521161608863622,-5.958359543001279e-05,0.0005887324223294853,-3.496943950653076,17.516838073730472,-12.290399551391602,-0.142049640417099,0.628553032875061,0.0302734375,989.92724609375,0,0.0,0
2.04,0.09107348,-0.15144056,9.767999,-0.0003468927170615643,-0.0005922054406255484,-7.70833867136389e-05,-3.2338647842407227,17.236831665039062,-13.007413864135742,-0.1413220763206482,0.6251616477966309,0.020972251892089844,989.9246826171876,0,0.0,0
2.08,0.086300015,-0.14905739,9.760898,-8.063783752731979e-05,-5.956373206572607e-05,-0.00021026760805398226,-2.7468409538269043,17.376571655273438,-12.705720901489258,-0.1403641402721405,0.6215731501579285,0.021148681640625,989.899169921875,0,0.0,0
2.12,0.095865965,-0.14905757,9.777467999999999,-0.000746488687582314,-0.0004590276221279055,-0.00034345162566751236,-3.2890839576721187,17.237707138061527,-12.844987869262695,-0.13466760516166687,0.6042250990867615,0.04497051239013672,989.9371337890624,0,0.0,0
2.16,0.09826219,-0.14429119,9.770368,0.0005849685985594987,-0.0005921657430008054,0.0001891277497634292,-3.4721875190734863,17.06620216369629,-12.729753494262695,-0.14777174592018127,0.6092848777770996,0.02624988555908203,989.9220581054688,0,0.0,0
2.2,0.08870894,-0.15620771,9.753798,0.0005849685985594987,-0.0005921657430008054,0.0001891277497634292,-3.4721875190734863,17.06620216369629,-12.729753494262695,-0.13296937942504886,0.6170320510864258,0.05474185943603516,989.9220581054688,0,0.0,0
2.24,0.09110516,-0.1538246,9.758533,-0.00021404025028459728,-5.9524092648643994e-05,-0.00034353032242506737,-3.490856170654297,17.522729873657227,-12.59962272644043,-0.14151844382286072,0.6231411099433899,0.0312347412109375,989.9577026367188,0,0.0,0
2.28,0.08872169,-0.15620807,9.7561655,-0.0006136364536359906,-0.0009916098788380623,0.0004553649923764169,-3.5696086883544917,17.343582153320312,-12.500020980834961,-0.1206938698887825,0.608496904373169,0.05041694641113281,989.9219360351562,0,0.0,0
2.32,0.10067752,-0.14429179,9.7680025,-0.0006136364536359906,-0.0009916098788380623,0.0004553649923764169,-3.5696086883544917,17.343582153320312,-12.500020980834961,-0.13954168558120728,0.5977036356925964,0.03153800964355469,989.9219360351562,0,0.0,0
2.36,0.09112427,-0.14667523,9.763268,-0.00034744312870316213,7.367360376520082e-05,-0.00021047727204859254,-3.937741756439209,17.473304748535153,-12.989770889282227,-0.13842998445034027,0.5881305932998657,0.03176212310791016,989.9194946289062,0,0.0,0
2.4,0.09352052,-0.15382520000000002,9.760900999999999,-0.00034744312870316213,7.367360376520082e-05,-0.00021047727204859254,-3.937741756439209,17.473304748535153,-12.989770889282227,-0.1285213679075241,0.591438353061676,0.04603195190429688,989.9194946289062,0,0.0,0
2.44,0.08635712,-0.15620866,9.770371,0.00031828557257540524,-0.0004589482850860804,-0.00021050346549600363,-3.544553279876709,17.525081634521484,-12.514505386352539,-0.1325128674507141,0.6072981357574463,0.02724170684814453,989.9222412109376,0,0.0,0
2.48,0.095923066,-0.14667565,9.765637,0.00031822445453144615,7.369345257757232e-05,-0.0002105296589434147,-3.58729887008667,18.16987609863281,-12.545644760131836,-0.1464528739452362,0.5854452848434448,0.017899513244628906,989.9423828125,0,0.0,0
2.52,0.095929414,-0.16097552,9.758536,0.0008507950697094202,0.0007394930580630897,-0.00021055585239082572,-3.796840190887451,17.92131805419922,-13.037698745727539,-0.13156503438949585,0.5966159701347351,0.04171180725097656,989.9273071289062,0,0.0,0
2.56,0.093545854,-0.14905927,9.760902999999999,-8.137148688547313e-05,0.00047318710130639374,0.0007215235964395107,-3.500392436981201,17.988100051879886,-12.933320999145508,-0.12606239318847656,0.5791478753089905,0.04658985137939453,989.8764038085938,0,0.0,0
2.6,0.091162294,-0.16812566,9.763272,-0.0004809065430890769,-0.00032575061777606606,5.570764187723398e-05,-3.16660737991333,17.141822814941403,-13.089204788208008,-0.12010335177183153,0.5947713851928711,0.03727531433105469,989.9248046875,0,0.0,0
2.64,0.088778734,-0.15620944,9.756171,-0.00048096754471771414,-0.0009915304835885763,0.000455155357485637,-3.2997374534606934,17.22739601135254,-12.303853988647461,-0.13417403399944305,0.586592972278595,0.03742504119873047,989.9241943359376,0,0.0,0
2.68,0.09117496,-0.15620962,9.770375,-0.0004810286627616732,0.0010058485204353929,5.565525498241187e-05,-3.6565136909484863,17.525358200073242,-12.112340927124025,-0.1238524243235588,0.5696196556091309,0.02334022521972656,989.9193725585938,0,0.0,0
2.72,0.09596109400000001,-0.16335955,9.777476,0.0012499634176492689,-0.00045887884334661067,0.00018878711853176355,-3.8923354148864746,17.725963592529297,-12.087739944458008,-0.12310388684272765,0.5904784798622131,0.02347087860107422,989.9171752929688,0,0.0,0
2.76,0.091187626,-0.14667678,9.765641,-8.167696068994701e-05,-0.0003257109492551536,-0.00034387095365673304,-3.803226947784424,17.283287048339847,-13.153348922729492,-0.12176917493343352,0.557300329208374,0.02366924285888672,989.9248046875,0,0.0,0
2.8,0.08402428,-0.14429367,9.760908,-0.0002148961357306689,-0.00019254311337135727,0.000721366493962705,-3.692383289337158,16.807327270507812,-12.680673599243164,-0.11666502058506012,0.5500378608703613,0.037978172302246094,989.9144897460938,0,0.0,0
2.84,0.088810444,-0.13952723,9.758542,0.0009834642987698317,0.00020694060367532074,-0.0004770812811329961,-3.532813549041748,16.798810958862305,-12.858736038208008,-0.13540460169315338,0.5390151739120483,0.04277515411376953,989.9170532226562,0,0.0,0
2.88,0.100498974,-0.16097042,9.772719,0.0005839293589815497,0.00020695055718533692,0.00045499822590500116,-3.471208095550537,17.435962677001953,-12.905511856079102,-0.13956071436405182,0.5692582130432129,0.01923656463623047,989.9094848632812,0,0.0,0
2.92,0.09544217599999999,-0.15619704,9.777431,5.123650771565735e-05,0.0002069604815915227,-0.00021081767044961447,-3.530855655670166,17.538333892822266,-13.210245132446287,-0.1236445978283882,0.5457206964492798,0.019474029541015625,989.9248046875,0,0.0,0
2.96,0.097816795,-0.15381333,9.782163,0.00045454225619323557,-0.00032629334600642323,-0.0008749651024118067,-3.5755581855773926,17.443607330322266,-12.88987922668457,-0.13278229534626007,0.5523947477340698,0.010126113891601562,989.8843994140624,0,0.0,0
3.0,0.0906319,-0.15142968,9.758488999999999,-0.001008776598609984,0.0008718977915123105,-7.540959632024169e-05,-3.3192472457885738,17.42007827758789,-12.697046279907227,-0.12741748988628387,0.5398147702217102,0.03865909576416016,989.925048828125,0,0.0,0
3.04,0.088226736,-0.14666279999999998,9.753753,0.00018979169544763866,0.0003392422513570636,5.7811266742646694e-05,-3.738715648651123,17.817468643188477,-12.655656814575195,-0.10768011212348938,0.536701500415802,0.057726860046386726,989.9171752929688,0,0.0,0
3.08,0.09777117,-0.15142891,9.75612,-0.00020953567582182583,0.00033921844442375004,0.00019103207159787416,-3.321610927581787,17.15475845336914,-13.143060684204102,-0.12097432464361192,0.5477192401885986,0.06259632110595703,989.9094848632812,0,0.0,0
3.12,0.090586185,-0.15142858,9.760852,-0.000475704757263884,-0.0008592268568463624,0.00032425290555693215,-3.529066562652588,16.959686279296875,-11.790945053100586,-0.11592105776071547,0.5416078567504883,0.04371356964111328,989.9144897460938,0,0.0,0
3.16,0.09774068,-0.14904493,9.765585,-0.00020924207638017836,-0.0005929347244091332,-0.00047463178634643566,-3.865513324737549,16.90850830078125,-12.505945205688475,-0.12478065490722655,0.5339025259017944,0.04856777191162109,989.9220581054688,0,0.0,0
3.2,0.09772545,-0.15381107,9.770318,-7.593733607791364e-05,0.00020598908304236832,0.00032437866320833564,-3.673416614532471,16.98293685913086,-12.385934829711914,-0.11875712871551515,0.529373288154602,0.03454875946044922,989.9371337890624,0,0.0,0
3.24,0.08576077,-0.14666089999999998,9.772685000000001,-0.0008295520674437284,-0.0006400924758054316,0.0007304013706743718,-3.196771144866944,17.324193954467773,-12.941259384155273,-0.10382010042667388,0.5264042019844055,0.04413414001464844,989.9451293945312,0,0.0,0
3.28,0.08574551,-0.14666054,9.770316000000001,0.0005021740216761827,2.5673391064628962e-05,-0.0002016412909142673,-3.637707233428955,17.17474365234375,-12.941553115844727,-0.10818617790937424,0.5202781558036804,0.029985427856445312,989.9120483398438,0,0.0,0
3.32,0.09289998,-0.15619329,9.76558,-3.0310795409604907e-05,-0.00024066626792773604,0.0007305272156372666,-3.8976044654846187,17.56361198425293,-13.078226089477539,-0.12141580134630205,0.529937744140625,0.030167579650878906,989.9322509765624,0,0.0,0
3.36,0.09288475,-0.14665976,9.756110000000001,-0.00042963805026374763,-0.0005070058978162706,0.0005974321393296123,-3.3791937828063965,16.890316009521484,-13.426652908325195,-0.11594553291797638,0.5032835602760315,0.04448127746582031,989.9094848632812,0,0.0,0
3.4,0.09047964,-0.1490427,9.770311,-0.0004294912505429238,0.00015875991084612906,-0.0003346105804666877,-3.724475383758545,17.46243667602539,-13.252954483032227,-0.10587146878242493,0.5241913795471191,0.044594764709472656,989.9222412109376,0,0.0,0
3.44,0.09285432,-0.16095874,9.777411,-0.0002960398269351572,0.0004250280908308923,0.0008639366715215148,-3.8815436363220215,17.842191696166992,-13.32795524597168,-0.11001614481210707,0.516398012638092,0.04471015930175781,989.9120483398438,0,0.0,0
3.48,0.10717851,-0.14904192,9.7703085,-0.0002960398269351572,0.0004250280908308923,0.0008639366715215148,-3.8815436363220215,17.842191696166992,-13.32795524597168,-0.13842269778251648,0.5102415084838867,0.02109241485595703,989.9120483398438,0,0.0,0
3.52,0.09760368,-0.15619138,9.775041,-2.9577378882095214e-05,0.0004250043421052396,-0.00020126393064856532,-3.663007259368897,17.993675231933594,-12.600656509399414,-0.11404594779014587,0.5071936845779419,0.02594280242919922,989.9144897460938,0,0.0,0
3.56,0.08802885,-0.15380776,9.760836999999999,-0.0012277052737772465,0.0006912725511938334,-0.00033429614268243313,-3.853039264678955,17.552425384521484,-12.699518203735352,-0.1135992556810379,0.5022883415222168,0.04032707214355469,989.9122924804688,0,0.0,0
3.6,0.09040356,-0.15142414,9.765569000000001,-0.0005617690039798617,0.0010907226242125032,-0.0008668650407344103,-3.58164644241333,17.437713623046875,-12.580656051635742,-0.10396632552146913,0.5091166496276855,0.035691261291503906,989.9072265625,0,0.0,0
3.64,0.07604891,-0.14665714,9.763200999999999,-0.0005617690039798617,0.0010907226242125032,-0.0008668650407344103,-3.58164644241333,17.437713623046875,-12.580656051635742,-0.09853873401880264,0.4981171190738678,0.02627754211425781,989.9072265625,0,0.0,0
3.68,0.09993267,-0.16095647,9.772668,0.00010416764416731894,0.00015859313134569675,6.530346581712365e-05,-3.66010046005249,17.890701293945312,-12.056184768676758,-0.1168575882911682,0.5047012567520142,0.035854339599609375,989.9094848632812,0,0.0,0
3.72,0.10469729,-0.14665642,9.767932,-0.00029515961068682367,-0.0007735362160019578,0.0007311559747904539,-3.710616588592529,18.001914978027344,-12.824747085571287,-0.11573714762926103,0.4925779104232788,0.04068470001220703,989.92724609375,0,0.0,0
3.76,0.085562855,-0.16572228,9.758462,-0.0006943400949239732,-0.0009067417704500258,-0.0003339818213135004,-3.5249056816101074,17.438312530517578,-12.820390701293945,-0.0999419167637825,0.5121793746948242,0.036103248596191406,989.9476928710938,0,0.0,0
3.8,0.087937534,-0.16333863,9.765563,-0.0006943400949239732,-0.0009067417704500258,-0.0003339818213135004,-3.5249056816101074,17.438312530517578,-12.820390701293945,-0.09950116276741028,0.5059750080108643,0.03615379333496094,989.9476928710938,0,0.0,0
3.84,0.09270209,-0.14903858,9.765561,-2.8403446776792407e-05,-0.0007736076950095594,0.0009976605651900172,-3.3775105476379395,17.41800880432129,-12.380006790161133,-0.11793754994869232,0.4795131087303162,0.02677822113037109,989.9246826171876,0,0.0,0
3.88,0.10036272,-0.15143391,9.765607000000001,0.0005043749697506428,-0.00010784179903566836,0.000598249607719481,-3.6338214874267583,17.441535949707028,-12.572839736938475,-0.11290554702281952,0.486533910036087,0.04575920104980469,989.8992919921876,0,0.0,0
3.92,0.09080815,-0.15143403,9.775075,0.00010444413055665792,-0.0003740835818462074,0.00019857994630001485,-3.881980419158936,17.104137420654293,-13.053750991821287,-0.09773841500282288,0.4980300664901733,0.04585552215576172,989.8970947265624,0,0.0,0
3.96,0.083643526,-0.14666757,9.760873,-0.00029926755814813083,0.0004255521344020962,-6.955215940251946e-05,-3.3376717567443848,16.876182556152347,-12.893331527709961,-0.10653440654277803,0.4846530556678772,0.05545425415039063,989.9501342773438,0,0.0,0
4.0,0.09559816,-0.15381756,9.76324,-0.00029926755814813083,0.0004255521344020962,-6.955215940251946e-05,-3.3376717567443848,16.876182556152347,-12.893331527709961,-0.12531937658786774,0.478253424167633,0.05550956726074219,989.9501342773438,0,0.0,0
4.04,0.097993106,-0.15143439,9.760875,-0.00029931645258329814,0.0001592441403772682,0.00019674273789860308,-3.5247673988342285,17.544227600097653,-13.519464492797852,-0.10547989606857301,0.4789254367351532,0.05090999603271485,989.9273071289062,0,0.0,0
4.08,0.09082848,-0.15620106,9.779811,-3.304958227090537e-05,0.0004255680250935257,-0.0007353839464485644,-3.6467008590698238,17.271821975708008,-13.176801681518555,-0.0951126664876938,0.4760912358760834,0.03206729888916016,989.9198608398438,0,0.0,0
4.12,0.09322345,-0.14666805,9.767977,-0.0006988880923017861,-0.0005065296427346767,-6.961505278013648e-05,-3.700099468231201,17.906307220458984,-12.666810989379885,-0.0904109999537468,0.4511224329471588,0.0510406494140625,989.9351806640624,0,0.0,0
4.16,0.09322852,-0.14905146,9.763242,-0.00016630519530735907,0.000558741856366396,-0.0002027939772233367,-3.429548740386963,17.527748107910153,-13.071268081665039,-0.1039414033293724,0.4630429744720459,0.051117897033691406,989.9326782226562,0,0.0,0
4.2,0.09801339999999999,-0.14190182,9.744306,0.0004994354676455259,-0.00024019787088036537,-0.00020281493198126554,-3.639228343963623,17.173269271850586,-12.864248275756836,-0.10365917533636093,0.465083360671997,0.055939674377441406,989.9246826171876,0,0.0,0
4.24,0.10757807,-0.14905176,9.756141,-0.00043271898175589735,0.0008250735700130463,-0.000602309824898839,-3.888610363006592,17.466533660888672,-12.842981338500975,-0.11264941096305847,0.4609518647193909,0.05607223510742188,989.9149169921876,0,0.0,0
4.28,0.09802356,-0.14905187,9.765611,-0.0004327678761910647,0.0008250814862549305,0.00046293286141008133,-3.51881742477417,17.444202423095707,-13.129610061645508,-0.10758165270090103,0.4597900211811066,0.04190444946289063,989.92724609375,0,0.0,0
4.32,0.093248844,-0.149052,9.770344999999999,-0.000432816770626232,2.614183176774532e-05,-0.0002028777962550521,-3.576399803161621,17.179759979248047,-13.413198471069336,-0.08799078315496445,0.4572768807411194,0.04198360443115234,989.9526977539062,0,0.0,0
4.36,0.08608422,-0.1514354,9.763245,-3.3391843317076564e-05,-0.00010700817801989615,0.0001965750125236809,-3.4234604835510254,17.533638000488278,-13.380487442016602,-0.09671349823474884,0.4641781151294708,0.032596588134765625,989.9043579101562,0,0.0,0
4.4,0.09803873,-0.16335192,9.756143,-0.00016659879474900663,-0.0006396320532076062,0.0001965540868695825,-3.651267528533936,17.267402648925778,-12.944883346557615,-0.10097624361515044,0.4617820382118225,0.0468740463256836,989.9451293945312,0,0.0,0
4.44,0.10043377,-0.15143561,9.77745,0.0004991421010345222,-0.00010699231643229724,-6.978277815505862e-05,-3.727954387664795,16.721437454223633,-12.824136734008787,-0.11905310302972795,0.4494571387767792,0.013817787170410156,989.9351196289062,0,0.0,0
4.48,0.10043883,-0.14666918,9.760879,-0.0006993282586336137,-0.0010390898678451774,0.00046282805851660663,-3.647680759429932,16.902061462402347,-13.001043319702148,-0.0990479439496994,0.45022478699684143,0.03761100769042969,989.9222412109376,0,0.0,0
4.52,0.08849439,-0.15143588,9.763247,-0.0005662192124873401,-0.0003732923069037497,0.0007291229558177293,-3.736108303070069,17.08236312866211,-12.536062240600586,-0.07495003938674928,0.4490354061126709,0.051849365234375,989.9202880859376,0,0.0,0
4.56,0.09566915,-0.15620258,9.767982,-0.0008325841045007111,0.0002925053122453392,-0.0002030035830102861,-3.814423084259033,17.641265869140625,-12.710664749145508,-0.09794949740171432,0.4358762800693512,0.033019065856933594,989.9326782226562,0,0.0,0
4.6,0.11240357,-0.15143618,9.770349000000001,9.947261423803866e-05,-0.0003732764744199813,0.00046276516513898963,-3.8208098411560063,17.003238677978516,-12.826314926147461,-0.10666682571172714,0.4427688419818878,0.04256534576416016,989.9354858398438,0,0.0,0
4.64,0.09567934,-0.15620285,9.779819,-0.0004332079261075705,-0.00010695261880755423,-6.988758104853332e-05,-3.6075425148010254,16.99237060546875,-13.089494705200195,-0.10664623230695723,0.4417054951190949,0.018924713134765625,989.934814453125,0,0.0,0
4.68,0.088514686,-0.13713673,9.746678,0.0007651646155864,0.0009583188802935184,-6.990853580646217e-05,-3.534878253936768,17.165626525878903,-12.879877090454102,-0.07752928137779236,0.4153290390968323,0.06160736083984375,989.89990234375,0,0.0,0
4.72,0.09807932400000001,-0.14428666,9.772717,-0.0004333059478085488,-0.00010693678632378578,-0.00033624534262344236,-3.280930995941162,16.876781463623047,-13.133066177368164,-0.09614203870296477,0.4323408901691437,0.037994384765625,989.92236328125,0,0.0,0
4.76,0.09569454,-0.14190349,9.77035,0.00010166832362301648,0.00023463838442694398,0.0002753585868049413,-3.1937270164489746,17.327140808105472,-13.095869064331055,-0.09075133502483368,0.41466253995895386,0.02862071990966797,989.9152221679688,0,0.0,0
4.8,0.09569964,-0.15143678,9.772718,0.00010166832362301648,0.00023463838442694398,0.0002753585868049413,-3.1937270164489746,17.327140808105472,-13.095869064331055,-0.1098540499806404,0.4180046617984772,0.028661727905273438,989.9152221679688,0,0.0,0
4.84,0.09809458,-0.16097,9.777453,-0.00029785462538711727,0.0011667520739138124,9.02172178030014e-06,-3.359928131103516,17.69805908203125,-12.707040786743164,-0.0951671376824379,0.43048480153083796,0.014507293701171875,989.905029296875,0,0.0,0
4.88,0.098645836,-0.14668384,9.746731,0.001566307619214058,0.00023465431877411905,9.000796126201749e-06,-3.7305617332458496,17.45654296875,-12.943731307983398,-0.10484209656715393,0.4187946915626526,0.06659698486328125,989.9179077148438,0,0.0,0
4.92,0.08672294,-0.16813406,9.779874000000001,0.00023209283244796095,0.00010192423360422254,-0.0006579185137525201,-3.7399935722351074,16.815568923950195,-12.90477180480957,-0.08995048701763153,0.4403493106365204,0.033516883850097656,989.91259765625,0,0.0,0
4.96,0.09391928,-0.14668515,9.768041,0.00023003004025667906,0.00010004745854530483,0.00040436067502014334,-3.80072546005249,17.654521942138672,-13.406412124633787,-0.08994925022125244,0.4191764295101166,0.03357219696044922,989.9330444335938,0,0.0,0
5.0,0.089166105,-0.16098553,9.77041,0.0007624051067978144,0.0014316686429083347,0.00040425066254101694,-4.023966312408446,17.392704010009766,-13.202722549438475,-0.1042121648788452,0.4217399954795837,0.014692306518554688,989.88232421875,0,0.0,0
5.04,0.09636247,-0.16336939,9.779881,0.0011613656533882024,-0.0005656172288581729,0.0005371886072680353,-4.13356351852417,17.658302307128906,-12.354547500610352,-0.09373826533555983,0.4234143197536469,0.0289764404296875,989.9254150390624,0,0.0,0
5.08,0.10116887,-0.14430389,9.770415,0.00036216131411492825,0.0003665299736894667,0.000537078594788909,-3.650425910949707,17.53125,-12.421564102172852,-0.10296235233545303,0.4071759879589081,0.024290084838867188,989.9203491210938,0,0.0,0
5.12,0.101195514,-0.14668775,9.760947,0.00036216131411492825,0.0003665299736894667,0.000537078594788909,-3.650425910949707,17.53125,-12.421564102172852,-0.09810724854469301,0.4106919467449188,0.04799461364746094,989.9203491210938,0,0.0,0
5.16,0.091662526,-0.15383829999999998,9.751482000000001,-0.0003038849681615829,0.0004997296491637826,-0.0006614529993385078,-3.305985927581787,16.695281982421875,-13.118581771850586,-0.09285279363393784,0.4083853662014008,0.0622549057006836,989.9280395507812,0,0.0,0
5.2,0.09407908,-0.15145561,9.765687,-0.0001709837233647704,0.0003666133270598948,-0.00026208904455415905,-3.3837604522705083,16.88589859008789,-13.194734573364258,-0.097338929772377,0.4106996059417725,0.029176712036132806,989.93310546875,0,0.0,0
5.24,0.098885536,-0.14192319,9.775159,0.0007606085855513811,-0.0002990930515807122,0.0008029545424506067,-3.4009060859680176,17.34389877319336,-13.141908645629885,-0.08682596683502197,0.39329853653907776,0.029253005981445312,989.9280395507812,0,0.0,0
5.28,0.10608184,-0.14192379,9.76806,0.0004940360086038709,0.0004998963559046388,-0.0003955770225729793,-3.7284979820251465,17.089727401733402,-12.922586441040039,-0.11058913171291353,0.3915879130363464,0.04349708557128906,989.925537109375,0,0.0,0
5.32,0.08459937599999999,-0.15145764,9.756226,0.0004940360086038709,0.0004998963559046388,-0.0003955770225729793,-3.7284979820251465,17.089727401733402,-12.922586441040039,-0.0769447609782219,0.4000037312507629,0.052992820739746094,989.925537109375,0,0.0,0
5.36,0.10613510000000001,-0.15622479,9.756228,0.00022746331524103883,0.0007662537973374128,0.000669576576910913,-3.923638820648194,17.012351989746097,-12.88798713684082,-0.11023415625095367,0.4073378443717957,0.04357719421386719,989.9030151367188,0,0.0,0
5.4,0.08943242,-0.15384221,9.770434,0.0004935226170346142,0.00023366371169686317,0.00040315065416507423,-3.574580669403076,17.813371658325195,-13.065633773803713,-0.07995571941137314,0.40469372272491455,0.04837322235107422,989.9308471679688,0,0.0,0
5.44,0.10140854,-0.15145954,9.749131,0.001159055740572512,-0.002029979368671775,0.00040304067078977823,-3.358704090118408,17.067394256591793,-13.209218978881836,-0.09413914382457733,0.4025447964668274,0.07682991027832031,989.9281005859376,0,0.0,0
5.48,0.09904528,-0.15146023,9.763337,0.0004930092254653573,0.00010058912448585032,0.00040293065831065183,-3.3798747062683105,17.152690887451172,-12.826025009155273,-0.08898146450519563,0.3870551586151123,0.06738948822021484,989.946044921875,0,0.0,0
5.52,0.094292104,-0.14192769,9.772808,-0.0004393529379740357,0.0008995784446597099,0.00026966267614625394,-3.6678719520568848,17.357118606567386,-12.793603897094727,-0.08381820470094681,0.3853497505187988,0.02955341339111328,989.9435424804688,0,0.0,0
5.56,0.09670862599999999,-0.15146154,9.760975,0.001025127829052508,0.00010067244875244796,-0.0003962369810324162,-3.5444154739379883,17.630996704101562,-13.213579177856445,-0.09329399466514587,0.3776815533638001,0.03908824920654297,989.9183959960938,0,0.0,0
5.6,0.11107468599999999,-0.1538454,9.768079,9.276543278247118e-05,0.001032819738611579,0.0005357585614547132,-3.5655856132507324,17.716291427612305,-12.830385208129885,-0.10239136219024657,0.38629287481307983,0.024906158447265625,989.9082641601562,0,0.0,0
5.64,0.09676191,-0.1466963,9.765714,0.001290930318646133,-3.240213845856488e-05,-0.0003964569477830082,-3.339874744415283,17.1370849609375,-12.215398788452148,-0.0781502053141594,0.37968868017196655,0.039150238037109375,989.9158935546876,0,0.0,0
5.68,0.09439862,-0.15384671,9.76335,0.0006248839199542999,0.00023395541938953104,-0.0003965670184697956,-3.4312081336975098,17.420356750488278,-12.294885635375975,-0.09192746132612227,0.3809763193130493,0.03449249267578125,989.9259643554688,0,0.0,0
5.72,0.09203532,-0.15146413,9.760983999999999,-0.000573794124647975,0.0005003129481337965,-0.0006629929412156342,-3.4046311378479004,17.603328704833984,-12.386674880981445,-0.0823836624622345,0.3893641233444214,0.058192253112792976,989.9082641601562,0,0.0,0
5.76,0.09684178,-0.14193162,9.75862,-0.00030773505568504333,0.00023403877275995907,0.00040216065826825803,-3.484363079071045,17.05441665649414,-12.11131477355957,-0.07686242461204529,0.3724402785301209,0.05351352691650391,989.979248046875,0,0.0,0
5.8,0.096868396,-0.16099858,9.772826,0.0008904298301786183,-3.223551902920008e-05,2.5768531486392017e-06,-3.485884189605713,17.05294418334961,-12.034006118774414,-0.08604982495307922,0.3892409801483154,0.05356311798095703,989.9412841796876,0,0.0,0
5.84,0.10328847,-0.14429715,9.760921000000002,-0.00044140627142041916,0.0008999117417261004,-0.0005301650380715729,-3.853038311004639,17.55242919921875,-12.699518203735352,-0.093548983335495,0.3679760694503784,0.05375099182128906,989.9464721679688,0,0.0,0
5.88,0.10488206,-0.14904422,9.756113000000001,0.0004904427332803607,0.00010100584768224508,-0.000397116964450106,-3.840022563934326,17.828060150146484,-12.794633865356445,-0.09790277481079103,0.3612465560436249,0.04432964324951172,989.9264526367188,0,0.0,0
5.92,0.085727334,-0.14189348,9.765578,-2.8333684895187616e-05,-0.0005643322947435081,-0.0006549297831952572,-3.4977850914001465,17.252994537353516,-12.813722610473633,-0.06887950003147125,0.3508884906768799,0.0538177490234375,989.9111328125,0,0.0,0
5.96,0.1000312,-0.16334218,9.765576,-2.799119101837277e-05,0.00010140183439943941,1.1006690328940751e-05,-3.418489933013916,17.063854217529293,-12.814874649047852,-0.09699054807424544,0.36695250868797297,0.04915332794189453,989.90087890625,0,0.0,0
6.0,0.09282595,-0.14904162,9.775041,0.00023866683477535844,0.0007671359344385563,-0.0003883203025907278,-3.4515604972839355,17.349197387695312,-13.211397171020508,-0.07698912173509598,0.3600967228412628,0.04446887969970703,989.9514770507812,0,0.0,0
6.04,0.092790425,-0.15380728,9.767937,0.0005053254426456988,-0.00029818317852914333,0.0004107740533072501,-3.465120792388916,17.441856384277347,-13.214731216430664,-0.07693839073181152,0.3592483401298523,0.035017967224121094,989.9442138671876,0,0.0,0
6.08,0.09036499,-0.13950676,9.770301,0.00023969431640580297,-3.197853220626712e-05,0.0006773835048079492,-3.4003634452819824,16.97561264038086,-13.043458938598633,-0.08098255842924118,0.3562406599521637,0.02088451385498047,989.9061889648438,0,0.0,0
6.12,0.09271937599999999,-0.14427242,9.758462,0.00023969431640580297,-3.197853220626712e-05,0.0006773835048079492,-3.4003634452819824,16.97561264038086,-13.043458938598633,-0.0805494412779808,0.35503143072128296,0.04931640625,989.9061889648438,0,0.0,0
6.16,0.078344464,-0.15380469,9.767926,-0.0006920687737874688,-0.0004315079422667623,-0.0002545753959566355,-3.602678775787353,17.62892723083496,-12.896539688110352,-0.07094975560903549,0.3581308126449585,0.025684356689453125,989.9239501953124,0,0.0,0
6.2,0.09025842,-0.14665401,9.775025,0.0010393268894404173,0.0011663318146020176,-0.0003875864204019308,-3.687381267547608,17.549800872802734,-13.186796188354492,-0.08484864234924316,0.3326678276062012,0.030455589294433594,989.9365844726562,0,0.0,0
6.24,0.090222895,-0.13711998,9.760819,0.0005725645460188389,-0.00013617909280583262,-2.975662937387824e-06,-4.049703121185304,17.473579406738278,-12.587617874145508,-0.07940004020929338,0.34503909945487976,0.04470157623291016,989.9415893554688,0,0.0,0
6.28,0.097357094,-0.16333517,9.772651,-9.28825611481443e-05,-0.0005357085610739887,-2.8289214242249727e-06,-3.458489418029785,17.079458236694336,-13.425500869750975,-0.06928995251655579,0.3621211051940918,0.03054046630859375,989.9188232421876,0,0.0,0
6.32,0.09493166,-0.15141794,9.756078,-0.0002256978914374486,0.00013002566993236542,0.0006631075520999731,-3.121903896331787,17.236553192138672,-13.409578323364258,-0.08318789303302765,0.3500713407993317,0.0637359619140625,989.9417114257812,0,0.0,0
6.36,0.09250623,-0.15856692,9.756074,-0.0011574614327400925,-3.1879394555289764e-06,-2.535467501729727e-06,-3.2993555068969727,16.332887649536133,-13.329355239868164,-0.08741579949855804,0.3624498248100281,0.04957389831542969,989.9596557617188,0,0.0,0
6.4,0.08530098,-0.15618274,9.753705,-0.000490986742079258,-0.0006690887967124581,-0.00013539983774535358,-3.4576478004455566,17.343305587768555,-12.902177810668945,-0.06747607886791229,0.354695200920105,0.06383991241455078,989.9443359375,0,0.0,0
6.44,0.08526552,-0.149032,9.760802,-0.000490986742079258,-0.0006690887967124581,-0.00013539983774535358,-3.4576478004455566,17.343305587768555,-12.902177810668945,-0.07179846614599228,0.3346211314201355,0.04492378234863281,989.9443359375,0,0.0,0
6.48,0.08045012,-0.15856424,9.760799,-9.117032459471376e-05,-0.00040282850386574864,-0.0008010426536202432,-3.4947409629821777,17.255939483642578,-12.968332290649414,-0.0524149127304554,0.3562337756156921,0.05917263031005859,989.9066772460938,0,0.0,0
6.52,0.08519441,-0.13949716,9.765531,-0.0003568012034520507,-0.0005360976210795343,-0.00026811749557964504,-4.125411510467528,17.29737663269043,-12.642618179321287,-0.07080250978469849,0.31976082921028137,0.04503345489501953,989.8887939453124,0,0.0,0
6.56,0.07798916,-0.14664611,9.756059,-0.0006227749399840832,-3.5213965929870032e-06,-0.0002679706376511604,-3.800183773040772,17.286231994628903,-13.307962417602539,-0.051097061485052116,0.33200255036354065,0.05454254150390625,989.9697875976562,0,0.0,0
6.6,0.092293054,-0.14902851,9.758422,-0.0006227749399840832,-3.5213965929870032e-06,-0.0002679706376511604,-3.800183773040772,17.286231994628903,-13.307962417602539,-0.07977240532636642,0.3357572555541992,0.04509544372558594,989.9697875976562,0,0.0,0
6.64,0.09225753,-0.16332737,9.767888000000001,4.3357358663342886e-05,0.0006622126675210892,-0.0005341398064047098,-3.244380474090576,17.332435607910153,-13.16535758972168,-0.06469546258449554,0.33835020661354065,0.030935287475585938,989.9244384765624,0,0.0,0
6.68,0.092221975,-0.13949367,9.76315,-0.0006220898358151318,-0.001068896148353815,0.0006644284585490823,-3.28408145904541,17.980178833007812,-13.351114273071287,-0.06366150081157684,0.3316846489906311,0.05937862396240234,989.9192504882812,0,0.0,0
6.72,0.08023694,-0.13949278,9.753678,-8.911547774914652e-05,-0.0018678993219509719,-0.00013437247253023088,-3.9709506034851074,17.652729034423828,-12.687215805053713,-0.05818600207567215,0.3297045826911926,0.06414985656738281,989.945068359375,0,0.0,0
6.76,0.0849812,-0.14902505,9.765511,-0.0004882471403107047,-0.00013690181367564946,-0.00013422573101706803,-3.8665986061096187,17.64508628845215,-12.702852249145508,-0.0624481812119484,0.33242613077163696,0.045253753662109375,989.9398803710938,0,0.0,0
6.8,0.09211537,-0.16094059,9.76314,0.001109990756958723,0.00026251646340824664,-0.0001340789021924138,-3.5098237991333012,17.34712791442871,-12.894357681274414,-0.07642098516225815,0.3312673568725586,0.031072616577148438,989.9320068359376,0,0.0,0
6.84,0.0936743,-0.14906242,9.760916,-0.00022124605311546475,-0.00027017088723368943,-7.742492016404867e-07,-3.5761017799377437,17.81189727783203,-12.98832893371582,-0.0727345198392868,0.30557164549827576,0.054635047912597656,989.95263671875,0,0.0,0
6.88,0.084142625,-0.14667979,9.758552,3.973497950937599e-05,-0.0002693049318622797,0.00013009749818593264,-3.507758140563965,16.980308532714847,-12.873212814331055,-0.0582132451236248,0.31323742866516113,0.049930572509765625,989.9397583007812,0,0.0,0
6.92,0.08895033599999999,-0.14668050000000002,9.751452,-0.00010296261461917312,0.000531191355548799,0.0001260090502910316,-3.3072099685668945,17.325946807861328,-12.61640739440918,-0.06747481971979141,0.3161723017692566,0.0641622543334961,989.9300537109376,0,0.0,0
6.96,0.09614795400000001,-0.15383106,9.756189,2.9926639399491247e-05,-1.3967296581540722e-06,-0.0006730537861585617,-3.1606569290161133,17.041797637939453,-12.699350357055664,-0.06677504628896712,0.30839210748672485,0.05000495910644531,989.9529418945312,0,0.0,0
7.0,0.09617585,-0.15144849,9.775129,-0.0006361320847645402,0.00013180487439967692,0.0003920944291166961,-3.445610523223877,17.24917221069336,-12.821538925170898,-0.07626978307962418,0.31226301193237305,0.02161216735839844,989.945068359375,0,0.0,0
7.04,0.09142399,-0.14668253,9.758561,-0.00037008535582572216,-1.309345407207729e-06,-0.0005401264643296598,-3.723090648651123,17.357994079589847,-12.631181716918945,-0.06676927208900453,0.31525444984436035,0.06425094604492188,989.9426879882812,0,0.0,0
7.08,0.09145188,-0.14429995,9.763299,-0.00010403852502349764,0.0011971556814387439,0.00025870586978271604,-3.511345386505127,17.345653533935547,-12.817056655883787,-0.06148669123649597,0.30397099256515503,0.06427574157714844,989.96533203125,0,0.0,0
7.12,0.08908984,-0.15383378,9.7562,-0.00023746538499835879,-0.0008001697715371847,-0.0006735149072483183,-3.7978196144104,17.551551818847653,-12.861948013305664,-0.07061074674129486,0.32091233134269714,0.05483722686767578,989.9553833007812,0,0.0,0
7.16,0.089117765,-0.14906797,9.760936000000001,-0.0009035238763317467,-0.00013433632557280362,-0.00027415636577643454,-3.9046721458435063,17.187957763671875,-12.59324836730957,-0.0511748306453228,0.3086288571357727,0.05014324188232422,989.9531860351562,0,0.0,0
7.2,0.08914566,-0.14906853,9.768041,-0.0007706350879743695,0.0003983391507063061,0.00039151796954683965,-3.693904399871826,16.805854797363278,-12.603372573852539,-0.07474453747272491,0.293378084897995,0.03595256805419922,989.9680786132812,0,0.0,0
7.24,0.08678368,-0.14668599,9.775145,0.000294359284453094,-0.00013424898497760296,-0.0001412291021551937,-3.525203227996826,16.806175231933597,-13.245256423950195,-0.05528681725263596,0.29136383533477783,0.04545021057128906,989.9451904296876,0,0.0,0
7.28,0.084421694,-0.13477027,9.777514,-0.0010374890407547355,-0.0002673632698133588,0.0001249715278390795,-3.77222204208374,17.364757537841793,-12.777971267700195,-0.0640130490064621,0.2887153029441833,0.02654743194580078,989.9527587890624,0,0.0,0
7.32,0.077279925,-0.14192083,9.758579,-0.0003719681408256292,-0.0004004775255452842,-0.00040777548565529287,-4.179108142852783,17.299724578857422,-12.557504653930664,-0.05417841300368309,0.29253143072128296,0.050232887268066406,989.9454345703124,0,0.0,0
7.36,0.07969773,-0.15383789,9.76805,-0.0003722371766343713,-0.0005335917812772095,0.0007905306993052362,-3.7456440925598153,17.5477294921875,-12.869760513305664,-0.06805633753538133,0.3097583651542664,0.03605365753173828,989.9785766601562,0,0.0,0
7.4,0.09645495,-0.14668867,9.765686,-0.00023934828641358766,-0.0005335481837391853,-0.000408006162615493,-3.4612345695495605,17.708648681640625,-12.846017837524414,-0.06783220916986465,0.28414884209632874,0.04081153869628906,989.947998046875,0,0.0,0
7.44,0.09887272,-0.14907268,9.760955000000001,-0.00010645949805621058,0.0002654432028066367,0.0003908263170160353,-3.97192907333374,17.282966613769528,-12.51146125793457,-0.07678649574518204,0.29656165838241577,0.05030345916748047,989.9251098632812,0,0.0,0
7.48,0.098900616,-0.1347737,9.756223,-0.0007725179893895984,-0.000799776753410697,-0.0001419207255821675,-3.258919715881348,17.055334091186527,-12.99293327331543,-0.06184348464012146,0.2803989052772522,0.0645303726196289,989.9178466796876,0,0.0,0
7.52,0.09653863,-0.1514574,9.765694,-0.0007727869087830187,-0.0006665750406682491,0.0003905957273673266,-3.3357138633728027,17.61570930480957,-13.244844436645508,-0.07079417258501053,0.2880410850048065,0.04088115692138672,989.9534912109376,0,0.0,0
7.56,0.08700693,-0.15145799999999998,9.751493,-0.0006398981204256415,-0.000799689325504005,-0.0005416250787675381,-3.4400653839111333,17.623353958129886,-13.229211807250975,-0.07975633442401886,0.29110974073410034,0.03616714477539063,989.9353637695312,0,0.0,0
7.6,0.10137427,-0.16099182,9.770432000000001,2.5622532120905813e-05,0.00013245989975985142,0.00012404931476339698,-3.6963753700256343,17.646879196166992,-13.42204475402832,-0.07479545474052429,0.2988868653774261,0.045658111572265625,989.9610595703124,0,0.0,0
7.64,0.09184259,-0.14430955,9.77517,-0.0001078042114386335,0.00026566151063889265,-0.0004086977860424668,-3.4709630012512207,16.435535430908207,-13.231931686401367,-0.060223251581192024,0.2733505368232727,0.0362091064453125,989.940673828125,0,0.0,0
7.68,0.08948061,-0.14907685,9.758602,-0.0003743889974430203,-6.107079570938367e-07,-0.0002756550966296345,-3.4059081077575684,16.601428985595707,-12.63578987121582,-0.05486617237329483,0.2809764742851257,0.059903144836425774,989.9484252929688,0,0.0,0
7.72,0.09667819999999999,-0.1490775,9.770441,-0.0011736057931557298,-0.0006663567619398236,0.00039001929690130055,-3.446152210235596,17.617460250854492,-12.919992446899414,-0.0641404390335083,0.29336997866630554,0.03625297546386719,989.9407348632812,0,0.0,0
7.76,0.094316185,-0.16576111,9.768075999999999,0.0006270402809605002,0.00020065969147253784,0.00033553014509379864,-3.198591709136963,16.69058609008789,-13.288827896118164,-0.04959176480770111,0.29129117727279663,0.055214881896972656,989.966064453125,0,0.0,0
7.8,0.10127801,-0.14907303,9.758589,0.0006270402809605002,0.00020065969147253784,0.00033553014509379864,-3.198591709136963,16.69058609008789,-13.288827896118164,-0.06398902088403703,0.2810109853744507,0.05048751831054688,989.966064453125,0,0.0,0
7.84,0.08671641,-0.16098401,9.791708999999999,0.0003604555677156896,0.0009996509179472923,-0.00019721683929674327,-3.2492446899414062,16.695880889892578,-13.358316421508787,-0.05834334343671799,0.283963143825531,0.02688026428222656,989.9691162109376,0,0.0,0
7.88,0.08911519999999999,-0.15860096,9.758569,-0.0005684841889888048,-6.612650759052485e-05,7.045577513054012e-05,-3.697354793548584,17.277116775512695,-13.24629020690918,-0.048685524612665176,0.3012874722480774,0.0600433349609375,989.9691162109376,0,0.0,0
7.92,0.08912408,-0.1347684,9.760937,-0.00030113189131952817,6.686315464321524e-05,0.0011361635988578198,-3.5981125831604004,17.633344650268555,-13.128458023071287,-0.06729888916015625,0.2713146507740021,0.04585456848144531,989.9362182617188,0,0.0,0
7.96,0.098692596,-0.15621814,9.765672,0.0006308881565928459,-6.628090341109781e-05,-0.0001954525068867952,-3.482703685760498,17.161808013916016,-12.887693405151367,-0.06716862320899962,0.2698438167572021,0.04587173461914063,989.953857421875,0,0.0,0
8.0,0.09631154,-0.15383509,9.78461,-3.4987140679731965e-05,0.0008658386068418622,-0.00032864711829461163,-3.718225955963135,17.994548797607422,-12.438226699829102,-0.06719633936882019,0.27312028408050537,0.01748371124267578,989.9335327148438,0,0.0,0
8.04,0.091540635,-0.15383527,9.76094,-0.000434632325777784,0.0005995504907332362,0.0012691747397184374,-3.656375408172608,17.631275177001953,-12.811418533325195,-0.06741873174905777,0.275327742099762,0.03645133972167969,989.9387817382812,0,0.0,0
8.08,0.08915964,-0.14430234,9.756206,-0.000434632325777784,0.0005995504907332362,0.0012691747397184374,-3.894698619842529,17.460643768310547,-12.533758163452148,-0.06685785949230194,0.264720618724823,0.03646183013916016,989.9387817382812,0,0.0,0
8.12,0.09872806,-0.15383568,9.768042999999999,0.0002310720446985215,6.693262548651545e-05,0.0004701904254034161,-3.3919119834899902,17.246822357177734,-12.906660079956055,-0.05720793083310127,0.2688282132148743,0.03173542022705078,989.9083862304688,0,0.0,0
8.16,0.09873697,-0.14906937,9.75384,0.000497302389703691,0.00033326237462460995,-6.247794954106212e-05,-3.540966510772705,17.159738540649414,-12.570661544799805,-0.05629541352391242,0.2569015026092529,0.05069732666015625,989.961669921875,0,0.0,0
8.2,0.105915576,-0.15145287,9.7704115,0.00023090068134479225,-0.00033251335844397545,0.0006032750243321061,-2.981439113616944,16.94651222229004,-13.183294296264648,-0.07543046027421951,0.26588910818099976,0.04123401641845703,989.9442138671876,0,0.0,0
8.24,0.09158504,-0.1538364,9.768044999999999,0.00023081511608324945,-0.0001993415498873219,0.0002037644735537469,-3.5006909370422363,17.355960845947266,-13.358194351196287,-0.07001172006130219,0.2729886472225189,0.02232074737548828,989.9794311523438,0,0.0,0
8.28,0.09637371,-0.15621987,9.756209,-0.0004350599192548543,0.00020014612528029832,0.000603201682679355,-3.4139246940612797,17.06827163696289,-13.046789169311525,-0.06496231257915497,0.25250375270843506,0.04600715637207031,989.9213256835938,0,0.0,0
8.32,0.098772526,-0.13953707,9.777514,-3.567201201803982e-05,0.0004664759617298842,7.05332204233855e-05,-3.879616260528565,17.369455337524414,-12.607728958129885,-0.06484958529472351,0.2470856606960297,0.03181171417236328,989.9568481445312,0,0.0,0
8.36,0.09400156,-0.153837,9.770415,0.00023055842029862106,-0.000332457828335464,0.0003368123725522309,-3.598548412322998,16.895294189453125,-12.854249954223633,-0.054871268570423126,0.27347373962402344,0.050769805908203125,989.9642944335938,0,0.0,0
8.4,0.09640035,-0.14192083,9.777516,-3.584302612580359e-05,0.0007328196079470218,0.00046993367141112685,-3.259760856628418,16.791486740112305,-13.516256332397461,-0.05447036027908325,0.23942478001117706,0.03657245635986328,989.9672241210938,0,0.0,0
8.44,0.09401935,-0.14668763,9.784619000000001,0.0002303871733602136,-0.0008650616509839892,-0.00032905061380006373,-3.435093402862549,17.153566360473633,-12.663599014282227,-0.06865160167217255,0.2465743273496628,0.017658233642578125,989.9396362304688,0,0.0,0
8.48,0.0844686,-0.14668787,9.756214,-0.0004354882112238556,0.0004665314918383956,0.0002035443321801722,-3.280930995941162,16.876781463623047,-13.133066177368164,-0.044613536447286606,0.2451966553926468,0.050812721252441406,989.9495239257812,0,0.0,0
8.52,0.09164718,-0.1514546,9.76805,-0.00030241560307331383,0.00020022952230647206,-6.280813249759376e-05,-3.683251857757568,16.816165924072266,-13.144506454467773,-0.058749321848154075,0.2491451501846313,0.03661632537841797,989.9468994140624,0,0.0,0
8.56,0.08687627,-0.14430493,9.768051,-3.618540358729661e-05,0.0005997172556817533,7.031316636130214e-05,-3.2607407569885254,16.421724319458008,-13.340497970581055,-0.05867648497223854,0.2338114082813263,0.0129547119140625,989.9443969726562,0,0.0,0
8.6,0.10361451,-0.15622157,9.777521,0.0007626765873283148,0.0005997311091050506,0.00046975025907158846,-3.692490100860596,17.913671493530273,-13.05333137512207,-0.06313376128673552,0.2561247646808624,0.04137516021728516,989.9647827148438,0,0.0,0
8.64,0.0940637,-0.14430541,9.775155,-3.63565341103822e-05,-6.604463851545006e-05,-6.291820318438113e-05,-3.632299900054932,17.443008422851562,-12.650148391723633,-0.0627320408821106,0.2500738501548767,0.041385650634765625,989.9345703125,0,0.0,0
8.68,0.077343285,-0.14907220000000002,9.760953,-3.6442099371925e-05,-0.0001991886965697631,-6.295478669926523e-05,-3.734447956085205,17.189754486083984,-13.312444686889648,-0.038400422781705856,0.2489040344953537,0.05559730529785156,989.9570922851562,0,0.0,0
8.72,0.08691180000000001,-0.15383902,9.76332,0.0007624198915436863,-0.0009981225011870263,-0.000861939275637269,-3.6127896308898926,17.250324249267578,-12.256956100463867,-0.04276164248585701,0.23799437284469604,0.036670684814453125,989.9924926757812,0,0.0,0
8.76,0.091700435,-0.1538392,9.760954,0.0010285647585988043,-0.0004654629155993462,-0.0004625387082342058,-3.4667792320251465,17.334465026855472,-12.438348770141602,-0.051798976957798,0.2505507469177246,0.04615402221679688,989.9320068359376,0,0.0,0
8.8,0.0913614,-0.15859744,9.775126,0.0010285647585988043,-0.0004654629155993462,-0.0004625387082342058,-3.4667792320251465,17.334465026855472,-12.438348770141602,-0.046401839703321464,0.2548466920852661,0.02251529693603516,989.9320068359376,0,0.0,0
8.84,0.093746245,-0.15621403,9.765656,0.0004962621023878455,-6.604257214348763e-05,7.023423677310348e-05,-3.338352680206299,17.138559341430664,-12.292703628540039,-0.055917125195264816,0.25325071811676025,0.05567169189453125,989.9878540039062,0,0.0,0
8.88,0.09613109,-0.14429751,9.756188,-0.000432948610978201,0.00033296129549853504,-0.0004611568583641201,-3.5297694206237797,16.801755905151367,-13.013345718383787,-0.05551474168896675,0.2422233819961548,0.055685997009277344,989.9848022460938,0,0.0,0
8.92,0.09612602,-0.15621376,9.751452,-3.342566196806729e-05,6.663748354185374e-05,0.0007372855907306075,-3.4948792457580566,17.150020599365234,-12.269258499145508,-0.06484450399875641,0.2457418441772461,0.04622745513916016,989.9447631835938,0,0.0,0
8.96,0.10807043,-0.13953069,9.760921000000002,0.001431409385986626,0.00046609545825049276,-6.162017234601079e-05,-3.9167094230651855,17.28209114074707,-12.673891067504885,-0.05966451391577721,0.22525203227996826,0.05097389221191406,989.94482421875,0,0.0,0
9.0,0.09611589,-0.13476402,9.777492,0.001431409385986626,0.00046609545825049276,-6.162017234601079e-05,-3.9167094230651855,17.28209114074707,-12.673891067504885,-0.044994398951530463,0.2103495299816132,0.04624462127685547,989.94482421875,0,0.0,0
9.04,0.09611079,-0.14906356,9.763287,-0.00029959497624076903,-0.0008654919220134616,7.155872299335897e-05,-3.740536212921143,17.18385887145996,-13.00322151184082,-0.058882314711809165,0.22365781664848328,0.060455322265625,989.9524536132812,0,0.0,0
9.08,0.096105695,-0.14906344,9.768022,0.0007657175883650781,-0.0001997101499000564,0.0012700011720880866,-3.5309934616088867,17.43242073059082,-12.511171340942385,-0.05408165231347084,0.23652246594429016,0.04152965545654297,989.9552001953124,0,0.0,0
9.12,0.09610063,-0.15621316,9.77749,-0.00029949707095511263,0.0008655455312691629,-0.0004610311298165471,-3.5243620872497563,17.070022583007812,-12.721940994262695,-0.05780922621488571,0.2400470525026321,0.027334213256835938,989.9804077148438,0,0.0,0
9.16,0.09609556,-0.15144649,9.772755,-0.00016624134150333703,0.00046605570241808886,-0.0001946733391378075,-3.681431293487549,17.449775695800778,-12.796937942504885,-0.06725472211837769,0.22351525723934174,0.04155540466308594,989.9423828125,0,0.0,0
9.2,0.09131074,-0.16336277,9.760919,-0.00016624134150333703,0.00046605570241808886,-0.0001946733391378075,-3.681431293487549,17.449775695800778,-12.796937942504885,-0.04816790297627449,0.24674782156944275,0.046296119689941406,989.9423828125,0,0.0,0
9.24,0.09130561,-0.14191312,9.76802,-4.819815512746573e-05,7.9163204645738e-05,-0.0003079409070778638,-2.9648351669311523,16.856800079345707,-13.334573745727539,-0.057051297277212136,0.2213052213191986,0.03683662414550781,989.9501953125,0,0.0,0
9.28,0.08891058,-0.15859595,9.763285,-4.819815512746573e-05,7.9163204645738e-05,-0.0003079409070778638,-2.9648351669311523,16.856800079345707,-13.334573745727539,-0.04771428182721138,0.24451494216918945,0.041579246520996094,989.9501953125,0,0.0,0
9.32,0.10085505,-0.15621257,9.765653,0.0006176403257995844,0.00021231322898529467,-0.0004410778929013759,-3.4060153961181636,17.707773208618164,-13.008447647094727,-0.07554019242525101,0.2334383726119995,0.03685283660888672,989.9580688476562,0,0.0,0
9.36,0.0960702,-0.14906254,9.768018,-0.0001812095288187265,-0.0008529660990461707,0.00035791171831078833,-3.313565731048584,17.90018081665039,-13.803789138793945,-0.05085817724466324,0.2313944548368454,0.05106925964355469,989.9805297851562,0,0.0,0
9.4,0.09128532,-0.15144572,9.779855,-0.0001812095288187265,-0.0008529660990461707,0.00035791171831078833,-3.3391938209533687,16.874711990356445,-12.81602668762207,-0.04598655179142952,0.2213035225868225,0.03687000274658203,989.9805297851562,0,0.0,0
9.44,0.10561964,-0.15621215,9.775119,-0.00044747628271579737,-5.402645911090076e-05,9.161682100966573e-05,-3.886407375335693,17.205635070800778,-13.520910263061525,-0.059826180338859565,0.22433826327323916,0.046352386474609375,989.9429321289062,0,0.0,0
9.48,0.08649537,-0.15621203,9.763283,-0.0007137435022741556,-0.00045350816799327737,-4.152019391767681e-05,-3.5047144889831543,16.983253479003903,-13.027826309204102,-0.04024113342165947,0.21300965547561648,0.05583095550537109,989.9428100585938,0,0.0,0
9.52,0.09127012,-0.15382865,9.763282,-4.7904904931783676e-05,0.000345431559253484,-0.0004409730609040707,-3.9366564750671382,16.736722946166992,-12.792871475219727,-0.049433652311563485,0.21707093715667725,0.03689765930175781,989.9428100585938,0,0.0,0
9.56,0.100824594,-0.15621179999999998,9.775117,8.530204650014639e-05,-0.0008529979386366904,0.000624311447609216,-3.821897029876709,17.739816665649414,-13.023218154907227,-0.04926233366131783,0.22451066970825195,0.04638195037841797,989.975830078125,0,0.0,0
9.6,0.081700325,-0.14667857,9.765649,-4.78068832308054e-05,0.0008780473726801574,-4.145730054005981e-05,-3.730562686920166,17.45654296875,-12.943731307983398,-0.039627544581890106,0.2144901305437088,0.0653219223022461,989.9555053710938,0,0.0,0
9.64,0.086475074,-0.14429516,9.77275,-0.00031407398637384176,-0.00018722408276516944,0.0007575112977065146,-3.616239070892334,17.721586227416992,-12.899873733520508,-0.039390042424201965,0.2132594734430313,0.03692340850830078,989.9630737304688,0,0.0,0
9.68,0.08647001,-0.14429504,9.763278999999999,-0.00018086715135723352,0.00034539971966296434,-4.1415391024202115e-05,-3.581944465637207,16.805578231811527,-13.005525588989258,-0.04876481741666794,0.21178452670574188,0.046402931213378906,989.9354248046876,0,0.0,0
9.72,0.09841445,-0.15144476,9.76328,-0.00044713413808494806,-0.0001872399734565988,-0.00044086822890676563,-3.901628017425537,17.190906524658207,-12.747858047485352,-0.06259019672870636,0.20577622950077054,0.032204627990722656,989.958251953125,0,0.0,0
9.76,0.086459845,-0.146678,9.760911,0.00021870457567274568,-0.00032040587393566966,-4.137348150834441e-05,-3.642816066741944,17.538616180419922,-12.808088302612305,-0.04319356009364128,0.20015330612659452,0.0511474609375,989.94580078125,0,0.0,0
9.8,0.09232697,-0.15623789999999999,9.768113,0.0007513851160183549,-5.409786535892636e-05,0.0010239110561087728,-3.867578029632568,17.275323867797848,-12.527093887329102,-0.04396028444170952,0.2180383950471878,0.06525802612304688,989.9608154296876,0,0.0,0
9.84,0.09953472,-0.14908895,9.763383000000001,-0.0004503232194110751,-0.00045470148324966436,-0.0005779950297437607,-3.624690055847168,17.450374603271484,-13.03666877746582,-0.06250396370887756,0.21135470271110532,0.03685474395751953,989.98095703125,0,0.0,0
9.88,0.09001315,-0.15385639999999998,9.770488,-0.00018944393377751112,7.881276542320849e-05,-0.0001808510278351605,-3.3973193168640137,16.978557586669922,-13.198068618774414,-0.0573570467531681,0.22033190727233887,0.02265167236328125,989.96826171875,0,0.0,0
9.92,0.099610806,-0.1586239,9.761022,0.00034282135311514134,-0.0011195492697879672,-0.00018100810120813549,-3.692084789276123,17.439464569091793,-12.255800247192385,-0.056705005466938026,0.20009148120880127,0.05579280853271485,989.9660034179688,0,0.0,0
9.96,0.08769941,-0.15385827,9.7681265,0.0003424547612667084,-0.000853173725772649,-0.0004474811139516533,-3.1530470848083496,17.049163818359375,-13.085870742797852,-0.03714246302843094,0.19335511326789856,0.05106258392333984,989.9610595703124,0,0.0,0
10.0,0.09012729,-0.14909267,9.770497,-0.00032370188273489475,7.899139018263668e-05,0.00048446716391481465,-3.331584453582764,16.882076263427734,-13.202554702758787,-0.05088809505105018,0.21113115549087524,0.02265644073486328,989.9560546875,0,0.0,0
10.04,0.09972495,-0.14432707,9.772867999999999,-0.0005903845885768533,-0.0009862125152722,0.0007506258552893996,-3.45308256149292,17.347724914550778,-13.134092330932615,-0.045666992664337165,0.2060596346855164,0.041591644287109375,989.950927734375,0,0.0,0
10.08,0.099762976,-0.14432799999999998,9.753934,0.0006076704012230039,-0.001785100670531392,0.0002178370195906609,-3.59506893157959,17.63629150390625,-13.28306770324707,-0.054662860929965966,0.19049188494682312,0.04632759094238281,989.9662475585938,0,0.0,0
10.12,0.109360665,-0.15147879999999997,9.765774,-0.00032480177469551563,-0.00018714602629188448,0.0007503117085434496,-3.60341215133667,16.258735656738278,-13.047204971313475,-0.07356469333171843,0.1939966231584549,0.03685951232910156,989.9611206054688,0,0.0,0
10.16,0.0926694,-0.1490964,9.768144,-0.0001920107752084732,0.00021238740009721366,0.0003506805223878473,-3.4922404289245605,17.627174377441406,-13.221395492553713,-0.039880797266960144,0.21188659965991974,0.036861419677734375,989.9589233398438,0,0.0,0
10.2,0.09509730000000001,-0.16339698,9.763413,-0.00019237759988754988,7.92890350567177e-05,-4.895043093711138e-05,-3.68751859664917,17.443885803222653,-12.48771858215332,-0.03992009907960892,0.2246197760105133,0.06527137756347656,989.963623046875,0,0.0,0
10.24,0.09274548,-0.14909825,9.761049,0.0003395210951566696,0.00034572399454191327,-4.926469409838319e-05,-3.7698578834533687,17.63007926940918,-12.33195686340332,-0.04460783302783966,0.1896624714136124,0.04160308837890625,989.9412231445312,0,0.0,0
10.28,0.08083406,-0.14909920000000002,9.751584,0.0003395210951566696,0.00034572399454191327,-4.926469409838319e-05,-3.7698578834533687,17.63007926940918,-12.33195686340332,-0.025582678616046902,0.1939452439546585,0.05580711364746094,989.9412231445312,0,0.0,0
10.32,0.10477111,-0.15386671,9.772893,7.28380400687456e-05,0.0010115732438862324,8.37359984871e-05,-3.3747649192810063,16.788818359375,-12.959489822387695,-0.04941508173942566,0.20664633810520167,0.03213787078857422,989.9412231445312,0,0.0,0
10.36,0.09524953,-0.15386763,9.77053,-0.0001942111412063241,7.958667993079871e-05,-0.0005823678220622241,-3.379438877105713,17.890745162963867,-13.100229263305664,-0.04859751835465431,0.21434232592582705,0.046339988708496094,989.9490966796876,0,0.0,0
10.4,0.090507805,-0.15625188,9.758697,-0.00032773555722087616,-0.0004529855796135962,-0.0004493671585805714,-3.1415514945983887,17.323318481445312,-13.10368537902832,-0.04854902997612953,0.1989905834197998,0.046339988708496094,989.9666748046876,0,0.0,0
10.44,0.09771556,-0.15386954,9.753966,-6.178684998303652e-05,-0.0004529259749688208,0.0006157391471788287,-3.608766078948975,17.62303352355957,-12.587324142456055,-0.04336177185177803,0.19318975508213046,0.04633903503417969,989.966552734375,0,0.0,0
10.48,0.08819398,-0.14433727,9.780008,0.00047047832049429417,7.976529013831168e-05,0.00021610810654237864,-3.8008637428283687,17.54860496520996,-12.707330703735352,-0.033930424600839615,0.1827383041381836,0.03213691711425781,989.9617919921876,0,0.0,0
10.52,0.083452225,-0.15387133,9.768175,0.00047047832049429417,7.976529013831168e-05,0.00021610810654237864,-3.8008637428283687,17.54860496520996,-12.707330703735352,-0.043322023004293435,0.18693555891513824,0.027402877807617188,989.9617919921876,0,0.0,0
10.56,0.10977918,-0.15148899,9.765813,0.0008692190749570727,-0.0004527474520727992,-5.052197957411408e-05,-3.67838716506958,17.452722549438473,-12.95155143737793,-0.06627939641475677,0.19512054324150085,0.036865234375,989.9262084960938,0,0.0,0
10.6,0.09786773,-0.15625653,9.763448,0.0008692190749570727,-0.0004527474520727992,-5.052197957411408e-05,-3.67838716506958,17.452722549438473,-12.95155143737793,-0.03755369409918785,0.18993285298347476,0.06053733825683594,989.9262084960938,0,0.0,0
10.64,0.08834618,-0.15864074,9.77292,0.0003362206043675542,-0.001384793664328754,-5.067905294708908e-05,-3.2529692649841313,16.955307006835938,-12.603078842163086,-0.031916238367557526,0.20338314771652224,0.04632854461669922,989.9517822265624,0,0.0,0
10.68,0.0859943,-0.16102496,9.765822,0.00020232901442795992,-0.0004525688127614559,0.0006147961830720304,-3.549822807312012,17.36273193359375,-13.504983901977539,-0.031548049300909035,0.19233746826648712,0.06053066253662109,989.9823608398438,0,0.0,0
10.72,0.10037178,-0.14910951,9.753989,0.00020232901442795992,-0.0004525688127614559,0.0006147961830720304,-3.8645339012146,17.278270721435547,-12.681703567504885,-0.04111234843730927,0.18655210733413696,0.06526470184326172,989.9823608398438,0,0.0,0
10.76,0.09529739599999999,-0.15148556,9.768167,0.0004682784201577307,0.00021328040747903287,0.00048148114001378417,-3.690020084381104,17.072649002075195,-12.234659194946287,-0.04495659098029137,0.18499106168746948,0.032184600830078125,989.9569091796876,0,0.0,0
10.8,0.092593074,-0.15147778,9.775239,-0.0008347578113898635,0.00034131068969145417,-0.0006251992308534683,-3.536400318145752,17.16415786743164,-12.802576065063475,-0.04000124707818031,0.19393986463546756,0.0274505615234375,989.9617919921876,0,0.0,0
10.84,0.09021461,-0.13956168,9.756302999999999,0.0002379142097197473,-6.143766222521663e-05,4.203306161798537e-05,-3.152503490447998,16.680871963500973,-12.987421035766602,-0.025793105363845825,0.16483837366104126,0.06532669067382812,989.95947265625,0,0.0,0
10.88,0.09739578,-0.15862823,9.770507,0.00010464625665917993,0.0008706857333891094,0.0003083017654716968,-3.4039502143859863,17.34095573425293,-12.987298965454102,-0.030236709862947464,0.1870931386947632,0.05586051940917969,989.9446411132812,0,0.0,0
10.92,0.083067745,-0.15147862,9.770508,0.0005040100659243761,7.175598875619471e-05,-0.0004906930844299495,-3.670915126800537,17.354171752929688,-12.638994216918945,-0.025483548641204837,0.18653036653995514,0.027454376220703125,989.9496459960938,0,0.0,0
10.96,0.099808514,-0.15147898,9.753938,-0.0004282056470401585,7.177382940426469e-05,-0.0003575822920538485,-3.5860748291015625,17.53921127319336,-13.047822952270508,-0.05380166694521904,0.1800314486026764,0.05112934112548828,989.9293212890624,0,0.0,0
11.0,0.092650205,-0.14909592,9.768144,-0.0005614737165160476,-0.00019452418200671676,-0.00022447152878157797,-3.4817233085632324,17.531570434570312,-13.063451766967773,-0.02520354837179184,0.16982397437095642,0.04166030883789063,989.9749145507812,0,0.0,0
11.04,0.10222122,-0.15624604,9.777613,-0.0002952677314169705,7.180962711572647e-05,-0.0004908345872536302,-3.692383289337158,16.807329177856445,-12.680673599243164,-0.04404404014348984,0.1926270425319672,0.022724151611328125,989.96240234375,0,0.0,0
11.08,0.09984273,-0.1538631,9.761042999999999,0.000104095961432904,0.00020498542289715258,0.0003080659662373364,-3.629255771636963,17.44595718383789,-12.804754257202148,-0.048585500568151474,0.17282986640930176,0.03692626953125,989.9470825195312,0,0.0,0
11.12,0.095074356,-0.16339645,9.758677,0.0006366175948642193,0.0003381612477824092,-9.14550619199872e-05,-3.561455249786377,16.982658386230472,-12.788091659545898,-0.033891048282384865,0.19008858501911166,0.05586528778076172,989.9317626953124,0,0.0,0
11.16,0.09747565,-0.14909706,9.765779499999999,-0.00042875582585111266,-6.129476241767406e-05,4.1655730456113815e-05,-3.591481685638428,17.270946502685547,-13.339227676391602,-0.04787804186344147,0.17505912482738495,0.05112934112548828,989.9495239257812,0,0.0,0
11.2,0.08792746,-0.14909735,9.777617,0.0005032396293245256,-0.0011265403591096401,-0.0010236549424007537,-3.6399102210998535,17.435646057128903,-12.263620376586914,-0.03361192718148232,0.16458693146705627,0.013256072998046877,989.9374389648438,0,0.0,0
11.24,0.09271872,-0.1467143,9.770516,-0.00016266020247712731,0.0006045306799933313,4.156140494160354e-05,-3.3366928100585938,17.245946884155273,-13.069089889526367,-0.033763084560632706,0.16377271711826324,0.036930084228515625,989.9774169921876,0,0.0,0
11.28,0.09034023,-0.1467146,9.763415,0.00010354578262194991,0.0012703381944447756,0.0007073039887472987,-3.4213962554931636,17.16682243347168,-13.359342575073242,-0.038267817348241806,0.1725708544254303,0.04639816284179688,989.9473266601562,0,0.0,0
11.32,0.09513146,-0.14909819,9.758681,-0.00016288022743538022,-0.00032753910636529326,-0.0006243226816877723,-3.476753234863281,17.061782836914062,-12.497842788696287,-0.02828329429030418,0.17094150185585022,0.06060028076171875,989.960205078125,0,0.0,0
11.36,0.08797318,-0.14909843,9.76105,-0.00029614841332659125,-6.120535545051098e-05,-0.0004912118893116713,-3.843907833099365,17.561267852783207,-13.163347244262695,-0.009289618581533432,0.1753348708152771,0.04639816284179688,989.9501342773438,0,0.0,0
11.4,0.08798456,-0.16101518,9.763419,0.00010321551235392691,-0.0003275033668614924,-9.17852157726884e-05,-3.69401216506958,17.912200927734375,-12.976030349731445,-0.027689062058925632,0.19850364327430725,0.04639434814453125,989.9374389648438,0,0.0,0
11.44,0.09516567,-0.15863213,9.758685,0.0007688952027820051,-0.0007269593188539147,-9.183233487419784e-05,-3.654311180114746,17.264457702636722,-12.790277481079102,-0.03724704310297966,0.163831427693367,0.05112934112548828,989.9323120117188,0,0.0,0
11.48,0.09517711400000001,-0.14909926,9.768155,0.0003692012396641076,0.0007378137088380754,-9.192674770019947e-05,-3.401885986328125,16.974138259887695,-12.966154098510742,-0.0323907732963562,0.16734284162521362,0.05586433410644531,989.9551391601562,0,0.0,0
11.52,0.10474813,-0.14671633,9.765788,0.0003692012396641076,0.0007378137088380754,-9.192674770019947e-05,-3.401885986328125,16.974138259887695,-12.966154098510742,-0.051567744463682175,0.14798106253147125,0.046395301818847656,989.9551391601562,0,0.0,0
11.56,0.092810035,-0.15863296,9.751588,0.0002359331701882184,7.204190478660166e-05,-9.197389590553941e-05,-3.6036572456359854,17.259162902832028,-12.720785140991213,-0.03222225606441498,0.1802646666765213,0.06533050537109375,989.9348754882812,0,0.0,0
11.6,0.09282148,-0.15148342,9.770526,-0.00016365078045055267,-0.0003274140763096512,0.00017429483705200258,-3.3707427978515625,17.161529541015625,-13.289857864379885,-0.022532135248184204,0.16015224158763885,0.0558624267578125,989.9703369140624,0,0.0,0
11.64,0.09283286,-0.14671716,9.768158999999999,-0.00029691861709579825,0.00033839346724562347,-0.0004915421013720334,-3.2609848976135254,17.422149658203125,-13.014078140258787,-0.041810933500528336,0.17341268062591553,0.032192230224609375,989.9703369140624,0,0.0,0
11.68,0.095234185,-0.1467174,9.768161,0.00010244495933875442,0.001137358951382339,-0.000757905188947916,-3.3903903961181636,17.248294830322266,-12.983964920043945,-0.037256307899951935,0.15353704988956451,0.036927223205566406,989.9679565429688,0,0.0,0
11.72,0.100025415,-0.14910099,9.775263,0.0002354928874410689,0.0012705348199233413,0.00017415327602066102,-3.5052580833435063,17.351547241210938,-13.126276016235352,-0.0466155931353569,0.16218584775924685,0.032192230224609375,989.9500732421876,0,0.0,0
11.76,0.097136825,-0.14193884,9.763380999999999,-0.00029724888736382127,-6.1026687035337084e-05,-0.000624841486569494,-3.714501857757568,17.735122680664062,-13.193460464477539,-0.031983714550733566,0.14678233861923218,0.06064605712890625,989.947998046875,0,0.0,0
11.8,0.094738066,-0.1514718,9.758646,-0.0004287005285732448,0.0007376439170911907,0.0005743111250922084,-3.5946636199951167,17.16208267211914,-12.485536575317385,-0.03188468888401985,0.1651865839958191,0.055912017822265625,989.942626953125,0,0.0,0
11.84,0.09233928,-0.1538549,9.758645,0.0005064565339125693,0.00033767474815249443,0.00017614514217711985,-3.5197949409484863,17.074440002441403,-12.953851699829102,-0.04609891399741173,0.16912218928337094,0.04170989990234375,989.9329223632812,0,0.0,0
11.88,0.092330396,-0.14908811,9.763378999999999,0.00024022621801123023,0.0007371346000581981,4.302395973354578e-05,-3.332127571105957,17.2503662109375,-13.301004409790039,-0.032099559903144836,0.15388059616088867,0.03697967529296875,989.9429321289062,0,0.0,0
11.92,0.09471142,-0.14908788,9.763377,0.0002403120161034167,0.0010034367442131042,-0.0007558871293440461,-3.5680866241455083,17.34505844116211,-12.577325820922852,-0.02704915776848793,0.15805234014987946,0.04644775390625,989.9329223632812,0,0.0,0
11.96,0.092312634,-0.14193779,9.768111,0.00010732508962973951,0.00020446120470296592,0.00017629191279411316,-3.519361019134521,17.8124942779541,-13.228059768676758,-0.0409061498939991,0.1474638730287552,0.027509689331054688,989.9735107421876,0,0.0,0
12.0,0.077964306,-0.15147069,9.775212,0.00010732508962973951,0.00020446120470296592,0.00017629191279411316,-3.519361019134521,17.8124942779541,-13.228059768676758,-0.007726520299911498,0.16127152740955353,0.04644966125488281,989.9735107421876,0,0.0,0
12.04,0.09946456599999999,-0.15147051,9.76811,-0.0001588195445947349,0.0020686443895101547,-8.995065581984818e-05,-3.598548412322998,16.895292282104492,-12.854249954223633,-0.03691747039556503,0.1507605016231537,0.04171943664550781,989.932861328125,0,0.0,0
12.08,0.09228599,-0.14432046,9.768108999999999,0.0010396873112767935,-0.00046137021854519844,-0.0007557036587968469,-3.731403827667236,17.192699432373047,-13.46705436706543,-0.02209293097257614,0.14518499374389648,0.05592155456542969,989.9356079101562,0,0.0,0
12.12,0.1066165,-0.15385339,9.777576,0.0010396873112767935,-0.00046137021854519844,-0.0007557036587968469,-3.637163639068604,16.806453704833984,-12.843103408813475,-0.040971681475639336,0.15424613654613495,0.03224945068359375,989.9356079101562,0,0.0,0
12.16,0.097048044,-0.15385315,9.768107,-0.0001586484140716493,-0.00032822613138705487,-8.98772559594363e-05,-3.65873908996582,17.365955352783207,-13.257440567016602,-0.02647067978978157,0.158205047249794,0.04645252227783203,989.95068359375,0,0.0,0
12.2,0.0898695,-0.13955322,9.751536,0.0003740689135156572,-6.192416185513139e-05,4.331732634454965e-05,-3.3502531051635738,17.338607788085938,-13.072420120239258,-0.03108937293291092,0.14257243275642395,0.06065559387207031,989.932861328125,0,0.0,0
12.24,0.094640374,-0.14908609,9.758637,-0.0005579512217082083,-0.00019509595585986966,-8.98039434105158e-05,-3.1295132637023926,17.22918701171875,-13.023050308227539,-0.04522866755723953,0.16088134050369265,0.05118465423583984,989.9683837890624,0,0.0,0
12.28,0.09941131,-0.14431933,9.770472,-0.00042470759944990283,0.0006038377759978175,-0.00035608309553936124,-3.2609844207763667,17.422149658203125,-13.014078140258787,-0.04972481355071068,0.1455969363451004,0.03224754333496094,989.93603515625,0,0.0,0
12.32,0.10418224,-0.14431918,9.777574000000001,-0.00045365048572421074,9.305522689828648e-05,-0.00031759735429659486,-3.2535128593444824,17.323600769042972,-12.70152473449707,-0.03527703136205673,0.14946375787258148,0.027513504028320312,989.9456787109376,0,0.0,0
12.36,0.09461373,-0.15385208,9.76337,-5.409109871834517e-05,-4.0116596210282296e-05,-0.0008501926786266267,-3.289625644683838,17.605995178222656,-12.943437576293945,-0.044230613857507706,0.15334616601467133,0.03697776794433594,989.966064453125,0,0.0,0
12.4,0.09460485,-0.14431870000000002,9.765735000000001,0.0004786263452842832,-0.00017328845569863915,0.00034826566115953034,-3.632299900054932,17.443008422851562,-12.650144577026367,-0.04395456984639168,0.1383253037929535,0.03224468231201172,989.930908203125,0,0.0,0
12.44,0.09937578400000001,-0.165768,9.753899,-0.0001870777923613787,-0.0007059341878630222,-5.117148975841701e-05,-3.514251708984375,17.448623657226562,-13.361520767211914,-0.043974880129098885,0.15674611926078796,0.05118179321289063,989.9537963867188,0,0.0,0
12.48,0.08980729999999999,-0.15861791,9.760999,0.000345639418810606,0.0004924734821543096,0.0006146548548713326,-3.6226248741149902,17.08355712890625,-13.015523910522461,-0.03890612721443176,0.14656277000904086,0.04644775390625,989.9462280273438,0,0.0,0
12.52,0.09935799,-0.15146783,9.765733,0.0007451989222317934,-0.0003064880729652941,8.205979247577488e-05,-3.461533546447754,17.07651138305664,-13.270891189575195,-0.03378799557685852,0.1504729688167572,0.04170989990234375,989.9386596679688,0,0.0,0
12.56,0.08500975,-0.15146771,9.760997999999999,-0.00018682109657675028,-0.00030650192638859153,-5.106141907162964e-05,-3.088833332061768,16.951210021972653,-13.01304817199707,-0.024273686110973358,0.14925187826156616,0.05591297149658203,989.9385375976562,0,0.0,0
12.6,0.082610965,-0.14670092,9.763364,-0.000985683174803853,0.0006255898042581974,-0.0003173407167196274,-3.493218421936035,17.25741195678711,-13.045637130737305,-0.01425931975245476,0.13900715112686154,0.05117607116699219,989.9462280273438,0,0.0,0
12.64,0.08499196,-0.15146723,9.758628999999999,0.0002128237392753363,-0.0008391615119762719,0.0004816436266992241,-3.6648268699646,17.360061645507812,-12.948213577270508,-0.01845404878258705,0.14342118799686432,0.04644012451171875,989.938720703125,0,0.0,0
12.68,0.08498311,-0.14431718,9.760995,0.0014113311190158127,-0.000972333422396332,0.0007479962659999727,-3.270957946777344,17.149467468261722,-13.073572158813475,-0.02788097783923149,0.1379881203174591,0.04170417785644531,989.94873046875,0,0.0,0
12.72,0.09248972,-0.14194211,9.763392999999999,0.00047939654905349016,-0.00017341348575428128,0.0007480695494450629,-3.3671560287475586,16.796184539794922,-13.346014022827148,-0.03802481293678284,0.1274319589138031,0.0416412353515625,989.928466796875,0,0.0,0
12.76,0.10957682,-0.15625057,9.772895,-0.0003245023544877768,0.0008926538866944611,-0.000319315935485065,-3.233184337615967,16.97446060180664,-13.608041763305664,-0.05214814841747284,0.15040861070156095,0.02269840240478516,989.928466796875,0,0.0,0
12.8,0.09286654,-0.15625104,9.763428,-0.0003245023544877768,0.0008926538866944611,-0.000319315935485065,-3.233184337615967,16.97446060180664,-13.608041763305664,-0.03277627006173134,0.14054164290428162,0.06057167053222656,989.928466796875,0,0.0,0
12.84,0.09766543,-0.15386826,9.756329,-0.0001931730657815933,-0.0007049447158351541,-0.00032009964343160385,-3.506779193878174,17.350072860717773,-13.048971176147461,-0.03292208909988403,0.14909274876117706,0.04163169860839844,989.966552734375,0,0.0,0
12.88,0.10485411,-0.13956901,9.763431,-6.0382182709872716e-05,0.00022722053108736875,0.0004786906647495925,-3.199814796447754,17.321250915527347,-12.786649703979492,-0.03735581785440445,0.1286415457725525,0.06056404113769531,989.94873046875,0,0.0,0
12.92,0.112042844,-0.14910263,9.756331,-6.0382182709872716e-05,0.00022722053108736875,0.0004786906647495925,-3.199814796447754,17.321250915527347,-12.786649703979492,-0.046888403594493866,0.1235347017645836,0.05582714080810547,989.94873046875,0,0.0,0
12.96,0.09055275,-0.1634028,9.768168,-0.00046003935858607287,0.00022725036251358688,0.0007449280237779021,-3.4962635040283203,17.254467010498047,-12.891031265258787,-0.022830955684185028,0.15611514449119568,0.07002544403076172,989.9566040039062,0,0.0,0
13.0,0.085792005,-0.15387014,9.763436,0.0004716996336355805,-0.0007047957624308765,0.00021213910076767206,-3.947278499603272,17.93867301940918,-13.32347297668457,-0.02261333912611008,0.14082172513008118,0.055816650390625,989.9209594726562,0,0.0,0
13.04,0.100150436,-0.15387061,9.765806,0.0004716996336355805,-0.0007047957624308765,0.00021213910076767206,-3.947278499603272,17.93867301940918,-13.32347297668457,-0.041455887258052826,0.14032921195030212,0.03687477111816406,989.9209594726562,0,0.0,0
13.08,0.09777957,-0.14195469,9.770541999999999,-6.111571565270424e-05,0.0003604975645430386,-5.4255506256595254e-05,-3.517295360565185,17.445676803588867,-13.206914901733398,-0.0415133535861969,0.12557846307754514,0.02740478515625,989.93115234375,0,0.0,0
13.12,0.09301877,-0.14433846,9.770543,0.0006044905167073011,0.0004936853074468672,7.882382487878203e-05,-3.7802367210388175,17.831600189208984,-13.18897819519043,-0.02680928260087967,0.12019047886133195,0.04633712768554688,989.9190063476562,0,0.0,0
13.16,0.09542769,-0.14910549,9.768178,0.00033799116499722004,-0.0007047063554637134,-5.441266694106162e-05,-3.811678409576416,17.012073516845707,-13.29014778137207,-0.02172047644853592,0.12472447007894515,0.04159832000732422,989.94189453125,0,0.0,0
13.2,0.09783661,-0.14433941,9.761078,0.0008704395731911062,-0.00043836073018610483,0.000211824692087248,-3.89056921005249,16.727008819580078,-12.491464614868164,-0.031129315495491024,0.12378928065299988,0.0605316162109375,989.9290161132812,0,0.0,0
13.24,0.08590618,-0.1657894,9.76108,0.0007369146915152669,0.00036064645973965526,7.850944530218841e-05,-3.9136672019958496,17.285037994384766,-12.828496932983398,-0.01184166967868805,0.13740062713623047,0.05579090118408203,989.9620971679688,0,0.0,0
13.28,0.08831507,-0.15387341,9.777652,0.0007369146915152669,0.00036064645973965526,7.850944530218841e-05,-3.9136672019958496,17.285037994384766,-12.828496932983398,-0.030662558972835537,0.13205912709236145,0.01791095733642578,989.9620971679688,0,0.0,0
13.32,0.09311393,-0.14910725,9.768186,0.00033725739922374487,-0.0005714292638003826,0.0004779046284966171,-4.133128643035889,18.39635467529297,-12.628755569458008,-0.025711223483085632,0.1267279088497162,0.05104827880859375,989.9244384765624,0,0.0,0
13.36,0.08357334,-0.15149102,9.770555,0.00020391622092574838,-0.0005713995196856557,-5.480574327521026e-05,-3.922360897064209,18.014253616333008,-12.638872146606445,-0.015492133796215056,0.1355791985988617,0.055774688720703125,989.95947265625,0,0.0,0
13.4,0.08837217,-0.14195839,9.753985,7.057504262775183e-05,-0.0013703175354748964,7.827373337931931e-05,-3.1079392433166504,16.669685363769528,-12.608713150024414,-0.015234269201755525,0.11109701544046402,0.05576992034912109,989.9749755859376,0,0.0,0
13.44,0.10273063,-0.14910868,9.775291000000001,0.00020354962907731533,9.444962051929906e-05,0.00034451103419996803,-3.71311616897583,17.63067626953125,-12.571687698364258,-0.024609453976154327,0.1338745504617691,0.046296119689941406,989.9546508789062,0,0.0,0
13.48,0.093190014,-0.14195931,9.772925,0.00020336604211479423,-3.867851773975417e-05,-5.504151340574026e-05,-3.616376399993897,17.61566925048828,-12.200796127319336,-0.03417898714542389,0.11470641940832138,0.03209209442138672,989.9218139648438,0,0.0,0
13.52,0.08842924,-0.13719323,9.765825999999999,0.00046949845273047686,0.0003608251281548291,0.00021119575831107795,-3.211852550506592,17.41538429260254,-12.867288589477539,-0.01501569151878357,0.11405238509178163,0.051025390625,989.9443969726562,0,0.0,0
13.56,0.09800786,-0.14434355,9.775297,6.984127685427666e-05,-3.861900040647015e-05,0.0003442751185502857,-3.75684118270874,17.90570831298828,-12.42707633972168,-0.02956011891365052,0.12763658165931702,0.041553497314453125,989.9471435546876,0,0.0,0
13.6,0.09324711599999999,-0.14196077,9.761096,-6.349990144371986e-05,0.000893516291398555,0.0007436703890562057,-3.6226248741149902,17.08355712890625,-13.015527725219727,-0.03446470946073532,0.13600654900074005,0.05101966857910156,989.9572143554688,0,0.0,0
13.64,0.09565604,-0.14196122,9.770566,-0.0009957888396456838,0.0007603881531395018,0.0003441180451773107,-3.395392894744873,16.50582504272461,-12.477846145629885,-0.02027278393507004,0.11624439805746077,0.046280860900878906,989.9599609375,0,0.0,0
13.68,0.102844775,-0.1395784,9.765833,0.0006019229767844081,0.0008935758960433304,0.0011429870501160624,-3.838393688201904,16.723186492919922,-12.499284744262695,-0.03419160842895508,0.11038202792406082,0.06047725677490234,989.9349975585938,0,0.0,0
13.72,0.099746555,-0.15862727,9.768136,-0.0005966820754110812,-0.00017165782628580928,-5.5513140978291624e-05,-3.604499340057373,16.995319366455078,-13.244112014770508,-0.03327111154794693,0.12447921186685562,0.06054019927978516,989.9244384765624,0,0.0,0
13.76,0.09495655,-0.14432737,9.770502,-0.00019652408082038164,-0.0007044006488285959,0.0002110959612764418,-3.639771938323975,17.541561126708984,-12.96269416809082,-0.03330246359109878,0.12317072600126265,0.04159927368164063,989.9395751953124,0,0.0,0
13.8,0.09016666,-0.15147695,9.756298,-0.0001904763048514724,9.356524242321028e-05,-0.00018578587332740426,-3.698035717010498,17.53948974609375,-12.645662307739258,-0.019293449819087986,0.10836679488420486,0.05580425262451172,989.9248046875,0,0.0,0
13.84,0.09971607,-0.14194354,9.7705,-0.0005675582797266543,0.0012042511953040955,5.270904512144625e-05,-3.462756633758545,17.707176208496094,-12.768712997436525,-0.0334852859377861,0.11745212972164155,0.05106925964355469,989.9374389648438,0,0.0,0
13.88,0.09492618,-0.15624294,9.768132000000001,0.0008972770883701742,0.0008047614246606827,0.00018590898253023622,-3.360907077789306,17.328296661376953,-12.531286239624025,-0.033491432666778564,0.12175746262073515,0.02739715576171875,989.942626953125,0,0.0,0
13.92,0.08774629,-0.14909282,9.775232,9.84270009212196e-05,0.0004052717122249305,-0.0002135229588020593,-3.6352057456970215,17.54598045349121,-13.194612503051758,-0.018966183066368103,0.1209174394607544,0.03686237335205078,989.9273071289062,0,0.0,0
13.96,0.09490585,-0.14670935,9.775231,-0.0007004226208664478,-0.0003936918219551444,-0.0004797969304490834,-3.4364781379699707,17.258010864257812,-13.285371780395508,-0.037789419293403625,0.11026892066001892,0.022655487060546875,989.924560546875,0,0.0,0
14.0,0.09489566,-0.14670911,9.75866,-0.00016769318608567119,-0.00039370771264657384,-0.00047975496272556484,-3.507077693939209,16.717933654785153,-13.473840713500975,-0.02814459055662155,0.1240994781255722,0.04632568359375,989.9548950195312,0,0.0,0
14.04,0.08532596,-0.14670888,9.763394,-3.443734021857381e-05,0.00027206612867303187,0.0004523925308603794,-3.4205546379089355,17.430667877197266,-12.836023330688475,-0.023154638707637787,0.10441984236240387,0.04632282257080078,989.9548950195312,0,0.0,0
14.08,0.082925916,-0.1490919,9.772862,0.00023197621339932084,-0.0005268973764032125,-0.0003465132031124085,-3.658196926116944,16.997663497924805,-13.158987045288086,-0.022935591638088226,0.11357960104942323,0.027382850646972656,989.9554443359376,0,0.0,0
14.12,0.08530569,-0.16339135,9.7681265,0.0003652321756817401,0.0002720343763940037,0.00018616046872921288,-3.4464511871337886,16.98532485961914,-13.344865798950195,-0.013092085719108582,0.12235728651285173,0.051052093505859375,989.9579467773438,0,0.0,0
14.16,0.087685406,-0.15862456,9.753922,-0.0005666778306476773,-0.0009264187538065015,-8.007159340195358e-05,-3.5671067237854004,17.71481704711914,-12.753080368041992,-0.031647838652133935,0.12129157036542892,0.04631233215332031,989.9423217773438,0,0.0,0
14.2,0.10201466,-0.14670792,9.7610235,0.0006318413070403039,-0.0005269608809612691,-0.0006126613589003682,-3.883501529693604,17.102664947509766,-12.976442337036133,-0.026134371757507324,0.0922011286020279,0.03683757781982422,989.9605102539062,0,0.0,0
14.24,0.10200453,-0.14909098,9.777593,-3.385049058124423e-05,-0.0003938188892789185,-0.00021314568584784863,-3.4847683906555176,17.52862548828125,-12.908845901489258,-0.02115538716316223,0.11526870727539062,0.04630279541015625,989.9349975585938,0,0.0,0
14.28,0.09004485599999999,-0.15147385,9.770491,-3.385049058124423e-05,-0.0003938188892789185,-0.00021314568584784863,-3.4847683906555176,17.52862548828125,-12.908845901489258,-0.02109094709157944,0.1054798662662506,0.0226287841796875,989.9349975585938,0,0.0,0
14.32,0.09003472,-0.1419405,9.775224,0.00036572100361809134,-0.00039383472176268697,-0.0006125775398686527,-3.6443376541137695,17.53714370727539,-12.730783462524414,-0.016563259065151215,0.10011224448680878,0.04630184173583984,989.9376831054688,0,0.0,0
14.36,0.08046496,-0.15862325,9.753917999999999,-0.0001668128534220159,0.0009377288515679537,-0.000745693570934236,-3.6980347633361816,17.539491653442386,-12.645662307739258,-0.0020814761519432072,0.1230536550283432,0.05103302001953125,989.9325561523438,0,0.0,0
14.4,0.082844734,-0.14432332,9.761018,0.000499172427225858,0.00013874938304070383,0.00018649583216756585,-3.9151883125305176,17.283565521240234,-12.751192092895508,-0.016583338379859924,0.10821210592985152,0.04629993438720703,989.9605102539062,0,0.0,0
14.44,0.09956389999999998,-0.13240668,9.770486,0.000499172427225858,0.00013874938304070383,0.00018649583216756585,-3.9151883125305176,17.283565521240234,-12.751192092895508,-0.03575464338064194,0.08867354691028595,0.03209495544433594,989.9605102539062,0,0.0,0
14.48,0.10194364,-0.13717303,9.761016,0.00036611227551475167,0.0008045232389122247,-0.00021293613826856014,-3.614173412322998,17.354766845703125,-12.878725051879885,-0.03551578521728516,0.08812569826841354,0.051029205322265625,989.9174194335938,0,0.0,0
14.52,0.085204184,-0.16577214,9.782321000000001,-0.00043273746268823743,5.559690180234612e-06,-7.973622996360064e-05,-3.7271132469177246,16.985282897949222,-12.300813674926758,-0.006984367966651917,0.13028022646903992,0.03209209442138672,989.9630126953124,0,0.0,0
14.56,0.09714353,-0.15147221,9.744444999999999,-0.00016622600378468633,5.527967005036771e-06,0.0009856111137196422,-3.4802021980285645,17.533042907714847,-13.140756607055664,-0.02606596052646637,0.11037254333496094,0.05576038360595703,989.9481811523438,0,0.0,0
14.6,0.09235358,-0.151472,9.75628,-0.00016622600378468633,5.527967005036771e-06,0.0009856111137196422,-3.4802021980285645,17.533042907714847,-13.140756607055664,-0.02111458033323288,0.11945001780986785,0.05102348327636719,989.9481811523438,0,0.0,0
14.64,0.09473336,-0.14908847,9.772849,0.0006328194285742939,0.0005381438531912863,0.0003198633203282953,-3.832006931304932,17.361213684082028,-12.383634567260742,-0.035427749156951904,0.09958592057228087,0.02734947204589844,989.9506225585938,0,0.0,0
14.68,0.082773685,-0.13955498,9.763378999999999,-0.0005655042477883399,0.0002718120813369751,-0.00047904232633300126,-3.6026782989501958,17.628925323486328,-12.896539688110352,-0.01149120181798935,0.08460035175085068,0.04628467559814453,989.9453735351562,0,0.0,0
14.72,0.089438945,-0.15390098,9.758817,-0.0004322485183365643,0.00040495413122698665,-0.00034584259265102446,-3.3384599685668945,18.24489974975586,-12.665361404418945,-0.018462195992469788,0.10309171676635742,0.0603170394897461,989.9454345703124,0,0.0,0
14.76,0.08950359,-0.16105244,9.773026,-0.00030350947054103017,0.0008020990062505008,-8.601250010542572e-05,-3.654853343963623,17.632747650146484,-12.88871955871582,-0.02333233505487442,0.11659938097000122,0.050838470458984375,989.9531860351562,0,0.0,0
14.8,0.091958195,-0.15390411,9.751727,-0.00017977187235374004,0.0004041545034851879,-0.0002232078113593161,-3.841544628143311,17.826587677001953,-12.717329025268555,-0.02332963794469833,0.11105956882238388,0.04609394073486328,989.9506225585938,0,0.0,0
14.84,0.09919259,-0.14913914,9.761203,-4.7237568651326e-05,0.0001379398599965498,-0.0007561068050563335,-3.351775646209717,17.337135314941403,-12.995111465454102,-0.03798013925552368,0.10091684758663176,0.041352272033691406,989.9656982421876,0,0.0,0
14.88,0.09208757,-0.15629062,9.765943,-4.786132194567472e-05,0.0009369887411594393,-0.0008895319188013672,-3.242316722869873,16.965621948242188,-13.14421272277832,-0.013562582433223723,0.11467470228672028,0.0366058349609375,989.9329223632812,0,0.0,0
14.92,0.10171187,-0.15390894,9.765948,-4.8484958824701614e-05,-0.0011934371432289481,-0.0002240094472654164,-3.2794094085693364,16.87825584411621,-13.210367202758787,-0.023025825619697567,0.11392545700073242,0.0650014877319336,989.9357299804688,0,0.0,0
14.96,0.08743715,-0.14914396,9.758853,-0.00018226630345452577,5.085472366772592e-06,-0.0008900662651285529,-2.9895915985107417,17.307435989379886,-12.895219802856445,-0.022740386426448825,0.08914870023727417,0.05078125,989.9357299804688,0,0.0,0
15.0,0.09467155,-0.14676222,9.761225999999999,-0.000182889707502909,-0.000394287082599476,-0.0002245439391117543,-3.1778035163879395,17.499799728393555,-12.646520614624025,-0.017987482249736786,0.1031310111284256,0.0413055419921875,989.9431762695312,0,0.0,0
15.04,0.09473628,-0.14914712,9.7707,-5.035540380049497e-05,0.00013844599016010759,-0.0006242850213311613,-3.2459025382995605,17.330965042114258,-13.088052749633787,-0.013394489884376526,0.10719775408506392,0.0507659912109375,989.9406127929688,0,0.0,0
15.08,0.09719080000000001,-0.1491487,9.773074000000001,8.217924914788455e-05,0.0006711789174005389,0.00017439547809772193,-3.292969226837158,16.97091293334961,-13.213701248168945,-0.02779868990182877,0.11163945496082306,0.01761627197265625,989.9786987304688,0,0.0,0
15.12,0.10203534,-0.1563001,9.765979,0.0007473455625586213,0.0005381222581490874,-0.00022534557501785454,-3.4977850914001465,17.252994537353516,-12.813722610473633,-0.02293206751346588,0.11622262001037598,0.05075263977050781,989.941162109375,0,0.0,0
15.16,0.08537072,-0.14200208,9.763616,0.00034724822035059333,-0.0005270401015877724,-0.0004919286584481597,-3.3502531051635738,17.338607788085938,-13.072420120239258,-0.0181451216340065,0.0775756984949112,0.03180503845214844,989.9633178710938,0,0.0,0
15.2,0.09499502,-0.15868658,9.747052,0.00047978240763768565,0.0008046404691413045,-0.0006253537721931933,-3.601593494415283,16.89234733581543,-12.699640274047852,-0.0324234813451767,0.11050863564014436,0.055469512939453125,989.9383544921876,0,0.0,0
15.24,0.10222942,-0.15153834,9.77073,-5.347300611902028e-05,-0.000127363862702623,-0.0002261472400277853,-3.843906879425049,17.561264038085938,-13.163347244262695,-0.0325002521276474,0.10512076318264008,0.03178882598876953,989.9383544921876,0,0.0,0
15.28,0.09512439,-0.14677337,9.773103,7.906118116807194e-05,0.0008048429153859615,-0.0011585199972614644,-3.748687267303467,17.544784545898438,-12.715150833129885,-0.027494944632053372,0.099514938890934,0.03651046752929688,989.9359741210938,0,0.0,0
15.32,0.09279919,-0.14200833,9.768374,-0.0009868257911875844,-0.0007929510902613401,-0.0002266816736664623,-3.131035804748535,17.227714538574222,-12.945741653442385,-0.013068482279777529,0.0798492431640625,0.05070400238037109,989.9432983398438,0,0.0,0
15.36,0.09286386,-0.15392634,9.763646000000001,-0.0001530436857137829,-0.00038730225060135126,0.0004338935250416398,-3.1003289222717285,16.677051544189453,-12.995237350463867,-0.021690219640731808,0.09772955626249312,0.04594612121582031,989.9359741210938,0,0.0,0
15.4,0.097708344,-0.15392795,9.744715,-0.0005531407659873366,-0.001585622550919652,-9.900546865537764e-05,-3.191662311553955,16.960325241088867,-13.074724197387695,-0.0404881164431572,0.0973929911851883,0.055408477783203125,989.941162109375,0,0.0,0
15.44,0.08821347,-0.1563128,9.763658,0.0005108758341521026,-0.00038699858123436565,0.0010988814756274225,-3.395934581756592,16.87411117553711,-12.576295852661133,-0.016430377960205078,0.10630139708518982,0.05539417266845703,989.9461669921876,0,0.0,0
15.48,0.100227654,-0.15393117,9.770766,0.0005108758341521026,-0.00038699858123436565,0.0010988814756274225,-3.395934581756592,16.87411117553711,-12.576295852661133,-0.021210916340351105,0.10609838366508484,0.041187286376953125,989.9461669921876,0,0.0,0
15.52,0.09551251,-0.14916614,9.775507000000001,0.0006434100214391947,-0.0002537393593229353,3.3350748708471656e-05,-3.4637351036071777,17.337413787841793,-12.592954635620115,-0.0211169570684433,0.0865669921040535,0.05064487457275391,989.9409790039062,0,0.0,0
15.56,0.09557724,-0.14440116,9.749473,-0.000955732655711472,-0.00012037902342854068,-0.00010034156730398536,-3.419032573699951,17.432140350341793,-12.913324356079102,-0.01636461168527603,0.07114384323358536,0.06009864807128906,989.9336547851562,0,0.0,0
15.6,0.08847222,-0.14440277,9.761314,-0.00015740844537504017,0.0006786698359064758,0.00043202293454669416,-3.6818671226501465,16.711723327636722,-12.522733688354492,-0.016233056783676147,0.08477432280778885,0.05061817169189453,989.9541625976562,0,0.0,0
15.64,0.10048646,-0.1610873,9.775524,-2.4873908841982487e-05,-0.0009191242861561476,0.00016543985111638904,-3.3573198318481445,16.96295166015625,-12.587446212768555,-0.020709693431854248,0.11266680806875227,0.0411367416381836,989.953857421875,0,0.0,0
15.68,0.10662776,-0.15391225,9.773063,-2.4873908841982487e-05,-0.0009191242861561476,0.00016543985111638904,-3.3573198318481445,16.96295166015625,-12.587446212768555,-0.035061806440353394,0.10780069231987,0.03166484832763672,989.953857421875,0,0.0,0
15.72,0.09119439,-0.14911887,9.7516575,0.00037397639243863523,0.000545714283362031,-0.0005006170249544084,-3.5990920066833496,17.263582229614258,-12.952699661254885,-0.01851535588502884,0.07862838357686996,0.06026458740234375,989.9537353515624,0,0.0,0
15.76,0.07922202,-0.15150157,9.751656,0.0005278540775179863,9.71896770352032e-06,4.089457797817886e-05,-3.280388355255127,16.508491516113278,-13.034612655639648,0.0007514208555221558,0.08764949440956116,0.06499862670898438,989.9189453125,0,0.0,0
15.8,0.091148674,-0.13958457,9.756388000000001,0.0005278540775179863,9.71896770352032e-06,4.089457797817886e-05,-3.280388355255127,16.508491516113278,-13.034612655639648,-0.02304317057132721,0.07799839973449707,0.050795555114746094,989.9189453125,0,0.0,0
15.84,0.09829557,-0.14911714,9.763488,0.00039491636562161153,0.000275999162113294,-0.0004916428006254137,-3.533356189727783,17.167098999023438,-12.957185745239258,-0.017782151699066162,0.09153005480766296,0.036586761474609375,989.9365844726562,0,0.0,0
15.88,0.09588283,-0.1514999,9.780057000000001,-0.0004038111364934594,-0.0010556160705164077,0.00017424116958864033,-3.817765712738037,17.006181716918945,-12.980928421020508,-0.01761975884437561,0.08647536486387253,0.04131889343261719,989.94677734375,0,0.0,0
15.92,0.08869028,-0.14911604,9.772952,0.00039535641553811734,0.00027592768310569227,4.117752541787922e-05,-3.3235688209533687,16.415233612060547,-12.791547775268555,-0.007726609706878662,0.09535346925258636,0.060254096984863274,989.9518432617188,0,0.0,0
15.96,0.09344724,-0.14434895,9.761113,-0.00040337108657695353,-0.0009225295507349074,-0.0002250439138151705,-3.387346744537353,17.25124168395996,-13.138574600219727,-0.02610445022583008,0.0850784182548523,0.03657341003417969,989.93408203125,0,0.0,0
16.0,0.08386481,-0.14196506,9.761111,0.00026285878266207874,0.0009416100801900027,-0.0003580132615752518,-3.887088298797608,17.468008041381836,-12.920282363891602,-0.007262431085109711,0.07977655529975891,0.05077838897705078,989.9417114257812,0,0.0,0
16.04,0.09101167,-0.1491144,9.772946000000001,0.00026285878266207874,0.0009416100801900027,-0.0003580132615752518,-3.887088298797608,17.468008041381836,-12.920282363891602,-0.021398216485977173,0.08419360220432281,0.03657245635986328,989.9417114257812,0,0.0,0
16.08,0.09337878,-0.14673051,9.765841499999999,-3.2369571272283792e-06,-0.0001236891112057492,0.0008405025582760572,-3.591481685638428,17.270946502685547,-13.339227676391602,-0.0025368481874465947,0.0837479755282402,0.04604339599609375,989.94677734375,0,0.0,0
16.12,0.09335589400000001,-0.14434668,9.7516365,-0.0001361748727504164,0.0008083807770162821,0.0004411229747347533,-3.483246326446533,17.530094146728516,-12.986146926879885,-0.021418534219264984,0.07861775159835815,0.06971263885498047,989.9592895507812,0,0.0,0
16.16,0.08616339999999999,-0.14911273,9.761104,-2.7969072107225657e-06,-0.0006563922506757081,0.00017490138998255134,-3.17573881149292,17.132984161376953,-12.625375747680664,-0.016886703670024872,0.08244483917951584,0.05077457427978516,989.9241333007812,0,0.0,0
16.2,0.09092036,-0.1634118,9.751633,-0.000668366439640522,0.0008083092980086802,-0.0004907939000986516,-3.2604422569274902,17.053861618041992,-12.915628433227539,-0.007260717451572419,0.09104004502296448,0.06970691680908203,989.9515991210938,0,0.0,0
16.24,0.10045710000000001,-0.15864465,9.765834,-0.0004018304462078959,0.0006751157925464213,-0.0007570154848508537,-3.0601916313171387,16.767364501953125,-13.083688735961914,-0.02166037261486053,0.10519618541002274,0.04130172729492188,989.947021484375,0,0.0,0
16.28,0.09087467,-0.14672771,9.763465,0.0005304951919242741,0.0006750799366272986,-0.0002242893096990884,-3.243294715881348,16.595855712890625,-12.968454360961914,-0.02656619250774384,0.08993285894393921,0.04129981994628906,989.9494018554688,0,0.0,0
16.32,0.09563166,-0.14434388,9.742158,-0.0008008640725165607,0.0006750441971234977,-9.10371309146285e-05,-3.2184834480285645,17.77777862548828,-12.656518936157227,-0.030954085290431976,0.08037848025560379,0.07917308807373047,989.947021484375,0,0.0,0
16.36,0.08365929,-0.15625972,9.763461,0.00013146150740794837,-0.0006565709481947124,0.00017537304665893316,-3.3519129753112797,17.231216430664062,-12.296037673950195,-0.002265378832817077,0.08463142812252045,0.03656196594238281,989.9520263671876,0,0.0,0
16.4,0.102755696,-0.14434278,9.772927000000001,-1.4762917999178171e-06,-0.0002571328077465296,-0.0004903223016299306,-3.6944479942321777,17.174148559570312,-12.701822280883787,-0.040320463478565216,0.07007153332233429,0.022357940673828125,989.9495849609376,0,0.0,0
16.44,0.08839345,-0.14195895,9.758723,0.0005313755245879292,0.00040862109744921327,0.00017556166858412325,-3.6537680625915527,16.89616584777832,-12.691823959350586,-0.01678343862295151,0.07438050955533981,0.0507659912109375,989.9443969726562,0,0.0,0
16.48,0.09793019,-0.1514915,9.765821,0.0002652797556947917,0.0010743750026449561,4.24980535171926e-05,-3.2513103485107417,17.062698364257812,-13.379457473754885,-0.026325561106204987,0.0830087661743164,0.03656005859375,989.9592895507812,0,0.0,0
16.52,0.09551746,-0.15149089999999998,9.758718,-0.00040028980583883817,-0.00012408204202074558,-0.00022372335661202672,-3.259760856628418,16.791486740112305,-13.516260147094727,-0.007254183292388916,0.07807036489248276,0.05076313018798828,989.9647216796876,0,0.0,0
16.56,0.08832490400000001,-0.16102347,9.770552,-0.00013375389971770346,0.0008079877588897942,-0.0002236292348243296,-3.571972370147705,17.078262329101562,-12.946035385131836,-0.02617698162794113,0.1015685424208641,0.03655815124511719,989.9774780273438,0,0.0,0
16.6,0.10264152,-0.16340622,9.772916,0.0006654139142483473,-0.000124153564684093,0.0009748867014423012,-3.757138729095459,17.27357292175293,-12.851945877075195,-0.03565993905067444,0.09644712507724762,0.03182411193847656,989.96728515625,0,0.0,0
16.64,0.09305906,-0.15387252,9.775281,0.0003993180289398879,0.0004084425163455308,-9.028258500620724e-05,-3.5906405448913574,17.534793853759766,-12.81590461730957,-0.021177679300308228,0.08645619451999664,0.02708721160888672,989.9443969726562,0,0.0,0
16.68,0.084656,-0.14198452,9.75645,-0.00026625164900906384,-0.0001242249709321186,-9.018823038786651e-05,-3.1289706230163574,16.860897064208984,-12.924600601196287,-0.007761321961879729,0.06650310009717941,0.05064487457275391,989.9774780273438,0,0.0,0
16.72,0.08468014,-0.14436838,9.765921,-0.00013707266771234572,-0.0005230528768151999,0.00044073819299228484,-3.33462905883789,16.879131317138672,-13.047945022583008,-0.003011159598827362,0.07116963714361191,0.06011199951171875,989.9422607421876,0,0.0,0
16.76,0.08231428,-0.15390208,9.756454,-0.0002750338171608746,0.00040777865797281276,-9.810627670958638e-05,-3.6221890449523926,17.821611404418945,-13.289731979370115,-0.012401960790157318,0.084583580493927,0.055367469787597656,989.95751953125,0,0.0,0
16.8,0.09906775,-0.14675286,9.768292,-0.0010742137674242258,-0.00025797332637012,-0.0007639953983016312,-3.788145542144776,17.19209861755371,-13.227327346801758,-0.021921239793300632,0.08411632478237152,0.04115772247314453,989.9549560546876,0,0.0,0
16.84,0.10626152,-0.14675346,9.780130999999999,0.0059829247184097776,-0.003853200003504753,0.00016801056335680187,-3.548438549041748,17.258289337158207,-12.883211135864258,-0.033424079418182366,0.06491216272115707,0.01749420166015625,989.9120483398438,0,0.0,0
16.88,0.08716643,-0.146754,9.763562,0.006176645867526531,-0.00249565695412457,-0.00033752486342564225,-3.609745502471924,17.253271102905273,-12.411565780639648,-0.002790801227092743,0.07418739050626755,0.06955718994140625,990.0795288085938,0,0.0,0
16.92,0.08958042,-0.14913785,9.75883,-0.010867802426218988,0.006425962783396244,0.001127112889662385,-3.4532198905944824,17.241806030273438,-12.435014724731445,-0.01710759848356247,0.08270716667175293,0.060077667236328125,990.1763916015624,0,0.0,0
16.96,0.080044925,-0.1562883,9.77777,-0.0014138213591650126,3.441967783146538e-05,0.00019490765407681465,-3.523085117340088,18.07192039489746,-12.472822189331055,-6.121397018432617e-05,0.08562865108251573,0.06954479217529297,989.7520141601562,0,0.0,0
17.0,0.10157812,-0.15152231,9.768303999999999,0.0056433179415762424,-0.004226596560329199,0.00019480797345750037,-3.66010046005249,17.890703201293945,-12.056184768676758,-0.02963375300168991,0.07438636571168901,0.02219390869140625,989.8358764648438,0,0.0,0
17.04,0.08726281,-0.15390620000000002,9.765939,-0.001680601853877306,0.0012329166056588292,-0.00033792329486459494,-3.6544485092163086,17.158538818359375,-12.09119987487793,-0.011784538626670836,0.07199688255786896,0.05058860778808594,990.0997924804688,0,0.0,0
17.08,0.08489704,-0.1419904,9.768308,-0.0035450453869998455,0.0029640074353665113,0.0007272406946867704,-3.430528163909912,17.15798568725586,-12.895509719848633,-0.006827473640441895,0.06681308895349503,0.04111385345458984,990.0137939453124,0,0.0,0
17.12,0.09448072,-0.14675754,9.765943,0.00031630267039872706,-0.0012970088282600045,-7.180648390203714e-05,-3.2580780982971187,17.31917953491211,-12.469614028930664,-0.002151869237422943,0.0757438912987709,0.045841217041015625,989.8179931640624,0,0.0,0
17.16,0.08733517,-0.15867454,9.765945,-0.0010155090130865574,0.0004340819723438472,0.00019440989126451316,-3.50028657913208,16.881759643554688,-12.560663223266602,-0.011402986943721771,0.07482701539993286,0.03636074066162109,989.8790893554688,0,0.0,0
17.2,0.09452894,-0.14675874,9.756478,-0.001015741378068924,-0.00023166995379142466,0.00046062612091191113,-3.2921276092529297,17.234760284423828,-12.690378189086914,-0.02598767727613449,0.06503129005432129,0.05529594421386719,989.9298706054688,0,0.0,0
17.24,0.10172275,-0.15629244,9.775418,0.0007150796009227632,0.0009667892009019852,-0.0004715790273621679,-3.1019878387451167,16.569660186767578,-12.218854904174805,-0.011566832661628723,0.07885674387216568,0.022147178649902344,989.9320678710938,0,0.0,0
17.28,0.08740741,-0.14914319,9.761217,-0.0002172582026105374,-9.843657608143984e-05,0.00032726902281865483,-2.8024964332580566,16.639392852783207,-12.269083023071287,-0.0026084557175636287,0.06907829642295837,0.07422733306884766,989.9197998046876,0,0.0,0
17.32,0.08504164,-0.15391034,9.76122,0.00018198313773609695,0.0020321281626820564,-0.0006049360381439327,-3.4193081855773926,17.22031021118164,-11.515172958374025,0.002243533730506897,0.08305293321609497,0.06001853942871094,989.96044921875,0,0.0,0
17.36,0.08745563,-0.14199454,9.758855,-8.479724056087434e-05,0.0003011502849403769,-7.250334601849318e-05,-3.3112330436706543,16.953237533569336,-12.286043167114258,-0.00705382227897644,0.06355839967727661,0.04580497741699219,989.9501953125,1,1.0,1
17.4,0.08747971,-0.15867808,9.765959,-8.479724056087434e-05,0.0003011502849403769,-7.250334601849318e-05,-3.3112330436706543,16.953237533569336,-12.286043167114258,-0.02143104374408722,0.06803280860185623,0.02213001251220703,989.9501953125,1,1.0,1
17.44,0.092283666,-0.14437899,9.777797,0.0004476022731978446,-9.828576003201306e-05,0.00032687088241800666,-2.973125457763672,17.111808776855472,-12.347421646118164,-0.021410293877124783,0.06731652468442917,0.02685642242431641,989.9599609375,1,1.0,1
17.48,0.08513802,-0.15391272,9.773064999999999,0.0004476022731978446,-9.828576003201306e-05,0.00032687088241800666,-2.973125457763672,17.111808776855472,-12.347421646118164,-0.007201924920082092,0.07188494503498077,0.0457916259765625,989.9599609375,1,1.0,1
17.52,0.082772255,-0.15391329,9.773066499999999,-0.0006181260105222464,-9.821036655921488e-05,0.0005929875187575817,-3.381097316741944,17.783353805541992,-12.323846817016602,-0.002153776586055756,0.07132044434547424,0.04578304290771485,989.9578857421876,1,1.0,1
17.56,0.08757615,-0.15153062,9.768334,4.743147292174399e-05,-0.0006308043957687914,0.00019341419101692736,-3.2752251625061035,17.777183532714844,-12.416788101196287,-0.0069690048694610604,0.07077537477016449,0.05524349212646485,989.9351806640624,1,1.0,1
17.6,0.09715986,-0.14438137,9.780173,0.0008461467223241925,-0.0002312928845640272,0.00032647262560203666,-3.140305995941162,17.112960815429688,-11.782838821411133,-0.016340181231498718,0.06529171019792558,0.03156089782714844,989.9578857421876,1,1.0,1
17.64,0.09218413,-0.15867624,9.773052999999999,-0.0010182966943830252,0.00043453447869978845,0.0004595310310833156,-3.3524556159973145,17.599506378173828,-12.394487380981445,-0.02556233108043671,0.07412735372781754,0.031594276428222656,989.9530029296876,1,1.0,1
17.68,0.091974884,-0.15867117,9.765933,-0.0008853712351992726,3.509843736537732e-05,5.9957616031169885e-05,-3.584285259246826,16.960563659667972,-11.628519058227539,-0.020603373646736145,0.07381477952003479,0.045792579650878906,989.9273681640624,1,1.0,1
17.72,0.089591324,-0.14437160000000002,9.751729,-0.00034976654569618404,-9.85421211225912e-05,-0.0008708740351721643,-3.2378878593444824,16.864124298095707,-12.67704963684082,-0.0013566166162490845,0.06389360874891281,0.06946086883544922,989.9580688476562,1,1.0,1
17.76,0.08959773,-0.13960513,9.770667999999999,-0.00034878062433563173,0.0001676137326285243,0.0008606017800047994,-3.1016902923583984,17.201797485351562,-11.793985366821287,-0.03476838767528534,0.05864881724119185,0.02684497833251953,989.9578857421876,1,1.0,1
17.8,0.09199396,-0.15867159,9.780137,5.063184653408826e-05,0.0001676236861385405,0.0001947858836501837,-3.3815340995788574,17.045299530029293,-12.049638748168945,-0.015858352184295654,0.06795858591794968,0.01264190673828125,989.98095703125,1,1.0,1
17.84,0.08722049,-0.14913863,9.758833000000001,5.057049565948546e-05,0.0005671075196005403,6.160151679068804e-05,-3.7132554054260254,17.524757385253903,-11.872613906860352,-0.015908576548099518,0.07177349925041199,0.04103946685791016,989.9781494140624,1,1.0,1
17.88,0.089616716,-0.16105518,9.768302,-0.0003489645605441183,0.0004339595616329461,0.00019473335123620927,-3.765132427215576,18.16071891784668,-11.439920425415039,-0.0254107266664505,0.06669259071350098,0.031566619873046875,989.96044921875,1,1.0,1
17.92,0.08245337,-0.15152222,9.761201,-0.00021586762159131467,-0.0003649782738648355,-7.160881068557501e-05,-3.5696086883544917,17.343582153320312,-12.500017166137695,-0.005956195294857025,0.0669650286436081,0.059971809387207024,989.9934692382812,1,1.0,1
17.96,0.0776799,-0.16820535,9.770671,-8.277079905383289e-05,0.00016766342741902918,0.0004609968746080994,-3.2395472526550293,16.756732940673828,-11.900667190551758,0.010435439646244049,0.08329340070486069,0.05050373077392578,989.9708251953124,1,1.0,1
18.0,0.08963573,-0.15390578,9.751735,0.003911906853318214,-0.002628643298521638,-0.00020481907995417714,-3.543168544769287,17.420635223388672,-11.892724990844727,-0.022358737885952,0.06484609842300415,0.03629970550537109,989.97314453125,1,1.0,1
18.04,0.07769257,-0.14675611,9.777774,0.005776056554168464,-0.003960213158279657,6.147066596895456e-05,-3.6324372291564937,17.337089538574222,-11.951066970825195,0.003743328154087066,0.047603607177734375,0.04102897644042969,989.960693359375,1,1.0,1
18.08,-0.28078637,-0.44228277,9.784875,-0.0072734830901026734,0.006159800570458175,-0.00047118740621954197,-3.3524556159973145,17.599506378173828,-12.394487380981445,0.3296557366847992,0.3427440226078033,0.04096794128417969,989.9378051757812,1,1.0,1
18.12,0.22348931,0.23933467,9.855893,-0.03443776071071625,0.009621917270123959,-0.14840969443321228,-3.667029857635498,17.62096405029297,-12.270284652709961,-0.451907217502594,-0.7240417003631592,0.002629280090332031,989.8895874023438,1,1.0,1
18.16,-0.31901214,-0.38270113,9.851158,-0.11007159948349,0.01055404171347618,-0.14108605682849884,-3.618739604949951,17.350349426269528,-12.646814346313475,0.3863438069820404,0.21556724607944489,-0.02712535858154297,989.8717041015624,1,1.0,1
18.2,0.6871429,-0.25162104,9.7328,-0.11007159948349,0.01055404171347618,-0.14108605682849884,-3.618739604949951,17.350349426269528,-12.646814346313475,-0.277383029460907,-0.3811826705932617,0.07611942291259766,989.8717041015624,1,1.0,1
18.24,0.06577477,-0.10624117,10.118653,-0.2034153789281845,-0.0011638459982350466,-0.04041867330670357,-3.9198927879333496,17.173227310180664,-11.820199966430664,-0.2125641703605652,-0.011180460453033449,-0.4671039581298828,989.9072875976562,1,1.0,1
18.28,0.13030845,-0.6400956999999999,9.810918,-0.31486862897872925,-0.017009632661938667,0.04826448857784271,-3.763908863067627,17.53005599975586,-11.942098617553713,0.3017956614494324,-0.3833018243312836,-0.17533016204833984,989.93505859375,1,1.0,1
18.32,0.5796164,-1.3050306,9.673621,-0.5839808583259583,-0.19504177570343015,0.03774498403072357,-4.509552478790283,18.781084060668945,-12.131349563598633,-0.4965032935142517,0.8629193305969238,0.15818309783935547,989.9476928710938,1,1.0,1
18.36,0.37409115,-0.5685977,9.931645,-0.6664057374000549,-0.20036809146404266,0.004056002013385296,-4.882091045379639,19.432605743408203,-11.26524543762207,-0.0312899649143219,-0.12417292594909668,-0.06780624389648438,989.968017578125,1,1.0,1
18.4,0.35497832,-2.20591,9.31144,-0.6606799960136414,-0.1272643655538559,0.2509308159351349,-4.614965915679932,19.945613861083984,-10.489595413208008,0.13269227743148804,-0.3462752103805542,0.0037336349487304688,989.9755859375,1,1.0,1
18.44,0.345425,-0.928473,9.7706785,-0.8170074820518494,-0.030724862590432167,0.1145770326256752,-4.815460681915283,21.23253631591797,-9.995111465454102,-0.23058559000492096,-0.3810724020004273,0.11722469329833984,989.973388671875,1,1.0,1
18.48,0.3287021,-2.7445314,8.634421000000001,-0.6103464365005493,0.419748455286026,0.3233686685562134,-3.9533438682556152,22.724552154541016,-10.061296463012695,0.03204621747136116,0.34817278385162354,-0.21084213256835935,989.96044921875,1,1.0,1
18.52,-0.29983574,-2.3751233,9.872469,-0.3477590084075928,0.2784678936004639,0.023496951907873157,-3.6804289817810063,22.611312866210934,-10.019739151000977,-0.09187719970941544,1.0200164318084717,0.2860918045043945,990.0166015625,1,1.0,1
18.56,-0.3954255,-1.5219098,9.929282,-0.2458932399749756,-0.2756022810935974,0.2952722907066345,-3.632521152496338,23.235210418701172,-9.37077522277832,1.079854130744934,-0.9340472221374512,-0.2632875442504883,989.9584350585938,1,1.0,1
18.6,0.05627227,-2.2607265,9.713867,-0.15707695484161374,-0.03911376744508743,0.18568328022956848,-3.713881969451904,23.791168212890625,-9.390768051147461,-0.06893285363912582,-0.035254240036010735,-0.4721956253051758,989.9378051757812,1,1.0,1
18.64,0.35023654,-2.622985,9.462945,-0.8251304626464844,-0.0006311056204140186,-0.007662110030651091,-3.5462436676025386,24.94837188720703,-8.406530380249022,-0.359499990940094,0.02018880844116211,-0.07663440704345703,990.0086669921876,1,1.0,1
18.68,0.046725363,-3.1687555,9.067622,-0.8251304626464844,-0.0006311056204140186,-0.007662110030651091,-3.5462436676025386,24.94837188720703,-8.406530380249022,-0.20241454243659973,0.17341113090515134,0.3825969696044922,990.0086669921876,1,1.0,1
18.72,-0.20420802,-2.8994452999999996,9.233327000000001,-0.8456368446350098,-0.05895427614450455,0.22296741604804995,-3.3484401702880864,25.92320251464844,-7.570241928100586,0.4071463644504547,-0.5151405334472656,-0.14186954498291016,990.0391235351562,1,1.0,1
18.76,0.07780677,-3.4404497000000003,9.124436,-0.6123442649841309,0.03731893748044968,-0.10220433026552199,-3.8049778938293457,26.653526306152344,-5.77198600769043,0.04747672379016876,-0.036276817321777344,-0.13079166412353516,990.0034790039062,1,1.0,1
18.8,0.13995054,-3.6501784,9.060522,-0.6123442649841309,0.03731893748044968,-0.10220433026552199,-3.6927199363708496,27.285385131835934,-5.7492733001708975,0.047298148274421685,-0.06557488441467285,-0.2137928009033203,990.0034790039062,1,1.0,1
18.84,0.20926404,-3.9909877999999996,8.7267475,-0.6466991305351257,0.03731895983219147,-0.08795648068189621,-4.418990612030028,28.237815856933594,-4.846260070800781,-0.2482275366783142,0.12323355674743652,0.346771240234375,989.9781494140624,1,1.0,1
18.88,0.041977227,-4.045803,9.103133,-0.6466991305351257,0.03731895983219147,-0.08795648068189621,-4.166809558868408,28.947925567626953,-4.695716857910156,0.06631138920783998,-0.004544734954833984,0.06863880157470703,989.9781494140624,1,1.0,1
18.92,0.23078579,-4.377079,8.480559,-0.4528212547302246,-0.0034273630008101463,0.011645635589957236,-3.902592182159424,29.56390380859375,-4.46453857421875,-0.1577412188053131,0.057826042175292976,0.01006793975830078,989.9854125976562,1,1.0,1
