Timestamp,Ax,Ay,Az,Gx,Gy,Gz,Mx,My,Mz,LiAx,LiAy,LiAz,P,Value,Type,GroupType,Activities
0.0,0.06245035,-0.16149028,9.773019999999999,0.00013667234452441335,-0.00025871361140161747,0.00029732889379374683,-14.420625686645508,19.258760452270508,-38.68280792236328,0.4618501961231232,2.426853895187378,-0.21980762481689453,988.4879150390624,0,13.0,1,1
0.04,0.055056095,-0.14003523,9.784836,0.0015940568409860134,0.00146727345418185,0.0009986592922359703,-7.505764484405518,24.20475959777832,-37.72824096679688,0.4615360498428345,2.400625228881836,-0.2570676803588867,988.4317626953124,0,13.0,1,1
0.08,0.054831564000000006,-0.16147925,9.794283,0.0006641157669946551,0.0009342905832454562,-0.0007314663380384445,-6.94485330581665,23.8870906829834,-37.71910858154297,0.4513283669948578,2.4218482971191406,-0.25164794921875,988.4044799804688,0,13.0,1,1
0.12,0.05938679,-0.15909041,9.787161,0.0002668062224984169,-0.00013132422463968396,0.00046788272447884083,-7.403616428375244,24.45802116394043,-37.06594467163086,0.4416055977344513,2.400341510772705,-0.26523399353027344,988.4266357421876,0,13.0,1,1
0.16,0.063942045,-0.14478529999999998,9.806078,2.654618583619594e-06,0.00026779831387102604,0.0008682841435074806,-7.4758453369140625,25.02281379699707,-37.54977035522461,0.4370799958705902,2.3977291584014893,-0.2693328857421875,988.4166870117188,0,13.0,1,1
0.2,0.06132760599999999,-0.14239649999999998,9.791855,0.000537450541742146,-0.0011972904903814194,7.026398088783026e-05,-6.994229316711426,24.89428520202637,-37.53947830200195,0.44654062390327454,2.3902432918548584,-0.2449827194213867,988.4413452148438,0,13.0,1,1
0.24,0.07066268,-0.1495408,9.779999,6.983173079788686e-06,-0.0003986941883340478,0.0004706653999164701,-7.138173580169678,24.44332695007324,-37.33694458007813,0.4320132732391357,2.387206554412842,-0.2300224304199219,988.4590454101562,0,13.0,1,1
0.28,0.05370885,-0.14715202,9.784711999999999,-0.0003903263714164496,-0.00026588758919388056,-0.00019419682212173941,-7.024828910827638,24.338605880737305,-37.11732482910156,0.4509710371494293,2.388949155807495,-0.2576770782470703,988.4738159179688,0,13.0,1,1
0.32,0.060653985,-0.15191306,9.784691,0.000943417428061366,-0.0005325548117980361,0.0006056784186512233,-7.366385459899902,24.651296615600586,-37.6988639831543,0.4460603296756744,2.4007108211517334,-0.2475728988647461,988.4434204101562,0,13.0,1,1
0.36,0.06281936,-0.14952432,9.789406,0.0009455813560634851,-0.000399748154450208,0.0014055535430088641,-7.418017864227295,24.28683280944824,-37.59259796142578,0.4507715702056885,2.402385950088501,-0.2515468597412109,988.4586181640624,0,13.0,1,1
0.4,0.060204923,-0.17335154,9.779914999999999,-0.0003838336560875178,-0.00013378361472859981,-0.0007240460254251957,-7.1496686935424805,24.16916847229004,-37.319129943847656,0.4500386118888855,2.418286085128784,-0.24599838256835935,988.47119140625,0,13.0,1,1
0.44,0.06237024,-0.15427984,9.782263,-0.00011535361409187317,0.0005316548049449921,7.582921534776688e-05,-7.656882762908935,24.4844913482666,-37.413387298583984,0.4401588439941406,2.3913073539733887,-0.24521446228027344,988.46337890625,0,13.0,1,1
0.48,0.06453562,-0.14235787,9.786976,0.001085232011973858,-0.0001344862685073167,0.0006093884585425258,-7.104125022888184,24.52775382995605,-37.116172790527344,0.4399531185626984,2.359580993652344,-0.249176025390625,988.4679565429688,0,13.0,1,1
0.52,0.06431109,-0.14473571,9.77512,-0.00011102505959570408,0.0001314783003181219,0.000610315939411521,-7.479324817657472,24.28181266784668,-37.120948791503906,0.4250328540802002,2.3656461238861084,-0.2341022491455078,988.4576416015624,0,13.0,1,1
0.56,0.06955522,-0.14242242,9.784849000000001,-0.000375176896341145,0.0010632326593622565,-5.4546166211366653e-05,-7.250975131988525,24.17976188659668,-37.458106994628906,0.4263920485973358,2.371718168258667,-0.2429742813110352,988.480224609375,0,13.0,1,1
0.6,0.06706259,-0.15910287,9.780106,-0.000375176896341145,0.0010632326593622565,-5.4546166211366653e-05,-7.1571407318115225,24.26772117614746,-37.63167953491211,0.4258039891719818,2.3678719997406006,-0.2373008728027344,988.480224609375,0,13.0,1,1
0.64,0.06456995,-0.16386689,9.782464,-0.0010728491470217703,-0.0009230388095602392,0.0003418877022340894,-7.199343204498291,24.544225692749023,-37.56437301635742,0.4351389408111572,2.369005918502808,-0.23169612884521484,988.4523315429688,0,13.0,1,1
0.68,0.071636945,-0.15433122,9.799025,-0.0004096683696843684,-0.00025682561681605875,-0.00019186222925782204,-6.992462158203125,23.89533042907715,-37.943206787109375,0.4297410249710083,2.3653526306152344,-0.25920867919921875,988.4598388671876,0,13.0,1,1
0.72,0.061974585,-0.1471789,9.780077,0.00039026938611641526,0.00027564537595026195,0.0003411938960198313,-6.713160991668701,24.42011833190918,-37.78599548339844,0.4292415380477905,2.3572156429290767,-0.25365352630615234,988.4669799804688,0,13.0,1,1
0.76,0.06904155,-0.15432622,9.780069000000001,0.00039125961484387517,-0.0005234630079939961,7.53024360165e-05,-7.210838317871094,24.27007102966309,-37.54656219482422,0.43796437978744507,2.3485476970672607,-0.21955490112304688,988.47705078125,0,13.0,1,1
0.8,0.061769098,-0.14002408,9.791895,0.0003922497271560133,0.00014216589624993503,7.572676986455917e-05,-7.1008362770080575,23.53027153015137,-37.597206115722656,0.4329398274421692,2.344722270965576,-0.2470512390136719,988.4616088867188,0,13.0,1,1
0.84,0.066446185,-0.15193792,9.782416,-0.000938339449930936,0.00014200512669049203,7.615110371261835e-05,-7.036186695098878,24.17036247253418,-37.79859161376953,0.422667384147644,2.345680952072144,-0.2271852493286133,988.448974609375,0,13.0,1,1
0.88,0.06395358,-0.15670188,9.784775,0.0005273882416076958,-0.0002576293481979519,0.00020973337814211843,-7.231870651245117,24.461286544799805,-37.86244201660156,0.44148698449134827,2.346564292907715,-0.2499351501464844,988.4666748046876,0,13.0,1,1
0.92,0.06385082,-0.15431614,9.775296,0.00026206235634163017,-0.0001246321189682931,-0.00032247393392026424,-7.707536697387695,24.489782333374023,-37.48287582397461,0.4309545457363129,2.338062524795532,-0.23007678985595706,988.4559326171876,0,13.0,1,1
0.96,0.06613797,-0.15908022,9.782389,0.0006625262903980911,0.0004078388737980276,-0.000455207540653646,-7.599055767059326,23.74850273132324,-37.45621871948242,0.42538443207740784,2.353088855743408,-0.23383045196533206,988.4583129882812,0,13.0,1,1
1.0,0.061255425,-0.14954455,9.782378999999999,-0.00026858894852921367,0.0001413622230757028,0.00021100661251693964,-7.263992786407472,23.904130935668945,-37.36299133300781,0.4345799088478088,2.3394367694854736,-0.2233877182006836,988.4583129882812,0,13.0,1,1
1.04,0.06593251,-0.16145836,9.784737,0.0001328652142547071,-0.0006579069304279982,0.00021185522200539708,-7.35793399810791,24.92251014709473,-37.56207275390625,0.4339105188846588,2.335275888442993,-0.22239112854003906,988.475341796875,0,13.0,1,1
1.08,0.06582978,-0.15668936,9.777626,-0.00013246055459603667,-0.0009243835229426623,-0.00045350997243076563,-7.307036399841309,23.916791915893555,-37.81900024414063,0.4242991209030152,2.3355183601379395,-0.22607898712158206,988.4524536132812,0,13.0,1,1
1.12,0.05855733,-0.13762064,9.7894535,1.6876147128641603e-06,-0.0006582283531315625,0.00034586191759444773,-7.508265018463135,23.83352470397949,-37.475181579589844,0.43321293592453,2.3025925159454346,-0.2345190048217773,988.4498291015624,0,13.0,1,1
1.16,0.06084454,-0.14953445,9.770506,-0.0005299540353007616,0.0012058221036568286,-0.00018634553998708722,-7.246952533721924,24.55246925354004,-37.78847122192383,0.4273008406162262,2.317166566848755,-0.21448993682861328,988.4269409179688,0,13.0,1,1
1.2,0.058351874000000005,-0.15429844,9.7847,-0.0006621216307394207,0.0006730294553562999,-0.0003190790303051472,-7.166135311126709,24.364805221557614,-37.86692810058594,0.4214474558830261,2.3127150535583496,-0.2276182174682617,988.4471435546876,0,13.0,1,1
1.24,0.07736838,-0.15667926,9.782324000000001,-0.0002616576966829598,7.0790702011436216e-06,0.00034713500645011663,-6.993984699249268,23.893857955932614,-37.86589813232422,0.4161711037158966,2.298462390899658,-0.22178077697753906,988.4468994140624,0,13.0,1,1
1.28,0.05575651,-0.16144331,9.798884,-0.00026066758437082166,-0.00025939755141735077,-5.191448144614697e-05,-7.181653499603272,23.71793937683105,-37.51874923706055,0.4253389537334442,2.303407907485962,-0.244384765625,988.4442749023438,0,13.0,1,1
1.32,0.053263843,-0.14475785,9.777569999999999,0.00013979646610096097,-0.0005258742021396756,-0.00018464797176420689,-7.074801921844482,24.081525802612305,-37.787445068359375,0.4340432286262512,2.289510488510132,-0.23861312866210935,988.4012451171876,0,13.0,1,1
1.36,0.065110624,-0.16143821,9.779928,0.00027394475182518363,-0.0007923508528620005,-5.106563912704587e-05,-6.930856704711914,24.53248405456543,-37.98998260498047,0.4238063395023346,2.2944676876068115,-0.2280702590942383,988.4237060546876,0,13.0,1,1
1.4,0.06022811,-0.15190263,9.763347999999999,-0.0005240125465206802,0.0006722257239744067,0.00048199051525443787,-6.941128730773926,23.627668380737305,-38.47434616088867,0.43262067437171936,2.2897136211395264,-0.19381427764892575,988.438720703125,0,13.0,1,1
1.44,0.06251526,-0.1471336,9.782276,0.0005422410904429854,-0.00026004057144746184,0.00021609902614727616,-6.959392070770264,23.6099910736084,-37.54668426513672,0.4222917258739472,2.2754075527191158,-0.21163463592529294,988.4260864257812,0,13.0,1,1
1.48,0.0624125,-0.14713101,9.777533,-0.00038887414848431945,0.0002724304504226893,-4.979240475222469e-05,-6.921862602233888,24.43540382385254,-37.754730224609375,0.4166419506072998,2.2798960208892822,-0.21045398712158206,988.4409790039062,0,13.0,1,1
1.52,0.06204027,-0.1661881,9.796436,-0.00025472586276009684,0.00040542762144468725,-4.936812911182642e-05,-7.098334789276122,23.90150260925293,-37.85026550292969,0.4206638634204865,2.2798354625701904,-0.233001708984375,988.4432983398438,0,13.0,1,1
1.56,0.064041734,-0.16617854,9.77983,-0.0006519205053336918,-0.00012757416698150337,-0.0005810231668874621,-7.3714942932128915,25.01516532897949,-37.56539916992188,0.4108423590660095,2.274897336959839,-0.21286869049072266,988.39794921875,0,13.0,1,1
1.6,0.068697155,-0.1542591,9.7703495,0.00040824199095368396,0.0002798926143441349,0.0004949081921949984,-6.937786102294923,24.26274681091309,-38.20408630371094,0.4149271547794342,2.255656242370605,-0.19752216339111328,988.4203491210938,0,13.0,1,1
1.64,0.063792944,-0.16378923,9.772705,9.967014193534853e-06,-0.0003860917058773339,-0.000436683592852205,-7.454430103302003,23.93709373474121,-38.25938415527344,0.4142064154148102,2.279133081436157,-0.19633960723876956,988.422607421875,0,13.0,1,1
1.68,0.056498915,-0.1494865,9.779795,-0.00037934951251372695,-0.0006978710880503057,-1.329521182924509e-05,-7.62962532043457,24.405088424682614,-38.10580062866211,0.4280690252780914,2.259692907333374,-0.2046375274658203,988.4326171875,0,13.0,1,1
1.72,0.06832406,-0.14948343,9.779784,0.0001544809783808887,-0.0006980657344684005,-0.0006785711739212276,-7.131405353546143,24.186845779418945,-38.24678802490234,0.4081056714057921,2.2450413703918457,-0.21292495727539065,988.4146728515624,0,13.0,1,1
1.76,0.07058957,-0.15186365,9.777406,-0.0007764258771203457,0.00010068732080981137,-1.2267730198800564e-05,-7.344672203063965,24.19771385192871,-37.98360443115234,0.4075345396995544,2.24416732788086,-0.2069129943847656,988.44482421875,0,13.0,1,1
1.8,0.06568539,-0.1542439,9.793964,-0.0011747009120881555,-3.266523708589375e-05,-0.00041122781112790113,-7.14662504196167,24.17211723327637,-37.47373962402344,0.4112464487552643,2.234243392944336,-0.2104520797729492,988.3666381835938,0,13.0,1,1
1.84,0.06078124,-0.14947428,9.772648,0.00029123498825356364,-0.0005654915585182607,-0.0006770299514755608,-6.76411247253418,23.79327964782715,-38.280357360839844,0.4104906618595123,2.2289090156555176,-0.19503402709960935,988.4068603515624,0,13.0,1,1
1.88,0.05348718,-0.14708789,9.777372,0.00029243371682241564,-0.00016621232498437166,0.00025558934430591757,-7.2298054695129395,24.094465255737305,-37.84130096435547,0.4290573298931122,2.204704999923706,-0.1986103057861328,988.401611328125,0,13.0,1,1
1.92,0.05097291,-0.15185143,9.791563,-0.00010584149276837708,-0.00069903873372823,0.00025610305601730943,-7.118525981903076,24.3565616607666,-37.64282989501953,0.41352963447570795,2.2183899879455566,-0.21630859375,988.3939819335938,0,13.0,1,1
1.96,0.05562836,-0.15423168,9.786817999999998,0.0005611469387076795,0.0007655040826648474,0.00012345885625109076,-7.794303894042969,24.777475357055664,-37.79427719116211,0.4268931746482849,2.2055585384368896,-0.20502662658691406,988.4393310546876,0,13.0,1,1
2.0,0.057893872,-0.15422861,9.770235000000001,0.0005611469387076795,0.0007655040826648474,0.00012345885625109076,-7.794303894042969,24.777475357055664,-37.79427719116211,0.4120197892189026,2.202657699584961,-0.18543052673339844,988.4393310546876,0,13.0,1,1
2.04,0.06493923,-0.14469244,9.772591,-0.0006360757979564369,-0.0005662699113599956,-9.18540172278881e-06,-7.537993431091309,24.753950119018555,-37.6014404296875,0.4061487019062042,2.1920862197875977,-0.1983184814453125,988.4163208007812,0,13.0,1,1
2.08,0.06003505,-0.14945604,9.770211999999999,-0.0009011930669657887,0.0004987989668734372,-0.0008076193043962121,-7.567614555358888,24.56803321838379,-37.35504913330078,0.40032127499580383,2.1957695484161377,-0.19699859619140625,988.4364013671876,0,13.0,1,1
2.12,0.057520807,-0.14945294,9.786772000000001,-0.0008999945712275803,0.0004986043786630034,0.00012500002048909664,-6.868058681488037,23.326719284057614,-37.467193603515625,0.4184676706790924,2.1899781227111816,-0.21463680267333984,988.41357421875,0,13.0,1,1
2.16,0.06695604,-0.1542164,9.77019,-0.0010319538414478302,0.0004984097322449088,0.0007913034060038626,-6.978466510772705,24.54072380065918,-38.21408081054688,0.4031812846660614,2.194041967391968,-0.18973922729492188,988.4337768554688,0,13.0,1,1
2.2,0.07639128,-0.16612975,9.786749,0.000167666410561651,-0.00030073238303884864,0.0005255012074485421,-7.204750061035156,24.27596473693848,-37.85578155517578,0.38800856471061707,2.1931264400482178,-0.19321250915527344,988.4464721679688,0,13.0,1,1
2.24,0.064317405,-0.14706053,9.777269,-0.00023060868261381984,0.0004980206722393632,-0.00040609075222164387,-6.825282573699951,23.89417839050293,-38.507789611816406,0.3922873437404633,2.1730525493621826,-0.1966848373413086,988.39794921875,0,13.0,1,1
2.28,0.06658295,-0.15182398,9.765422000000001,0.00030322169186547404,-0.0008337533799931407,0.0006596866296604277,-7.222195625305176,24.10183525085449,-38.22782516479492,0.3913757801055908,2.1671807765960693,-0.17644882202148438,988.4129638671876,0,13.0,1,1
2.32,0.064068675,-0.14943762,9.774878999999999,-0.00022821134189143774,-0.0005676320288330318,-0.00040506315417587757,-7.3491010665893555,24.29921531677246,-38.45077133178711,0.3952728509902954,2.171121597290039,-0.18941688537597656,988.4431762695312,0,13.0,1,1
2.36,0.068724096,-0.14943464,9.793806,-9.265594417229296e-05,-0.0007011792040430008,0.0002617540303617716,-7.9352054595947275,24.32946586608887,-37.7463493347168,0.3944200277328491,2.1509332656860347,-0.2023296356201172,988.4303588867188,0,13.0,1,1
2.4,0.063819915,-0.14943157,9.763021,-0.0004909311537630856,0.0006302056135609746,-0.0002703641075640917,-7.284045696258545,24.46510505676269,-37.8546257019043,0.398027241230011,2.1547071933746342,-0.17264747619628906,988.42529296875,0,13.0,1,1
2.44,0.05174601,-0.1518118,9.774845,0.00017605716129764917,9.737920481711626e-05,-3.534369170665741e-06,-7.4305992126464835,24.74925804138184,-37.77168273925781,0.4114086329936981,2.1486146450042725,-0.1807832717895508,988.41748046875,0,13.0,1,1
2.48,0.05879137,-0.16372506,9.765364,0.0007098876521922648,0.0004966583801433443,0.0003964531351812184,-7.463126182556152,24.66630744934082,-38.06975936889648,0.40070971846580505,2.1525623798370357,-0.17955303192138672,988.4149780273438,0,13.0,1,1
2.52,0.059654683,-0.13514699,9.763077000000001,-0.00022101920330896974,0.0002301479689776897,0.0003969668759964407,-7.1676573753356925,24.36332893371582,-37.78961944580078,0.3940922319889069,2.118070363998413,-0.16889190673828125,988.4122924804688,0,13.0,1,1
2.56,0.059569687,-0.14229475,9.774904,-0.00024720339570194483,-0.000328376074321568,0.0005428680451586843,-7.500356674194336,24.47302055358887,-37.43683624267578,0.3979712426662445,2.1263859272003174,-0.1676025390625,988.432373046875,0,13.0,1,1
2.6,0.057094812,-0.17327525,9.789100999999999,0.00014960858970880508,-0.0007274177623912692,0.00014225358609110117,-6.8535194396972665,23.603818893432614,-37.63961791992188,0.397028923034668,2.14432144165039,-0.1900053024291992,988.4047241210938,0,13.0,1,1
2.64,0.068959355,-0.15420692,9.770155,0.0006830594502389432,0.0004708706401288509,-0.00025686924345791345,-7.1727657318115225,24.72720146179199,-37.656158447265625,0.3864971101284027,2.105013132095337,-0.17452716827392578,988.452392578125,0,13.0,1,1
2.68,0.06170463599999999,-0.15420492,9.7914505,1.8088961951434605e-05,-6.189406849443914e-05,0.000808745389804244,-7.074664115905763,24.18744468688965,-38.48651885986328,0.3946787714958191,2.1228010654449463,-0.1968851089477539,988.4345703125,0,13.0,1,1
2.72,0.06400955,-0.1470529,9.774874,0.00015206588432192802,0.0018021840369328856,0.00014330667909234762,-7.101378917694093,23.89855766296387,-37.695655822753906,0.3789307475090027,2.0879247188568115,-0.1765918731689453,988.4116821289062,0,13.0,1,1
2.76,0.056754857,-0.14228429,9.777233,-0.0010455362498760226,0.00033731380244717,0.00014365778770297766,-7.100399971008301,24.26832389831543,-37.87141418457031,0.3921313881874085,2.0913355350494385,-0.17528343200683594,988.4494018554688,0,13.0,1,1
2.8,0.05905977,-0.16134842,9.75592,2.0546140149235725e-05,-0.00019545096438378096,1.085083931684494e-05,-7.2904319763183585,23.827077865600586,-37.97027969360352,0.3910076916217804,2.099691390991211,-0.14560985565185547,988.4494018554688,0,13.0,1,1
2.84,0.07092431,-0.1494299,9.779584,0.0012197870528325438,0.0003370478516444564,1.1201947927474976e-05,-6.748189926147461,23.96594047546387,-37.83100891113281,0.3851955533027649,2.088576078414917,-0.17741012573242188,988.4287719726562,0,13.0,1,1
2.88,0.06366962,-0.15419443,9.781944000000001,-0.001176237128674984,-0.0001957168715307489,0.0002778689085971564,-7.45785665512085,24.828657150268555,-37.07927322387695,0.3794976770877838,2.0726239681243896,-0.17133331298828125,988.4339599609376,0,13.0,1,1
2.92,0.06836441,-0.16134213,9.786671,0.0009551093680784105,-0.0011279555037617686,0.0001450620184186846,-7.235755443572997,24.194490432739254,-38.23115539550781,0.3787614703178406,2.080864429473877,-0.18427658081054688,988.4160766601562,0,13.0,1,1
2.96,0.06588954,-0.15657352,9.774828,-0.0007751249941065907,0.00020349089754745364,0.00041172894998453563,-7.6843013763427725,24.03767204284668,-37.84492492675781,0.3728986382484436,2.0647778511047363,-0.16870403289794922,988.4638671875,0,13.0,1,1
3.0,0.058634818,-0.14942165,9.779553,0.0005572738591581583,0.0002033580094575882,0.0004120800294913352,-7.14953088760376,24.27509117126465,-38.01820755004883,0.38628920912742615,2.058515310287476,-0.15793323516845706,988.44873046875,0,13.0,1,1
3.04,0.06810945,-0.15418606,9.786648,-0.0003740128595381975,7.006712257862091e-05,0.00014611516962759197,-6.906100273132324,24.081846237182614,-38.42933654785156,0.3801984786987305,2.056903600692749,-0.17080020904541016,988.4534301757812,0,13.0,1,1
3.08,0.06802449,-0.14941747,9.77717,0.00029259617440402513,0.00046940793981775636,-0.0001198496320284903,-7.270485877990723,24.372446060180664,-37.851295471191406,0.3693201541900635,2.0503971576690674,-0.15523910522460938,988.4508056640624,0,13.0,1,1
3.12,0.072719276,-0.14941536,9.774796,-0.0006386903114616871,0.0014013805193826554,-0.0002526565222069621,-7.135129928588867,24.44627952575684,-37.491554260253906,0.3628982603549957,2.0394845008850098,-0.1728811264038086,988.433349609375,0,13.0,1,1
3.16,0.055904984000000005,-0.1517966,9.767686,-9.568047244101764e-05,0.0005735390004701912,0.0008885884890332818,-7.364320278167725,24.284482955932614,-37.6777229309082,0.3896842896938324,2.0297350883483887,-0.1377239227294922,988.4559326171876,0,13.0,1,1
3.2,0.06059980400000001,-0.14226137,9.777147,-9.568047244101764e-05,0.0005735390004701912,0.0008885884890332818,-7.364320278167725,24.284482955932614,-37.6777229309082,0.37959933280944813,2.0122640132904053,-0.1465444564819336,988.4559326171876,0,13.0,1,1
3.24,0.06529462,-0.15179236,9.770039,-9.568047244101764e-05,0.0005735390004701912,0.0008885884890332818,-7.213744640350343,24.3730411529541,-38.09102630615234,0.3833471536636353,2.0156786441802983,-0.15476322174072266,988.4559326171876,0,13.0,1,1
3.28,0.06281972,-0.16608997,9.774764999999999,0.0007040861528366804,-0.0003586994716897607,0.0004894657176919281,-7.289017200469972,24.93489646911621,-38.42024230957031,0.3675514757633209,2.037659168243408,-0.1486663818359375,988.460693359375,0,13.0,1,1
3.32,0.06751454,-0.15893800000000002,9.7913265,-9.404204320162536e-05,0.001105905044823885,9.034291724674404e-05,-7.659651756286621,24.69337654113769,-38.65693283081055,0.3715890347957611,2.007476806640625,-0.1710662841796875,988.4481201171876,0,13.0,1,1
3.36,0.074599266,-0.16131924,9.770014999999999,0.0004394084680825472,-0.00022580749646294862,0.00022385193733498451,-7.260810852050781,24.01299095153809,-38.2166748046875,0.3563939034938812,2.0106062889099117,-0.1366405487060547,988.4478759765624,0,13.0,1,1
3.4,0.08168399,-0.1351011,9.772375,4.075409378856421e-05,-0.0010248881299048662,0.0004905188689008355,-7.511852264404298,24.19886589050293,-37.41902160644531,0.3650466799736023,1.9800894260406492,-0.14003944396972656,988.4351196289062,0,13.0,1,1
3.44,0.07442927,-0.15416528,9.762897500000001,0.00030788895674049854,-0.0006255472544580697,9.13960684556514e-05,-6.773650169372559,24.258649826049805,-38.61405563354492,0.3538219630718231,1.988181471824646,-0.13876628875732422,988.4322509765624,0,13.0,1,1
3.48,0.07242492,-0.14940815,9.779503,0.00017555034719407558,0.0005727412062697113,-0.0005740426131524147,-7.008087158203125,24.35481071472168,-37.967681884765625,0.35738256573677063,1.9865503311157229,-0.14694881439208984,988.4525756835938,0,13.0,1,1
3.52,0.070448995,-0.15180154,9.770072,0.0013747906778007744,0.0016378718428313732,-4.1059742216020816e-05,-7.210700988769531,24.37598991394043,-38.24563598632813,0.3645619451999664,1.9800783395767207,-0.15046215057373047,988.4547119140624,0,13.0,1,1
3.56,0.06562230000000001,-0.16371675,9.770067999999998,-9.025540202856064e-05,0.00030634249560534954,0.0004914397140964866,-7.12295389175415,24.45805931091309,-38.10999298095703,0.3632375299930573,1.9926453828811648,-0.14443397521972656,988.4574584960938,0,13.0,1,1
3.6,0.06557536,-0.16371568,9.784267,0.00028667564038187265,0.0002982373407576233,0.0002307069080416113,-7.369727611541747,24.016218185424805,-37.9691276550293,0.3571097254753113,1.9716780185699463,-0.1431102752685547,988.4398193359376,0,13.0,1,1
3.64,0.07747793,-0.15656467,9.779527999999999,-0.0003782091662287712,0.00029809048282913864,9.793674689717592e-05,-7.225239276885986,24.098886489868164,-38.07321166992188,0.3370085060596466,1.9597994089126587,-0.14646053314208984,988.4496459960938,0,13.0,1,1
3.68,0.065481514,-0.14464708,9.777157,-0.00024459906853735447,-0.0005009305896237494,9.813057840801775e-05,-7.5252747535705575,24.397443771362305,-38.12143325805664,0.35528233647346497,1.934170484542847,-0.15465736389160156,988.4116821289062,0,13.0,1,1
3.72,0.077384084,-0.15656237,9.784253999999999,-0.0003773045027628541,-0.00036784604890272016,0.0004977982607670128,-7.542857646942139,24.11739158630371,-37.79439926147461,0.344452440738678,1.956088662147522,-0.14861583709716794,988.4521484375,0,13.0,1,1
3.76,0.06777757400000001,-0.14226158,9.770046,-0.00011053634807467458,0.0006973439594730735,0.00036483420990407467,-7.394783020019531,23.8347225189209,-37.95464706420898,0.3526892066001892,1.9300670623779297,-0.12832260131835938,988.4392700195312,0,13.0,1,1
3.8,0.06295079,-0.16132660000000001,9.774776,0.00042254780419170856,0.0010967444395646453,0.0006313439225777984,-7.084774971008301,23.8088436126709,-37.84693908691406,0.3556082844734192,1.942560315132141,-0.11755084991455078,988.4619750976562,0,13.0,1,1
3.84,0.055734158,-0.14702578,9.781874,0.000423000194132328,0.001629302860237658,-0.0007000414771027862,-6.968088150024414,24.339208602905273,-37.35705947875977,0.35901087522506714,1.9217225313186648,-0.14468669891357422,988.451904296875,0,13.0,1,1
3.88,0.058077157000000004,-0.13749160000000002,9.779502,-0.0003754951758310199,-0.0003681398229673505,0.00023225785116665063,-7.428396224975586,24.48835182189941,-38.44961929321289,0.3624318540096283,1.9004915952682493,-0.1480855941772461,988.45166015625,0,13.0,1,1
3.92,0.07953930000000001,-0.14464025,9.770029,-0.0005082006100565195,0.0002975765091832727,0.0004987675929442048,-7.200727462768555,24.64867210388184,-38.18614196777344,0.3328351974487305,1.9078789949417116,-0.13730907440185547,988.4413452148438,0,13.0,1,1
3.96,0.07710248,-0.15178888,9.779494,0.00042435713112354284,-0.0007677605608478189,0.0003658035129774362,-7.362255573272705,23.91766166687012,-37.65657043457031,0.34608247876167303,1.9011772871017456,-0.12183284759521484,988.4413452148438,0,13.0,1,1
4.0,0.08183536,-0.14940448,9.7747555,2.5335815735161304e-05,3.111374098807573e-05,0.0002328394039068371,-7.326141357421875,23.63526725769043,-37.41466522216797,0.3257119059562683,1.8895516395568848,-0.1205301284790039,988.4463500976562,0,13.0,1,1
4.04,0.065059125,-0.15416989999999997,9.779486,-0.0002405277919024229,0.0009631458669900894,0.0007656650268472731,-6.73851490020752,23.606489181518555,-38.196388244628906,0.3339938223361969,1.8873058557510376,-0.14760875701904294,988.4209594726562,0,13.0,1,1
4.08,0.07457179,-0.14701892,9.767645,-0.0005063913995400071,-0.00023534902720712125,-0.0005657204310409725,-7.31268835067749,24.64895439147949,-37.78398513793945,0.3325808346271515,1.8805944919586184,-0.11792945861816405,988.410888671875,0,13.0,1,1
4.12,0.06496525,-0.15655078,9.781844,0.00015985069330781698,0.000696683069691062,0.000100263103377074,-7.245728969573975,23.92180824279785,-38.2906494140625,0.3456407487392425,1.8833435773849487,-0.14506053924560547,988.4384155273438,0,13.0,1,1
4.16,0.081647635,-0.158933,9.770002999999999,-0.00010601268149912356,0.00029713581898249686,0.0001004569639917463,-6.986374378204347,23.901227951049805,-38.25242614746094,0.31966665387153625,1.8726619482040403,-0.1335916519165039,988.4309692382812,0,13.0,1,1
4.2,0.074431,-0.14939876,9.784203,-0.0006381921702995896,0.0008296940941363572,-0.00029882305534556513,-7.530681610107423,24.12917900085449,-38.412841796875,0.3285185396671295,1.8596343994140625,-0.13294029235839844,988.4359130859376,0,13.0,1,1
4.24,0.06721437,-0.1517808,9.767628,0.0002943658037111163,-0.00023564275761600587,-3.231328446418047e-05,-7.4917683601379395,24.850156784057614,-37.99911880493164,0.3371161818504333,1.8529881238937376,-0.12224864959716795,988.433349609375,0,13.0,1,1
4.28,0.074337125,-0.1493965,9.762889,0.00016166013665497306,0.0002969155611936003,0.0006336703663691878,-7.689953327178955,24.769834518432614,-37.80990982055664,0.32121923565864563,1.8423320055007932,-0.11556529998779295,988.4383544921876,0,13.0,1,1
4.32,0.07190031,-0.15177853,9.784189,-0.0009031508816406133,-0.0006352634518407285,0.0005007062572985888,-7.198119640350343,23.91356468200684,-38.066551208496094,0.3208150565624237,1.8437827825546265,-0.13863658905029294,988.425537109375,0,13.0,1,1
4.36,0.076633155,-0.16131045,9.779451,0.0002957228571176529,-0.000901652849279344,0.00010142632527276874,-7.646665573120117,23.756750106811523,-37.68031311035156,0.3248162567615509,1.8417611122131348,-0.1137409210205078,988.4280395507812,0,13.0,1,1
4.4,0.07419634,-0.14939298,9.769978,0.00016301719006150958,-0.0010348842479288578,-3.153778379783034e-05,-7.118824005126952,23.724424362182614,-38.06770324707031,0.32404378056526184,1.829872727394104,-0.10772991180419922,988.412841796875,0,13.0,1,1
4.44,0.06697971,-0.1636915,9.769974000000001,-0.00023600412532687187,-0.000635483767837286,0.00036812992766499514,-7.460816383361816,23.29906272888184,-38.37503051757813,0.3327595591545105,1.8326456546783447,-0.11598682403564453,988.43310546875,0,13.0,1,1
4.48,0.07891452,-0.15177478,9.777073,0.000962869613431394,-0.000369241286534816,0.0005014816997572781,-7.229668140411378,24.200380325317386,-38.540374755859375,0.3124843537807465,1.8212007284164429,-0.12425518035888672,988.4027099609376,0,13.0,1,1
4.52,0.06452948,-0.14224048,9.772335,0.000962869613431394,-0.000369241286534816,0.0005014816997572781,-7.4705986976623535,24.76486015319824,-38.38230895996094,0.3258539438247681,1.8000094890594482,-0.0946187973022461,988.4027099609376,0,13.0,1,1
4.56,0.07643336,-0.1541558,9.76523,0.00029737735167145734,-0.0007687633624300362,0.00023529326426796612,-7.235212802886963,23.82620048522949,-38.13270950317383,0.3200231492519379,1.8120508193969729,-0.10283851623535156,988.4025268554688,0,13.0,1,1
4.6,0.06682813,-0.14462157,9.767592,-0.00010892050340771676,-0.00010734889656305313,0.0005057891248725356,-7.434484004974365,24.482458114624023,-38.14039611816406,0.3327969014644623,1.7907390594482422,-0.1063089370727539,988.4102172851562,0,13.0,1,1
4.64,0.08112186,-0.15415354,9.779424,-0.0002416388597339392,0.0002920535043813288,-2.665416104719043e-05,-7.35366678237915,24.2947940826416,-38.21885681152344,0.30760008096694946,1.77897047996521,-0.12400054931640625,988.4178466796876,0,13.0,1,1
4.68,0.057177245999999994,-0.13985275,9.774686,2.511730417609215e-05,0.0008246139623224735,0.0005061662523075938,-7.37331485748291,24.38155937194824,-37.91296768188477,0.33012476563453674,1.7674223184585571,-0.10859203338623047,988.4227905273438,0,13.0,1,1
4.72,0.07625079,-0.1446182,9.774681,-0.0003934160340577364,5.5636395700275905e-05,1.948434510268271e-05,-7.176651477813722,24.46040916442871,-38.02487182617188,0.3149303197860718,1.76524019241333,-0.08844470977783203,988.4075317382812,0,13.0,1,1
4.76,0.06903547,-0.14700033,9.767576,-0.00025981850922107697,-0.0008765405509620905,1.967287971638143e-05,-7.532203674316406,24.12770652770996,-38.33553695678711,0.31829190254211426,1.7488236427307131,-0.08723163604736328,988.4376220703124,0,13.0,1,1
4.8,0.06182012,-0.15891556,9.7770405,0.0001400952460244298,0.0012539150193333626,-0.00037961246562190354,-7.467829704284668,24.555971145629886,-37.138763427734375,0.3266385197639465,1.7609310150146484,-0.10495662689208984,988.4326171875,0,13.0,1,1
4.84,0.07372403,-0.16368105,9.774669,0.0004068512935191393,-0.0008766834507696331,-0.0007788978982716799,-6.937785625457764,24.26274681091309,-38.204078674316406,0.31582337617874146,1.7682329416275024,-0.11794281005859375,988.4326171875,0,13.0,1,1
4.88,0.061728895,-0.14938022,9.774664999999999,7.817056030035019e-06,0.00032166659366339445,-0.000246077572228387,-7.558344841003418,24.682790756225586,-38.51795959472656,0.3192536234855652,1.7469210624694824,-0.10725688934326172,988.4124145507812,0,13.0,1,1
4.92,0.06885293,-0.15891226,9.784130000000001,-0.0002580592408776283,-7.787859067320824e-05,-0.00024588903761468833,-7.148988246917725,23.906797409057614,-37.91975402832031,0.3228699862957001,1.7446476221084597,-0.1060476303100586,988.4044799804688,0,13.0,1,1
4.96,0.078366935,-0.16606094,9.784125999999999,-0.00012402131687849757,0.000188294448889792,-0.0009113018168136476,-7.217087268829347,23.73795890808105,-38.361289978027344,0.30759257078170776,1.7517991065979004,-0.10483646392822266,988.4172973632812,0,13.0,1,1
5.0,0.06637180000000001,-0.15652673,9.765183,-0.0003898974973708391,-0.0010101983789354565,-0.0006447974592447281,-7.247794151306152,24.28862571716309,-38.311790466308594,0.3212668001651764,1.7210021018981934,-0.08946609497070312,988.4550170898438,0,13.0,1,1
5.04,0.07110596,-0.15414229999999998,9.762812,0.00040948973037302494,-0.0010102697415277364,0.0006869705393910407,-7.788215637207031,24.78336906433105,-38.10350036621094,0.30596745014190674,1.7187421321868896,-0.08354949951171875,988.4198608398438,0,13.0,1,1
5.08,0.063890606,-0.14937465,9.786480000000001,-0.00012270221486687658,-0.0008771832217462361,-0.00011178865679539741,-7.659789562225343,24.587461471557614,-37.957855224609375,0.3146920800209045,1.7121027708053589,-0.11558151245117188,988.3893432617188,0,13.0,1,1
5.12,0.068624794,-0.15414013,9.769905,0.0008098436519503592,-0.000877254584338516,-0.00037791606155224144,-7.304534912109375,24.28802299499512,-38.07206344604492,0.3137079477310181,1.700681447982788,-0.08132648468017578,988.4396362304688,0,13.0,1,1
5.16,0.06379938,-0.15175565,9.769900999999999,0.0002776514738798141,-0.0011436418863013387,-0.00011141173308715224,-7.588944911956787,24.12710380554199,-38.095802307128906,0.3176063299179077,1.6983271837234497,-0.08961677551269531,988.3965454101562,0,13.0,1,1
5.2,0.07570323,-0.16605426,9.753326,1.1775176972150806e-05,-0.0007442394853569567,-0.00011122316936962306,-7.403341293334961,24.669851303100586,-38.46410369873047,0.30711978673934937,1.691372990608215,-0.07899951934814453,988.3916015625,0,13.0,1,1
5.24,0.07565758,-0.14222033,9.774628,0.0004116890486329794,5.463673733174801e-05,0.0009542289189994336,-7.581036567687987,24.7666072845459,-38.05746078491211,0.3010203540325165,1.6751257181167605,-0.09208106994628906,988.3941040039062,0,13.0,1,1
5.28,0.07083219,-0.14698581,9.76042,0.0005452870391309261,0.00045403919648379093,-0.00037716203951276833,-7.297605991363525,24.55776405334473,-37.85795974731445,0.3042762875556946,1.6683299541473389,-0.0909442901611328,988.427001953125,0,13.0,1,1
5.32,0.07317641400000001,-0.14698465,9.760416000000001,-0.00012006307952106,-0.00021182192722335458,2.25002586375922e-05,-7.175129413604736,24.46188163757324,-38.10217666625977,0.2938074171543121,1.656922459602356,-0.07565784454345703,988.427001953125,0,13.0,1,1
5.36,0.061181247,-0.14936684,9.76988,0.000546166324056685,5.442264955490828e-05,-0.0006431009387597443,-7.55946159362793,24.20710563659668,-37.64312362670898,0.3117083013057709,1.6594350337982178,-0.08397674560546875,988.4041748046876,0,13.0,1,1
5.4,0.07547504,-0.14698239,9.765141499999999,-0.00011918297968804836,5.4351170547306544e-05,-0.0009092283435165883,-6.983330249786378,23.90417289733887,-38.40703582763672,0.29112935066223145,1.6382534503936768,-0.07337570190429688,988.4038696289062,0,13.0,1,1
5.44,0.0730395,-0.14221473,9.781708,1.4414545148611069e-05,0.0008532273350283504,0.00028938168543390935,-7.475600242614746,24.02238655090332,-37.87619018554688,0.2993514835834503,1.6502230167388916,-0.10062694549560547,988.4141235351562,0,13.0,1,1
5.48,0.07538378,-0.14698021,9.7675,-0.0005177776329219341,5.420832894742489e-05,-0.00024306154227815566,-7.226761817932129,24.09741020202637,-37.99591064453125,0.29789999127388,1.6242610216140747,-0.08056449890136719,988.4345703125,0,13.0,1,1
5.52,0.07548660000000001,-0.15174927,9.758041,0.0002816102933138609,0.0005867687286809088,0.00028975872555747634,-7.250837802886963,24.285680770874023,-38.15718078613281,0.2919823229312897,1.6462221145629885,-0.06529521942138672,988.4263916015624,0,13.0,1,1
5.56,0.06842813,-0.15651856,9.765153,0.0012137996964156628,-7.903462392278017e-05,-0.00024283715174533427,-7.523752689361572,24.39891624450684,-38.19873809814453,0.30945247411727905,1.6444013118743896,-0.06899452209472656,988.4164428710938,0,13.0,1,1
5.6,0.082733095,-0.15175118,9.76515,0.0002659336314536631,-0.0002188042271882296,-0.0012965386267751455,-7.169041633605957,24.46777153015137,-38.41139602661133,0.2843959629535675,1.6234174966812134,-0.06793022155761719,988.4240112304688,0,13.0,1,1
5.64,0.07074916,-0.15175028,9.779349,0.0006657392368651928,0.00018061563605442643,0.0007009727414697409,-7.54850959777832,24.84955406188965,-37.75938415527344,0.29736757278442383,1.6116411685943604,-0.09522151947021484,988.418701171875,0,13.0,1,1
5.68,0.065934956,-0.14698292,9.765144,-0.00093182415002957,0.0005800356157124043,0.000434799148933962,-7.4129085540771475,23.922956466674805,-37.72605895996094,0.2914940416812897,1.6046366691589355,-0.0704507827758789,988.4367065429688,0,13.0,1,1
5.72,0.08023989,-0.15889843,9.779342999999999,-0.00013254460645839572,-0.00048528175102546817,0.0003017834387719631,-7.001456260681152,23.99241065979004,-38.1784553527832,0.2805295288562775,1.6023212671279907,-0.08826923370361328,988.4138793945312,0,13.0,1,1
5.76,0.075425684,-0.14936455,9.765137,-0.00039852858753874903,-0.00021901974105276167,-0.0007633378263562918,-6.8434085845947275,23.98241996765137,-38.279205322265625,0.2843727469444275,1.5905507802963257,-0.049312591552734375,988.4288940429688,0,13.0,1,1
5.8,0.06822157,-0.15174694,9.774602999999999,-0.00039819657104089856,0.0011125056771561503,-9.740592213347554e-05,-6.864876747131348,23.435583114624023,-38.320884704589844,0.2923944890499115,1.5834417343139648,-0.08133888244628906,988.4415283203124,0,13.0,1,1
5.84,0.06579721,-0.15174605,9.769865,-0.00039819657104089856,0.0011125056771561503,-9.740592213347554e-05,-7.363096237182617,23.6538143157959,-38.17989730834961,0.2816189825534821,1.5812854766845703,-0.07553386688232422,988.4415283203124,0,13.0,1,1
5.88,0.07293248,-0.14936198,9.781698,-0.0005310227279551327,-0.00021912754164077344,-0.0004967374261468649,-7.626145362854004,25.146085739135746,-38.53461456298828,0.27996745705604553,1.5696879625320437,-0.0886688232421875,988.4237670898438,0,13.0,1,1
5.92,0.07289803,-0.16604407,9.765125,-0.0003975327708758414,0.00018029240891337395,-0.0004965952830389142,-7.717915058135986,24.69130516052246,-38.33989715576172,0.2884520888328552,1.5818278789520264,-0.06394290924072266,988.4237670898438,0,13.0,1,1
5.96,0.07525349,-0.13982715,9.765121,0.00026858883211389184,0.0007128703873604536,-0.00049645290710032,-7.204474925994872,24.4877986907959,-39.25393676757813,0.2874361872673035,1.5461889505386353,-0.06287765502929688,988.4212036132812,0,13.0,1,1
6.0,0.06565943,-0.15174268,9.774588,-0.00026371103012934327,-8.613124373368919e-05,-0.00022999473731033507,-7.404319763183594,24.300085067749023,-38.28834533691406,0.2864534556865692,1.539467692375183,-0.07606887817382812,988.4337768554688,0,13.0,1,1
6.04,0.072794706,-0.16127495,9.776950999999999,-0.00013022118946537375,-0.0007519748178310692,3.64632869604975e-05,-7.1927123069763175,24.18182945251465,-37.77514266967773,0.2753523588180542,1.5618737936019895,-0.07985210418701172,988.43896484375,0,13.0,1,1
6.08,0.0775401,-0.14697446,9.776947999999999,0.001068532234057784,-0.0002193969557993114,0.00016976345796138048,-7.182058334350586,24.19213676452637,-38.31627655029297,0.2643384337425232,1.526386260986328,-0.06933879852294922,988.4136352539062,0,13.0,1,1
6.12,0.07272583,-0.15889002,9.769843,0.00013675837544724342,0.0012452865485101938,-0.00036272601573728025,-6.958955764770508,24.34804344177246,-37.82088851928711,0.2727693021297455,1.5338741540908811,-0.06359004974365234,988.4288940429688,0,13.0,1,1
6.16,0.07747123,-0.14935605,9.776942,0.0001370905083604157,-8.634678670205176e-05,-9.626790415495634e-05,-7.180674076080322,24.08769798278809,-37.69450378417969,0.26239198446273804,1.522242307662964,-0.057848930358886726,988.438720703125,0,13.0,1,1
6.2,0.07265696,-0.14458866,9.776938000000001,0.00013742229202762246,4.675734089687466e-05,-0.00022928361431695518,-7.356167793273926,23.92355918884277,-37.965797424316406,0.2664923667907715,1.505940079689026,-0.07580280303955078,988.4563598632812,0,13.0,1,1
6.24,0.07979223,-0.14458783,9.772202,7.773039396852255e-05,-0.0016075933817774055,0.0003629955172073096,-7.259969711303711,24.276838302612305,-37.69335174560547,0.2652479708194733,1.5037224292755127,-0.07003974914550781,988.4437255859376,0,13.0,1,1
6.28,0.0773679,-0.15173675,9.774564999999999,-0.00018792180344462395,-9.805895388126372e-06,0.00023012203746475282,-7.151052951812744,24.273611068725586,-37.94090270996094,0.2691144049167633,1.5115021467208862,-0.06435775756835938,988.3956909179688,0,13.0,1,1
6.32,0.07494354,-0.13743629,9.784031,0.0010108316782861948,-0.0009419654379598796,9.710632730275391e-05,-7.599598884582519,24.116796493530273,-37.554664611816406,0.27284306287765503,1.4813244342803955,-0.06343460083007812,988.4234619140624,0,13.0,1,1
6.36,0.07490915,-0.15173508,9.769824,0.0007448475807905197,0.0002564021851867437,-3.590935375541449e-05,-7.5093512535095215,24.570104598999023,-37.67208480834961,0.2671463489532471,1.4939279556274414,-0.04356670379638672,988.4335327148438,0,13.0,1,1
6.4,0.07248479,-0.14935099,9.779289,0.00034570577554404736,-0.0009420731221325696,-3.5767094232141965e-05,-7.132926940917969,24.18537330627441,-38.16948699951172,0.2755972146987915,1.4775122404098509,-0.07098197937011719,988.4158935546876,0,13.0,1,1
6.44,0.065280646,-0.1445836,9.774550999999999,-0.0004529099678620696,-0.0002763373777270317,-3.562483470886946e-05,-7.262631416320801,23.37938499450684,-38.56424331665039,0.2746230065822601,1.475711464881897,-0.06531143188476562,988.430908203125,0,13.0,1,1
6.48,0.06285632,-0.13981618,9.776916499999999,0.00034636957570910454,-1.0075338650494814e-05,0.0004971491871401668,-7.13833475112915,23.91711235046387,-38.46088790893555,0.2782050669193268,1.4595121145248413,-0.05488872528076172,988.4182739257812,0,13.0,1,1
6.52,0.07971454,-0.14220263,9.779295,-0.0003190882271155715,0.0002561867004260421,-0.00056797219440341,-7.540356636047362,24.488630294799805,-38.047462463378906,0.2576610445976257,1.4575165510177612,-0.058672904968261726,988.4359130859376,0,13.0,1,1
6.56,0.077296734,-0.16126813,9.767457,-0.0003266648855060339,-0.00014793316950090232,0.0006348236347548664,-7.930638790130615,24.33388328552246,-37.97826766967773,0.2611805200576782,1.464966893196106,-0.05770301818847656,988.4209594726562,0,13.0,1,1
6.6,0.070099145,-0.16126741,9.772188,0.00033881771378219133,0.0011836959747597575,0.0005015342612750828,-7.437528133392334,24.47951698303223,-37.98578643798828,0.26943352818489075,1.4585559368133545,-0.04732608795166016,988.4080810546876,0,13.0,1,1
6.64,0.07963085,-0.15650018,9.786389999999999,-0.0001935450127348304,-0.00041424290975555783,0.00010217560338787736,-7.280321598052978,24.205678939819336,-38.60986328125,0.2542557120323181,1.4518524408340454,-0.07480716705322266,988.4332275390624,0,13.0,1,1
6.68,0.06765348,-0.15888281,9.765081,0.00033935566898435354,-0.0004142865946050733,-0.00016402511391788718,-7.467011451721191,24.39951515197754,-38.43846893310547,0.2666797935962677,1.4469019174575806,-0.04030609130859375,988.423095703125,0,13.0,1,1
6.72,0.07240537,-0.14934902,9.774549,0.000605940236710012,0.00011830151197500527,-0.00029706774512305856,-7.896589756011963,24.41829872131348,-37.75749969482422,0.26131609082221985,1.4247192144393919,-0.0540771484375,988.4331665039062,0,13.0,1,1
6.76,0.07715726,-0.15888141,9.776914,0.0007393670966848731,-0.000547531817574054,-0.0002969525521621108,-7.404755592346191,23.56203269958496,-38.014137268066406,0.2508725523948669,1.4278306961059568,-0.038997650146484375,988.3906860351562,0,13.0,1,1
6.8,0.074739456,-0.14696433,9.762707,-0.00032562750857323414,0.0005176881095394492,-0.0005631532985717057,-7.7897377014160165,24.781892776489254,-38.02619171142578,0.2540949285030365,1.4162360429763794,-0.05225181579589844,988.4559936523438,0,13.0,1,1
6.84,0.07949144,-0.15411358,9.769805999999999,-5.9042824432253844e-05,0.00011817066115327181,0.00010275174281559885,-7.428396224975586,24.48835563659668,-38.449615478515625,0.24340838193893435,1.419111967086792,-0.05607891082763672,988.41552734375,0,13.0,1,1
6.88,0.067514,-0.1493463,9.781639,-0.0004582478431984782,-0.00014818893396295607,0.00010286696488037704,-7.518643379211426,24.03504753112793,-38.33219909667969,0.2609028220176697,1.4041588306427002,-0.0689077377319336,988.4080810546876,0,13.0,1,1
6.92,0.0746558,-0.1469623,9.774536,-0.0007242946885526179,0.0001180833496619016,0.0002361401275265962,-7.420923709869385,24.389802932739254,-38.13706588745117,0.2556895315647125,1.40560781955719,-0.04952812194824219,988.4104614257812,0,13.0,1,1
6.96,0.06745821,-0.15411143,9.772165,-0.0001913943560793996,0.0003843555750790984,0.0003694132319651544,-7.471577167510986,24.39509391784668,-38.20655822753906,0.2543366551399231,1.3895108699798584,-0.04390525817871094,988.430908203125,0,13.0,1,1
7.0,0.069820225,-0.16126065,9.769796000000001,7.519044447690247e-05,-0.00014831981388852,-2.9945280402898792e-05,-7.250539302825928,24.917814254760746,-37.7323112487793,0.2487218677997589,1.3923767805099487,-0.05249691009521485,988.4156494140624,0,13.0,1,1
7.04,0.06740242,-0.14457704,9.788732000000001,-0.0007234882796183227,-0.0009473111713305117,0.0003696437051985413,-6.94691801071167,24.2539119720459,-37.74024963378906,0.2525319457054138,1.376196026802063,-0.070556640625,988.4331665039062,0,13.0,1,1
7.08,0.07215434,-0.15649267,9.765057,-0.0005900616524741054,-0.00041472300654277205,-0.00016287283506244418,-7.457038402557372,24.67220115661621,-38.37897491455078,0.2515840530395508,1.379297971725464,-0.027103424072265625,988.440673828125,0,13.0,1,1
7.12,0.07212645,-0.14934216,9.769789,0.00034231285098940134,-0.0012137143639847634,0.00063619005959481,-7.1864867210388175,24.293642044067386,-38.78343963623047,0.2506794035434723,1.3631229400634766,-0.03570842742919922,988.4180297851562,0,13.0,1,1
7.16,0.06731874,-0.15172477,9.772152,-0.00045636575669050217,0.0006504531484097242,0.00023683143081143496,-7.710442543029785,24.592756271362305,-38.02734375,0.2590189874172211,1.3566763401031494,-0.03959751129150391,988.4003295898438,0,13.0,1,1
7.2,0.076850444,-0.15887393,9.760315,-0.00045636575669050217,0.0006504531484097242,0.00023683143081143496,-7.507829189300537,24.571577072143555,-37.7493896484375,0.23897784948349,1.359997272491455,-0.02459049224853516,988.4003295898438,0,13.0,1,1
7.24,0.060093284000000004,-0.15648998,9.779249,0.0007423243951052427,-0.0005480119143612684,-0.00029568513855338097,-7.354645729064941,23.925031661987305,-38.04309844970703,0.2666875720024109,1.363362431526184,-0.05220317840576172,988.4232788085938,0,13.0,1,1
7.28,0.062455237000000004,-0.1421896,9.755575,0.00047627731692045927,-0.0006812135106883942,0.0005033777561038734,-7.37440013885498,25.11813926696777,-38.10987091064453,0.2608092129230499,1.3286523818969729,-0.01827621459960937,988.40771484375,0,13.0,1,1
7.32,0.07676676,-0.16840492,9.757939,0.00047654646914452325,-1.5467405319213867e-05,-0.00042861257679760456,-7.276435852050781,24.47246742248535,-38.241153717041016,0.235622376203537,1.3460679054260254,-0.02218246459960937,988.4483032226562,0,13.0,1,1
7.36,0.06717926,-0.16363777,9.757936500000001,0.00021049927454441786,-1.5511061064898968e-05,0.0007699241396039723,-7.339563846588135,23.833845138549805,-38.11707305908203,0.2440517246723175,1.33004891872406,-0.016622543334960938,988.440673828125,0,13.0,1,1
7.4,0.081490785,-0.15172069,9.765036,0.0002107679611071944,0.00025076119345612824,0.0005037233931943773,-7.185102462768555,24.18919563293457,-38.16166687011719,0.23327848315238955,1.31396222114563,-0.04893207550048828,988.3952026367188,0,13.0,1,1
7.44,0.07429319599999999,-0.15171997,9.765034,-0.0005879105301573873,0.00025071753771044314,-0.00016195105854421854,-7.288474559783935,24.56660270690918,-38.32179260253906,0.2322204411029816,1.312319278717041,-0.02445507049560547,988.4356079101562,0,13.0,1,1
7.48,0.06718913,-0.14933832,9.7745075,7.814785931259395e-05,0.00025067388196475804,-0.00016183580737560987,-6.986374378204347,23.901227951049805,-38.25242614746094,0.24535444378852844,1.306092619895935,-0.03787422180175781,988.4179077148438,0,13.0,1,1
7.52,0.07443014,-0.14934011,9.772148,-0.0003210572758689523,-1.568565494380891e-05,0.0009035429684445262,-7.3669281005859375,25.01958656311035,-37.79731750488281,0.22980996966362,1.299795627593994,-0.032375335693359375,988.4205322265624,0,13.0,1,1
7.56,0.072019964,-0.15172286,9.762677,-0.00018763018306344748,0.0003837445110548288,0.0002378684584982693,-7.774656295776367,24.690710067749023,-38.10016632080078,0.23883980512619016,1.293094277381897,-0.02683258056640625,988.380126953125,0,13.0,1,1
7.6,0.07199967,-0.15648897,9.762675,-5.866517312824727e-05,-0.0009495473932474852,0.000372333568520844,-7.168498516082764,24.09948539733887,-38.31294631958008,0.22348615527153012,1.2869280576705933,-0.040279388427734375,988.4281005859376,0,13.0,1,1
7.64,0.062419772000000005,-0.15410508,9.757938000000001,-0.00045794318430125713,0.000248842261498794,0.0005055753281340003,-7.631690502166747,24.77190589904785,-38.126949310302734,0.2461667060852051,1.2949572801589966,-0.01110076904296875,988.4027099609376,0,13.0,1,1
7.68,0.07195908,-0.15887119,9.776875,-0.00019143195822834969,-0.00041697919368743896,-2.697261516004801e-05,-7.9828147888183585,24.337705612182614,-37.9704475402832,0.2355856895446777,1.2934263944625854,-0.04347801208496094,988.4253540039062,0,13.0,1,1
7.72,0.07671857,-0.14218779,9.776873,-0.0001763050677254796,0.0004319472354836762,7.775111589580774e-05,-7.4804649353027335,23.385831832885746,-38.06914520263672,0.22463908791542053,1.2631407976150513,-0.023752212524414062,988.430419921875,0,13.0,1,1
7.76,0.06952858,-0.13980402,9.767402,-0.0004424253711476922,-0.0003670321893878281,-0.0004547967691905797,-7.657724380493164,24.22064018249512,-37.936710357666016,0.2382110059261322,1.2426995038986206,-0.018286705017089844,988.4152221679688,0,13.0,1,1
7.8,0.07906788599999999,-0.15171991,9.767401,-4.2755971662700176e-05,3.240993828512728e-05,-0.0004547130083665252,-7.5242958068847665,24.7672061920166,-38.29718780517578,0.21783974766731265,1.255284309387207,-0.026976585388183597,988.4456176757812,0,13.0,1,1
7.84,0.074267805,-0.15410258,9.772133,-0.0009746659779921174,0.0006981678889133036,0.0006106343935243785,-7.552394390106201,24.58276176452637,-38.12810134887695,0.23093080520629886,1.263502597808838,-0.02624797821044922,988.425537109375,0,13.0,1,1
7.88,0.07424754,-0.16363521,9.767396000000002,9.07933572307229e-05,3.2346404623240226e-05,0.00021124439081177115,-7.540356636047362,24.488630294799805,-38.047462463378906,0.2249707281589508,1.262432336807251,-0.016082763671875,988.4228515625,0,13.0,1,1
7.92,0.071837336,-0.1493351,9.760292,0.0004904627567157148,0.0006981043261475861,0.00021132820984348652,-7.563889980316162,24.30860710144043,-38.11028289794922,0.223852813243866,1.2417975664138794,-0.015336990356445312,988.43798828125,0,13.0,1,1
7.96,0.06464732,-0.14695133,9.767392,-0.00017513136845082045,-0.00023403299564961344,-0.0005875357310287653,-7.5803565979003915,24.504240036010746,-38.65808486938477,0.2371237576007843,1.2213466167449951,-0.028820037841796875,988.4078369140624,0,13.0,1,1
8.0,0.06940681,-0.14695089,9.781592999999999,-0.000441251671873033,-0.00036722264485433703,0.00034465378848835826,-7.1138224601745605,24.466894149780273,-38.573822021484375,0.22183042764663696,1.2248010635375977,-0.028116226196289062,988.4202880859376,0,13.0,1,1
8.04,0.06938654,-0.15886666,9.776857000000001,-0.0005742140347138048,-0.00023409648565575483,0.0003447376366239041,-7.154395580291747,23.638532638549805,-38.21116256713867,0.22072070837020874,1.2234280109405518,-0.04160785675048828,988.435302734375,0,13.0,1,1
8.08,0.07653594,-0.15886618,9.776855,-4.1386811062693596e-05,0.0010974511969834566,-0.0004541261587291956,-6.970450878143311,24.07388114929199,-37.80307388305664,0.219323605298996,1.236536741256714,-0.03144359588623047,988.4154663085938,0,13.0,1,1
8.12,0.07173586,-0.161249,9.774486999999999,0.0006245984695851803,-0.00036731793079525227,0.0007443791255354881,-7.396847724914551,24.20153617858887,-37.97579193115234,0.2137298882007599,1.2210291624069214,-0.02603244781494141,988.4152221679688,0,13.0,1,1
8.16,0.06693578,-0.14218229999999998,9.750813,0.0003584782825782895,-0.00010103377280756833,-5.4484640713781125e-05,-7.2226314544677725,23.3637752532959,-37.95362091064453,0.22704723477363584,1.1914846897125244,-0.006443023681640625,988.4103393554688,0,13.0,1,1
8.2,0.08364478,-0.16124804,9.765015,0.0004918318009003997,3.209238639101386e-05,-0.00032071670284494763,-7.082709789276122,23.44202995300293,-37.82578659057617,0.20190316438674927,1.2093322277069092,-0.01996326446533203,988.4253540039062,0,13.0,1,1
8.24,0.069285065,-0.1564809,9.769747,-0.0007063939701765777,0.00029837648617103696,0.00034515681909397244,-7.3099422454833975,24.019758224487305,-38.36347198486328,0.2197628915309906,1.2175434827804563,-0.028740882873535163,988.4177856445312,0,13.0,1,1
8.28,0.074044585,-0.15409715,9.762644,9.274936746805906e-05,0.0005646607023663819,0.00021208266844041648,-7.503561973571777,23.94386100769043,-38.40617370605469,0.20887896418571472,1.1830625534057615,-0.00440216064453125,988.4330444335938,0,13.0,1,1
8.32,0.07402429,-0.16601305,9.762642,9.294494520872833e-05,0.0004314709804020822,0.00034532445715740323,-7.198417663574219,23.28143119812012,-38.49141693115234,0.21743303537368772,1.2009100914001465,-0.0037384033203125,988.4177856445312,0,13.0,1,1
8.36,0.07161409,-0.14694636,9.767375,0.0006257721688598393,0.00043143919901922345,-0.0005866973078809679,-7.26385498046875,24.010046005249023,-38.06206512451172,0.215994656085968,1.1619890928268433,-0.02204799652099609,988.4154663085938,0,13.0,1,1
8.4,0.08115339,-0.15886225,9.769739999999999,0.0010254414519295096,0.0017629868816584349,-0.0003202976076863706,-7.527775287628174,24.02620506286621,-37.86837005615234,0.19538044929504395,1.175533890724182,-0.02142524719238281,988.4378051757812,0,13.0,1,1
8.44,0.071573526,-0.1636282,9.77684,9.35314456000924e-05,0.0008308495744131504,-5.389787838794291e-05,-7.398913383483888,24.56835746765137,-37.99694061279297,0.20843738317489624,1.1746089458465576,-0.03973102569580078,988.4251098632812,0,13.0,1,1
8.48,0.078691006,-0.15409385,9.7721,9.35314456000924e-05,0.0008308495744131504,-5.389787838794291e-05,-7.033142566680907,24.17331123352051,-37.95320129394531,0.2074468731880188,1.1592620611190796,-0.0154266357421875,988.4251098632812,0,13.0,1,1
8.52,0.066687346,-0.15885909,9.76736,0.00036004302091896534,-0.0002344457316212356,0.00021250188001431525,-6.980967044830322,24.16948890686035,-37.96101760864258,0.21110987663269046,1.1532284021377563,0.0041751861572265625,988.4329223632812,0,13.0,1,1
8.56,0.081003904,-0.15409197,9.760258,9.415135718882084e-05,0.0004312751116231084,-5.3632247727364295e-05,-6.919659614562987,24.17450523376465,-38.43266677856445,0.1957310140132904,1.142759084701538,-0.004680633544921875,988.4326782226562,0,13.0,1,1
8.6,0.07620126,-0.15409143,9.776825,-0.000711004831828177,0.00029165975865907967,-0.0007131259189918637,-7.679299831390381,24.7801456451416,-38.35104370117188,0.19986724853515625,1.151140809059143,-0.01352691650390625,988.4074096679688,0,13.0,1,1
8.64,0.07856828,-0.15170757,9.774455999999999,0.0004876368911936879,-0.0009067975915968418,-0.00044671574141830206,-7.430056095123291,24.380964279174805,-37.673240661621094,0.2032345831394196,1.1406723260879517,-0.012908935546875,988.4276733398438,0,13.0,1,1
8.68,0.073765635,-0.15885685,9.76025,8.838321082293987e-05,0.0005579041317105293,-0.00018030538922175765,-6.782239437103272,23.881521224975586,-38.05177307128906,0.2025255262851715,1.1302400827407837,0.0018863677978515625,988.4202880859376,0,13.0,1,1
8.72,0.085692346,-0.1540898,9.753147,-0.0008435022318735719,0.0002915524819400161,0.00035242066951468587,-7.213606834411621,24.47895622253418,-38.79010772705078,0.19171705842018127,1.1197962760925293,-0.0022449493408203125,988.4529418945312,0,13.0,1,1
8.76,0.07371992,-0.1517059,9.767348,0.0006214554887264968,-0.0005074308719485998,8.619911386631429e-05,-7.5034542083740225,22.837514877319336,-38.03351593017578,0.20022955536842346,1.1238778829574585,-0.011139869689941406,988.4326782226562,0,13.0,1,1
8.8,0.07130721,-0.15408857,9.757877,0.0004885176895186305,0.00042463900172151625,-4.686438478529453e-05,-7.024851799011231,23.918302536010746,-38.94035339355469,0.2033851444721222,1.1132947206497192,-0.010519027709960938,988.4301147460938,0,13.0,1,1
8.84,0.068894506,-0.15647133,9.77918,-4.3893931433558464e-05,0.0013567087007686494,-0.0009788755560293794,-7.0681705474853525,23.71912956237793,-37.99821472167969,0.202178418636322,1.1073215007781982,-0.028835296630859375,988.44287109375,0,13.0,1,1
8.88,0.07604134,-0.1660039,9.746037,-0.0007094632601365447,0.0009571991395205259,0.0004859560867771506,-7.462147235870361,25.03606986999512,-38.245513916015625,0.19628694653511047,1.111134648323059,0.014364242553710938,988.4225463867188,0,13.0,1,1
8.92,0.07601845,-0.15170367,9.774442,-0.0005758650368079543,0.0005576539551839231,-0.0003128028474748134,-7.629082202911378,24.036794662475586,-38.00735092163086,0.1858172416687012,1.0910987854003906,-0.00399017333984375,988.4276733398438,0,13.0,1,1
8.96,0.08077544,-0.15885295,9.760237,9.014492388814688e-05,-0.000640803249552846,8.676538709551096e-05,-7.304534912109375,24.28802299499512,-38.07206344604492,0.18975555896759036,1.0901619195938108,0.0013189315795898438,988.397705078125,0,13.0,1,1
9.0,0.06402326,-0.14931925,9.764969,-0.00017595081590116024,-0.0006408390472643077,-4.629814065992832e-05,-7.3021721839904785,24.5533504486084,-37.62604522705078,0.203288733959198,1.0846726894378662,-0.012334823608398438,988.4376831054688,0,13.0,1,1
9.04,0.07356,-0.14693548,9.764967,9.058532305061816e-05,2.4914887035265565e-05,8.695412543602288e-05,-7.4891605377197275,24.115049362182614,-37.87952423095703,0.1974809765815735,1.0744539499282837,-0.0023174285888671875,988.4251098632812,0,13.0,1,1
9.08,0.07114726,-0.14455159,9.772066,0.0006234374595806003,0.0008238267619162798,-0.00017926737200468779,-7.3470354080200195,23.93239402770996,-38.42962646484375,0.2010360956192017,1.0691854953765871,-0.011251449584960938,988.425048828125,0,13.0,1,1
9.12,0.06873456,-0.1564674,9.769697,-0.00017529027536511418,0.0005574751412495972,-0.0011112785432487726,-7.653158664703369,24.22506523132324,-38.16862487792969,0.19534748792648315,1.0686415433883667,-0.0012578964233398438,988.4403686523438,0,13.0,1,1
9.16,0.06871167,-0.15646686,9.774429,0.00035756174474954605,-0.0006409819470718503,0.00022039515897631645,-7.557939529418945,24.20857810974121,-37.72042846679688,0.18949133157730105,1.0677413940429688,-0.005430221557617188,988.4251098632812,0,13.0,1,1
9.2,0.06868881,-0.14454992,9.762591,0.0006240980001166463,0.00029108781018294394,-0.00017898424994200468,-7.481550216674805,24.122411727905273,-38.26604843139648,0.20287007093429565,1.0483169555664062,-0.0001926422119140625,988.4201049804688,0,13.0,1,1
9.24,0.08300543,-0.15646572,9.769689999999999,-0.0005883395788259804,-0.00034702895209193235,-0.000510048761498183,-6.9124860763549805,23.44381904602051,-38.54498291015625,0.16827398538589478,1.0520653724670408,-0.009093284606933594,988.4251098632812,0,13.0,1,1
9.28,0.06147343,-0.15884848,9.769688,-0.0008544350857846439,0.0001855670125223696,-0.0007762702298350633,-7.580494403839111,24.3983211517334,-37.9590072631836,0.19089949131011966,1.0631017684936523,-0.013055801391601562,988.43017578125,0,13.0,1,1
9.32,0.0805698,-0.16123118,9.772053999999999,0.00047736457781866193,5.237339064478874e-05,2.277173916809261e-05,-7.188689708709718,24.55454444885254,-38.105506896972656,0.18084865808486936,1.0556788444519043,0.00140380859375,988.4276733398438,0,13.0,1,1
9.36,0.07098734400000001,-0.14931421,9.769684,7.811089744791389e-05,0.00045181147288531065,0.00015602403436787426,-7.174586296081543,24.09358787536621,-38.00372695922852,0.18959292769432068,1.0262736082077026,-0.0075359344482421875,988.4403076171876,0,13.0,1,1
9.4,0.06379479,-0.14931367,9.772049,-0.0001879847259260714,-0.0006134878494776785,2.296047750860453e-05,-7.474621295928955,24.392148971557614,-38.051944732666016,0.1934514343738556,1.0303958654403689,-0.016490936279296875,988.4401245117188,0,13.0,1,1
9.44,0.073331535,-0.15646298,9.772047,-0.00018776458455249667,0.00045173993567004805,-0.0005095768137834966,-7.28350305557251,24.09681510925293,-37.75617980957031,0.17788004875183105,1.0226558446884155,-0.00629425048828125,988.4276733398438,0,13.0,1,1
9.48,0.07620996,-0.15885822,9.76499,0.00021192937856540084,-0.001013033092021942,-0.00037632463499903684,-6.869985580444336,23.799448013305664,-38.18742370605469,0.17636698484420776,1.0221600532531738,-0.005846023559570313,988.4251098632812,0,13.0,1,1
9.52,0.069037735,-0.14932503,9.776827,7.323222234845161e-05,0.00018470437498763204,-0.0006424610619433223,-6.979444980621338,24.17096519470215,-38.03832244873047,0.17606773972511292,1.0099729299545288,-0.010338783264160156,988.4251098632812,0,13.0,1,1
9.56,0.076204896,-0.15170829,9.764991,-0.00019425770733505487,0.0005843687104061246,-0.0005098062683828175,-7.42991828918457,24.48688316345215,-38.372314453125,0.1745203733444214,1.004719853401184,0.004365921020507813,988.422607421875,0,13.0,1,1
9.6,0.073812455,-0.1397918,9.762622,7.208262104541063e-05,5.17331063747406e-05,0.00015599391190335157,-7.0505876541137695,23.999177932739254,-38.32524490356445,0.17397406697273254,0.9899644255638124,-0.004631996154785156,988.4326782226562,0,13.0,1,1
9.64,0.07380992,-0.15170817,9.764989,0.00033842294942587614,0.0001848869724199176,-0.00011031149188056587,-7.1265411376953125,24.82340431213379,-38.0538330078125,0.1728593111038208,0.9992294907569884,0.010038375854492188,988.435302734375,0,13.0,1,1
9.68,0.07380739,-0.14932479,9.769722999999999,-0.0011262899497523904,-0.0006140645709820093,0.00015601480845361948,-7.407363891601562,24.29714393615723,-38.13373565673828,0.17696881294250488,0.9889026284217834,0.0010662078857421877,988.422607421875,0,13.0,1,1
9.72,0.073804855,-0.15647455,9.767357,-0.00046047579962760215,-0.0006140685873106122,0.00015602531493641436,-7.474621772766112,24.392148971557614,-38.05194854736328,0.181427538394928,0.9930379390716552,0.015740394592285156,988.39990234375,0,13.0,1,1
9.76,0.07380235,-0.15170793,9.753152,-0.0001941355876624584,-0.0011467041913419962,-0.0005097538814879954,-6.798705101013184,24.07714653015137,-38.599571228027344,0.18583443760871887,0.9733878374099731,0.016204833984375,988.435302734375,0,13.0,1,1
9.8,0.08574927,-0.14932461,9.767355,-0.0001941355876624584,-0.0011467041913419962,-0.0005097538814879954,-7.04768180847168,23.89620780944824,-37.78077697753906,0.1657920628786087,0.9872167110443116,0.0024700164794921875,988.435302734375,0,13.0,1,1
9.84,0.085746735,-0.16362418,9.760254,-0.0005935849621891974,-0.0010135503252968194,0.00015604626969434318,-7.369589805603027,24.122129440307614,-38.66820526123047,0.16025419533252716,0.9823337197303772,0.01710224151611328,988.427490234375,0,13.0,1,1
9.88,0.07379466,-0.15647429999999998,9.772089,-0.00019408669322729108,0.00031802512239664793,-0.00011025910498574375,-7.390217304229736,23.83913993835449,-38.186561584472656,0.18315517902374268,0.9725932478904724,0.0033407211303710933,988.4276733398438,0,13.0,1,1
9.92,0.07140225,-0.16600735,9.762621000000001,0.0006048853974789381,-0.0006140844780020416,-0.000376564625184983,-7.198119640350343,23.91356468200684,-38.066551208496094,0.17752192914485931,0.9818151593208312,0.013251304626464844,988.4022827148438,0,13.0,1,1
9.96,0.06661993,-0.15409093,9.772089,0.000471751787699759,0.00031801732257008547,-0.0005097119719721377,-7.117845058441162,24.09419059753418,-38.24345397949219,0.17629946768283844,0.939092457294464,-0.010009765625,988.4225463867188,0,13.0,1,1
10.0,0.06900731,-0.14455776,9.776823,0.00047177635133266444,0.00018485524924471972,-0.00037654367042705417,-7.504786014556885,24.574525833129886,-37.90399932861328,0.17534275352954865,0.9483179450035096,-0.009569168090820312,988.3975219726562,0,13.0,1,1
10.04,0.07617447,-0.15647407,9.764987,0.0006049587391316892,5.169340874999762e-05,-0.0005096910172142088,-7.1222734451293945,24.1956844329834,-38.71061706542969,0.16015875339508054,0.9574032425880432,0.005079269409179688,988.4453735351562,0,13.0,1,1
10.08,0.07378203,-0.15885729999999998,9.76262,-0.0007265963358804584,0.0003180053317919373,-0.00024336477508768442,-7.610115051269531,24.212404251098636,-37.71260833740234,0.1687946915626526,0.933064877986908,0.014997482299804688,988.4326782226562,0,13.0,1,1
10.12,0.0761694,-0.14455752,9.764986,-0.00032709806691855187,-0.0003477883874438703,0.00015611958224326372,-7.23934268951416,24.55983543395996,-38.17499542236328,0.17239610850811005,0.9278579354286194,0.015446662902832031,988.4401245117188,0,13.0,1,1
10.16,0.068997175,-0.16124047,9.772089,-0.0008597052656114101,0.000584313180297613,-0.00037650176091119647,-8.012297630310059,24.25770378112793,-38.42312622070313,0.16663868725299835,0.9275559782981871,-0.003062248229980469,988.4428100585938,0,13.0,1,1
10.2,0.07377446,-0.15409048,9.767353,-0.0001938913483172655,0.0005843093385919929,0.00015614050789736209,-7.445574283599853,23.73409843444824,-37.32505798339844,0.17013581097126007,0.9320430755615234,-0.0073642730712890625,988.4251098632812,0,13.0,1,1
10.24,0.071381986,-0.15409048,9.776822,-0.00032700027804821735,0.00031798536656424403,-0.00011015450581908225,-7.349781036376952,24.561582565307614,-37.85014343261719,0.1598941683769226,0.9224839210510254,0.002498626708984375,988.3999633789062,0,13.0,1,1
10.28,0.07376939,-0.15647365,9.760251,-0.00019381800666451451,-0.00034780820715241134,0.0009551194962114096,-7.487340450286865,24.74865531921387,-37.53195190429688,0.15838952362537384,0.9147513508796692,0.017343521118164062,988.4125366210938,0,13.0,1,1
10.32,0.06898701,-0.16124018,9.76972,-0.0007264252053573728,0.0003179774503223598,0.0004224982403684408,-7.343693733215332,24.567480087280273,-38.15936279296875,0.16749151051044464,0.9170985221862792,0.012807846069335938,988.4200439453124,0,13.0,1,1
10.36,0.07854408,-0.13740732,9.746048,0.00033886265009641653,-8.150030043907465e-05,0.0002893508062697947,-7.510735511779785,24.67454719543457,-38.29385757446289,0.15747517347335815,0.8980674147605896,0.03212261199951172,988.4125366210938,0,13.0,1,1
10.4,0.07854152,-0.14932372,9.757883,-0.0003269026055932045,-0.0010136098135262726,2.3045402485877272e-05,-7.352580547332764,23.558210372924805,-38.02195739746094,0.1520186811685562,0.8932849764823914,0.023038864135742188,988.4228515625,0,13.0,1,1
10.44,0.069121,-0.14932711,9.7720995,-6.056216079741718e-05,0.0004511236329562962,0.00015621379134245214,-7.117302417755128,23.72590065002441,-38.14500427246094,0.1560099571943283,0.8934747576713562,-0.0002651214599609375,988.4301147460938,0,13.0,1,1
10.48,0.07404852,-0.14694746,9.774479,0.0012707019923254848,-0.000747246784158051,0.000156078691361472,-7.263174533843994,23.747671127319336,-38.662689208984375,0.16928914189338684,0.8890987634658813,0.028467178344726562,988.43017578125,0,13.0,1,1
10.52,0.06688768,-0.15171416,9.776848,-0.0003296078648418188,-0.0008800126961432398,0.0002882019616663456,-7.484296321868896,24.751604080200195,-37.68656539916992,0.16846254467964172,0.8936258554458618,0.014658927917480469,988.44287109375,0,13.0,1,1
10.56,0.07406628,-0.15886422,9.760278,0.00020293844863772392,0.00031842268072068686,-0.0005107825272716582,-7.10246467590332,24.6351375579834,-37.892555236816406,0.15802672505378726,0.8938146829605103,-0.003914833068847656,988.4200439453124,0,13.0,1,1
10.6,0.071685255,-0.14218153,9.750811,6.96949427947402e-05,0.0011173842940479515,2.1812593331560493e-05,-7.1304259300231925,24.55660820007324,-38.42254257202149,0.166123166680336,0.8650900721549988,0.024888038635253903,988.4175415039062,0,13.0,1,1
10.64,0.06452444,-0.15648143,9.765015,-0.0011288124369457366,0.0007179243257269262,-0.00011138204718008635,-7.307579040527344,24.28507804870605,-37.91744995117188,0.15114600956439972,0.884077250957489,0.006321907043457031,988.4251098632812,0,13.0,1,1
10.68,0.07170305,-0.1540984,9.765015,-0.0005962661234661938,-0.0007467991672456263,-0.0006440505967475474,-7.230348587036133,24.462759017944336,-37.93975067138672,0.1597762107849121,0.8746392130851746,0.0208892822265625,988.4526977539062,0,13.0,1,1
10.72,0.074101835,-0.14694871,9.772117999999999,0.0011347014224156735,-0.0003473114338703453,0.0008206501370295883,-7.398369789123535,24.200063705444336,-37.89848709106445,0.15445128083229065,0.8513793349266052,0.016472816467285156,988.4351806640624,0,13.0,1,1
10.76,0.09084004,-0.14456566,9.772119,0.0003293900517746806,-0.00029654521495103836,-0.00040791323408484464,-7.47712230682373,24.020910263061523,-37.79888153076172,0.13425517082214355,0.856343150138855,0.007359504699707031,988.4529418945312,0,13.0,1,1
10.8,0.0836792,-0.1421826,9.779221000000001,6.298848893493414e-05,0.0007687322795391082,0.00012468203203752637,-7.431035041809082,24.01119804382324,-37.49748229980469,0.13808321952819824,0.847188413143158,0.002963066101074219,988.422607421875,0,13.0,1,1
10.84,0.07412851,-0.16839887,9.7673855,6.290280725806952e-05,0.0009019039571285248,-0.00014167057815939188,-7.775634765625,24.32094383239746,-37.924407958984375,0.15142717957496646,0.86637282371521,0.02698993682861328,988.4099731445312,0,13.0,1,1
10.88,0.06218788,-0.14456631,9.776855,-0.0007361304014921187,0.0006356020458042622,-8.549424819648266e-06,-7.284045696258545,24.46510505676269,-37.8546257019043,0.15988928079605105,0.8279238939285278,0.008436203002929688,988.4378051757812,0,13.0,1,1
10.92,0.06697655,-0.15648298,9.776856,-0.0006030582590028644,-0.00029648956842720514,0.00025772975641302764,-7.506307601928711,24.57304954528809,-37.82669448852539,0.14987996220588684,0.8566998243331909,0.00403594970703125,988.4202880859376,0,13.0,1,1
10.96,0.06459555,-0.15171666,9.762653,0.00019580370280891654,-0.0004296336555853486,0.0005240089958533645,-7.17404317855835,23.72530174255371,-37.9052734375,0.1586454212665558,0.8141789436340332,0.013829231262207031,988.4300537109376,0,13.0,1,1
11.0,0.057434738,-0.15410005,9.772122999999999,-0.0006032291566953063,-3.0145864002406597e-05,-0.00014181743608787656,-7.369727611541747,24.016218185424805,-37.96912384033203,0.15774434804916382,0.8382103443145752,0.004698753356933594,988.4000244140624,0,13.0,1,1
11.04,0.071783006,-0.1469505,9.779226,0.0005951062776148318,-0.00042960583232343197,-0.0005413281032815577,-7.705035209655763,24.86102104187012,-37.735939025878906,0.15701210498809814,0.8197848200798035,0.009734153747558594,988.4276733398438,0,13.0,1,1
11.08,0.06701213,-0.15410052,9.772125,-0.00020392693113535645,0.0006356715457513927,-8.732895366847515e-06,-7.162112236022949,24.73750877380371,-38.19729614257813,0.15145424008369446,0.8199518918991089,0.01953697204589844,988.3975219726562,0,13.0,1,1
11.12,0.07897049,-0.15410076,9.779227,-0.00020392693113535645,0.0006356715457513927,-8.732895366847515e-06,-7.421604633331299,24.65217399597168,-37.53643798828125,0.14093731343746185,0.8249120116233826,0.005665779113769531,988.3975219726562,0,13.0,1,1
11.16,0.062250078,-0.154101,9.762657,0.00019546144176274535,-0.0006958939484320581,-0.00027508544735610485,-7.679299354553223,24.780141830444336,-38.35104370117188,0.1496732383966446,0.8203291893005371,0.010728836059570312,988.4253540039062,0,13.0,1,1
11.2,0.06942868,-0.14933468,9.765025999999999,-0.00047041417565196747,0.00036938363336957986,-0.00027512235101312404,-7.358232498168945,24.290372848510746,-37.9869384765625,0.15344038605690002,0.8114916086196899,0.01575946807861328,988.4276123046876,0,13.0,1,1
11.24,0.06465775,-0.15886788,9.776863,-0.00020418374333530664,0.0003693974867928773,0.0002574728569015861,-7.263418674468994,24.74809837341309,-38.336273193359375,0.14787842333316806,0.8068187832832336,0.006618499755859375,988.4225463867188,0,13.0,1,1
11.28,0.069446415,-0.14933507,9.77923,6.204645615071058e-05,-0.0002963783917948604,-0.00027519563445821404,-7.243908882141112,24.55541801452637,-37.94308090209961,0.1472197026014328,0.7977861762046814,0.011651992797851562,988.41748046875,0,13.0,1,1
11.32,0.07184523,-0.15171854,9.767395,-0.0007369868690147996,0.0001031094288919121,-8.916482329368591e-06,-7.542857646942139,24.117395401000977,-37.79439926147461,0.1368974596261978,0.7884019613265991,0.007237434387207031,988.44287109375,0,13.0,1,1
11.36,0.06946421,-0.14456896,9.779232,0.000594506855122745,-0.00016319265705533326,-0.000142111093737185,-7.49274730682373,24.48039436340332,-37.8233642578125,0.14027707278728485,0.7795479893684387,0.0075359344482421875,988.4403076171876,0,13.0,1,1
11.4,0.06469327,-0.15410228,9.774498,-0.0006040002917870879,0.0007689268095418812,-0.0002753057051450014,-7.306600093841553,24.654844284057614,-38.09320831298828,0.13950268924236298,0.7990162372589111,-0.0016336441040039062,988.4376831054688,0,13.0,1,1
11.44,0.06394252,-0.14931728,9.769695,0.00019486167002469299,0.0006357827223837376,0.0007899210904724896,-7.383831024169923,24.47717094421387,-38.0709114074707,0.15353916585445404,0.7853178381919861,0.031867027282714844,988.43017578125,0,13.0,1,1
11.48,0.061531067,-0.15408333,9.786264,-7.153989281505345e-05,0.00010316495900042356,-0.00014222116442397237,-7.316573143005371,24.382158279418945,-38.15270233154297,0.14801141619682312,0.7667711973190308,0.013220787048339844,988.4378051757812,0,13.0,1,1
11.52,0.06389946,-0.14693297,9.760223,-0.00020353402942419047,0.00036754339816980064,-6.226880941540003e-06,-7.225782871246338,24.46717643737793,-38.17166137695313,0.15656396746635434,0.7718816995620728,0.022995948791503903,988.4376831054688,0,13.0,1,1
11.56,0.07821733,-0.15169896,9.7649555,-0.0008653299883008003,0.00023373725707642734,-0.0005371469887904823,-7.433803081512451,24.220083236694336,-38.74102783203125,0.1365206092596054,0.7675480842590332,0.023291587829589844,988.4225463867188,0,13.0,1,1
11.6,0.06863618,-0.16361485,9.772055,-0.0004656485980376602,0.00010054549784399568,-0.00027074216632172465,-7.819657802581787,23.96384239196777,-38.20466613769531,0.14076966047286987,0.7918356657028198,0.014110565185546875,988.4225463867188,0,13.0,1,1
11.64,0.066224754,-0.16123106,9.772053,6.719084922224283e-05,0.00023366979439742866,-0.0005369689897634089,-7.775092124938965,23.95265769958496,-37.82595825195313,0.1446957141160965,0.7732997536659241,0.01912975311279297,988.435302734375,0,13.0,1,1
11.68,0.07098299,-0.14931412,9.762582,-0.00046523346100002527,0.0001004781515803188,0.00039522541919723153,-7.543699264526367,23.85354804992676,-38.317726135253906,0.1297292411327362,0.7532596588134766,0.010033607482910156,988.4403076171876,0,13.0,1,1
11.72,0.06857157,-0.13978054,9.76258,0.001266027451492846,-0.0013642929261550307,0.00012899853754788634,-7.096813201904298,23.90297889709473,-37.92757034301758,0.12452492117881775,0.7368395924568176,0.029111862182617188,988.4451904296876,0,13.0,1,1
11.76,0.063770205,-0.1445465,9.774414,-0.00046481809113174677,0.000100410747108981,0.000262245477642864,-7.254860877990723,23.9129695892334,-37.826820373535156,0.1431458592414856,0.7471133470535278,0.010433197021484377,988.4124755859376,0,13.0,1,1
11.8,0.054189086,-0.15169583,9.764944,6.802112329751252e-05,-0.00029909677687101066,-0.0009360870462842287,-7.453994274139403,24.675146102905273,-38.53358840942383,0.15642566978931427,0.7479866147041321,0.02489852905273437,988.4276733398438,0,13.0,1,1
11.84,0.06611705,-0.14216222,9.774410000000001,0.0007340183947235347,0.00036665916559286416,-0.00013705046148970726,-7.647208213806152,24.125036239624023,-37.778770446777344,0.13619211316108704,0.7346298098564148,0.02042102813720703,988.4354248046876,0,13.0,1,1
11.88,0.061315715,-0.14454491,9.753103,-6.472168024629354e-05,0.00036662557977251714,-0.0005364351090975107,-7.243228435516357,24.29304313659668,-38.54370880126953,0.14495597779750824,0.7209697961807251,0.04436016082763672,988.4453735351562,0,13.0,1,1
11.92,0.063684046,-0.14216115,9.753101,6.864382885396479e-05,0.0007660656701773405,-0.00013687246246263385,-7.247251033782959,23.92033195495605,-38.213340759277344,0.13472765684127808,0.7312467098236084,0.020943641662597656,988.4376220703124,0,13.0,1,1
11.96,0.058882712999999996,-0.15646027,9.767303,-0.00046378024853765965,0.00023340017651207745,-0.0006694151670671999,-7.5122575759887695,24.673078536987305,-38.216552734375,0.1432291567325592,0.7271310687065125,0.01647663116455078,988.44287109375,0,13.0,1,1
12.0,0.06603089,-0.15169318,9.772036,-0.0005967305041849612,0.0002333664742764085,0.0010617268271744251,-7.327227115631103,24.37184715270996,-37.61156463623047,0.1283632069826126,0.7229018807411194,0.0167388916015625,988.44287109375,0,13.0,1,1
12.04,0.061229527,-0.14930935,9.772033,-0.00033020705450326204,-0.0002992990193888545,-0.0001366055221296847,-7.09170389175415,23.539106369018555,-38.06103897094727,0.14175404608249664,0.7238480448722839,0.02645397186279297,988.4276733398438,0,13.0,1,1
12.08,0.08749694,-0.14692564,9.764928999999999,0.0003357901005074382,0.00010014112922362983,-3.3586984500288963e-06,-7.336519718170166,23.83679008483887,-38.27168273925781,0.11752375960350035,0.7150525450706482,0.03143119812011719,988.4251098632812,0,13.0,1,1
12.12,0.07074609400000001,-0.16837449999999998,9.76256,-0.00019663397688418627,-0.0009651561267673967,0.00012988821254111826,-7.171542167663574,24.096532821655273,-38.15834045410156,0.12642686069011688,0.7443206310272217,0.03641796112060547,988.4351806640624,0,13.0,1,1
12.16,0.08028412,-0.13977472,9.772027,-0.0007290581706911325,-3.30842740368098e-05,0.00039629312232136726,-7.584379196166992,24.13152885437012,-38.327720642089844,0.11666178703308105,0.6976971626281738,0.008231163024902344,988.4453735351562,0,13.0,1,1
12.2,0.075482786,-0.1493072,9.772025,0.0007358867442235352,-0.0004325917107053101,0.0001300661533605307,-7.471034049987793,24.026803970336914,-38.10810852050781,0.1254364401102066,0.7177962064743042,0.02266407012939453,988.422607421875,0,13.0,1,1
12.24,0.06351176,-0.15407331,9.781492,7.030460983514786e-05,0.0006326381117105483,0.0005296289455145596,-6.970450878143311,24.07388114929199,-37.80307388305664,0.13427269458770752,0.6995410919189453,0.013434410095214844,988.44287109375,0,13.0,1,1
12.28,0.06827003,-0.15645607,9.753083,0.00027264701202511793,-0.0003895150730386376,-0.00024953961838036776,-6.83745813369751,23.88239479064941,-37.889347076416016,0.12868961691856384,0.6912150979042053,0.04205989837646485,988.4278564453124,0,13.0,1,1
12.32,0.07063842,-0.15407224,9.753081,0.0006723285187035799,0.0006757147493772209,0.0006826549069955945,-6.918138027191162,24.175981521606445,-38.50996780395508,0.1184799075126648,0.6827858686447144,0.04227924346923828,988.4378051757812,0,13.0,1,1
12.36,0.07061684,-0.1540717,9.774385,-0.00012641155626624825,-0.00025642450782470405,1.6954145394265652e-05,-6.7170467376708975,24.1533260345459,-38.15470886230469,0.12258540093898773,0.7075061202049255,-0.00010204315185546876,988.4451904296876,0,13.0,1,1
12.4,0.07613915,-0.14932336,9.776819,-0.00012620398774743077,9.857641998678448e-06,0.0004165169666521251,-6.958275318145753,24.08566856384277,-38.42151641845703,0.11710862815380095,0.6895156502723694,0.02852344512939453,988.397705078125,0,13.0,1,1
12.44,0.0817081,-0.16840889,9.774525,-0.00012620398774743077,9.857641998678448e-06,0.0004165169666521251,-7.646665096282959,23.756746292114254,-37.68031311035156,0.11471161246299745,0.6860283017158508,0.01912403106689453,988.397705078125,0,13.0,1,1
12.48,0.07457903,-0.15887685,9.772161500000001,0.00040663534309715027,0.00040929781971499324,-0.00011602579616010188,-7.520846366882324,24.29594612121582,-37.65426635742188,0.1142670512199402,0.6916050314903259,0.01934146881103516,988.4175415039062,0,13.0,1,1
12.52,0.07461962,-0.14457811,9.757961,-0.0002686046063899994,1.4478398952633142e-05,-0.0001249276101589203,-7.542719841003418,24.22331047058105,-38.49347686767578,0.12311303615570067,0.6782355904579163,0.0242919921875,988.4479370117188,0,13.0,1,1
12.56,0.072270334,-0.15649553,9.767435,0.0007962672971189022,-0.00011861594975925982,0.0001412204001098871,-7.300650596618652,24.55482292175293,-37.70335006713867,0.1221463680267334,0.6746885776519775,0.029229164123535163,988.43017578125,0,13.0,1,1
12.6,0.06275135,-0.1588798,9.767439,-0.0005357034970074892,0.0005472372868098319,-0.00025842117611318827,-7.201706409454347,24.27890968322754,-38.01039123535156,0.126011922955513,0.6805940866470337,0.015232086181640625,988.4378051757812,0,13.0,1,1
12.64,0.072351575,-0.16126402,9.786381,0.0003960106987506151,-0.00011848885333165525,-0.00012543099001049995,-7.090289115905763,24.64692497253418,-38.51099395751953,0.1157163232564926,0.6674993634223938,0.015427589416503906,988.4404907226562,0,13.0,1,1
12.68,0.07000229,-0.14934875,9.776914999999999,-3.854394890367985e-06,0.0006805223529227077,-0.00012559874448925257,-7.451386451721191,23.940038681030273,-38.41399002075195,0.11978450417518614,0.6685097217559814,0.025104522705078125,988.4152221679688,0,13.0,1,1
12.72,0.06526306,-0.1398166,9.774550999999999,0.00012891192454844713,-0.00038467766717076296,-0.0005252403207123281,-7.255266189575195,24.38717460632324,-38.62434387207031,0.11891837418079375,0.6412935853004456,0.02529144287109375,988.4152221679688,0,13.0,1,1
12.76,0.07247341,-0.13981758,9.769821,0.0002616783604025841,0.0005474915378727019,-0.0007917239563539624,-7.535247802734375,24.1247615814209,-38.18092346191406,0.11343316733837128,0.6422412395477295,0.02076244354248047,988.4251098632812,0,13.0,1,1
12.8,0.07968372,-0.15411825,9.774559,-0.0004045024979859591,0.0002812391612678766,0.00014021387323737144,-7.016538143157959,24.08359718322754,-38.10447692871094,0.11305901408195496,0.6480196714401245,0.020956993103027344,988.4276123046876,0,13.0,1,1
12.84,0.07733440400000001,-0.15173592,9.760358,-0.00027173606213182206,1.4986784663051367e-05,-0.00012626976240426302,-7.022083282470702,23.70941734313965,-37.69680786132813,0.11221419274806976,0.6396825313568115,0.04482364654541016,988.435302734375,0,13.0,1,1
12.88,0.07259524,-0.1493537,9.772198,-0.00027251895517110825,0.0002814297913573683,0.0002728684921748936,-6.908164978027344,24.44866752624512,-38.450477600097656,0.12571261823177338,0.6455320715904236,0.02608203887939453,988.4129638671876,0,13.0,1,1
12.92,0.08697522,-0.15650447,9.762733,-6.59446232020855e-06,0.0005478091188706458,0.00027270082500763243,-7.0656700134277335,24.090368270874023,-38.25127410888672,0.0963977724313736,0.6468173265457153,0.01679515838623047,988.435302734375,0,13.0,1,1
12.96,0.07267648,-0.14458908,9.779307000000001,0.0006588035030290483,1.5240977518260479e-05,-0.0001269408385269344,-7.505084037780763,23.9423885345459,-38.3288688659668,0.11964578926563264,0.6387332677841187,0.007498741149902344,988.4378051757812,0,13.0,1,1
13.0,0.077496886,-0.15888979,9.776944,-0.00014053541235625744,1.5304482076317072e-05,0.00013920734636485577,-7.389237880706787,24.208898544311523,-38.36231994628906,0.1047935038805008,0.6354846954345703,0.03133583068847656,988.4253540039062,0,13.0,1,1
13.04,0.07753748,-0.15650745,9.78405,0.00025854713749140496,-0.00011778983753174543,-0.0001272762892767787,-7.640822410583496,24.76306343078613,-37.66311264038086,0.10881945490837096,0.6320710182189941,0.03151226043701172,988.4102172851562,0,13.0,1,1
13.08,0.079967976,-0.15412523,9.772217,0.0003913134569302201,0.0002817473723553121,-0.00026060198433697224,-7.907105922698975,24.5139102935791,-37.915443420410156,0.09841242432594301,0.6222431659698486,0.017564773559570312,988.4177856445312,0,13.0,1,1
13.12,0.06805909,-0.14697637,9.750916,0.0005240798927843572,-0.00025082071078941226,5.546084139496088e-06,-7.4092912673950195,24.769872665405273,-38.85395812988281,0.09332910180091858,0.6109148859977722,0.012920379638671877,988.4228515625,0,13.0,1,1
13.16,0.08960882,-0.15412720000000002,9.772224000000001,0.00025737285614013666,1.555861672386527e-05,0.00027169426903128624,-6.86870813369751,24.801347732543945,-37.93830490112305,0.09281843900680542,0.6312203407287598,0.02729701995849609,988.43798828125,0,13.0,1,1
13.2,0.070530236,-0.15651144,9.769861,-0.0009414399974048137,-0.00025069358525797725,-0.00012794730719178915,-6.982328414916992,24.69423866271973,-36.759765625,0.10651125013828278,0.6182364225387573,0.013266563415527344,988.4253540039062,0,13.0,1,1
13.24,0.072960734,-0.15412916,9.767498,-0.00014288409147411585,0.0012141072656959295,0.0009371484629809855,-7.009203910827638,23.87912940979004,-37.09284973144531,0.11513541638851164,0.6244764924049377,0.03237152099609375,988.4330444335938,0,13.0,1,1
13.28,0.08017105,-0.14936371,9.765135,0.0002561984583735466,0.0005483810673467815,-0.0001282828743569553,-6.93265438079834,24.319181442260746,-36.51451873779297,0.09993705153465272,0.6065600514411926,0.03255176544189453,988.4177856445312,0,13.0,1,1
13.32,0.07065207,-0.14221479,9.769872,-0.0005431404570117593,-0.00011734510189853609,-0.000128450570628047,-7.141217708587647,24.44038200378418,-37.18233489990234,0.10898196697235107,0.5884783267974854,0.013795852661132812,988.45556640625,0,13.0,1,1
13.36,0.07069266,-0.14698239,9.755672,-0.001076163724064827,-0.0005167553899809718,-0.00012861832510679958,-7.2083373069763175,24.64130973815918,-37.79962158203125,0.1178637146949768,0.5993473529815674,0.03763389587402344,988.4227905273438,0,13.0,1,1
13.4,0.064795375,-0.14933826,9.786344999999999,0.00038818200118839735,0.00014909787569195032,4.37186099588871e-06,-6.813925266265869,24.06242179870605,-37.82653045654297,0.1124085932970047,0.5963127613067627,0.018842697143554688,988.4230346679688,0,13.0,1,1
13.44,0.077947795,-0.16837533,9.774399,0.0001297628041356802,-0.0003848157939501107,7.756054401397705e-06,-7.272007942199707,24.37097358703613,-37.77399063110352,0.09517915546894072,0.6074421405792236,0.02867412567138672,988.4127197265624,0,13.0,1,1
13.48,0.07550585,-0.1516911,9.757824000000001,0.001066633383743465,0.00027477578260004515,-0.00024808314628899103,-7.56815767288208,24.936323165893555,-37.45349884033203,0.09452368319034576,0.5852589607238771,0.03356647491455078,988.4329223632812,0,13.0,1,1
13.52,0.07545382,-0.16122295,9.774389,0.0004013451980426908,0.0002746943500824273,0.00015160569455474618,-6.85101842880249,23.97505760192871,-37.89268493652344,0.10364867746829988,0.5915479063987732,0.019522666931152344,988.4403686523438,0,13.0,1,1
13.56,0.0634523,-0.15645511,9.7720175,-0.00026394298765808344,-0.0005243347259238362,-0.000780284870415926,-6.768136024475098,23.420568466186523,-37.94999313354492,0.11271779239177705,0.5977513790130615,0.02441883087158203,988.4278564453124,0,13.0,1,1
13.6,0.07534975,-0.14692067,9.781482,-0.00013028341345489022,-0.0001249423366971314,-0.00024743814719840884,-7.010045051574707,23.61528205871582,-37.616172790527344,0.10731500387191772,0.5850397944450378,0.00563812255859375,988.4378051757812,0,13.0,1,1
13.64,0.06812802,-0.16360237,9.772008,-0.000129781779833138,-0.0002581816806923598,0.0002854085760191083,-7.052790641784668,24.26008033752441,-37.647315979003906,0.10687987506389618,0.5817347168922424,0.02946949005126953,988.4253540039062,0,13.0,1,1
13.68,0.080025434,-0.15883456,9.77437,0.0001370356185361743,8.052738849073648e-06,0.00015246556722559035,-6.717184066772461,24.04741477966309,-37.45563507080078,0.09220407903194427,0.583376407623291,0.02014636993408203,988.4103393554688,0,13.0,1,1
13.72,0.06324410400000001,-0.16121651,9.774366,0.0009364850120618939,-0.0001251865760423243,0.0010847861412912607,-7.187198162078857,23.343751907348636,-37.11107635498047,0.12038925290107727,0.5849548578262329,0.00609588623046875,988.4227905273438,0,13.0,1,1
13.76,0.07514158,-0.16359849999999998,9.774361,4.880828782916069e-06,0.0006736795767210424,-0.0006460520671680571,-7.214425563812256,24.63541984558105,-37.49039840698242,0.09596537053585052,0.5726299881935121,0.025168418884277344,988.422607421875,0,13.0,1,1
13.8,0.08225924,-0.14929761,9.781458,4.880828782916069e-06,0.0006736795767210424,-0.0006460520671680571,-7.478888988494872,25.01986885070801,-37.39515686035156,0.08590544760227202,0.5743041634559631,0.02057933807373047,988.422607421875,0,13.0,1,1
13.84,0.07025769,-0.15644617,9.757781,0.0006209295243024826,-0.0005873481277376412,-0.00010215910151600838,-7.5993003845214835,24.74892997741699,-37.129798889160156,0.10458853840827942,0.5711103081703186,0.03966617584228516,988.4228515625,0,13.0,1,1
13.88,0.07259557,-0.13976197,9.771980000000001,8.879939559847115e-05,0.00021151808323338628,-0.0005014180205762386,-7.176108360290527,24.09211540222168,-37.92642211914063,0.0995514988899231,0.5534204840660095,0.02561473846435547,988.4403076171876,0,13.0,1,1
13.92,0.06298390000000001,-0.15644355,9.7648735,-0.00017701485194265842,-0.00018803717102855444,-0.00036804494448006153,-7.036186695098878,24.17036247253418,-37.79859161376953,0.11342568695545195,0.5648376941680908,0.02575016021728516,988.4102172851562,0,13.0,1,1
13.96,0.074881375,-0.15644229999999998,9.790908,-4.3355277739465243e-05,-0.0005875923670828342,3.164366353303194e-05,-6.997272491455077,24.891340255737305,-37.38487243652344,0.08895395696163177,0.5572260022163391,0.006944656372070313,988.4202880859376,0,13.0,1,1
14.0,0.06765964599999999,-0.14690794,9.771965,9.030418004840611e-05,-5.50420954823494e-05,-0.0002344570821151137,-7.259969711303711,24.276838302612305,-37.69335174560547,0.0978456884622574,0.5539647340774536,0.02603340148925781,988.4201049804688,0,13.0,1,1
14.04,0.07238739999999999,-0.1540565,9.760124000000001,0.0002239637542515993,0.0006106662331148982,-0.0011663477635011075,-6.924363613128662,24.06416893005371,-37.50167083740234,0.10216134786605836,0.5461175441741943,0.04984474182128906,988.4276733398438,0,13.0,1,1
14.08,0.07233533,-0.15167196,9.7743225,-0.000308166490867734,-0.00045467875315807765,-0.0014324488583952188,-7.282524108886719,24.46658134460449,-37.93193054199219,0.09683355689048767,0.5478519797325134,0.021574974060058597,988.4303588867188,0,13.0,1,1
14.12,0.07467320599999999,-0.14690419,9.776686,9.180896449834107e-05,0.00034418742870911956,-0.0005001281388103962,-7.200322151184082,24.17446708679199,-37.38861846923828,0.09678871929645537,0.5403265953063965,0.01695728302001953,988.44287109375,0,13.0,1,1
14.16,0.069841385,-0.15405266,9.767211999999999,0.0007581004174426197,-0.00018852576613426208,3.271852619946003e-05,-7.378561019897461,24.63951301574707,-37.08042526245117,0.09634296596050262,0.5564504265785217,0.04075908660888672,988.422607421875,0,13.0,1,1
14.2,0.06739944,-0.16120122,9.760106,-0.0004393178969621658,-0.000188688631169498,3.3148564398288734e-05,-6.956891059875487,23.98122596740723,-37.79974365234375,0.10053199529647827,0.5535421371459961,0.04088878631591797,988.4099731445312,0,13.0,1,1
14.24,0.060177654000000004,-0.15166683,9.762468,0.0008927630260586739,-5.5612064898014075e-05,-0.0006324261194095017,-7.493290424346924,24.84868049621582,-37.92181396484375,0.10973815619945526,0.5363990664482117,0.045746803283691406,988.425048828125,0,13.0,1,1
14.28,0.07207513,-0.14928223,9.762463,0.0004937908379361033,7.7464384958148e-05,0.00016673648497089744,-7.379402160644531,24.37566947937012,-37.60374450683594,0.09498046338558196,0.5192661285400391,0.03640079498291016,988.422607421875,0,13.0,1,1
14.32,0.0648534,-0.15166427,9.774294,-0.00017149723134934902,-0.0005884066922590138,0.0003001093282364309,-6.984011173248291,24.16654396057129,-37.80640411376953,0.09914928674697876,0.539922297000885,0.02233600616455078,988.422607421875,0,13.0,1,1
14.36,0.07436097,-0.14927976,9.779024,-0.0003041534218937158,0.0006099333986639978,0.0004334823170211166,-7.2810020446777335,24.468053817749023,-38.00923538208008,0.08425642549991608,0.5134249925613403,0.022452354431152344,988.4276733398438,0,13.0,1,1
14.4,0.06656927,-0.15647294,9.769716,0.0003621377982199192,0.000210378086194396,3.4223427064716816e-05,-7.301629066467285,24.18505668640137,-37.52759552001953,0.11036819219589232,0.5249682068824768,0.031882286071777344,988.44287109375,0,13.0,1,1
14.44,0.066589594,-0.14455707,9.762618,0.0004802063340321184,0.0008772684377618134,0.0006958866724744438,-6.715662956237793,24.048887252807614,-37.532936096191406,0.095375195145607,0.5175287723541261,0.04146003723144531,988.4149780273438,0,13.0,1,1
14.48,0.07855934,-0.14455752,9.772088,0.0008752188878133893,0.00034536089515313506,-0.00010497291805222629,-7.0745038986206055,24.713666915893555,-37.362571716308594,0.08985348045825957,0.5053685307502747,0.027365684509277344,988.4149780273438,0,13.0,1,1
14.52,0.06902003,-0.15170793,9.762622,0.0004755493719130755,-0.0001872392022050917,0.000294417142868042,-7.166135311126709,24.364805221557614,-37.86692810058594,0.08981901407241821,0.5263291597366333,0.03693866729736328,988.43017578125,0,13.0,1,1
14.56,0.06904036,-0.13502546,9.76499,-0.0003235935000702739,-0.0011193130630999806,2.801755908876657e-05,-7.7918033599853525,25.14871025085449,-38.047340393066406,0.09401164948940276,0.4951950311660767,0.032306671142578125,988.43505859375,0,13.0,1,1
14.6,0.06667071599999999,-0.15409212,9.764992,-0.0004569470183923841,0.0007449299446307122,-0.00010522420052438974,-7.440028667449951,24.10827445983887,-37.73272705078125,0.0885695070028305,0.5111714005470276,0.041896820068359375,988.4324951171876,0,13.0,1,1
14.64,0.07864052,-0.14932607,9.769728,-5.766889080405235e-05,0.0011444354895502329,0.00029416580218821764,-7.278095722198486,24.365079879760746,-37.46476745605469,0.08762206137180327,0.4984845519065857,0.03255653381347656,988.442626953125,0,13.0,1,1
14.68,0.078660786,-0.15170981,9.764996,0.000341609469614923,7.920368807390332e-05,0.0004272399237379432,-7.2659196853637695,24.376863479614254,-38.08320617675781,0.08245733380317688,0.5007328987121582,0.04685401916503906,988.4149780273438,0,13.0,1,1
14.72,0.07868105,-0.14932708,9.767365,0.0004745719488710165,-0.0001870804699137807,-0.00010547565761953592,-7.057899475097656,24.623952865600586,-37.51385116577149,0.08655260503292084,0.5028814077377319,0.013815879821777344,988.4526977539062,0,13.0,1,1
14.76,0.06914174599999999,-0.16362728,9.753163,-0.0007240450941026211,-0.00032020668732002383,-0.0007713490631431341,-7.218991279602051,24.63100242614746,-37.25848388671875,0.08652065694332123,0.5093325972557068,0.05179882049560547,988.4200439453124,0,13.0,1,1
14.8,0.07155195,-0.14932813,9.776836999999999,-5.845096893608571e-05,-5.385908298194408e-05,2.7514644898474213e-05,-7.008224964141847,24.2488956451416,-37.26860809326172,0.09067833423614502,0.4924814701080322,0.018754959106445312,988.4273681640624,0,13.0,1,1
14.84,0.076352,-0.14694531,9.760269000000001,0.0007403013296425343,-0.00045330109423957765,0.00042690473492257297,-7.566635608673097,24.93779563903809,-37.53080368041992,0.08542166650295258,0.4850720763206482,0.05199432373046875,988.4326171875,0,13.0,1,1
14.88,0.064422786,-0.16362871,9.757902,0.00020747398957610133,-0.0005864273407496513,-0.0002389687579125166,-7.269644737243652,24.636293411254886,-37.327972412109375,0.09481564164161682,0.5059958100318909,0.03789234161376953,988.4248657226562,0,13.0,1,1
14.92,0.08117241,-0.15171285,9.760271000000001,-0.00019219540990889072,-5.3763797041028745e-05,2.7263304218649864e-05,-6.941510677337647,24.52217674255371,-37.44884872436523,0.07538394629955293,0.4891871809959412,0.03324699401855469,988.4425659179688,0,13.0,1,1
14.96,0.07641286,-0.15647991,9.772110000000001,0.0006065568886697293,-0.0005863638361915946,-0.00023913627956062553,-7.004202365875244,24.62160301208496,-37.598968505859375,0.07961830496788025,0.4909932613372803,0.033354759216308594,988.45263671875,0,13.0,1,1
15.0,0.074043274,-0.15409715,9.762642999999999,-0.001124691916629672,-0.00018685826216824355,0.0004265695752110332,-7.556119441986084,24.84219169616699,-37.37286376953125,0.08436629176139833,0.4881373643875122,0.052387237548828125,988.4376831054688,0,13.0,1,1
15.04,0.07167363,-0.15648086,9.774481,-0.001124691916629672,-0.00018685826216824355,0.0004265695752110332,-7.153255939483643,24.534513473510746,-37.26296997070313,0.08379149436950684,0.480828583240509,0.03354167938232422,988.4376831054688,0,13.0,1,1
15.08,0.09320307,-0.1612479,9.774483,7.353397086262703e-05,-0.0004531423910520972,0.00016016990412026644,-7.144261837005615,24.43743705749512,-37.02771759033203,0.06922584772109985,0.4783781170845032,0.024155616760253903,988.3947143554688,0,13.0,1,1
15.12,0.07649401,-0.14694883,9.767384,0.0008722860366106032,-5.363690434023738e-05,2.692814450711012e-05,-6.9655866622924805,24.71043968200684,-37.61012268066406,0.0737943947315216,0.4661433696746826,0.02424526214599609,988.41748046875,0,13.0,1,1
15.16,0.07173449,-0.16124897,9.776854,-0.0001931728329509497,-0.0008525527664460242,0.00016000226605683565,-7.084912300109862,23.702924728393555,-37.147857666015625,0.08272324502468109,0.4734364748001098,0.01959323883056641,988.4651489257812,0,13.0,1,1
15.2,0.07175478,-0.14694984,9.774488,0.00047242129221558565,-0.00018673134036362168,-0.00010639743413776159,-7.4135894775390625,24.18533134460449,-37.12543487548828,0.09194402396678923,0.4661383628845215,0.029146194458007806,988.4322509765624,0,13.0,1,1
15.24,0.064605355,-0.16601647,9.762654,0.0008716994198039174,0.000212774146348238,-0.00010648119496181607,-7.261491775512695,24.27536582946777,-37.61604690551758,0.08686487376689911,0.4773992300033569,0.05291938781738281,988.4446411132812,0,13.0,1,1
15.28,0.07896507,-0.15410058,9.762656,-0.0004600753309205175,-0.0005861416575498879,0.000692382687702775,-7.460762977600098,24.93162727355957,-37.62374114990234,0.08154323697090149,0.4603332281112671,0.03407573699951172,988.4219360351562,0,13.0,1,1
15.32,0.05986613,-0.14933456,9.76976,-0.00047260656720027333,0.00031094776932150126,-0.0005813587340526282,-7.4963340759277335,24.84573173522949,-37.76720428466797,0.09051746129989624,0.4675803780555725,0.03415489196777344,988.4296264648438,0,13.0,1,1
15.36,0.08611256,-0.16601647,9.760287,-0.00033964443719014525,0.00044413743307814,0.00048382100067101414,-7.055834293365479,24.25713539123535,-37.49270629882813,0.07534277439117433,0.4647255539894104,0.048458099365234375,988.4649047851562,0,13.0,1,1
15.4,0.07172680000000001,-0.15171565,9.7721195,0.0004591079778037965,-0.0007542523089796305,8.426344720646739e-05,-7.304672718048097,24.18210792541504,-37.37298202514648,0.08946862816810608,0.4573553800582886,0.029615402221679688,988.4144897460938,0,13.0,1,1
15.44,0.07652184,-0.16363238,9.757916999999999,-0.00047304265899583703,0.0009768083691596985,0.0011495077051222324,-6.843546390533447,23.876501083374023,-37.58013153076172,0.08410058915615083,0.464349091053009,0.04864025115966797,988.4446411132812,0,13.0,1,1
15.48,0.07175726,-0.15171643,9.75555,6.383948493748902e-05,-8.660659659653902e-05,0.000216038606595248,-6.890719890594482,24.62280082702637,-38.07843399047852,0.07871493697166443,0.4472565650939941,0.04399871826171875,988.4498901367188,0,13.0,1,1
15.52,0.07416236400000001,-0.15648334,9.765021,-0.0006022435845807196,0.0007123886607587337,-0.0003167188842780888,-6.9824886322021475,24.168012619018555,-37.88371276855469,0.07802124321460724,0.463675856590271,0.03461933135986328,988.4395751953124,0,13.0,1,1
15.56,0.071787715,-0.16363348,9.767389999999999,-0.00020291644614189863,-0.00035285099875181913,0.0003490079543553293,-7.171244144439697,24.728670120239254,-37.73346328735352,0.08258669078350067,0.4516150951385498,0.07257080078125,988.4470825195312,0,13.0,1,1
15.6,0.07897264,-0.14933427,9.779228,0.0032590432092547412,-0.0015512487152591348,-0.0004500025534071028,-7.039230346679688,24.16741752624512,-37.64398193359375,0.07320374250411987,0.4318231344223023,0.0347137451171875,988.464599609375,0,13.0,1,1
15.64,0.06703833,-0.14933465,9.755557000000001,6.310595199465752e-05,0.0003129863180220127,-0.00031690747709944844,-7.549488544464111,24.479795455932614,-37.5836296081543,0.0960053950548172,0.43746447563171387,0.05851554870605469,988.5078735351562,0,13.0,1,1
15.68,0.08617276,-0.16363461,9.765027,-0.0022007257211953397,0.0009787997696548698,-0.0005832863389514388,-7.560142517089844,24.469484329223636,-37.04249572753906,0.06234486401081085,0.4540061950683594,0.044388771057128906,988.5711669921876,0,13.0,1,1
15.72,0.079018295,-0.13980229,9.781599,-7.034547161310911e-05,-0.0002195978013332933,-0.0003170332056470216,-6.98509693145752,24.903120040893555,-38.00331115722656,0.07169117033481598,0.4282325506210327,0.01603984832763672,988.3458251953124,0,13.0,1,1
15.76,0.07186383,-0.15886883,9.757928999999999,0.002060035243630409,-0.0007522057858295739,0.00021553563419729468,-7.1522765159606925,24.904279708862305,-37.438724517822266,0.08074431121349335,0.4404091835021973,0.035045623779296875,988.3937377929688,0,13.0,1,1
15.8,0.06948912,-0.15886922,9.7745,-0.0014022181276232006,0.0005793975433334707,-0.0001840010518208146,-6.826100826263428,24.050634384155273,-37.20808410644531,0.08504904806613922,0.4280369281768799,0.035132408142089844,988.4924926757812,0,13.0,1,1
15.84,0.07667404400000001,-0.15648635,9.78397,-0.0006034171674400567,-0.00048584220348857343,0.0006148837273940443,-7.006159782409668,23.88207817077637,-37.247459411621094,0.07535359263420105,0.4250856637954712,0.01627826690673828,988.4161987304688,0,13.0,1,1
15.88,0.06712967,-0.1564867,9.762667,-0.0006035639671608807,-0.001284766010940075,0.0007479788037016988,-7.226058006286621,24.25534248352051,-36.77350616455078,0.08000387251377106,0.42252928018569946,0.03528785705566406,988.4440307617188,0,13.0,1,1
15.92,0.06475502,-0.15172048,9.774503999999999,-0.0004705528263002634,-0.00035263661993667483,-5.103176226839423e-05,-6.9466190338134775,24.886045455932614,-37.31537628173828,0.08443684875965117,0.42506051063537603,0.01641559600830078,988.4364624023438,0,13.0,1,1
15.96,0.0767197,-0.14457105,9.769772,0.0007277220720425247,-0.00048577081179246306,-0.00031741050770506263,-7.274210453033447,24.631872177124023,-37.09606170654297,0.07948632538318634,0.4131566286087036,0.05909156799316406,988.4694213867188,0,13.0,1,1
16.0,0.07673493,-0.15410455,9.776875,0.00019494350999593732,-0.00048574697575531905,0.0010141059756278992,-7.253178119659424,24.44066429138184,-36.780174255371094,0.07428665459156036,0.4254435300827025,0.026009559631347656,988.4418334960938,0,13.0,1,1
16.04,0.07436025,-0.14218853,9.757938000000001,-0.00020467687863856554,0.0001800665631890297,-0.00045069417683407664,-6.643135070800781,24.11622428894043,-36.62424087524414,0.08353942632675171,0.40373170375823975,0.049757957458496094,988.4414672851562,0,13.0,1,1
16.08,0.07437551,-0.14933870000000002,9.774509,-7.166562136262655e-05,4.693242954090238e-05,0.00034819063148461277,-6.808517932891847,24.33068656921387,-37.535118103027344,0.0735090970993042,0.4156874418258667,0.016684532165527344,988.4288940429688,0,13.0,1,1
16.12,0.069610894,-0.14933912,9.774511,-0.000338128418661654,4.695623647421598e-05,-0.00018450402421876788,-6.9626808166503915,24.60746955871582,-37.065650939941406,0.07788753509521484,0.4035318493843079,0.016759872436523438,988.4237060546876,0,13.0,1,1
16.16,0.07440594,-0.15887256,9.781614,-0.001403538277372718,-0.00021933583775535226,0.0006143806967884303,-7.412610530853271,24.55509757995605,-37.30119323730469,0.07260410487651825,0.41510266065597534,0.026304244995117188,988.4339599609376,1,1.0,2,2
16.2,0.07442117,-0.14933981,9.769779,-0.00047157972585409885,-0.0002193119726143777,0.0003480019513517618,-6.903032779693604,24.50509452819824,-36.76091766357422,0.07238195836544037,0.4078857898712158,0.0405731201171875,988.4339599609376,1,1.0,2,2
16.24,0.076826274,-0.13980709,9.76268,-7.225247099995613e-05,-0.0006187620456330477,-5.153467645868659e-05,-6.873411655426025,24.69101142883301,-37.0073127746582,0.07242429256439209,0.3866878747940064,0.04536056518554688,988.4515991210938,1,1.0,2,2
16.28,0.0840112,-0.15649046,9.77215,0.0005933903157711028,-0.0011513698846101759,8.156028343364596e-05,-6.906076431274414,24.50214958190918,-36.60630798339844,0.06267428398132324,0.413038432598114,0.02648162841796875,988.456298828125,1,1.0,2,2
16.32,-0.0043999553,-0.015877381,9.760315,-0.0010046516545116901,4.707532934844494e-05,-0.001116923987865448,-6.952164173126222,24.51186180114746,-36.90770721435547,0.07173646986484528,0.3964415490627289,0.04548263549804688,988.4288940429688,1,1.0,2,2
16.36,-0.21338226,-0.13263203,9.779156,-0.0010046516545116901,4.707532934844494e-05,-0.001116923987865448,-7.136789798736572,24.33888816833496,-36.71516799926758,0.495369166135788,0.0485452264547348,0.026680946350097656,988.4288940429688,1,1.0,2,2
16.4,0.22394186,-0.20889623,9.788622,-0.001403121743351221,4.398816963657737e-05,-0.09871760010719301,-7.269782066345215,24.53037452697754,-36.6288948059082,-0.16036181151866913,0.539063036441803,0.041029930114746094,988.4310913085938,1,1.0,2,2
16.44,0.35535859999999997,-0.5926034,10.934345,-0.001403121743351221,4.398816963657737e-05,-0.09871760010719301,-7.22021484375,25.26166343688965,-36.756309509277344,-0.017330288887023926,0.5501595735549927,-1.0279397964477541,988.4310913085938,1,1.0,2,2
16.48,-0.20151648,-0.022999092999999998,8.706805000000001,-0.02576568908989429,-0.00794635433703661,-0.006436854600906372,-7.1093711853027335,24.785703659057614,-36.28363037109375,0.15843936800956726,0.4751018881797791,1.8675699234008791,988.4082641601562,1,1.0,2,2
16.52,-0.14657664,-0.18744464,11.095310000000001,-0.1971396952867508,0.2401268482208252,-0.03293517231941223,-6.819714069366455,24.68866539001465,-37.092430114746094,0.21807685494422915,-0.2753286957740784,-1.5163373947143557,988.3624877929688,1,1.0,2,2
16.56,0.41741228,-1.7937738,8.465345,-0.6143231987953186,-0.027920134365558624,0.18344660103321075,-7.243151664733888,26.34590721130371,-35.969390869140625,-0.30614835023880005,0.7545987367630005,0.7657489776611328,988.390380859375,1,1.0,2,2
16.6,0.694613,-1.2241695,10.444324,-0.7840993404388428,0.028006162494421002,-0.1378634124994278,-6.784770488739014,26.669492721557614,-35.59705352783203,-0.6787415146827698,0.6145755052566528,-0.7329549789428711,988.39794921875,1,1.0,2,2
16.64,-0.64376,-1.6364758999999998,10.366203,-1.0713207721710205,0.08646246790885925,-0.13719750940799713,-6.881297111511231,28.84328269958496,-34.09270477294922,0.4686714112758637,-0.5297003388404846,0.24264812469482425,988.4332275390624,1,1.0,2,2
16.68,-0.18253684,-2.244211,9.211006,-1.1657294034957886,-0.4182062447071075,0.458151787519455,-7.0860595703125,30.757925033569336,-32.941436767578125,0.25036558508872986,0.3840066194534302,0.045978546142578125,988.4332275390624,1,1.0,2,2
16.72,-0.29011035,-2.299026,8.955345,-1.0193885564804075,0.08433183282613754,0.2425691783428192,-6.546700477600098,31.42006492614746,-31.52360534667969,-0.004291921854019165,0.10891461372375487,0.7347450256347656,988.4205932617188,1,1.0,2,2
16.76,-0.784848,-2.4825377,9.407478999999999,-0.7184513807296753,0.938007354736328,-0.09059185534715652,-5.225552558898926,31.76103782653809,-30.74634552001953,0.027425199747085568,-0.3726038932800293,0.12050151824951172,988.3828735351562,1,1.0,2,2
16.8,-0.89959115,-3.2380362000000003,8.5363455,-0.9565374851226808,0.3883313536643982,-0.04425278678536415,-4.926443576812744,32.72528076171875,-29.771080017089844,0.5791233777999878,0.6398420333862305,0.1876697540283203,988.4508056640624,1,1.0,2,2
16.84,-0.81597245,-4.0412,5.399801,-0.7107273936271667,0.4173596501350403,-0.3743510842323303,-5.502223014831543,35.29291534423828,-27.83100128173828,0.6909205317497253,-0.9545822143554688,6.560691356658936,988.468505859375,1,1.0,2,2
16.88,1.6933966,-3.7766557,12.200769000000001,-0.4697113037109375,-1.9069122076034544,-0.6981911659240723,-8.820274353027344,35.45219421386719,-27.71394348144531,-1.5300261974334717,1.2138009071350098,-5.123419761657715,988.455810546875,1,1.0,2,2
16.92,0.6872199999999999,-3.483512,8.446385000000001,-0.11045092344284058,-1.5236836671829224,-0.3537113666534424,-10.588422775268556,35.37617492675781,-26.3592529296875,-0.10110348463058473,0.10311627388000487,-0.212799072265625,988.4306640625,1,1.0,2,2
16.96,0.2235511,-4.3438745,7.9327,-1.25068199634552,2.303009033203125,-0.4980544745922089,-9.853240966796877,35.85331726074219,-25.576648712158203,0.2826249599456787,0.6084043979644775,1.0003604888916016,988.4530029296876,1,1.0,2,2
17.0,0.07295939,-4.484487000000001,8.915086,-0.6789015531539917,-0.055617500096559525,-0.19631847739219666,-9.471685409545898,35.5250244140625,-24.384485244750977,-0.0641915425658226,0.4166955947875977,-0.13967418670654294,988.4935913085938,1,1.0,2,2
17.04,0.111169875,-4.751414,8.133905,-0.6840944886207581,-0.015004380606114863,0.054284900426864624,-9.61085033416748,37.237266540527344,-22.53862380981445,0.044006600975990295,0.3871903419494629,0.7017402648925781,988.4806518554688,1,1.0,2,2
17.08,0.051394432999999996,-4.751412999999999,8.829862,-0.5164483785629272,-0.010343896225094795,0.02139499969780445,-9.615415573120117,37.23284912109375,-22.30670928955078,0.054288335144519806,0.3133988380432129,0.04467296600341797,988.4756469726562,1,1.0,2,2
17.12,0.24255866,-4.9349245999999996,8.559998,-0.3474707305431366,-0.021396050229668617,0.036441963165998466,-9.44543743133545,38.23506927490234,-22.699481964111328,-0.031246446073055267,0.2556476593017578,-0.08078765869140625,988.468017578125,1,1.0,2,2
17.16,0.40504408,-5.290033,7.8332644,-0.6781015992164612,-0.03630978241562843,0.060011036694049835,-9.349376678466797,38.48243713378906,-21.727962493896484,-0.3323420286178589,0.3254814147949219,0.4412326812744141,988.4856567382812,1,1.0,2,2
17.2,0.22338367,-5.3877463,7.608378,-0.6408170461654663,-0.23045410215854645,0.3765275776386261,-8.709414482116701,38.976051330566406,-21.393558502197266,-0.038729891180992126,0.3632745742797852,1.1414022445678709,988.4526977539062,1,1.0,2,2
17.24,-0.2833035,-5.2113833,9.061836,-0.01830346882343292,-0.3697373569011688,0.5913113355636597,-8.080787658691406,39.72173309326172,-19.917388916015625,0.14381413161754608,0.4238147735595703,0.32010841369628906,988.4448852539062,1,1.0,2,2
17.28,-0.4816933,-3.3262089999999995,9.937698,0.26252689957618713,-0.2327178567647934,0.521936297416687,-7.696018695831299,40.71456146240234,-20.65064811706543,0.3670361340045929,-1.102696180343628,-3.315513610839844,988.5260009765624,1,1.0,2,2
17.32,-0.35505640000000005,-4.760942,9.639429,0.7749189734458923,1.6348222494125366,-0.002705896040424705,-6.544734477996826,39.738929748535156,-22.00271797180176,-0.33236730098724365,-0.19282197952270508,1.3472723960876465,988.6295166015624,1,1.0,2,2
17.36,-2.3291432999999997,-4.796691,10.851435,1.1014224290847778,0.317091166973114,-0.0763421282172203,-6.155454635620117,39.103607177734375,-23.71918487548828,1.316359281539917,1.1676723957061768,-3.028248786926269,988.5740356445312,1,1.0,2,2
17.4,-1.2680546999999998,-3.2952247000000003,10.19335,1.9576281309127808,0.8915345668792725,-0.19511890411376956,-6.050254821777344,35.780296325683594,-27.236183166503906,0.7455199360847473,0.8556582927703857,-0.6067466735839844,988.652099609375,1,1.0,2,2
17.44,-1.1581471,-2.3824282,9.388498,2.1087627410888667,-0.2554880678653717,0.6092883348464966,-5.557763576507568,34.24135589599609,-29.91647720336914,0.1814650297164917,0.052866458892822266,-0.2080221176147461,988.5685424804688,1,1.0,2,2
17.48,-0.8833363000000001,-0.0158322,11.104716999999999,1.4307228326797483,-0.7925140857696533,0.8464426994323729,-5.726946830749513,32.662376403808594,-32.64643096923828,0.8118029832839966,-2.602791309356689,-0.9283571243286132,988.575927734375,1,1.0,2,2
17.52,-0.6276446999999999,-2.203681,10.664415,1.0127402544021606,-1.544456958770752,0.2682710886001587,-6.4974541664123535,31.098913192749023,-33.89891815185547,0.9289725422859192,1.0378533601760864,-1.3661823272705078,988.4898071289062,1,1.0,2,2
17.56,-0.18772371,-1.4934686000000001,12.875399,1.40129554271698,-1.6600381135940552,0.0227279644459486,-9.628868103027344,29.43178367614746,-34.70454788208008,1.2612468004226685,0.2675257921218872,-2.742312431335449,988.5277709960938,1,1.0,2,2
17.6,0.47446835,-1.4624907,11.96641,1.146830439567566,-1.0963804721832275,0.0894399955868721,-11.958984375,27.250810623168945,-35.75755310058594,0.7936516404151917,1.2285935878753662,-2.690983772277832,988.4970703125,1,1.0,2,2
17.64,0.00842309,-0.6640919,9.142336,1.2233905792236328,0.36968743801116943,0.2606810033321381,-12.696123123168945,26.034143447875977,-36.18864440917969,0.16871923208236694,0.6976378560066223,0.3047809600830078,988.4365844726562,1,1.0,2,2
17.68,0.053816855,-0.2279516,10.695219999999999,1.2233905792236328,0.36968743801116943,0.2606810033321381,-11.188224792480467,24.23432731628418,-38.85617446899414,0.8032248020172119,0.3036567866802216,0.1952648162841797,988.4365844726562,1,1.0,2,2
17.72,0.5389526,-0.6402584,11.417214999999999,0.6890279054641724,-0.3332533836364746,0.3357821702957153,-10.803104400634766,23.12038230895996,-39.54319763183594,-0.18525278568267825,1.1458652019500732,-2.6645421981811523,988.3276977539062,1,1.0,2,2
17.76,0.22825098,0.584747,9.537655,0.6890279054641724,-0.3332533836364746,0.3357821702957153,-10.896417617797852,22.243825912475586,-41.094200134277344,0.1640460640192032,0.2998941242694855,0.7757530212402344,988.3276977539062,1,1.0,2,2
17.8,-0.28798226,-0.14453577,11.142617,0.7477506995201111,0.2361299842596054,0.21074694395065308,-8.913373947143555,21.204099655151367,-42.41672134399414,-0.5180552005767822,-0.08636310696601868,-1.5172281265258791,988.4487915039062,1,1.0,2,2
17.84,-1.1435816,-1.1216796999999998,10.306993499999999,-0.3920810520648956,1.3975335359573364,0.2991638779640198,-6.772365093231201,21.6810359954834,-42.389625549316406,1.0520843267440796,2.023845672607422,-0.8987417221069336,988.3904418945312,1,1.0,2,2
17.88,-0.5293911,-0.01345475,10.981645,-0.02802710421383381,0.675417959690094,-0.0728793740272522,-6.529369831085205,20.74974250793457,-42.52655029296875,0.142307311296463,0.5128806233406067,-0.17513751983642578,988.41064453125,1,1.0,2,2
17.92,-0.70864815,-0.12785183,11.315418,0.7058064341545105,0.036925625056028366,-0.05570194125175476,-5.894730567932129,19.448450088500977,-43.93391418457031,0.05001646280288696,1.375661849975586,-2.63637638092041,988.4055786132812,1,1.0,2,2
17.96,-0.063389,1.0733207,8.640479,0.19474638998508453,0.44731834530830383,0.19356979429721832,-4.30775785446167,18.880224227905273,-44.45315551757813,-1.410434007644653,0.7701588869094849,1.355682373046875,988.3701782226562,1,1.0,2,2
18.0,-1.6622479,1.5118444,7.703065400000001,0.8777136206626892,0.9587780237197876,0.3018272817134857,-2.487762451171875,17.108015060424805,-45.168800354003906,0.4967886209487915,-0.01460254192352295,1.9691648483276367,988.4309692382812,1,1.0,2,2
18.04,-2.1784809,0.6800807,8.820383,1.2031518220901491,0.5430588722229004,-0.051307547837495804,-1.3647699356079102,14.20945930480957,-46.40399169921875,0.9498709440231324,1.3247909545898438,0.7726659774780273,988.3773803710938,1,1.0,2,2
18.08,-2.4676735,0.18912566,10.683371000000001,1.0526834726333618,0.017351310700178146,-0.4919270575046539,-2.1008224487304688,12.25621223449707,-46.63817596435547,2.323390007019043,2.553412437438965,-0.730804443359375,988.3621826171876,1,1.0,2,2
18.12,-0.029987901,2.6486695,10.067897,1.275989294052124,-1.09957754611969,-0.4756817817687988,-4.528635025024414,10.140783309936523,-46.06330108642578,-0.3156245946884155,0.69754958152771,-0.2757139205932617,988.3519897460938,1,1.0,2,2
18.16,0.10622212,1.8264387,10.796992999999999,0.5265767574310303,0.587134063243866,0.6371192932128906,-3.390017032623291,6.782745361328125,-47.274009704589844,-0.7303067445755005,1.4874937534332275,-2.4424524307250977,988.3593139648438,1,1.0,2,2
18.2,-1.6742692,2.4627745,9.009755,1.1083439588546753,0.3258781731128693,0.06187700107693672,-2.794130802154541,5.286699295043945,-47.971153259277344,0.3260228633880615,0.8809309005737305,0.21137142181396484,988.3817749023438,1,1.0,2,2
18.24,-1.5022106000000002,2.4723077,9.613389999999999,1.3998267650604248,-0.1897093802690506,-0.3699541389942169,-3.434284210205078,3.05459976196289,-48.35777282714844,1.0280101299285889,2.0286450386047363,-0.804142951965332,988.3920288085938,1,1.0,2,2
18.28,-0.7135574,3.3231387000000003,10.243065,0.8039451837539673,0.2298712581396103,0.18571399152278897,-3.10854434967041,1.4629049301147459,-47.852928161621094,-0.15423256158828735,0.9675726890563964,-0.8653631210327148,988.3360595703124,1,1.0,2,2
18.32,0.08226555599999999,3.2826233,12.809111,0.13203038275241852,0.7944609522819519,0.4790610074996948,-1.260396957397461,1.507709503173828,-47.98637390136719,-0.7549821138381958,1.0963382720947266,-3.494175910949707,988.3867797851562,1,1.0,2,2
18.36,1.2843719,5.079616000000001,10.612345,1.0132696628570557,0.5751497745513916,0.4882489442825317,0.057354927062988274,-0.41896629333496094,-48.23066711425781,-2.6211628913879395,-0.20822954177856445,-3.6926860809326167,988.4702758789062,1,1.0,2,2
18.4,-1.1342232,3.4661364999999997,8.020258,3.033009529113769,0.13998958468437195,-0.27035173773765564,0.04156208038330078,-5.649137496948242,-47.6142578125,-0.5351955890655518,2.8550124168396,-0.7747225761413574,988.3888549804688,1,1.0,2,2
18.44,-1.3134803,4.9080205,5.991564299999999,3.5206339359283447,-0.18957635760307312,-0.9731592535972596,-0.3285369873046875,-11.42237377166748,-45.98766326904297,-0.004593253135681152,2.7064013481140137,0.4947667121887207,988.3026733398438,1,1.0,2,2
18.48,-1.0768944,6.249806400000001,5.174878,2.863100290298462,0.281669557094574,-0.5924607515335083,0.6692790985107422,-17.126724243164062,-43.88302612304688,-0.9859539270401,1.5255160331726074,0.2085275650024414,988.2799072265624,1,1.0,2,2
18.52,-2.0185301,6.2235904,3.7237812999999993,2.2957143783569336,0.5622333288192749,-0.5691579580307007,1.7953081130981443,-20.814289093017575,-42.37806701660156,-0.7724415063858032,1.346703052520752,1.2014009952545166,988.2796630859376,1,1.0,2,2
18.56,-3.5133623999999997,5.8160777,3.6029494,1.515009522438049,0.91909658908844,-0.6907311081886292,3.88348388671875,-24.02233123779297,-41.04943084716797,0.8148267269134521,2.117196559906006,1.0397121906280518,988.2796630859376,1,1.0,2,2
18.6,-2.7582126000000002,6.4571815,4.5592937000000004,1.400891900062561,0.378469318151474,-0.4786033034324646,5.517354965209961,-25.54868507385254,-39.672210693359375,0.7991650104522705,2.486694812774658,-0.17952394485473633,988.3226318359376,1,1.0,2,2
18.64,-1.3458403,7.3270793,3.7497050000000005,1.4556244611740112,0.1839248538017273,-0.09017962962388992,5.600069046020508,-27.42134666442871,-37.95870590209961,-0.9629535675048828,1.194234848022461,-0.3864879608154297,988.266845703125,1,1.0,2,2
18.68,-4.115796,7.6249910000000005,2.6584194,1.7311286926269531,-0.0721379742026329,-0.3877873718738556,5.206275939941406,-29.52935218811035,-36.38895797729492,1.6502237319946291,1.4245567321777344,-0.26357221603393555,988.2085571289062,1,1.0,2,2
18.72,-3.3008992999999993,7.751306,2.6678827000000003,1.3027602434158323,0.33639049530029297,-0.4784677028656006,6.549510955810548,-31.32843589782715,-34.027175903320305,-0.11179304122924803,1.1153368949890137,0.2421271800994873,988.2364501953124,1,1.0,2,2
18.76,-2.6963133999999997,8.690318,3.8041343999999997,0.8257890343666077,-0.05682499706745148,-0.2479710578918457,6.9825096130371085,-33.030746459960945,-32.993492126464844,-0.03389143943786621,0.6056613922119141,-1.0022237300872805,988.2618408203124,1,1.0,2,2
18.8,-1.7451922,8.773734,4.1473737,0.7280516624450684,-0.3846599459648132,-0.09230916947126387,6.7522010803222665,-33.668216705322266,-32.30482864379883,-1.5630663633346558,0.019394874572753903,-2.2613954544067383,988.2841796875,1,1.0,2,2
18.84,-2.76096,8.320914,1.4108819,0.8469622731208801,0.2603570520877838,-0.3323927223682404,6.605319023132324,-35.22846221923828,-31.57502746582031,-0.7839229106903076,0.8475217819213867,-0.29270923137664795,988.3499755859376,1,1.0,2,2
18.88,-2.3451767000000006,8.432929,1.5410726000000001,1.1263282299041748,0.2948448359966278,-0.4342582523822784,7.564252853393555,-36.07006072998047,-29.82592391967773,-0.9457614421844482,0.7228012084960938,-0.1796705722808838,988.3348388671876,1,1.0,2,2
18.92,-0.81808907,9.121698,1.3658941,0.8791881799697876,-0.6897252202033997,-0.5020351409912109,8.840911865234375,-38.03650665283203,-27.98297882080078,-3.31458044052124,-0.1986074447631836,-0.5462769269943237,988.3042602539062,1,1.0,2,2
18.96,-1.6689537,8.814256,0.47108614,0.8791881799697876,-0.6897252202033997,-0.5020351409912109,8.840911865234375,-38.03650665283203,-27.98297882080078,-3.0356154441833496,0.08958244323730469,0.06132203340530396,988.3042602539062,1,1.0,2,2
19.0,-4.4436893,8.135024000000001,1.2143822,0.989976167678833,-0.7493800520896912,-1.1180236339569092,8.851696014404297,-38.71223449707031,-26.32843017578125,0.07717275619506836,0.7311716079711914,-0.6399781107902527,988.3422241210938,1,1.0,2,2
19.04,-4.4031205,8.127875,-0.4758057,0.989976167678833,-0.7493800520896912,-1.1180236339569092,9.609697341918944,-39.00495147705078,-23.81064033508301,-0.6461529731750488,0.29449939727783203,0.39140200614929205,988.3422241210938,1,1.0,2,2
