Timestamp,P,Gx,Gy,Gz,Mx,My,Mz,LiAx,LiAy,LiAz,Ax,Ay,Az,earthAx,earthAy,earthAz,Value,Type
0,988.0451049804688,-3.415814135223627E-4,0.0013151840539649129,6.247963756322861E-5,-6.786136627197266,24.34181785583496,-39.18782043457031,-0.004541553556919098,0.0034714490175247192,0.05618000030517578,0.060377836,-0.13643397,9.7589855,-0.26697305,-2.9694989,9.2935915,0
0,987.9408569335938,0.004176183138042688,0.002975223120301962,-8.001736714504659E-4,-4.50672721862793,29.266996383666992,-37.82566833496094,0.5519557595252991,1.4931325912475586,-0.08826828002929688,0.050747335,-0.13643225,9.775551,-0.6473177,-1.4501805,9.646789,0
0,987.8968505859375,1.8212746363133192E-4,4.451115382835269E-4,-0.0013325128238648176,-4.750319957733154,28.93401527404785,-38.538490295410156,0.5416781902313232,1.510441780090332,-0.07376384735107422,0.048286617,-0.14596356,9.768442,-0.62675047,-1.466485,9.638605,0
0,987.9502563476562,7.154422346502542E-4,-8.763110963627696E-5,-4.001145134679973E-4,-4.2285661697387695,28.895803451538086,-38.61665344238281,0.5268000364303589,1.4894155263900757,-0.0687103271484375,0.06494504,-0.14119525,9.758966,-0.6172581,-1.4559712,9.631238,0
0,987.9422607421875,1.8349324818700552E-4,-2.2089987760409713E-4,-1.3350608060136437E-4,-4.442376136779785,29.274961471557617,-38.451927185058594,0.5309388637542725,1.511061429977417,-0.04468250274658203,0.060094416,-0.14119355,9.766062,-0.6140306,-1.4577333,9.638333,0
0,987.9347534179688,3.173339646309614E-4,1.784631167538464E-4,1.331025268882513E-4,-4.214463233947754,28.434850692749023,-38.514869689941406,0.5441961288452148,1.4997410774230957,-0.07749748229980469,0.0508067,-0.14358349,9.773189,-0.6493915,-1.4470501,9.64483,0
0,987.9473876953125,0.0011169646168127656,0.0015099316369742155,1.3339516590349376E-4,-4.813446998596191,28.295385360717773,-38.41441345214844,0.5328295230865479,1.4975553750991821,-0.08191108703613281,0.046319574,-0.13644083,9.76848,-0.6355483,-1.4441079,9.641298,0
0,987.9595947265625,7.086990517564118E-4,7.156216306611896E-4,-3.9943098090589046E-4,-4.260114669799805,29.182615280151367,-39.090476989746094,0.5265421867370605,1.4850057363510132,-0.0813894271850586,0.05583608,-0.13405655,9.787415,-0.61479944,-1.4478929,9.661275,0
0,987.9595947265625,7.086990517564118E-4,7.156216306611896E-4,-3.9943098090589046E-4,-4.260114669799805,29.182615280151367,-39.090476989746094,0.5308220386505127,1.4887555837631226,-0.07174491882324219,0.051013112,-0.13882203,9.773207,-0.6348234,-1.4410164,9.646653,0
0,987.9595947265625,7.086990517564118E-4,7.156216306611896E-4,-3.9943098090589046E-4,-4.61702823638916,29.374662399291992,-38.19989013671875,0.5252053737640381,1.4677083492279053,-0.06667900085449219,0.06291956,-0.12690456,9.766102,-0.6191197,-1.4279639,9.642324,0
0,987.951904296875,8.422725950367749E-4,0.0012481861049309373,-2.6609492488205433E-4,-4.631972789764404,29.571767807006836,-38.82499694824219,0.5147651433944702,1.489346981048584,-0.066314697265625,0.060486495,-0.14596976,9.761364,-0.60438055,-1.4510919,9.635261,0
0,987.936279296875,4.4321437599137425E-4,-4.829348181374371E-4,-5.32232690602541E-4,-4.168238162994385,28.53105354309082,-38.91254425048828,0.5327675342559814,1.4822278022766113,-0.08011817932128906,0.05088377,-0.13405229,9.77793,-0.63162607,-1.4306244,9.653126,0
0,987.9766845703125,3.1088764080777764E-4,8.485096041113138E-4,7.553026080131531E-7,-4.867687225341797,28.66602897644043,-38.42774200439453,0.5317635536193848,1.4846560955047607,-0.07025909423828125,0.053230584,-0.14120103,9.7708235,-0.6406054,-1.4291301,9.645673,0
0,987.9312744140625,-2.213285188190639E-4,7.152842590585351E-4,9.334180504083633E-7,-5.007172584533691,29.32582664489746,-38.82977294921875,0.5212223529815674,1.4865741729736328,-0.06980037689208984,0.057967246,-0.1483499,9.780289,-0.6385724,-1.4338813,9.654824,0
0,987.930908203125,-6.203866214491427E-4,1.825850340537727E-4,-3.983622882515192E-4,-5.1691060066223145,29.069028854370117,-39.09773254394531,0.5105487704277039,1.4553236961364746,-0.08830070495605469,0.05792415,-0.13166584,9.777918,-0.64268607,-1.411439,9.655215,0
0,987.9461669921875,4.4529238948598504E-4,1.825176295824349E-4,-5.313419969752431E-4,-4.761378765106201,29.39790916442871,-38.794883728027344,0.5336565375328064,1.476847529411316,-0.06899261474609375,0.050711334,-0.1435812,9.766079,-0.6321856,-1.4263505,9.641854,0
0,987.9686889648438,3.125501680187881E-4,-6.164975347928703E-4,-1.3169017620384693E-4,-4.885377407073975,29.49232292175293,-38.473365783691406,0.5187293291091919,1.4791115522384644,-0.05440521240234375,0.05066818,-0.14358012,9.766075,-0.63724864,-1.4213133,9.6422615,0
0,987.9686889648438,-8.650805102661252E-5,-2.170911175198853E-4,-2.6467000134289265E-4,-4.739367485046387,29.576459884643555,-38.654754638671875,0.5558528900146484,1.4666281938552856,-0.05866050720214844,0.026726067,-0.1364292,9.768436,-0.6528367,-1.4127531,9.644667,0
0,987.9631958007812,-6.187244434840977E-4,7.149471202865243E-4,1.8239952623844147E-6,-4.858119010925293,29.412919998168945,-39.16577911376953,0.516343355178833,1.4689600467681885,-0.06771564483642578,0.055361748,-0.14834453,9.775535,-0.62829536,-1.4235718,9.652195,0
0,987.932861328125,0.001245902618393302,-8.40681022964418E-5,-0.0010632611811161041,-4.80760383605957,29.30171012878418,-38.39720916748047,0.5204938650131226,1.4520504474639893,-0.057847023010253906,0.050538838,-0.13642709,9.773164,-0.63175875,-1.4083077,9.651603,0
0,987.9710083007812,-2.1841918351128697E-4,-4.836094449274242E-4,4.0165407699532807E-4,-4.6570281982421875,29.3902645111084,-38.810516357421875,0.5146661996841431,1.4586695432662964,-0.08578968048095703,0.05288565,-0.13880934,9.775528,-0.6210848,-1.4116203,9.654252,0
0,987.9404907226562,1.8147024093195796E-4,3.1527073588222265E-4,1.3551628217101097E-4,-4.345635414123535,29.259946823120117,-38.081031799316406,0.5327151417732239,1.4322991371154785,-0.08537483215332031,0.033723235,-0.11974205,9.782625,-0.6280017,-1.3943624,9.663157,0
0,987.9631958007812,1.818857272155583E-4,8.478349773213267E-4,-6.632532458752394E-4,-4.3503618240356445,28.729307174682617,-38.97306823730469,0.5220186710357666,1.4626497030258179,-0.056488037109375,0.052799404,-0.13880719,9.76605,-0.60694945,-1.4097875,9.645824,0
0,987.940185546875,-0.0010161201935261488,-4.838118620682508E-4,-3.967591910623014E-4,-4.677516937255859,29.213186264038086,-39.02794647216797,0.5211383104324341,1.4647853374481201,-0.060805320739746094,0.050366342,-0.14118941,9.770781,-0.6209337,-1.404717,9.650485,0
0,987.9552612304688,8.485066355206072E-4,4.8752466682344675E-5,-7.96054839156568E-4,-4.676974296569824,28.844900131225586,-38.92950439453125,0.5201874375343323,1.442914366722107,-0.06036567687988281,0.055103034,-0.1388051,9.763676,-0.61586094,-1.3984532,9.644517,0
1,987.9702758789062,5.826062406413257E-4,-2.1763086260762066E-4,-0.0010621927212923765,-4.345498085021973,29.36586570739746,-38.780113220214844,0.5241669416427612,1.4404281377792358,-0.07891464233398438,0.040720522,-0.12927096,9.77314,-0.614861,-1.3931022,9.654732,0
1,987.9524536132812,0.0013819695450365543,-0.0010166459251195192,-3.962249029427767E-4,-4.651919364929199,29.026395797729492,-38.94398498535156,0.5184076428413391,1.4519206285476685,-0.059535980224609375,0.052626908,-0.14595284,9.766034,-0.61548597,-1.401077,9.64664,0
1,987.942138671875,-8.23522568680346E-5,3.148660762235522E-4,3.4269760362803936E-6,-4.452349662780762,29.00227165222168,-38.51142120361328,0.5122373700141907,1.4251708984375,-0.0685272216796875,0.047803998,-0.13403536,9.780234,-0.61215353,-1.3908888,9.662501,0
1,987.9576416015625,1.8437911057844758E-4,5.811144364997745E-4,-6.621846696361899E-4,-4.206692695617676,28.968435287475586,-37.77745056152344,0.5203628540039062,1.4413224458694458,-0.0775156021118164,0.04059118,-0.13880087,9.792065,-0.611011,-1.3972163,9.67367,0
1,987.942138671875,4.511107108555734E-4,5.810469156131148E-4,-7.951643783599138E-4,-4.464961051940918,28.2524356842041,-37.6187744140625,0.5384690165519714,1.4336298704147339,-0.06285667419433594,0.030988455,-0.14356638,9.76839,-0.6312975,-1.389479,9.64955,0
1,987.9649658203125,1.8521043239161372E-4,4.834769060835242E-5,-9.281443199142814E-4,-4.489580154418945,28.808988571166992,-37.87849426269531,0.49911388754844666,1.4403332471847534,-0.06711673736572266,0.05465406,-0.15071042,9.777838,-0.6053183,-1.3977213,9.659803,0
1,987.9722900390625,5.855548079125583E-4,8.471539476886392E-4,-0.001060929149389267,-4.5009379386901855,28.6407527923584,-38.55976104736328,0.5310611724853516,1.4420218467712402,-0.0571441650390625,0.028314412,-0.14832596,9.770731,-0.6453901,-1.3820688,9.652115,0
1,987.9468994140625,3.835581592284143E-4,3.7639407673850656E-4,-3.543419297784567E-4,-4.940596580505371,29.493196487426758,-38.310935974121094,0.5250751376152039,1.420154333114624,-0.07089805603027344,0.03782326,-0.134025,9.773093,-0.62872857,-1.3685858,9.657352,0
1,987.9520263671875,0.0010498370975255966,7.757884450256824E-4,-6.204480305314064E-4,-4.8235273361206055,29.12904930114746,-38.8465576171875,0.49511995911598206,1.4219428300857544,-0.05148601531982422,0.047332108,-0.14117368,9.76362,-0.5967186,-1.3816205,9.648083,0
1,987.9417724609375,5.724287475459278E-4,1.2165505904704332E-4,1.526622800156474E-4,-4.200360298156738,27.973901748657227,-38.4130859375,0.5177563428878784,1.399885654449463,-0.051011085510253906,0.049671233,-0.11972283,9.758882,-0.58790666,-1.3585429,9.646829,0
1,987.9468994140625,5.729180411435664E-4,-1.1582393199205399E-5,1.9714003428816795E-5,-4.135167598724365,28.245710372924805,-38.516021728515625,0.5262634754180908,1.4252296686172485,-0.06945228576660156,0.03767097,-0.12925477,9.770712,-0.6177944,-1.3575176,9.657144,0
1,987.9569702148438,-7.581720710732043E-4,3.878120915032923E-4,2.862396650016308E-4,-4.579690456390381,28.461599349975586,-38.46015930175781,0.5200205445289612,1.4023433923721313,-0.06412601470947266,0.040010095,-0.1364033,9.773075,-0.6151412,-1.3610322,9.659316,0
1,987.9540405273438,-0.0010239987168461084,9.203642839565873E-4,-5.124981980770826E-4,-4.630887031555176,28.835187911987305,-38.62809753417969,0.49962034821510315,1.4177266359329224,-0.03989124298095703,0.03995934,-0.15070178,9.763601,-0.63057476,-1.3628855,9.648685,0
1,987.926513671875,-7.571936002932489E-4,-1.4497857773676515E-4,-5.122885340824723E-4,-5.091034412384033,29.510549545288086,-38.596710205078125,0.5033790469169617,1.3998926877975464,-0.04409980773925781,0.039908558,-0.13640083,9.768332,-0.6199979,-1.3498142,9.655782,0
1,987.9693603515625,1.754012773744762E-4,-1.190003240481019E-5,5.531846545636654E-4,-4.822983741760254,28.76075553894043,-38.74810791015625,0.48793694376945496,1.401282787322998,-0.038855552673339844,0.051807284,-0.14354946,9.761225,-0.5973379,-1.3579772,9.649035,0
1,987.9591064453125,-7.562150130979717E-4,-1.4513745554722846E-4,1.539203803986311E-4,-4.626863479614258,29.207895278930664,-38.958465576171875,0.4864220917224884,1.3929457664489746,-0.07143974304199219,0.046976686,-0.12924848,9.768322,-0.58806366,-1.3460943,9.65822,0
1,987.9765014648438,4.4269574573263526E-4,0.0010532046435400844,2.8728815959766507E-4,-4.228703498840332,28.789884567260742,-37.917579650878906,0.5040481090545654,1.3897379636764526,-0.061466217041015625,0.04692599,-0.13878043,9.770685,-0.58719814,-1.352702,9.659874,0
1,987.9765014648438,4.4269574573263526E-4,0.0010532046435400844,2.8728815959766507E-4,-4.33400297164917,29.640024185180664,-38.79792022705078,0.5031783580780029,1.3768612146377563,-0.060977935791015625,0.04687521,-0.12447943,9.77068,-0.60505563,-1.3264201,9.662216,0
1,987.9588012695312,4.371110117062926E-5,-1.4529633335769176E-4,2.8749776538461447E-4,-4.832520961761475,29.226125717163086,-39.081809997558594,0.49245622754096985,1.3972028493881226,-0.041518211364746094,0.046824455,-0.14592774,9.756472,-0.5843616,-1.3513381,9.645966,0
1,987.9486694335938,7.099900976754725E-4,-4.116916097700596E-4,-2.449242165312171E-4,-4.25902795791626,28.446035385131836,-38.893577575683594,0.5102545619010925,1.3887985944747925,-0.05990791320800781,0.041993856,-0.13877662,9.770671,-0.6027099,-1.3356318,9.661256,0
1,987.9512329101562,-8.797884220257401E-5,3.870971850119531E-4,2.18111090362072E-5,-4.927334308624268,28.768400192260742,-38.73247528076172,0.499638170003891,1.370976448059082,-0.05465507507324219,0.04433301,-0.13639216,9.763564,-0.61016923,-1.323817,9.655202,0
1,987.968505859375,3.1198427313938737E-4,-5.450878525152802E-4,4.2149447835981846E-4,-4.51892614364624,28.83490562438965,-39.03025817871094,0.4982503652572632,1.386667013168335,-0.04940605163574219,0.04189235,-0.13877411,9.773028,-0.5949268,-1.3315041,9.664691,0
1,987.9658813476562,-2.2015819558873773E-4,2.537802793085575E-4,1.5538826119154692E-4,-4.737302303314209,29.209646224975586,-38.63360595703125,0.5021654963493347,1.3688373565673828,-0.04890155792236328,0.041841567,-0.13877292,9.770657,-0.60228807,-1.323886,9.662884,0
1,987.9635009765625,5.792786250822246E-4,-4.1208878974430263E-4,4.219139227643609E-4,-4.241988182067871,29.09437370300293,-39.319068908691406,0.5051240921020508,1.3776370286941528,-0.048091888427734375,0.04418069,-0.14592148,9.758816,-0.57775307,-1.335232,9.650962,0
2,987.943115234375,-8.602155139669776E-5,-5.4532615467906E-4,6.884395843371749E-4,-4.514497756958008,28.733407974243164,-38.56309509277344,0.48063021898269653,1.3567359447479248,-0.06676101684570312,0.056079447,-0.12685405,9.77775,-0.5779425,-1.31002,9.673337,0
2,987.9760131835938,4.4709950452670455E-4,1.2038409477099776E-4,-5.097722169011831E-4,-4.858257293701172,29.307004928588867,-38.466697692871094,0.4881836473941803,1.3560327291488647,-0.028075218200683594,0.04885894,-0.14115243,9.765908,-0.59515125,-1.3114281,9.660292,0
2,987.9532470703125,-3.513588453643024E-4,-1.4601123984903097E-4,-1.1008873116225004E-4,-4.303731441497803,28.351308822631836,-38.573211669921875,0.48774465918540955,1.3542641401290894,-0.060965538024902344,0.041638523,-0.1316181,9.780107,-0.5829044,-1.3099625,9.675421,0
2,987.9557495117188,1.8176209414377809E-4,5.196990678086877E-4,5.559106357395649E-4,-4.136253356933594,28.982290267944336,-38.712928771972656,0.49034786224365234,1.3628157377243042,-0.060115814208984375,0.036807925,-0.14353321,9.775368,-0.57820433,-1.3207102,9.6696,0
2,987.9532470703125,-6.166962557472289E-4,-4.1248591151088476E-4,-3.7598516792058945E-4,-4.614282131195068,28.74547004699707,-38.77937316894531,0.48965775966644287,1.361015796661377,-0.045645713806152344,0.03675717,-0.14114876,9.768261,-0.59524906,-1.3053488,9.663433,0
2,987.9758911132812,8.485305006615818E-4,5.195401608943939E-4,-5.089334445074201E-4,-4.653440952301025,29.02492332458496,-38.866676330566406,0.4885927438735962,1.3478901386260986,-0.04039955139160156,0.04626602,-0.13638087,9.763523,-0.58443004,-1.2970595,9.660394,0
2,987.9765014648438,3.163881483487785E-4,-8.121186401695013E-4,-1.0924984235316515E-4,-4.231472492218018,28.998769760131836,-39.16112518310547,0.4807922840118408,1.344220519065857,-0.044754981994628906,0.045589685,-0.13642295,9.7613125,-0.5667715,-1.3005688,9.658737,0
2,987.9406127929688,4.295333055779338E-4,-1.1729367543011904E-5,-7.686088792979717E-4,-4.5446624755859375,28.91578483581543,-38.41514587402344,0.46983015537261963,1.3356677293777466,-0.05368328094482422,0.052778423,-0.13642342,9.770782,-0.57283956,-1.2922957,9.669097,0
2,987.96826171875,-3.7575396709144115E-4,-4.1017401963472366E-4,-9.044838370755315E-4,-4.432158470153809,28.547216415405273,-38.718849182128906,0.46343794465065,1.3459781408309937,-0.048371315002441406,0.057577223,-0.13880713,9.775518,-0.56285053,-1.2934202,9.67438,0
2,987.9728393554688,-2.4277949705719948E-4,5.219611921347678E-4,-6.38246419839561E-4,-4.645831108093262,29.032285690307617,-39.253204345703125,0.47198155522346497,1.3324483633041382,-0.04309272766113281,0.057596266,-0.1435742,9.763685,-0.5668946,-1.2903484,9.662666,0
2,987.950439453125,-2.4296273477375507E-4,-8.09588236734271E-4,-1.0569323785603046E-4,-4.516563415527344,29.1002254486084,-38.58423614501953,0.4803725779056549,1.3287657499313354,-0.05205059051513672,0.04566574,-0.13880812,9.768421,-0.57398915,-1.2831345,9.66786,0
2,987.9326782226562,9.552753763273358E-4,-8.095586090348661E-4,2.9370200354605913E-4,-4.257506370544434,28.447511672973633,-38.97088623046875,0.4694189727306366,1.3202635049819946,-0.03258323669433594,0.05285448,-0.13880856,9.751852,-0.55527914,-1.2820508,9.652391,0
2,987.925048828125,-3.76487267203629E-4,2.55734717939049E-4,2.9362342320382595E-4,-4.368243217468262,27.817121505737305,-39.07090759277344,0.45386525988578796,1.316081166267395,-0.05568408966064453,0.060043216,-0.13880904,9.768424,-0.55359954,-1.2778848,9.669826,0
2,987.96044921875,-3.7667062133550644E-4,-2.768673002719879E-4,-1.0592897888273001E-4,-4.604607582092285,28.386022567749023,-39.144752502441406,0.46646997332572937,1.3169623613357544,-0.01724720001220703,0.0505026,-0.1435761,9.76606,-0.57993716,-1.2695248,9.667009,0
2,987.9505004882812,-1.1053797788918018E-4,5.221102037467062E-4,-2.391653833910823E-4,-4.89564847946167,28.587499618530273,-38.957725524902344,0.45530712604522705,1.303312063217163,-0.045073509216308594,0.045741856,-0.13166018,9.768428,-0.5992699,-1.245423,9.671164,0
2,987.9629516601562,-1.1072121560573578E-4,7.884558872319758E-4,2.933876821771264E-4,-5.395092487335205,29.436399459838867,-38.31455993652344,0.46316155791282654,1.3230998516082764,-0.039763450622558594,0.05532044,-0.143577,9.763695,-0.57884395,-1.2583392,9.666176,0
2,987.9554443359375,-1.109045697376132E-4,7.884855731390417E-4,4.26467158831656E-4,-5.107095718383789,29.231977462768555,-38.34697723388672,0.4473748505115509,1.305237054824829,-0.05346488952636719,0.067288995,-0.1340444,9.775534,-0.53540814,-1.2610447,9.68022,0
2,987.9326782226562,0.0012204915983602405,-1.0432384442538023E-5,1.6007263911888003E-4,-4.287670135498047,28.629884719848633,-38.82293701171875,0.4554872214794159,1.3014490604400635,-0.029265403747558594,0.05296856,-0.13166152,9.766066,-0.5580398,-1.2481203,9.670934,0
2,987.9476928710938,1.5504471957683563E-4,-4.0987652027979493E-4,-1.0632176417857409E-4,-4.5771894454956055,28.83283805847168,-38.713218688964844,0.4638516902923584,1.2831687927246094,-0.019260406494140625,0.04820782,-0.13166194,9.7613325,-0.58734035,-1.2311201,9.6665745,0
2,987.9299926757812,4.211773630231619E-4,-4.0984677616506815E-4,1.599156530573964E-4,-5.2871551513671875,29.063413619995117,-38.3863525390625,0.45286720991134644,1.2982808351516724,-0.07079696655273438,0.06256622,-0.1459621,9.7826395,-0.56102514,-1.2512615,9.687355,0
2,987.9453735351562,4.209941253066063E-4,3.89130727853626E-4,4.2615289567038417E-4,-4.973124027252197,29.410249710083008,-38.6090087890625,0.46583688259124756,1.2895349264144897,-0.03711509704589844,0.041076124,-0.13881274,9.766071,-0.574091,-1.2388201,9.671239,0
2,987.93505859375,1.5431165229529142E-4,1.2287433492019773E-4,4.2599585140123963E-4,-4.380526542663574,28.911684036254883,-38.82511901855469,0.439736008644104,1.288023591041565,-0.03153038024902344,0.057824463,-0.1411965,9.763706,-0.5403371,-1.24533,9.670078,0
2,987.93505859375,1.5431165229529142E-4,1.2287433492019773E-4,4.2599585140123963E-4,-4.380526542663574,28.911684036254883,-38.82511901855469,0.45790159702301025,1.2812179327011108,-0.021773338317871094,0.050673783,-0.12928058,9.761341,-0.5611578,-1.2210557,9.6693945,0
2,987.9426879882812,-5.596186965703964E-4,2.4008541367948055E-4,6.637033075094223E-4,-4.829615116119385,29.12315559387207,-38.53733825683594,0.45167475938796997,1.2675992250442505,-0.030691146850585938,0.053082705,-0.13643087,9.770811,-0.55510736,-1.226872,9.678679,0
2,987.9901733398438,1.0598776862025261E-4,-2.6200665161013603E-5,2.6415102183818817E-4,-4.768307685852051,29.128171920776367,-39.00898742675781,0.4500585198402405,1.2920693159103394,-0.0395965576171875,0.060271412,-0.15311427,9.768445,-0.5363852,-1.2445282,9.675384,0
3,987.9573974609375,3.7212041206657887E-4,0.0010390924289822578,-2.685593208298087E-4,-4.45829963684082,29.102293014526367,-38.901275634765625,0.44409799575805664,1.259264588356018,-0.024845123291015625,0.053120732,-0.12928198,9.766079,-0.54128844,-1.2155116,9.67602,0
3,987.9554443359375,-2.7536763809621334E-5,-0.0017571946373209357,-2.322020009160042E-6,-4.432158470153809,28.547216415405273,-38.718849182128906,0.46187999844551086,1.2838844060897827,-0.047989845275878906,0.043580115,-0.15073197,9.777918,-0.5600645,-1.2295811,9.6853895,0
3,987.9554443359375,-2.7536763809621334E-5,-0.0017571946373209357,-2.322020009160042E-6,-4.64154052734375,28.824872970581055,-38.08695983886719,0.44116902351379395,1.2555036544799805,-0.03318214416503906,0.06271833,-0.13643278,9.770818,-0.5448146,-1.2086537,9.68162,0
3,987.9630126953125,-0.0010931668803095818,1.0707607725635171E-4,-1.356370048597455E-4,-4.585204124450684,29.2996768951416,-39.12422180175781,0.44390133023262024,1.2397679090499878,-0.04657268524169922,0.05556768,-0.13166668,9.775555,-0.537605,-1.2054574,9.687091,0
3,987.9630126953125,-0.0010931668803095818,1.0707607725635171E-4,-1.356370048597455E-4,-4.585204124450684,29.2996768951416,-39.12422180175781,0.44790104031562805,1.2375545501708984,-0.04154682159423828,0.05080688,-0.13166715,9.766087,-0.53107476,-1.2038887,9.678068,0
3,987.9680786132812,-2.8269831091165543E-5,-5.586540210060775E-4,6.631534779444337E-4,-4.9609479904174805,29.422033309936523,-39.227447509765625,0.4226629137992859,1.2381079196929932,-0.03153038024902344,0.061984956,-0.13403155,9.77075,-0.54092747,-1.1936967,9.683586,0
3,987.9273681640625,-6.942428881302476E-4,3.7348130717873573E-4,-1.3587274588644505E-4,-4.5158820152282715,28.83785057067871,-39.18486785888672,0.4514637589454651,1.2288439273834229,-0.0355377197265625,0.039656848,-0.11732839,9.765942,-0.5460055,-1.1766511,9.680202,0
3,987.93505859375,-2.8887129155918956E-4,-5.618050927296281E-4,-3.871117951348424E-4,-4.654282569885254,28.761083602905273,-39.38999938964844,0.4305163025856018,1.250840425491333,-0.04889202117919922,0.056341708,-0.14354338,9.775406,-0.5350318,-1.1985631,9.688113,0
3,987.9545288085938,-8.21074761915952E-4,-2.9242830350995064E-5,-6.532440893352032E-4,-4.354789733886719,28.830808639526367,-39.440223693847656,0.4526901841163635,1.2272156476974487,-0.029349327087402344,0.051517516,-0.12924267,9.770668,-0.5263186,-1.1840265,9.68537,0
3,987.949951171875,-5.543305887840688E-4,-2.9562824056483805E-4,4.122029058635235E-4,-4.902279376983643,28.94989585876465,-38.74695587158203,0.43679875135421753,1.246421456336975,-0.005074501037597656,0.05147308,-0.15069105,9.751726,-0.5447278,-1.1870501,9.665178,0
3,987.95751953125,-8.20218410808593E-4,9.027238702401519E-4,2.792284358292818E-4,-4.280198097229004,28.53133201599121,-38.51038360595703,0.44098520278930664,1.2253451347351074,-0.04269218444824219,0.044258922,-0.13400705,9.7706585,-0.5304988,-1.1792532,9.685744,0
3,987.9554443359375,3.786313463933766E-4,-6.952410913072526E-4,5.457278457470238E-4,-4.504525184631348,29.006093978881836,-38.50360107421875,0.4349980652332306,1.2305418252944946,-0.02320575714111328,0.05138421,-0.14353903,9.75882,-0.5288,-1.1806929,9.673889,0
3,987.9479370117188,-6.862041191197932E-4,-5.621526506729424E-4,1.3279612176120281E-5,-4.778280735015869,28.855485916137695,-39.0684814453125,0.4237425625324249,1.2093844413757324,-0.041289329528808594,0.053729713,-0.13162155,9.773018,-0.5338862,-1.1621336,9.690021,0
3,987.9757690429688,-0.0010852497071027756,-0.0014943277928978205,-1.196948578581214E-4,-4.923311233520508,29.141111373901367,-39.062843322753906,0.4079110324382782,1.2192397117614746,-0.031250953674316406,0.06324488,-0.1506867,9.76828,-0.5285068,-1.1750149,9.684319,0
3,987.9349975585938,-2.8587382985278964E-4,-2.9659830033779144E-5,1.4680455205962062E-4,-4.667681694030762,29.37995719909668,-38.269378662109375,0.41182175278663635,1.2169815301895142,-0.026221275329589844,0.063200474,-0.13876922,9.765908,-0.5176049,-1.1620524,9.6839,0
3,987.9505004882812,-1.5228771371766925E-4,5.029024323448539E-4,1.469881390221417E-4,-4.8492631912231445,29.20992088317871,-38.23145294189453,0.47212862968444824,1.1555290222167969,-0.020925521850585938,0.020137787,-0.10540222,9.758803,-0.5619502,-1.1169868,9.678964,0
3,987.9757690429688,1.1445634299889207E-4,3.6967493360862136E-4,-7.849340327084064E-4,-4.673089027404785,29.111692428588867,-38.560791015625,0.42293182015419006,1.1938331127166748,-0.034552574157714844,0.0631116,-0.15068342,9.784838,-0.5166109,-1.1669357,9.702636,0
3,987.9629516601562,-9.50378889683634E-4,-5.625002668239176E-4,1.473550801165402E-4,-4.408625602722168,28.72723960876465,-38.656028747558594,0.40761372447013855,1.222867727279663,-0.015089988708496094,0.07023686,-0.16259868,9.768263,-0.4998697,-1.1770136,9.685818,0
3,987.96044921875,-1.5100318705663085E-4,-6.957276491448283E-4,1.438066828995943E-5,-4.224979400634766,28.530454635620117,-38.672813415527344,0.5099283456802368,1.116129994392395,-0.042632102966308594,-0.0015046,-0.09586586,9.775361,-0.55905086,-1.1040249,9.697188,0
3,987.9379272460938,-5.500487168319523E-4,0.001168414019048214,9.466697229072452E-4,-4.705616474151611,29.02874183654785,-38.858856201171875,0.44247469305992126,1.1377967596054077,-0.0471038818359375,0.06775814,-0.13399722,9.794294,-0.50701696,-1.1384857,9.7158375,0
3,987.9349975585938,3.8248515920713544E-4,-6.958666490390897E-4,6.805373704992235E-4,-4.36932897567749,28.5537052154541,-39.26780700683594,0.36991065740585327,1.243312954902649,0.010199546813964844,0.103562206,-0.1768951,9.742211,-0.4594731,-1.1793641,9.661817,0
3,987.9174194335938,9.155449806712568E-4,1.030114945024252E-4,-6.508585065603256E-4,-4.26954460144043,28.541643142700195,-39.05152130126953,0.4772220551967621,1.1198794841766357,-0.03182220458984375,-0.04226622,-0.09109606,9.780084,-0.5949046,-1.0837976,9.702145,0
3,987.9706420898438,-4.156061331741512E-4,0.0014345211675390601,5.47746429219842E-4,-4.906707763671875,29.0513973236084,-39.21411895751953,0.3946216106414795,1.1583969593048096,-0.017083168029785156,0.08435416,-0.14829357,9.780079,-0.49172488,-1.1375188,9.702748,0
3,987.9632568359375,-4.1517807403579354E-4,-5.629173247143626E-4,1.4845619443804026E-4,-4.75474739074707,29.035512924194336,-39.005653381347656,0.46496641635894775,1.1344414949417114,-0.016493797302246094,0.017392486,-0.11492659,9.76824,-0.55960834,-1.0886729,9.691938,0
4,987.9453735351562,-0.001213697250932455,-1.6351300291717052E-4,1.486396649852395E-4,-5.099485397338867,29.23933982849121,-38.73350524902344,0.23900845646858215,1.3293511867523193,0.0030698776245117188,0.19898057,-0.255539,9.77297,-0.37892178,-1.2455391,9.691278,0
4,987.9632568359375,-0.0010801111347973347,5.022072000429034E-4,-3.838085103780031E-4,-4.756269454956055,29.034040451049805,-38.9283447265625,0.5188004970550537,1.0438467264175415,-0.05791759490966797,-0.116530895,-0.026743129,9.7848015,-0.66443384,-0.9912808,9.712492,0
4,987.9580688476562,1.1873844778165221E-4,0.001434243400581181,5.484806024469435E-4,-4.55504035949707,29.117307662963867,-39.27217102050781,0.42191505432128906,1.1165270805358887,-0.01959991455078125,0.067447126,-0.15067254,9.754024,-0.51217896,-1.1125634,9.678229,0
4,987.9351196289062,9.181141504086554E-4,-0.0016284588491544127,2.823481336236E-4,-5.20481538772583,28.87721824645996,-38.5421142578125,0.36324989795684814,1.1735934019088745,-0.07110118865966797,0.09369165,-0.18165402,9.777691,-0.48182738,-1.1465942,9.700423,0
4,987.95068359375,-9.456687257625163E-4,1.025248784571886E-4,-3.8325809873640537E-4,-5.033750534057617,29.142858505249023,-38.73799133300781,0.3095363974571228,1.244902491569519,-0.02791881561279297,0.13666546,-0.1888028,9.791891,-0.43104276,-1.1575879,9.716464,0
4,987.950439453125,-6.789247854612768E-4,-1.6386050265282393E-4,-6.493903929367661E-4,-4.830999374389648,29.227598190307617,-39.15911102294922,0.5030862092971802,1.074066162109375,-0.027385711669921875,-0.06413072,-0.05533813,9.777683,-0.6114237,-1.0036143,9.707172,0
4,987.96826171875,3.8676714757457376E-4,0.0022329124622046947,9.486884227953851E-4,-4.64528751373291,28.663991928100586,-39.154754638671875,0.42046409845352173,1.1032960414886475,-0.012688636779785156,0.07443911,-0.14590158,9.7847805,-0.485303,-1.1002755,9.711985,0
4,987.9584350585938,2.540373825468123E-4,-0.00202821078710258,1.6766309272497892E-5,-4.823526382446289,29.12904167175293,-38.8465576171875,0.32395756244659424,1.1939674615859985,0.0257110595703125,0.11263317,-0.21024902,9.761106,-0.45514062,-1.159015,9.684298,0
4,987.932861328125,-5.444822018034756E-4,-4.3038500007241964E-4,-1.1620810255408287E-4,-4.921926975250244,29.036664962768555,-38.441070556640625,0.3456900417804718,1.0937318801879883,-0.006823539733886719,0.0026532412,-0.07916759,9.772937,-0.5380609,-1.021197,9.704854,0
4,987.9481201171875,-0.0012098436709493399,0.0031648101285099983,1.7133308574557304E-5,-4.535530090332031,28.924623489379883,-38.87897491455078,0.4774918854236603,1.0704727172851562,0.007904052734375,0.036067426,-0.11491574,9.749261,-0.5065255,-1.0521287,9.679828,0
4,987.9429931640625,5.216377903707325E-4,-8.299978217110038E-4,9.494224796071649E-4,-4.640423774719238,29.300554275512695,-38.9617919921875,0.3379877209663391,1.13267183303833,-0.024733543395996094,0.098160446,-0.16734676,9.76346,-0.45156708,-1.1054587,9.692103,0
4,987.9635009765625,-4.1003950173035264E-4,-0.0012295411434024572,-3.819733392447233E-4,-4.702572345733643,29.03169059753418,-39.013465881347656,0.36540576815605164,1.156801700592041,-0.014752388000488281,0.09811604,-0.16257916,9.775291,-0.44628766,-1.09912,9.704903,0
4,987.9635009765625,-4.1003950173035264E-4,-0.0012295411434024572,-3.819733392447233E-4,-4.605693340301514,29.12259864807129,-39.34165954589844,0.46861299872398376,1.085598111152649,-6.67572021484375E-6,-0.033373028,-0.08392982,9.765819,-0.5743597,-1.0004517,9.697866,0
4,987.9533081054688,3.8933620089665055E-4,2.3512670304626226E-4,-3.8178986869752407E-4,-4.754204750061035,28.667226791381836,-38.907203674316406,0.4097508490085602,1.100382924079895,-0.023180007934570312,0.057398856,-0.1339776,9.791855,-0.49369773,-1.0544847,9.723476,0
4,987.9409790039062,-8.086569723673165E-4,9.008469060063362E-4,8.168150670826435E-4,-4.98752498626709,29.23906135559082,-39.13566589355469,0.40907710790634155,1.1005361080169678,-0.03215599060058594,0.06691402,-0.18402533,9.76581,-0.48195994,-1.1000688,9.693657,0
4,987.9507446289062,-6.746426806785166E-4,-0.0020287667866796255,8.171821245923638E-4,-4.354790210723877,28.830808639526367,-39.44023132324219,0.27859872579574585,1.1768341064453125,-0.050556182861328125,0.112277746,-0.16257472,9.787111,-0.4188231,-1.0866625,9.719586,0
4,987.9512329101562,1.2473337119445205E-4,0.0016995860496535897,-9.136875160038471E-4,-4.383432388305664,29.0146541595459,-39.369590759277344,0.491447389125824,1.0202792882919312,-0.04058551788330078,-0.07895887,-0.07915892,9.772904,-0.6001909,-0.98244196,9.7055,0
4,987.9638061523438,2.583193709142506E-4,3.679370856843889E-4,4.180753603577614E-4,-4.756269454956055,29.034040451049805,-38.9283447265625,0.3324282467365265,1.0921705961227417,-0.021158218383789062,0.11935857,-0.16018929,9.787104,-0.42128864,-1.0714422,9.721205,0
4,987.948974609375,-6.733579211868346E-4,-6.973959971219301E-4,-2.47530872002244E-4,-4.843473434448242,28.583677291870117,-38.965545654296875,0.479135125875473,1.0539039373397827,-0.0253448486328125,0.05478683,-0.17210461,9.768162,-0.48800522,-1.0686318,9.698942,0
4,987.9413452148438,-0.001072403509169817,-4.311496450100094E-4,5.516003002412617E-4,-3.902252197265625,28.1480770111084,-39.08509063720703,0.3294594883918762,1.134726643562317,-0.024791717529296875,0.10732022,-0.15542056,9.775259,-0.40285745,-1.0649263,9.710563,0
4,987.9337768554688,-1.3986992416903377E-4,0.0015661498764529824,1.523100072517991E-4,-4.504823684692383,28.37395668029785,-38.92847442626953,0.5469909310340881,0.9826831817626953,0.013605117797851562,-0.07674664,-0.06008832,9.753951,-0.5938891,-0.94000494,9.690859,0
4,987.9515380859375,2.600321895442903E-4,6.339747924357653E-4,8.18283180706203E-4,-4.918883323669434,29.039609909057617,-38.595680236816406,0.3500590920448303,1.0928318500518799,-0.009612083435058594,0.09528184,-0.15065183,9.782352,-0.4426315,-1.0388033,9.7186,0
4,987.9362182617188,-6.716451025567949E-4,-0.001896095578558743,-5.13112754561007E-4,-5.294084548950195,28.793676376342773,-38.60045623779297,0.26239094138145447,1.147542953491211,-0.00884246826171875,0.11435661,-0.21499921,9.761044,-0.4400229,-1.0901814,9.693048,0
4,987.9767456054688,-0.001070690806955099,-0.0012303752591833472,2.860184758901596E-4,-4.946301460266113,28.59279441833496,-39.02721405029297,0.373670369386673,1.0453712940216064,-0.046677589416503906,0.011499882,-0.10065825,9.787294,-0.5194041,-0.97117347,9.725659,0
4,987.9689331054688,7.827393128536642E-4,0.0024997973814606667,-3.8439163472503424E-4,-4.924834251403809,29.139638900756836,-38.98553466796875,0.5004129409790039,0.9794026017189026,-0.00832366943359375,-0.019557565,-0.10065855,9.758888,-0.5442171,-0.96275264,9.696563,0
5,987.9795532226562,-2.205133205279708E-5,-2.942901919595897E-4,2.7166487416252494E-4,-4.520448207855225,28.833433151245117,-38.95294952392578,0.2746275067329407,1.0797662734985352,-0.04099559783935547,0.11189824,-0.18884017,9.780194,-0.4097768,-1.0657188,9.715798,0
5,987.946533203125,-6.879494176246226E-4,-2.9427261324599385E-4,1.3846054207533598E-4,-4.92483377456665,29.13963508605957,-38.98553466796875,0.3349211812019348,1.0845671892166138,0.0021343231201171875,0.104739785,-0.1554745,9.761257,-0.42274904,-1.0209073,9.700326,0
5,987.9494018554688,5.103631992824376E-4,0.0014367983676493168,-2.6105978759005666E-4,-4.504386901855469,29.11201286315918,-39.202674865722656,0.4715114235877991,1.0326390266418457,-0.011587142944335938,-0.024303615,-0.100659385,9.784931,-0.5322737,-0.9583236,9.723885,0
5,987.9540405273438,1.1078099487349391E-4,7.710261270403862E-4,0.001070472993887961,-4.604309558868408,29.018156051635742,-38.719879150390625,0.42228206992149353,1.0233813524246216,0.007826805114746094,0.059354186,-0.1411754,9.763626,-0.4538474,-0.99788475,9.703098,0
5,987.9570922851562,-9.545907960273325E-4,-0.0018921149894595146,1.383210183121264E-4,-4.429657459259033,28.9184513092041,-38.97191619873047,0.364053875207901,1.0141793489456177,-0.02013683319091797,0.047415912,-0.17215826,9.765995,-0.46189755,-1.0258656,9.702618,0
5,987.9541015625,-4.2206753278151155E-4,-1.6104418318718672E-4,5.377482157200575E-4,-4.763741493225098,29.13258934020996,-39.24090576171875,0.24300476908683777,1.0619405508041382,-0.019643783569335938,0.10956466,-0.16500871,9.768364,-0.40721765,-1.0161872,9.708848,0
5,987.9342041015625,3.7677137879654765E-4,0.0011705528013408184,-1.2808787869289517E-4,-4.131549835205078,29.092626571655273,-39.64391326904297,0.4271499514579773,0.9719377160072327,-0.009697914123535156,-0.033818215,-0.07444446,9.751794,-0.5346896,-0.9088684,9.69496,0
5,987.9468994140625,5.098209367133677E-4,1.053069718182087E-4,5.376553162932396E-4,-4.593112945556641,28.66017723083496,-39.162567138671875,0.3831236660480499,1.0200968980789185,-0.00926971435546875,0.09763762,-0.16500928,9.768366,-0.41681343,-1.0062093,9.709353,0
5,987.9319458007812,-0.0010881826747208834,-0.0012262549716979265,-1.2818101095035672E-4,-4.789638042449951,28.68724250793457,-39.74974060058594,0.43868646025657654,0.9725494384765625,-0.013510704040527344,0.033121526,-0.12926038,9.773101,-0.47955734,-0.9583404,9.715088,0
5,987.9697265625,-1.5618576435372233E-4,5.048159509897232E-4,4.0440430166199803E-4,-4.899235725402832,28.952844619750977,-38.90156555175781,0.3130446970462799,1.0348209142684937,-0.01305389404296875,0.09288037,-0.16262658,9.777836,-0.40882564,-0.99918145,9.719858,0
5,987.95947265625,2.4317955831065774E-4,-4.2727202526293695E-4,-3.9458979154005647E-4,-4.429955959320068,28.286314010620117,-39.39678192138672,0.4118037819862366,0.9686505198478699,0.015794754028320312,-0.012264073,-0.10304482,9.7589,-0.5152628,-0.91946024,9.702372,0
5,987.9423828125,1.0991323506459594E-4,5.048512248322368E-4,-3.9463635766878724E-4,-4.810807704925537,28.77254295349121,-39.366546630859375,0.3288991451263428,1.0168782472610474,-0.0027027130126953125,0.107242286,-0.16262712,9.756533,-0.39380082,-0.9889455,9.700248,0
5,987.9472045898438,-4.228272591717541E-4,-2.776295877993107E-5,1.3794895494356751E-4,-4.61262321472168,28.852861404418945,-39.555755615234375,0.4515478014945984,0.9550896883010864,0.026175498962402344,0.06662524,-0.15071101,9.756535,-0.44975665,-0.9603673,9.7001295,0
5,987.9652709960938,-4.22935641836375E-4,-4.2721914360299706E-4,-6.61045138258487E-4,-5.23788595199585,29.162565231323242,-38.938636779785156,0.35950034856796265,0.988590657711029,0.021897315979003906,0.054686964,-0.11734535,9.768372,-0.44793966,-0.9268506,9.714843,0
5,987.9601440429688,-8.225178462453187E-4,3.7174613680690527E-4,2.710138796828687E-4,-4.860076904296875,28.67338752746582,-38.81426239013672,0.45776602625846863,0.9364693760871887,0.012903213500976562,-0.014608949,-0.10781254,9.7636385,-0.5066393,-0.90920174,9.7086115,0
5,987.9351806640625,-2.8999493224546313E-4,-2.940259291790426E-4,4.041253123432398E-4,-4.679039001464844,29.211713790893555,-38.950645446777344,0.347003310918808,0.9703688621520996,-0.005634307861328125,0.08099842,-0.1578617,9.773108,-0.41446957,-0.96525276,9.718108,0
5,987.9501953125,2.4252856383100152E-4,-0.001359271933324635,8.035526843741536E-4,-4.583437919616699,28.30072593688965,-39.52794647216797,0.3604765832424164,1.0277944803237915,0.004261016845703125,0.092959166,-0.18646128,9.766007,-0.4030051,-0.99002016,9.709571,0
5,987.9453735351562,2.4242018116638064E-4,-9.597805328667164E-4,-6.612311699427664E-4,-4.624661445617676,28.946996688842773,-39.636390686035156,0.40617409348487854,0.9472277760505676,0.004715919494628906,-0.021744847,-0.095896915,9.775477,-0.5195345,-0.87847936,9.72255,0
5,987.9531860351562,-6.897940183989704E-4,0.001437080092728138,2.708278479985893E-4,-5.117473602294922,29.433500289916992,-39.204002380371094,0.3764491081237793,0.966619610786438,4.024505615234375E-4,0.06430286,-0.16024579,9.773111,-0.44121456,-0.94632816,9.71871,0
5,987.9353637695312,-5.56744693312794E-4,-0.002424482721835375,-1.2869242345914245E-4,-5.070981502532959,28.9495792388916,-38.105064392089844,0.31762149930000305,0.9713724851608276,0.019805908203125,0.06192419,-0.1673959,9.74944,-0.4331952,-0.95038986,9.694974,0
5,987.9429931640625,-5.56852959562093E-4,-1.6078009502962232E-4,-2.618968137539923E-4,-4.854532241821289,29.047574996948242,-39.22193145751953,0.3021990954875946,0.9666870832443237,-0.036568641662597656,0.08583444,-0.157863,9.792051,-0.4168988,-0.93882334,9.739681,0
5,987.9429931640625,-5.56852959562093E-4,-1.6078009502962232E-4,-2.618968137539923E-4,-5.142528533935547,29.251996994018555,-39.18952178955078,0.39110615849494934,0.9146053194999695,-0.0077152252197265625,-0.0049705505,-0.093514815,9.770747,-0.49341714,-0.8609589,9.720677,0
5,987.9531860351562,-8.232773398049176E-4,2.3871148005127907E-4,2.706883824430406E-4,-5.004970550537109,29.06492805480957,-39.50770568847656,0.33706068992614746,0.9675021767616272,0.006905555725097656,0.092871696,-0.16977616,9.761265,-0.3932691,-0.94587475,9.709293,0
5,987.9506225585938,-1.5759613597765565E-4,7.713607046753168E-4,-2.6198994601145387E-4,-4.707000732421875,29.133188247680664,-39.480628967285156,0.4027616083621979,0.9298949241638184,-0.0068569183349609375,0.032971025,-0.13640656,9.763618,-0.44097465,-0.9063548,9.712466,0
5,987.9456176757812,5.106172175146639E-4,7.709673373028636E-4,1.3852264964953065E-4,-4.702029228210449,28.66339683532715,-38.915016174316406,0.3248351812362671,0.9778656363487244,-0.020631790161132812,0.087937504,-0.16977237,9.777821,-0.3975679,-0.93734974,9.726544,0
6,987.9506225585938,-2.879487001337111E-4,9.040632285177708E-4,-9.265773114748299E-4,-4.435202598571777,28.54426383972168,-38.564247131347656,0.3612900972366333,0.8925623297691345,0.0034627914428710938,0.016239196,-0.09827395,9.7636175,-0.45279545,-0.8572868,9.715875,0
6,987.9533081054688,-9.537260630168021E-4,1.0511360596865416E-4,8.044813293963671E-4,-4.9475250244140625,29.22345542907715,-38.52503967285156,0.3311687111854553,0.9500082731246948,0.018093109130859375,0.0783754,-0.16023917,9.7588825,-0.4074538,-0.9143042,9.709049,0
6,987.9329223632812,-1.547658466733992E-4,-2.8046255465596914E-5,5.538866389542818E-6,-4.671865463256836,28.481027603149414,-39.062965393066406,0.40507951378822327,0.8770588636398315,-2.3746490478515625E-4,0.023406357,-0.12449004,9.763618,-0.44958696,-0.8703961,9.715172,0
6,987.9584350585938,-1.5475397231057286E-4,7.708994671702385E-4,5.544221494346857E-6,-4.5654497146606445,28.106565475463867,-39.05744934082031,0.2708723843097687,0.993986189365387,-0.0047760009765625,0.102271855,-0.1888385,9.7683525,-0.37515336,-0.9412318,9.718033,0
6,987.9512329101562,5.110479542054236E-4,-5.606820341199636E-4,-2.607664209790528E-4,-5.251445770263672,29.255224227905273,-38.94197082519531,0.31187692284584045,0.9276686906814575,-0.0043468475341796875,0.018624008,-0.12210663,9.751781,-0.46416053,-0.8530952,9.704086,0
6,987.9559936523438,3.7790247006341815E-4,0.0011703693307936192,4.0502846240997314E-4,-5.298213958740234,29.527311325073242,-38.64274597167969,0.33417171239852905,0.8617932200431824,0.014966011047363281,0.044911623,-0.1292565,9.747047,-0.4376095,-0.85874194,9.700244,0
6,987.9537963867188,-6.873489473946393E-4,-5.606859922409058E-4,2.7187576051801443E-4,-4.858555793762207,28.674863815307617,-38.891571044921875,0.25139421224594116,0.9430899620056152,-0.008287429809570312,0.07836902,-0.15547253,9.775454,-0.3972172,-0.89083153,9.7282295,0
6,987.93603515625,-1.5470519429072738E-4,0.0010372073156759143,-7.933825836516917E-4,-4.440173149108887,29.01405906677246,-39.129859924316406,0.43574604392051697,0.8486236929893494,0.01577281951904297,0.028179824,-0.1316397,9.773087,-0.429882,-0.8641101,9.726245,0
6,987.9609985351562,-1.5469262143597007E-4,2.3825769312679768E-4,2.7188617968931794E-4,-4.440173149108887,29.01405906677246,-39.129859924316406,0.3197427988052368,0.9392747282981873,0.0067234039306640625,0.07597658,-0.160239,9.773085,-0.38339502,-0.892398,9.726319,0
6,987.9563598632812,-2.87838454823941E-4,-1.6121810767799616E-4,-9.265299304388463E-4,-4.4384074211120605,28.015104293823242,-39.53358459472656,0.39448657631874084,0.8872771263122559,0.021332740783691406,0.0018883646,-0.11019011,9.763617,-0.4521026,-0.8297627,9.718408,0
6,987.9588623046875,-4.2098440462723374E-4,7.708854973316193E-4,0.0013371602399274707,-4.491507530212402,29.28172492980957,-38.598716735839844,0.3448886275291443,0.9119859337806702,0.012235641479492188,0.07358414,-0.15308912,9.763617,-0.38224548,-0.87576866,9.718228,0
6,987.94384765625,5.1113375229761E-4,2.382517559453845E-4,-2.607298665679991E-4,-4.508111953735352,29.37143898010254,-38.44744110107422,0.319426953792572,0.9220747947692871,0.007886886596679688,0.006665647,-0.11972313,9.763617,-0.44432765,-0.8318885,9.718699,0
6,987.936767578125,1.1167203774675727E-4,5.045656580477953E-4,5.382230738177896E-4,-4.552433013916016,28.382200241088867,-39.15257263183594,0.27032122015953064,0.913000226020813,-0.0012006759643554688,0.08314121,-0.16262211,9.782555,-0.37454328,-0.8777884,9.737604,0
6,987.9468994140625,-5.541056743822992E-4,-4.2754190508276224E-4,-2.607193891890347E-4,-4.464005470275879,28.201894760131836,-39.6175537109375,0.26408326625823975,0.9182611703872681,-8.182525634765625E-4,0.04490149,-0.14593919,9.7588825,-0.4057147,-0.85269797,9.714288,0
6,987.939208984375,5.111703067086637E-4,3.7140375934541225E-4,-2.607141504995525E-4,-4.892848968505859,29.590871810913086,-38.785919189453125,0.35302138328552246,0.8145067095756531,0.023202896118164062,0.02100125,-0.117339835,9.749413,-0.43266237,-0.81338745,9.706518,0
6,987.9572143554688,-1.546071725897491E-4,-2.8072157874703407E-5,-3.938667359761894E-4,-4.636836528778076,28.935209274291992,-39.01795196533203,0.2514379620552063,0.9006837606430054,-0.004825592041015625,0.05445862,-0.13163938,9.758882,-0.39477074,-0.8300066,9.716548,0
6,987.926513671875,-2.1437241230159998E-5,2.382418606430292E-4,2.7192808920517564E-4,-4.663956642150879,29.120527267456055,-39.024620056152344,0.26449936628341675,0.906101644039154,-0.013937950134277344,0.078356326,-0.15308891,9.770718,-0.3704703,-0.8512875,9.728031,0
6,987.9544067382812,-2.1424784790724516E-5,-8.270237012766302E-4,9.377230890095234E-4,-4.63045072555542,29.573240280151367,-38.90229797363281,0.31533968448638916,0.9020017981529236,0.014841079711914062,0.054456055,-0.15070562,9.754147,-0.38623914,-0.8437337,9.71123,0
6,987.9498901367188,-2.877282095141709E-4,0.0010371855460107327,-0.00105964089743793,-4.3647637367248535,28.558122634887695,-39.499717712402344,0.35190314054489136,0.845018744468689,0.019975662231445312,0.009046614,-0.11018987,9.754147,-0.42739496,-0.79391366,9.713014,0
6,987.967529296875,-0.001352979801595211,-5.607117782346904E-4,2.719438052736223E-4,-4.407944679260254,28.46486473083496,-39.25666046142578,0.2841886281967163,0.8693982362747192,0.0108489990234375,0.07118282,-0.1530888,9.768351,-0.3769101,-0.83590436,9.726684,0
6,987.9371337890625,-4.2086205212399364E-4,-0.001625977223739028,-1.2752466136589646E-4,-4.665234565734863,28.118627548217773,-39.27373504638672,0.27334699034690857,0.841336727142334,0.0206756591796875,0.049672425,-0.13163929,9.763617,-0.3893937,-0.81027603,9.723161,0
6,987.9371337890625,-1.5453359810635448E-4,6.377057870849967E-4,-3.9383542025461793E-4,-4.498734951019287,28.379850387573242,-39.237693786621094,0.28615936636924744,0.8515284657478333,0.011564254760742188,0.071180284,-0.1530888,9.775452,-0.36449862,-0.83246803,9.734583,0
6,987.9193725585938,2.454174100421369E-4,3.713123151101172E-4,1.3900111662223935E-4,-4.923449516296387,29.035192489624023,-38.36376190185547,0.31742915511131287,0.8453658223152161,0.026319503784179688,0.051870286,-0.13878445,9.751761,-0.39405882,-0.80404073,9.711699,0
6,987.9193725585938,2.454174100421369E-4,3.713123151101172E-4,1.3900111662223935E-4,-4.923449516296387,29.035192489624023,-38.36376190185547,0.3404983878135681,0.8575397729873657,0.012299537658691406,0.042301804,-0.14593403,9.7659645,-0.40151885,-0.8075738,9.725418,0
7,987.9630126953125,-2.8864474734291434E-4,-1.6177038196474314E-4,9.085633791983128E-6,-4.869071960449219,28.770475387573242,-39.04951477050781,0.28621017932891846,0.8629467487335205,0.0031890869140625,0.06380203,-0.15070035,9.7659645,-0.37520605,-0.8123498,9.72626,0
7,987.9248046875,2.440728130750358E-4,0.0013029531110078096,-1.2403569417074323E-4,-4.742709159851074,28.941373825073242,-38.925018310546875,0.3180795907974243,0.8354213237762451,0.008246421813964844,0.035114318,-0.13401718,9.763596,-0.3954415,-0.7913198,9.724424,0
7,987.9500732421875,3.773162025026977E-4,2.3767573293298483E-4,4.0863273898139596E-4,-4.528058052062988,28.82607078552246,-38.56642150878906,0.2976621687412262,0.8501312136650085,0.022806167602539062,0.06378427,-0.14831664,9.758862,-0.37331897,-0.80075693,9.720127,0
7,987.9227905273438,-0.0014868094585835934,-8.276017033495009E-4,0.001074459170922637,-4.816054821014404,29.030492782592773,-38.53400421142578,0.29601746797561646,0.8316680788993835,0.013691902160644531,0.061385512,-0.14354993,9.763594,-0.37198725,-0.7927632,9.725496,0
7,987.9398193359375,2.443293924443424E-4,0.0011697534937411547,2.75548140052706E-4,-4.7111616134643555,28.65456199645996,-38.45118713378906,0.3374847173690796,0.7941697835922241,0.02350616455078125,0.008798778,-0.12448345,9.765961,-0.40851477,-0.7707552,9.727724,0
7,987.9278564453125,-6.876905099488795E-4,3.707919968292117E-4,-1.238890108652413E-4,-4.221935272216797,28.533403396606445,-38.827423095703125,0.27399811148643494,0.832601010799408,0.023866653442382812,0.068537414,-0.16499893,9.768326,-0.36372828,-0.8068544,9.729791,0
7,987.9278564453125,-6.876905099488795E-4,3.707919968292117E-4,-1.238890108652413E-4,-4.7713518142700195,29.12522315979004,-38.85437774658203,0.2727985680103302,0.8094016909599304,5.245208740234375E-4,0.013560861,-0.10780005,9.768326,-0.41348097,-0.73859036,9.732189,0
7,987.905517578125,-0.0012202367652207613,-4.2816955829039216E-4,9.305716957896948E-6,-4.941299915313721,29.335264205932617,-39.53334045410156,0.25205132365226746,0.8431295156478882,-0.018052101135253906,0.09480864,-0.17929815,9.782528,-0.32977325,-0.8192109,9.744697,0
7,987.9154663085938,-9.537498117424548E-4,-4.2819729424081743E-4,2.7569482335820794E-4,-4.289054870605469,28.734331130981445,-39.44470977783203,0.21755683422088623,0.8627872467041016,0.0012083053588867188,0.0780704,-0.14354874,9.768324,-0.33584702,-0.77925575,9.732771,0
7,987.90771484375,-1.547164865769446E-4,2.3757846793159842E-4,-2.569002681411803E-4,-4.8123297691345215,28.771066665649414,-39.28924560546875,0.40687963366508484,0.7542438507080078,0.020461082458496094,-0.029484034,-0.107799426,9.754121,-0.44900274,-0.72170305,9.717659,0
7,987.9510498046875,-6.872626836411655E-4,2.375645563006401E-4,1.426102826371789E-4,-4.654419898986816,28.6551570892334,-38.69091796875,0.21963173151016235,0.8404175639152527,0.020788192749023438,0.10195169,-0.18168084,9.775425,-0.32315096,-0.8079131,9.738849,0
7,987.9487915039062,-2.877031802199781E-4,-8.277127635665238E-4,9.489012882113457E-6,-4.527920722961426,28.931989669799805,-39.2655029296875,0.32318535447120667,0.7318282127380371,0.0021572113037109375,0.0015668869,-0.088732734,9.761221,-0.40672442,-0.7026641,9.727804,0
7,987.9285888671875,2.450140309520066E-4,-2.9509502928704023E-4,-1.236323150806129E-4,-4.16185188293457,29.16908073425293,-38.796897888183594,0.24106943607330322,0.8286141157150269,-0.007060050964355469,0.13061273,-0.20789643,9.784891,-0.2805872,-0.83575034,9.748189,0
7,987.928955078125,0.001288542291149497,-8.028253796510398E-4,-4.1785574285313487E-4,-4.535530090332031,28.924619674682617,-38.87897491455078,0.29691430926322937,0.7392483949661255,0.054778099060058594,-8.407235E-4,-0.086348966,9.758852,-0.4065071,-0.6928808,9.726115,0
7,987.946533203125,8.89154034666717E-4,0.0011945299338549376,-1.5150319086387753E-4,-4.723061561584473,28.854612350463867,-39.23090362548828,0.3528963327407837,0.735686182975769,0.05032634735107422,0.046948433,-0.12686445,9.751749,-0.3653995,-0.73209155,9.718304,0
7,987.946533203125,9.029207285493612E-5,-0.0013354849070310593,6.474811234511435E-4,-4.793363094329834,28.94667625427246,-38.9945068359375,0.22717905044555664,0.8126708269119263,0.008031845092773438,0.044549644,-0.122097805,9.756483,-0.36735007,-0.72266126,9.723616,0
7,987.9342651367188,9.037752170115709E-5,6.618701736442745E-4,6.475178524851799E-4,-4.741188049316406,28.942853927612305,-39.0023193359375,0.19766303896903992,0.8516516089439392,-0.005886077880859375,0.08994889,-0.17452969,9.77542,-0.3263503,-0.7776037,9.740956,0
7,987.9420166015625,-4.269473720341921E-5,-9.360389085486531E-4,1.1492270277813077E-4,-4.779664993286133,28.959928512573242,-39.69024658203125,0.2726218104362488,0.7528207302093506,-0.0056056976318359375,0.020632863,-0.103031114,9.777786,-0.38603044,-0.6956784,9.745931,0
7,987.9189453125,8.894962957128882E-4,7.950006402097642E-4,-1.5135639114305377E-4,-4.972985744476318,29.516164779663086,-39.308082580566406,0.3047606945037842,0.7398830652236938,0.03253459930419922,0.044523,-0.13639675,9.765949,-0.36722353,-0.72574556,9.733078,0
7,987.92919921875,9.063433390110731E-5,-0.0012023826129734516,1.1499616084620357E-4,-4.333459854125977,29.2717342376709,-38.69947052001953,0.27018460631370544,0.759907603263855,0.0044116973876953125,0.070803046,-0.17929552,9.784885,-0.33122656,-0.77493805,9.75043,0
7,987.9139404296875,-3.0875380616635084E-4,-2.7029088232666254E-4,0.0010471383575350046,-4.386476516723633,29.01170539855957,-39.21498107910156,0.22094431519508362,0.7561802268028259,0.033104896545410156,0.058844656,-0.124479905,9.75411,-0.3363432,-0.7132344,9.723158,0
7,987.937255859375,8.897531079128385E-4,9.281167876906693E-4,-1.5124649507924914E-4,-4.744231224060059,28.939908981323242,-38.84770965576172,0.31028151512145996,0.7238932251930237,0.02865314483642578,0.0062578917,-0.10064699,9.763579,-0.3931301,-0.6766505,9.732689,0
7,987.8994140625,-4.41740732640028E-4,2.6231311494484544E-4,1.1510617332533002E-4,-5.08538293838501,28.778390884399414,-38.63172149658203,0.26142624020576477,0.7585077881813049,-0.018433570861816406,0.09706533,-0.16022874,9.780149,-0.31743163,-0.7398116,9.74876,0
7,987.9398193359375,8.899243548512459E-4,-0.0014687541406601667,3.8145866710692644E-4,-5.057826995849609,29.33112907409668,-38.899261474609375,0.27839210629463196,0.7834630012512207,0.024312973022460938,0.06733623,-0.15311174,9.763701,-0.34184968,-0.7256864,9.732131,0
7,987.9220581054688,3.5537168150767684E-4,-7.984363473951817E-4,2.3517879890277982E-4,-4.938393592834473,29.2322940826416,-38.988868713378906,0.328945130109787,0.7180516719818115,0.02932262420654297,-0.023435622,-0.11259706,9.756604,-0.4223446,-0.6723911,9.724919,0
8,987.937255859375,2.1708005806431174E-4,0.0014660819433629513,-1.664951560087502E-4,-4.45609712600708,28.841398239135742,-39.57920837402344,0.21309253573417664,0.7525877356529236,0.020109176635742188,0.086544275,-0.15549715,9.782646,-0.31127524,-0.7286222,9.752132,0
8,987.9423828125,2.1665188251063228E-4,-2.6490172604098916E-4,4.991110181435943E-4,-4.530720233917236,27.928613662719727,-39.43730926513672,0.26433736085891724,0.7201548218727112,0.010912895202636719,0.057909906,-0.14834844,9.766081,-0.33896154,-0.71271247,9.735443,0
8,987.945068359375,-5.009217420592904E-5,-2.64832196990028E-4,-4.3317797826603055E-4,-4.683903217315674,28.575162887573242,-39.14360046386719,0.25312647223472595,0.7496420741081238,0.006464958190917969,0.07229376,-0.15073277,9.780288,-0.32903242,-0.71128565,9.750272,0
8,987.9779663085938,-3.168363473378122E-4,6.673428579233587E-4,-6.996774463914335E-4,-4.927334308624268,28.768400192260742,-38.73247528076172,0.32339751720428467,0.7128652334213257,0.006712913513183594,6.4110756E-4,-0.114984706,9.761354,-0.39240745,-0.6636336,9.73154,0
8,987.94775390625,6.148410611785948E-4,-2.646932261995971E-4,3.654026077128947E-4,-4.924833297729492,29.139631271362305,-38.98553466796875,0.2596966326236725,0.7190229296684265,0.01643085479736328,0.06760278,-0.14835168,9.763725,-0.32852492,-0.7013339,9.734326,0
8,987.9501953125,4.8125494504347444E-4,-2.6462378446012735E-4,3.652190207503736E-4,-4.917361736297607,29.04108238220215,-38.67298126220703,0.1969262957572937,0.7771628499031067,0.02614307403564453,0.093936145,-0.17456885,9.76373,-0.29632282,-0.7300732,9.733907,0
8,987.90966796875,7.471427670679986E-4,-3.9771210867911577E-4,-4.339120932854712E-4,-4.567215919494629,29.105520248413086,-38.653724670410156,0.27211299538612366,0.6880143880844116,0.04058265686035156,0.022283494,-0.114987984,9.74953,-0.3593021,-0.6591579,9.72129,0
8,987.9306640625,-5.22331683896482E-5,-3.976425505243242E-4,-3.0093773966655135E-4,-4.528899192810059,28.562223434448242,-39.089744567871094,0.28535303473472595,0.7181357145309448,0.03133583068847656,0.053396672,-0.12690546,9.77084,-0.3262478,-0.67379606,9.743092,0
8,987.9461669921875,7.462860667146742E-4,-6.638889899477363E-4,7.641423144377768E-4,-4.428135871887207,28.9199275970459,-39.049224853515625,0.22713923454284668,0.7620453238487244,0.03631305694580078,0.067780495,-0.17695542,9.754272,-0.3221633,-0.7173646,9.724369,0
8,987.9283447265625,8.006830466911197E-5,-9.301353129558265E-4,9.816914098337293E-5,-4.724583625793457,28.853139877319336,-39.153602600097656,0.2256789207458496,0.7300702333450317,0.012879371643066406,0.039146096,-0.119757816,9.76848,-0.34269613,-0.6551381,9.741276,0
8,987.9409790039062,8.785877726040781E-4,8.009874145500362E-4,7.637753151357174E-4,-4.704935550689697,28.76637077331543,-39.45948791503906,0.2765102982521057,0.6836113929748535,0.008402824401855469,0.02963093,-0.13405855,9.76375,-0.3523836,-0.6641843,9.735726,0
8,987.9283447265625,-5.3945870604366064E-5,2.109212800860405E-6,-3.016717382706702E-4,-4.766786098480225,29.1296443939209,-39.08628845214844,0.19921326637268066,0.7324954867362976,0.018095970153808594,0.06791377,-0.1388262,9.768488,-0.3214032,-0.66655403,9.741646,0
8,987.9513549804688,-3.206900437362492E-4,-7.967688725329936E-4,-1.686972682364285E-4,-5.141007423400879,29.253477096557617,-39.266822814941406,0.2124282717704773,0.7337748408317566,0.013591766357421875,0.08946735,-0.17219318,9.773228,-0.29656634,-0.70192516,9.745409,0
8,987.9286499023438,3.446713672019541E-4,-2.640675811562687E-4,2.305929665453732E-4,-4.721134662628174,28.381879806518555,-38.51068115234375,0.21558845043182373,0.7442482709884644,0.01858997344970703,0.056053102,-0.14836149,9.7637615,-0.32128066,-0.6719272,9.736606,0
8,987.9386596679688,3.4424319164827466E-4,0.0016002131160348654,-4.353802069090307E-4,-4.674472808837891,29.216135025024414,-39.18256378173828,0.3380032181739807,0.6266880631446838,0.02355670928955078,-0.0060399175,-0.09593047,9.766133,-0.37932482,-0.60760975,9.740304,0
8,987.9386596679688,3.4424319164827466E-4,0.0016002131160348654,-4.353802069090307E-4,-4.819939613342285,28.763700485229492,-38.90271759033203,0.15109151601791382,0.7612439393997192,0.023774147033691406,0.12544912,-0.21032895,9.766137,-0.25897703,-0.73378915,9.738167,0
8,987.9641723632812,-3.219745703972876E-4,-3.970864927396178E-4,4.965419066138566E-4,-4.717110633850098,28.75458335876465,-38.84104919433594,0.23586580157279968,0.6719840168952942,0.038204193115234375,0.037067175,-0.11261557,9.768509,-0.32604268,-0.62782276,9.74358,0
8,987.9464721679688,4.7654478112235665E-4,-0.0011959646362811327,-3.025893238373101E-4,-4.3154706954956055,29.077573776245117,-38.228981018066406,0.3586082458496094,0.645090639591217,0.043150901794433594,0.022772193,-0.12453307,9.768513,-0.3403154,-0.634976,9.742733,0
8,987.928955078125,0.0011414780747145414,-5.300358752720058E-4,3.628333215601742E-4,-4.697027206420898,29.405874252319336,-39.421142578125,0.1947828233242035,0.7068581581115723,0.015050888061523438,0.082564145,-0.18411614,9.775619,-0.29165486,-0.693311,9.74873,0
8,987.9268188476562,8.747339597903192E-4,-7.96282198280096E-4,4.958078498020768E-4,-4.6373796463012695,29.303499221801758,-39.11640167236328,0.24177506566047668,0.6908586025238037,0.0341033935546875,0.0610995,-0.1293018,9.761419,-0.30479142,-0.6345094,9.737057,0
8,987.9544067382812,7.411479600705206E-4,5.35366649273783E-4,2.293084398843348E-4,-4.543981552124023,28.653409957885742,-39.015777587890625,0.2401134967803955,0.6731612086296082,0.024865150451660156,0.0420247,-0.12691964,9.768526,-0.32154804,-0.62731886,9.743976,0
8,987.9340209960938,-1.913857995532453E-4,0.0010680679697543383,-1.7034885240718722E-4,-4.826028347015381,28.757810592651367,-38.59349822998047,0.2433280348777771,0.6365849375724792,0.0108795166015625,0.056408525,-0.12453742,9.782732,-0.31149027,-0.6213583,9.758966,0
8,987.9420776367188,-5.8656150940805674E-5,4.023477085866034E-4,2.289414987899363E-4,-4.8977131843566895,28.954313278198242,-38.97887420654297,0.21836638450622559,0.6996451020240784,0.034775733947753906,0.0798766,-0.16265936,9.759021,-0.2912418,-0.65690756,9.734218,0
8,987.9318237304688,-3.25400207657367E-4,-6.628462579101324E-4,3.6191585240885615E-4,-4.973965167999268,29.146406173706055,-39.13233184814453,0.24615484476089478,0.66556316614151,0.021002769470214844,0.038788795,-0.13404872,9.763714,-0.32822624,-0.6198802,9.739487,0
9,987.9420776367188,-8.492281776852906E-4,4.009879776276648E-4,2.3253093240782619E-4,-4.745615482330322,29.04435157775879,-39.469482421875,0.21225082874298096,0.6687808036804199,0.04950523376464844,0.06508404,-0.14834858,9.751878,-0.29749644,-0.6355303,9.727947,0
9,987.9174194335938,3.491321695037186E-4,1.3468210818246007E-4,-1.6696896636858582E-4,-4.661211013793945,28.4913387298584,-39.604103088378906,0.24912071228027344,0.6268952488899231,0.026070594787597656,0.019682258,-0.11259951,9.76845,-0.3369463,-0.5922748,9.745325,0
9,987.9498291015625,-8.503146818839014E-4,-7.072617299854755E-4,0.0010553030297160149,-4.736621379852295,28.9472713470459,-39.23423767089844,0.2293214201927185,0.6521053910255432,0.007330894470214844,0.07465634,-0.1554987,9.76845,-0.28700128,-0.6375259,9.7449255,0
9,987.94482421875,-5.142827285453677E-5,-0.001373041421175003,-9.986571967601776E-6,-4.83586311340332,28.59104347229004,-39.35206604003906,0.21393173933029175,0.6580420136451721,0.02175140380859375,0.050763667,-0.13404931,9.77792,-0.30993003,-0.6090777,9.755061,0
9,987.9273681640625,-4.5096309622749686E-4,9.17057623155415E-5,-4.0948670357465744E-4,-4.9629058837890625,28.68250846862793,-38.875938415527344,0.25554168224334717,0.6403785347938538,0.021966934204101562,0.053159893,-0.1435826,9.761349,-0.3090786,-0.6134882,9.73835,0
9,987.9650268554688,-1.8470833310857415E-4,7.575054187327623E-4,6.557507440447807E-4,-4.857576370239258,29.044626235961914,-39.06732940673828,0.21146613359451294,0.632131814956665,0.026910781860351562,0.04360664,-0.11974998,9.763717,-0.3113929,-0.5869872,9.741914,0
9,987.942626953125,-1.847694511525333E-4,9.1725611127913E-5,6.557244341820478E-4,-4.7882537841796875,28.58280372619629,-39.127967834472656,0.23359906673431396,0.628890872001648,0.022391319274902344,0.05317259,-0.1411996,9.775554,-0.30258843,-0.6070525,9.75316,0
9,987.9353637695312,-4.5114633394405246E-4,3.5805138759315014E-4,-1.4324928633868694E-4,-4.812872886657715,29.13935661315918,-39.3876953125,0.23704442381858826,0.6205304861068726,0.013144493103027344,0.05078903,-0.13166668,9.763718,-0.30083826,-0.59378654,9.7420225,0
9,987.9481811523438,-5.843655089847744E-4,4.912192234769464E-4,1.2304034316912293E-4,-4.678060054779053,29.581480026245117,-39.12640380859375,0.23576349020004272,0.6265498399734497,0.05123138427734375,0.06991458,-0.15788294,9.770821,-0.2801776,-0.62058645,9.748596,0
9,987.9456787109375,-5.844265106134117E-4,6.243870593607426E-4,2.561721485108137E-4,-4.310225009918213,28.819623947143555,-39.0615234375,0.20062106847763062,0.6469849944114685,0.02777862548828125,0.04363197,-0.119750574,9.758985,-0.29452217,-0.57862914,9.738197,0
9,987.9232788085938,3.476179554127157E-4,0.0015565025387331843,-4.0964363142848015E-4,-4.383432388305664,29.0146541595459,-39.369590759277344,0.25657597184181213,0.6010128259658813,0.0279693603515625,0.048418134,-0.12928386,9.766087,-0.29020825,-0.5855806,9.745173,0
9,987.930908203125,-5.1916984375566244E-5,-5.740144988521934E-4,-1.0196119546890259E-5,-4.726648330688477,29.219953536987305,-39.17474365234375,0.20765990018844604,0.6545884013175964,0.023444175720214844,0.03886485,-0.124517515,9.766088,-0.30686957,-0.571543,9.745391,0
9,987.9507446289062,-7.177676889114082E-4,3.581009805202484E-4,-8.09169840067625E-4,-4.9133381843566895,29.413793563842773,-39.00334930419922,0.2066536843776703,0.6370931267738342,0.01889514923095703,0.07232982,-0.16026677,9.770823,-0.27616817,-0.60853523,9.749529,0
9,987.9054565429688,8.11187201179564E-5,-0.0011066264705732465,6.555411964654922E-4,-4.862004280090332,29.1461238861084,-39.53449249267578,0.12965908646583557,0.6906816959381104,0.028553009033203125,0.096235186,-0.16980006,9.754252,-0.25013325,-0.6174408,9.733434,0
9,987.96142578125,-3.1847722129896283E-4,7.576044881716371E-4,-1.03008933365345E-5,-4.874478340148926,28.5022029876709,-39.340919494628906,0.34184136986732483,0.5573440194129944,0.043059349060058594,-0.04715258,-0.074469134,9.7708235,-0.38329083,-0.50125337,9.750826,0
9,987.96142578125,-3.1847722129896283E-4,7.576044881716371E-4,-1.03008933365345E-5,-4.874478340148926,28.5022029876709,-39.340919494628906,0.1455109715461731,0.612640380859375,0.03842735290527344,0.091468066,-0.15073414,9.766089,-0.24893071,-0.59246224,9.746517,0
9,987.96142578125,-0.0012506439816206694,4.912987351417542E-4,-1.032691216096282E-5,-4.779366493225098,29.592069625854492,-39.265380859375,0.16423481702804565,0.6617315411567688,0.014925003051757812,0.089084506,-0.16026737,9.780293,-0.25197572,-0.5990594,9.7604,0
9,987.913330078125,2.1403242135420442E-4,-0.0015060605946928263,-8.093009237200022E-4,-4.6874895095825195,28.94050407409668,-39.08744812011719,0.21065270900726318,0.624843418598175,0.034066200256347656,0.06997162,-0.1435846,9.756622,-0.2683066,-0.57504475,9.737276,0
9,987.9207763671875,-4.518185160122812E-4,9.184470400214195E-5,-4.0985317900776863E-4,-4.775237083435059,28.858434677124023,-39.22309112548828,0.2857376039028168,0.5835152864456177,0.024785995483398438,-0.013668627,-0.09591921,9.773193,-0.33828396,-0.51942104,9.753998,0
9,987.9436645507812,-7.181953988038003E-4,7.5764418579638E-4,1.227523316629231E-4,-4.431041717529297,29.02289390563965,-39.59368896484375,0.17463025450706482,0.6087405681610107,0.029707908630371094,0.09866312,-0.18171735,9.766092,-0.23471534,-0.61315936,9.746192,0
9,987.9237060546875,-8.514144574292004E-4,2.2502237698063254E-4,-4.0990556590259075E-4,-4.4266133308410645,28.9213924407959,-39.12652587890625,0.17359820008277893,0.6101347804069519,0.03936004638671875,0.04370171,-0.14120181,9.758991,-0.28495234,-0.56252277,9.73972,0
9,987.9212036132812,-5.2527931984514E-5,8.908220333978534E-4,-5.430896999314427E-4,-4.4992780685424805,28.748140335083008,-39.336143493652344,0.2674613893032074,0.5402387380599976,0.04902076721191406,0.01741916,-0.10783608,9.770827,-0.3090052,-0.5220307,9.75259,0
9,987.9364624023438,-5.258893361315131E-5,9.188428521156311E-5,-6.762738339602947E-4,-4.67629337310791,28.5825252532959,-39.530128479003906,0.18496853113174438,0.6134682893753052,0.030254364013671875,0.08434272,-0.17218472,9.758992,-0.24398509,-0.5922583,9.739836,0
9,987.9496459960938,8.050777250900865E-5,4.913680022582412E-4,-6.763001438230276E-4,-4.477266788482666,28.926694869995117,-39.196014404296875,0.1982765793800354,0.6100907325744629,0.04462432861328125,0.0629673,-0.14597197,9.749535,-0.267523,-0.5569974,9.731232,0
9,987.9520874023438,-1.864754012785852E-4,6.24634325504303E-4,-1.4395429752767086E-4,-4.819940567016602,28.763700485229492,-38.90271759033203,0.22029125690460205,0.5500785112380981,0.030594825744628906,0.019960523,-0.103073195,9.763741,-0.30174556,-0.5080157,9.74641,0
10,987.9520874023438,-1.864754012785852E-4,6.24634325504303E-4,-1.4395429752767086E-4,-4.744231224060059,28.939908981323242,-38.84770965576172,0.18629345297813416,0.5660609602928162,0.030744552612304688,0.06299013,-0.13405614,9.7637415,-0.2579066,-0.54289114,9.746351,0
10,987.9241333007812,-4.446180537343025E-4,0.001025092788040638,6.490974919870496E-4,-4.42704963684082,28.1833438873291,-38.852317810058594,0.16679328680038452,0.6010565161705017,0.030893325805664062,0.08690062,-0.15312265,9.763742,-0.24241346,-0.5585765,9.746328,0
10,987.9396362304688,-3.116801381111145E-4,-9.72240581177175E-4,2.495294902473688E-4,-4.4992780685424805,28.748140335083008,-39.336143493652344,0.2086971402168274,0.5931329727172852,0.016857147216796875,0.043893754,-0.13405664,9.775579,-0.27509364,-0.5351279,9.758065,0
10,987.9268188476562,4.871574928984046E-4,9.30408132262528E-5,-1.4999147970229387E-4,-4.735344409942627,29.94917106628418,-38.98512268066406,0.2506316006183624,0.5187740921974182,0.03594684600830078,0.008056641,-0.114990786,9.761377,-0.30854273,-0.5077178,9.743963,0
10,987.9268188476562,-8.445319253951311E-4,-4.395731375552714E-4,-1.5003862790763378E-4,-5.145573139190674,29.249052047729492,-39.034912109375,0.16812199354171753,0.5823380351066589,0.04085063934326172,0.0678156,-0.16027327,9.761377,-0.26167712,-0.5526296,9.743763,0
10,987.9548950195312,3.5377941094338894E-4,3.593924338929355E-4,-2.832437166944146E-4,-4.911136150360107,29.152891159057617,-39.68128204345703,0.16718965768814087,0.5604212284088135,0.03626251220703125,0.055877537,-0.14120735,9.766113,-0.2658368,-0.5316775,9.749187,0
10,987.9498901367188,3.536695148795843E-4,-3.063793992623687E-4,-2.832908648997545E-4,-4.822005271911621,29.130521774291992,-38.923866271972656,0.17583781480789185,0.5860522389411926,0.03167915344238281,0.06544852,-0.15789063,9.763747,-0.25608525,-0.5469831,9.746548,0
10,987.9677734375,2.204014454036951E-4,-3.0636158771812916E-4,-5.496540106832981E-4,-4.658167362213135,28.49428367614746,-39.75871276855469,0.2365972101688385,0.5307450294494629,0.036568641662597656,0.0272215,-0.11499186,9.761381,-0.2852627,-0.4979167,9.745216,0
10,987.9474487304688,8.713360875844955E-5,4.926039255224168E-4,-1.5022722072899342E-4,-4.998040676116943,29.33466911315918,-39.293601989746094,0.17804202437400818,0.5468778610229492,0.027254104614257812,0.07025117,-0.15312462,9.761381,-0.2500198,-0.53614134,9.744896,0
10,987.94287109375,-3.1245010904967785E-4,2.263058559037745E-4,-5.497483070939779E-4,-4.999020099639893,28.964902877807617,-39.11785125732422,0.20965781807899475,0.5424091815948486,0.04168891906738281,0.051143408,-0.13882525,9.751914,-0.26637194,-0.5160347,9.735732,0
10,987.95263671875,2.2007152438163757E-4,7.589554297737777E-4,-6.829533958807588E-4,-4.616103172302246,28.111860275268555,-39.12694549560547,0.1902170479297638,0.5361255407333374,0.022821426391601562,0.051154792,-0.13882549,9.77322,-0.26105964,-0.51613903,9.757211,0
10,987.9276123046875,-1.7951230984181166E-4,-0.001238395692780614,-0.0010824742494150996,-4.467048645019531,28.198949813842773,-39.46293640136719,0.20823781192302704,0.5380141735076904,0.037169456481933594,0.055945963,-0.1340592,9.756651,-0.25104198,-0.5100281,9.741159,0
10,987.9476318359375,-1.796223223209381E-4,0.0010253072250634432,-1.7257872968912125E-5,-4.398812294006348,28.473703384399414,-39.720489501953125,0.19292326271533966,0.5492879152297974,0.042052268981933594,0.055957437,-0.1340595,9.763754,-0.24822843,-0.5082605,9.748438,0
10,987.947998046875,-5.792060401290655E-4,9.321927791461349E-5,-1.7305079381912947E-5,-4.624660968780518,28.946989059448242,-39.636390686035156,0.2110946625471115,0.5415046215057373,0.03746318817138672,0.04401934,-0.13882633,9.773224,-0.26258916,-0.50760174,9.757587,0
10,987.9227905273438,-1.7984234727919102E-4,-0.0011051842011511326,5.152795929461718E-4,-4.632270812988281,28.939626693725586,-39.24987030029297,0.19996017217636108,0.5373498797416687,0.05187225341796875,0.053590328,-0.14835976,9.754288,-0.25208968,-0.5133488,9.738784,0
10,987.9306640625,-7.239932892844081E-5,8.380304207094014E-4,-4.023135406896472E-4,-4.258049488067627,28.8158016204834,-39.0693359375,0.1997334510087967,0.5171213150024414,0.03298759460449219,0.041652262,-0.13644363,9.770859,-0.25691035,-0.50256133,9.755586,0
10,987.9303588867188,0.001125912182033062,-0.0015587946400046349,1.3027118984609842E-4,-4.583980560302734,28.66901206970215,-39.62639617919922,0.18454715609550476,0.5428929924964905,0.023649215698242188,0.056003094,-0.15312676,9.766125,-0.24873888,-0.5151591,9.75072,0
10,987.9459228515625,4.6001240843907E-4,-3.60355363227427E-4,2.6338198222219944E-4,-4.347861289978027,29.100549697875977,-39.22612762451172,0.20719079673290253,0.5259721279144287,0.037985801696777344,0.034505367,-0.13406093,9.756657,-0.26173475,-0.49318427,9.7416525,0
10,987.9334716796875,6.0428574215620756E-5,8.380839717574418E-4,-6.687706336379051E-4,-4.745753288269043,28.938432693481445,-38.77040100097656,0.20102880895137787,0.5088406801223755,0.06653881072998047,0.051246077,-0.13644446,9.754291,-0.25058362,-0.49118355,9.739783,0
10,987.9437866210938,1.9347650231793523E-4,5.717860185541213E-4,5.296035669744015E-4,-4.738824844360352,29.208173751831055,-38.556304931640625,0.1711968332529068,0.534643292427063,0.03353309631347656,0.0536474,-0.1507444,9.756659,-0.2417081,-0.5064595,9.741819,0
10,987.9336547851562,3.265244304202497E-4,4.3864588951691985E-4,7.958722999319434E-4,-4.349383354187012,29.09907341003418,-39.148826599121094,0.19862113893032074,0.513014018535614,0.019458770751953125,0.039319396,-0.14121161,9.768496,-0.25576773,-0.49236828,9.753827,0
10,987.9337158203125,1.9325659377500415E-4,4.386638174764812E-4,-4.02596197091043E-4,-4.423707008361816,28.81842613220215,-38.582054138183594,0.1929163634777069,0.5197632312774658,0.024320602416992188,0.046500504,-0.15074493,9.7708645,-0.2440766,-0.50230414,9.756168,0
10,987.9364013671875,1.931465812958777E-4,-6.265819538384676E-4,-8.021173998713493E-4,-4.179296493530273,28.99494743347168,-39.16893768310547,0.19668255746364594,0.526738703250885,0.019708633422851562,0.039687574,-0.14598711,9.76853,-0.25841627,-0.48949724,9.754007,0
10,987.94384765625,7.256683311425149E-4,1.723835594020784E-4,-4.0269060991704464E-4,-4.745753288269043,28.93842887878418,-38.77040100097656,0.19453175365924835,0.49092602729797363,0.05764579772949219,0.042455196,-0.12693025,9.749626,-0.2516582,-0.4677088,9.73607,0
10,987.9413452148438,-6.058261496946216E-4,4.27686027251184E-5,-2.8428895166143775E-4,-4.336939334869385,28.530736923217773,-38.270660400390625,0.18812330067157745,0.5106974840164185,0.04362678527832031,0.042494535,-0.13169776,9.754364,-0.24519117,-0.47283912,9.740794,0
11,987.9413452148438,-6.058261496946216E-4,4.27686027251184E-5,-2.8428895166143775E-4,-4.336939334869385,28.530736923217773,-38.270660400390625,0.17322894930839539,0.5235487222671509,0.034224510192871094,0.056873262,-0.1626813,9.759102,-0.2382802,-0.5006427,9.744862,0
11,987.9288940429688,3.259003860875964E-4,-6.229595746845007E-4,-0.0012165568768978119,-4.780208587646484,29.328222274780273,-39.78870391845703,0.17736512422561646,0.5062610507011414,0.05328369140625,0.052132785,-0.12931637,9.749638,-0.24123129,-0.46191055,9.7367,0
11,987.9491577148438,-2.0711030811071396E-4,-4.897401086054742E-4,-1.514559262432158E-4,-4.922768592834473,28.772817611694336,-38.964393615722656,0.2004433423280716,0.4892711043357849,0.03445911407470703,0.04500246,-0.13170059,9.7709465,-0.24438953,-0.46346098,9.757881,0
11,987.9570922851562,-4.738052375614643E-4,-9.020470315590501E-5,1.1469755554571748E-4,-4.652897834777832,28.65663719177246,-38.768226623535156,0.17512311041355133,0.5055098533630371,0.039325714111328125,0.059381127,-0.14838453,9.766215,-0.23013787,-0.47910726,9.753051,0
11,987.9315795898438,1.9160530064255E-4,3.093305276706815E-4,-2.849386655725539E-4,-4.61968994140625,28.477209091186523,-39.070777893066406,0.1695573776960373,0.49339938163757324,0.048903465270996094,0.052250803,-0.1436189,9.761484,-0.2331752,-0.4720142,9.748474,0
11,987.9622192382812,-7.508974522352219E-5,4.3076230213046074E-5,5.138464039191604E-4,-4.51588249206543,28.837854385375977,-39.18486785888672,0.182685986161232,0.4812356233596802,0.039551734924316406,0.040340602,-0.13170351,9.766222,-0.24287063,-0.45613876,9.753513,0
11,987.9520874023438,4.5716320164501667E-4,8.420853991992772E-4,-8.178953430615366E-4,-4.53637170791626,28.6607723236084,-39.40229797363281,0.18648818135261536,0.4929693937301636,0.015990257263183594,0.047549635,-0.13408782,9.778063,-0.23635061,-0.45668352,9.76557,0
11,987.9370727539062,1.904681557789445E-4,4.319933941587806E-5,-5.517419776879251E-4,-4.650396347045898,29.027868270874023,-39.02128601074219,0.18032284080982208,0.4905468821525574,0.044508934020996094,0.045199037,-0.14600517,9.756762,-0.24086991,-0.46378213,9.743956,0
11,987.9370727539062,1.904681557789445E-4,4.319933941587806E-5,-5.517419776879251E-4,-4.890646934509277,29.329973220825195,-39.463844299316406,0.17924265563488007,0.47359412908554077,0.030420303344726562,0.045238376,-0.12932314,9.770968,-0.23015425,-0.44917452,9.758887,0
11,987.9600219726562,1.90089107491076E-4,4.326086491346359E-5,-1.524305553175509E-4,-4.314652442932129,28.921117782592773,-39.52867889404297,0.16889609396457672,0.4853719472885132,0.06366348266601562,0.045277715,-0.14124049,9.752033,-0.23555204,-0.45512515,9.739688,0
11,987.9295043945312,-7.660582195967436E-5,-8.98355501703918E-5,-2.857510116882622E-4,-4.684445858001709,28.943449020385742,-39.24205780029297,0.1579664647579193,0.4638265371322632,0.030635833740234375,0.05965644,-0.13170831,9.766241,-0.21292266,-0.44850537,9.7546835,0
11,987.9194946289062,-7.736391853541136E-5,4.429193795658648E-4,-8.187078055925667E-4,-4.59227180480957,28.92402458190918,-38.639244079589844,0.16185201704502106,0.48987603187561035,0.03547382354736328,0.057305872,-0.14600892,9.763877,-0.22081964,-0.4574861,9.751914,0
11,987.9423217773438,3.217308549210429E-4,7.092967280186713E-4,2.46393377892673E-4,-4.358514308929443,29.090234756469727,-38.68498992919922,0.17913836240768433,0.4586524963378906,0.04506969451904297,0.043005764,-0.13171028,9.76388,-0.22764403,-0.4410128,9.752242,0
11,987.9398803710938,-7.439118344336748E-4,0.002174095716327429,3.793889773078263E-4,-4.515339374542236,28.46956443786621,-39.08641052246094,0.16843920946121216,0.4751114845275879,0.040444374084472656,0.04782492,-0.14362769,9.766252,-0.22621696,-0.44936234,9.754458,0
11,987.9553833007812,3.209727583453059E-4,-8.952786447480321E-5,1.1291058035567403E-4,-4.25391960144043,28.08216667175293,-39.02704620361328,0.16719898581504822,0.45370006561279297,0.054749488830566406,0.050254166,-0.12932895,9.754419,-0.21728438,-0.43445766,9.743305,0
11,987.9398803710938,3.205935936421156E-4,8.426391868852079E-4,5.122219445183873E-4,-4.410988807678223,28.4619197845459,-39.10204315185547,0.13769301772117615,0.47954511642456055,0.035918235778808594,0.05746317,-0.14601283,9.759157,-0.21278517,-0.44855535,9.747785,0
11,987.927490234375,1.87056721188128E-4,3.1006900826469064E-4,1.1258554877713323E-4,-4.8485822677612305,28.947546005249023,-38.83207702636719,0.1890556365251541,0.448743999004364,0.03601360321044922,0.03360346,-0.13886394,9.763895,-0.23988526,-0.43369758,9.752355,0
11,987.940185546875,4.529934376478195E-4,1.7697259318083525E-4,1.1242314940318465E-4,-4.651376247406006,28.658109664916992,-38.84552764892578,0.1497708261013031,0.4605675935745239,0.045581817626953125,0.057541847,-0.13648166,9.759165,-0.21221805,-0.43311918,9.748364,0
11,987.9281005859375,5.314056761562824E-5,-8.928176248446107E-5,-4.203710122965276E-4,-4.5615644454956055,28.37335777282715,-38.688743591308594,0.1775641292333603,0.4536149501800537,0.059871673583984375,0.038461953,-0.13409932,9.754433,-0.22896752,-0.4264936,9.743412,0
11,987.915283203125,5.853932816535234E-4,3.1025364296510816E-4,-6.868494092486799E-4,-4.518383979797363,28.46661949157715,-38.931800842285156,0.17220765352249146,0.46543681621551514,0.031554222106933594,0.04328108,-0.14839993,9.775742,-0.22483122,-0.4399587,9.764471,0
11,987.9509887695312,4.51856292784214E-4,-0.0011544222943484783,-1.5438016271218657E-4,-4.996656894683838,29.230222702026367,-38.671836853027344,0.16102568805217743,0.447729229927063,0.04116058349609375,0.05049008,-0.14125116,9.768644,-0.22067557,-0.42857766,9.757895,0
11,987.93310546875,4.5147736091166735E-4,3.103765775449574E-4,3.780893166549504E-4,-4.824069976806641,29.49733543395996,-38.94500732421875,0.16533011198043823,0.45607805252075195,0.03173828125,0.055309236,-0.13410227,9.768646,-0.21094903,-0.42149693,9.7583475,0
11,987.9156494140625,7.174140773713589E-4,4.4122396502643824E-5,1.1161091970279813E-4,-4.990163803100586,28.761911392211914,-38.18352508544922,0.15579846501350403,0.46823006868362427,0.041355133056640625,0.0593704,-0.16030063,9.759113,-0.21324992,-0.44373187,9.748187,0
11,987.9612426757812,5.305814556777477E-5,-4.887421382591128E-4,2.453833003528416E-4,-4.6830620765686035,28.83901023864746,-38.620277404785156,0.1692037135362625,0.4466731548309326,0.04618644714355469,0.04742974,-0.1293182,9.763848,-0.21532062,-0.41151947,9.753768,0
12,987.9359741210938,4.591782344505191E-4,4.4297007843852043E-4,-2.8725137235596776E-4,-4.834043025970459,29.224653244018555,-39.00450134277344,0.15368656814098358,0.4536065459251404,0.027353286743164062,0.056998193,-0.14600141,9.77095,-0.20799562,-0.4264127,9.760682,0
12,987.9408569335938,-4.730129148811102E-4,5.761418724432588E-4,7.779755396768451E-4,-4.348297119140625,28.36249351501465,-38.95191955566406,0.1577700674533844,0.43215203285217285,0.02270793914794922,0.047447503,-0.13408525,9.768583,-0.20981824,-0.4136139,9.758604,0
12,987.966552734375,-7.362454198300838E-5,-4.891077987849712E-4,5.116229876875877E-4,-4.614687919616699,29.21967887878418,-39.576904296875,0.17133668065071106,0.4534510374069214,0.032268524169921875,0.04028669,-0.14600186,9.761483,-0.21919407,-0.42089683,9.751118,0
12,987.9436645507812,-2.0686828065663576E-4,-2.2277800599113107E-4,2.452704356983304E-4,-4.708660125732422,29.025800704956055,-38.704246520996094,0.15611030161380768,0.4462760090827942,0.04182910919189453,0.04268539,-0.14838542,9.775688,-0.21827525,-0.42065787,9.765413,0
12,987.9617919921875,-3.868050407618284E-4,-1.2992683332413435E-4,3.6506098695099354E-5,-4.553518295288086,29.118776321411133,-39.34947204589844,0.16442523896694183,0.4294280409812927,0.05140113830566406,0.037914515,-0.14600234,9.766218,-0.21616918,-0.41756004,9.756059,0
12,987.9232788085938,1.457412727177143E-4,0.0010685084853321314,-6.293203914538026E-4,-4.296802520751953,28.62104606628418,-38.359107971191406,0.15371108055114746,0.4362627863883972,0.051505088806152344,0.04509312,-0.13885264,9.747282,-0.2051957,-0.40881395,9.7376375,0
12,987.9186401367188,-6.53291936032474E-4,6.69048517011106E-4,4.3590646237134933E-4,-4.22940731048584,28.6319522857666,-39.139976501464844,0.15278583765029907,0.4292606711387634,0.02791595458984375,0.04749185,-0.14123614,9.761486,-0.20646472,-0.40763825,9.7519245,0
12,987.9566650390625,1.2412085197865963E-5,-1.298851566389203E-4,3.6395969800651073E-5,-4.527377128601074,28.563695907592773,-39.16705322265625,0.15691015124320984,0.43171006441116333,0.03273200988769531,0.049890637,-0.13885312,9.761487,-0.20200789,-0.40379643,9.752157,0
12,987.9465942382812,4.1180034168064594E-4,-6.625030655413866E-4,-2.2995658218860626E-4,-4.481152534484863,28.659902572631836,-39.564720153808594,0.16124986112117767,0.41998541355133057,0.03280448913574219,0.040339947,-0.14361991,9.770957,-0.21541946,-0.40347764,9.761385,0
12,987.9617919921875,4.1171477641910315E-4,-0.0010619629174470901,-4.963090177625418E-4,-4.817439079284668,29.134939193725586,-39.15577697753906,0.15554411709308624,0.42223161458969116,0.04709815979003906,0.04990843,-0.14600341,9.761489,-0.2025932,-0.40559176,9.752176,0
12,987.936767578125,-5.204766057431698E-4,5.359462229534984E-4,7.020756602287292E-4,-4.615666389465332,28.849916458129883,-39.401145935058594,0.1644641011953354,0.4150206446647644,0.02350902557373047,0.0379678,-0.13885383,9.770958,-0.21220756,-0.39523757,9.761715,0
12,987.9468994140625,-3.87403997592628E-4,-9.287772700190544E-4,4.357231082394719E-4,-4.589089870452881,29.03288459777832,-39.49293518066406,0.14927268028259277,0.4505918622016907,0.04253673553466797,0.054706007,-0.16030343,9.759123,-0.19734263,-0.4156381,9.749743,0
12,987.929443359375,1.1984258890151978E-5,2.6965816505253315E-4,3.025284968316555E-4,-4.620095252990723,28.951414108276367,-39.868309020996094,0.14317815005779266,0.4102177023887634,0.009485244750976562,0.045155257,-0.13408764,9.780428,-0.20328116,-0.3864941,9.7717,0
12,987.9467163085938,-3.8757536094635725E-4,0.0017344094812870026,-9.698211215436459E-5,-4.675313949584961,28.95228385925293,-39.70587921142578,0.16638033092021942,0.4078655242919922,0.061641693115234375,0.037994415,-0.13647117,9.766228,-0.21137494,-0.38424903,9.757404,0
12,987.926513671875,1.4497083611786366E-4,-0.0010618935339152813,3.613927401602268E-5,-4.867251396179199,29.404081344604492,-38.701942443847656,0.16104334592819214,0.41037875413894653,0.04751110076904297,0.038003296,-0.14123793,9.756759,-0.20487428,-0.38983542,9.747913,0
12,987.9595947265625,-5.209043156355619E-4,-7.955636829137802E-4,-4.965293919667602E-4,-4.326828956604004,28.909337997436523,-38.910240173339844,0.16000689566135406,0.39354008436203003,0.04286670684814453,0.0356223,-0.13408835,9.75676,-0.20840293,-0.37826234,9.748185,0
12,987.9298095703125,-2.547596814110875E-4,-5.292200949043036E-4,-6.297604413703084E-4,-4.622435569763184,29.10639762878418,-38.491302490234375,0.1493985503911972,0.4040939211845398,0.047722816467285156,0.052360475,-0.13647185,9.76623,-0.19114217,-0.3792544,9.758085,0
12,987.9298095703125,-2.547596814110875E-4,-5.292200949043036E-4,-6.297604413703084E-4,-4.622435569763184,29.10639762878418,-38.491302490234375,0.14424119889736176,0.41225534677505493,0.038298606872558594,0.052369356,-0.14362182,9.759129,-0.1937185,-0.38367268,9.750858,0
12,987.9298095703125,-2.547596814110875E-4,-5.292200949043036E-4,-6.297604413703084E-4,-4.757248878479004,28.664274215698242,-38.752593994140625,0.14811958372592926,0.41001778841018677,0.05257892608642578,0.045208544,-0.14838861,9.761496,-0.19510984,-0.38807446,9.753059,0
12,987.91455078125,-0.0013201087713241577,2.6974151842296124E-4,4.354663542471826E-4,-4.341367721557617,28.632234573364258,-38.737815856933594,0.15175311267375946,0.3980456590652466,0.04319572448730469,0.03804767,-0.13885574,9.7638645,-0.20592414,-0.37216783,9.755659,0
12,987.9400634765625,-2.5501649361103773E-4,0.0013350327499210835,9.680247167125344E-4,-5.026981353759766,28.886377334594727,-39.64783477783203,0.13157756626605988,0.39601200819015503,0.033799171447753906,0.06195563,-0.14123924,9.754396,-0.18276206,-0.37488067,9.746696,0
12,987.9298095703125,1.443719957023859E-4,-3.9600650779902935E-4,5.685142241418362E-4,-4.777301788330078,29.225248336791992,-39.244232177734375,0.14039476215839386,0.3891744613647461,0.03860282897949219,0.05240488,-0.13408963,9.7733345,-0.18725377,-0.36670014,9.76572,0
12,987.9120483398438,4.106020787730813E-4,0.001201902749016881,4.3531961273401976E-4,-4.910432815551758,29.310823440551758,-38.458885192871094,0.13491830229759216,0.3916816711425781,0.04340648651123047,0.059583485,-0.13647313,9.7686,-0.181079,-0.36692262,9.761164,0
12,987.90478515625,1.4420063234865665E-4,-0.00119492644444108,3.021248849108815E-4,-4.536808013916016,27.922719955444336,-39.12809753417969,0.13378363847732544,0.399383008480072,0.04812908172607422,0.05794108,-0.15079112,9.754467,-0.18117556,-0.37999803,9.746717,0
12,987.9501953125,2.860712702386081E-4,-1.2198160402476788E-4,1.921970397233963E-5,-4.689011573791504,28.93903160095215,-39.01013946533203,0.14281301200389862,0.3973923325538635,0.03871726989746094,0.05319932,-0.15079208,9.768673,-0.18576133,-0.37765267,9.760913,0
13,987.9432983398438,5.49442891497165E-4,-5.209774244576693E-4,-5.146737676113844E-4,-4.736759185791016,28.841352462768555,-38.53515625,0.1420793980360031,0.40016162395477295,0.034043312072753906,0.04128787,-0.14840968,9.768677,-0.19722992,-0.37136406,9.760838,0
13,987.958251953125,8.153915987350047E-4,1.4487188309431076E-4,-1.153572229668498E-4,-4.318675518035889,28.54841423034668,-39.19831848144531,0.13641299307346344,0.38378024101257324,0.019904136657714844,0.055665374,-0.13411094,9.773415,-0.17542526,-0.35958344,9.766304,0
13,987.9281005859375,1.607701415196061E-5,1.4493142953142524E-4,8.165909675881267E-4,-4.395906448364258,28.3707332611084,-39.17601776123047,0.14502935111522675,0.3770442605018616,0.04837322235107422,0.04614389,-0.13649516,9.763949,-0.18507186,-0.3581094,9.756689,0
13,987.940673828125,2.8202595422044396E-4,-1.2132478877902031E-4,6.832758663222194E-4,-4.275632858276367,28.535749435424805,-38.74230194091797,0.13023172318935394,0.3604877293109894,0.03896617889404297,0.05574155,-0.13411282,9.766319,-0.1730893,-0.35555676,9.75939,0
13,987.9053344726562,-5.172886303626001E-4,-0.0011865287087857723,-3.821449354290962E-4,-4.527377128601074,28.563695907592773,-39.16705322265625,0.14858832955360413,0.35853391885757446,0.06269645690917969,0.046220005,-0.12458064,9.754487,-0.18297158,-0.34138006,9.7477,0
13,987.950927734375,1.4975841622799635E-5,1.195224467664957E-5,-2.4914450477808714E-4,-5.3052802085876465,29.151655197143555,-38.15777587890625,0.12421248853206635,0.38014280796051025,0.04855155944824219,0.055817723,-0.15079765,9.756858,-0.18477064,-0.3622346,9.749707,0
13,987.9566650390625,-1.1854904005303979E-4,1.2011849321424961E-5,-1.1614372488111258E-4,-4.761378288269043,29.39790916442871,-38.794883728027344,0.14237356185913086,0.37768876552581787,0.039155006408691406,0.041516334,-0.12934913,9.768697,-0.18819492,-0.34050095,9.761891,0
13,987.9539794921875,-9.17863508220762E-4,5.447030998766422E-4,4.1633076034486294E-4,-4.708224296569824,29.76384925842285,-38.97845458984375,0.14144521951675415,0.3757910430431366,0.025010108947753906,0.048724145,-0.14364974,9.77817,-0.18086252,-0.3546579,9.771239,0
13,987.9082641601562,-2.5244097923859954E-4,1.2130942195653915E-5,5.493314238265157E-4,-4.617869853973389,29.110815048217773,-38.72321319580078,0.14087244868278503,0.35449689626693726,0.06767940521240234,0.05115211,-0.1341175,9.766336,-0.1761954,-0.3431226,9.759772,0
13,987.9564819335938,-1.1964986333623528E-4,-6.535991560667753E-4,-5.160894943401217E-4,-4.657464027404785,28.652212142944336,-38.53630828857422,0.13544252514839172,0.3572990298271179,0.044060707092285156,0.044020474,-0.12935184,9.763973,-0.18293369,-0.3349208,9.757469,0
13,987.9236450195312,4.126149578951299E-4,-5.20381610840559E-4,1.4954304788261652E-4,-3.982090950012207,28.705503463745117,-39.182395935058594,0.13019272685050964,0.3696405589580536,0.039376258850097656,0.048838377,-0.14365248,9.763977,-0.17128766,-0.3519042,9.75731,0
13,987.9439697265625,-1.2038386194035411E-4,-5.203220644034445E-4,2.8254371136426926E-4,-4.286149024963379,28.631357192993164,-38.900245666503906,0.11512315273284912,0.35296839475631714,0.025236129760742188,0.05604613,-0.13888688,9.766348,-0.16642033,-0.34396583,9.760019,0
13,987.9393920898438,-7.865407387726009E-4,-1.2078869622200727E-4,5.487023154273629E-4,-4.1797332763671875,28.256895065307617,-38.89472961425781,0.12430275976657867,0.3651689887046814,0.048958778381347656,0.056084216,-0.14842089,9.75925,-0.16609053,-0.35158634,9.75279,0
13,987.9642944335938,-1.2111809337511659E-4,-6.533608539029956E-4,4.15386981330812E-4,-4.359355926513672,28.826391220092773,-39.20831298828125,0.1280769258737564,0.3680908977985382,0.044280052185058594,0.04895261,-0.1460386,9.775824,-0.17332667,-0.34637022,9.769362,0
13,987.9465942382812,5.443046684376895E-4,-1.2066960334777832E-4,1.4891382306814194E-4,-4.4752020835876465,28.559873580932617,-39.17486572265625,0.1275743991136551,0.35651421546936035,0.044330596923828125,0.048990667,-0.1460395,9.756889,-0.17815818,-0.34098208,9.750519,0
13,987.9674072265625,1.1306081432849169E-5,5.451797042042017E-4,-9.165069786831737E-4,-4.8570332527160645,28.67633628845215,-38.96887969970703,0.10765087604522705,0.3782111704349518,0.04912281036376953,0.058588356,-0.15319033,9.754526,-0.16275033,-0.35011062,9.748261,0
13,987.91650390625,-3.8853491423651576E-4,-1.2055039405822754E-4,0.001213862793520093,-4.392563819885254,29.005815505981445,-38.90576171875,0.11635096371173859,0.3616766631603241,0.03971576690673828,0.05145675,-0.14127482,9.76163,-0.16839626,-0.3349597,9.755588,0
13,987.934326171875,-6.998120225034654E-4,3.5881291842088103E-4,1.620840630494058E-4,-4.4109883308410645,28.4619197845459,-39.10205078125,0.12987485527992249,0.35980939865112305,0.04449939727783203,0.04671499,-0.14842556,9.761635,-0.1718758,-0.3402775,9.755429,0
13,987.9547119140625,9.876867989078164E-5,-4.060129867866635E-5,-0.001036494504660368,-4.357834339141846,28.827863693237305,-39.285621643066406,0.12918461859226227,0.3620811104774475,0.058765411376953125,0.053922802,-0.14842649,9.752169,-0.1628609,-0.33894497,9.746197,0
13,987.927001953125,-9.668621351011097E-4,-1.736996346153319E-4,1.6176956705749035E-4,-4.210738658905029,28.1754207611084,-39.270111083984375,0.13342243432998657,0.3316648602485657,0.035137176513671875,0.04440123,-0.13651104,9.761641,-0.18184605,-0.31812117,9.755817,0
13,987.9652099609375,-1.682814327068627E-4,-3.067979705519974E-4,8.27401876449585E-4,-5.31913948059082,28.6121768951416,-38.585968017578125,0.1325235217809677,0.3674495220184326,0.039933204650878906,0.04921913,-0.14366181,9.756909,-0.17233337,-0.3261238,9.751118,0
13,987.9520874023438,-3.021732554771006E-4,2.2595294285565615E-4,-6.376499659381807E-4,-4.544524192810059,29.021696090698242,-39.114219665527344,0.12161619961261749,0.34058547019958496,0.044747352600097656,0.044477403,-0.13651295,9.768749,-0.17097396,-0.3191563,9.763092,0
13,987.9520874023438,-3.021732554771006E-4,2.2595294285565615E-4,-6.376499659381807E-4,-4.544524192810059,29.021696090698242,-39.114219665527344,0.12608879804611206,0.34438416361808777,0.049503326416015625,0.04639852,-0.1508011,9.763973,-0.167995,-0.33238828,9.758144,0
13,987.9425659179688,-4.3569825356826186E-4,-4.03032754547894E-5,-2.3833353770896792E-4,-4.400036811828613,29.104368209838867,-39.21831512451172,0.11220541596412659,0.337588906288147,0.059116363525390625,0.050679117,-0.13172267,9.7615595,-0.16276398,-0.31089377,9.756271,0
14,987.9549560546875,1.0970729636028409E-4,9.26150823943317E-5,4.280587309040129E-4,-4.610259532928467,29.11817741394043,-39.1097412109375,0.11632001399993896,0.34044158458709717,0.03075885772705078,0.062626064,-0.14602222,9.77813,-0.15575884,-0.32342914,9.772829,0
14,987.9346313476562,-2.3426429834216833E-5,-8.39494401589036E-4,1.617533853277564E-4,-5.066522598266602,30.060338973999023,-38.70964050292969,0.11107130348682404,0.3429645895957947,0.04501628875732422,0.057843685,-0.14602216,9.7544565,-0.1524016,-0.32350928,9.749165,0
14,987.9502563476562,-8.223493932746351E-4,9.260710794478655E-5,1.6176392091438174E-4,-4.218891143798828,28.536352157592773,-38.982032775878906,0.13408096134662628,0.33155596256256104,0.030864715576171875,0.050671518,-0.13172244,9.768661,-0.16297495,-0.30381685,9.763595,0
14,987.9502563476562,-8.223493932746351E-4,9.260710794478655E-5,1.6176392091438174E-4,-4.824505805969238,28.7592830657959,-38.670799255371094,0.12422055006027222,0.3482796847820282,0.0640573501586914,0.048279047,-0.15555514,9.75209,-0.17037496,-0.3231418,9.746608,0
14,987.9425659179688,-6.891670054756105E-4,3.589190891943872E-4,-1.045415410771966E-4,-5.0792951583862305,28.784284591674805,-38.940940856933594,0.12885652482509613,0.3178286552429199,0.049892425537109375,0.045886576,-0.1412554,9.761559,-0.16627026,-0.30926424,9.7563715,0
14,987.9578857421875,-2.3328408133238554E-5,-0.00163845787756145,-1.0452058631926775E-4,-4.5233540534973145,28.9364070892334,-39.497413635253906,0.11420786380767822,0.33018940687179565,0.040467262268066406,0.055443704,-0.1412554,9.75919,-0.15435398,-0.30956203,9.754238,0
14,987.9578857421875,-2.3328408133238554E-5,-0.00163845787756145,-1.0452058631926775E-4,-4.5233540534973145,28.9364070892334,-39.497413635253906,0.11836093664169312,0.31879472732543945,0.026309967041015625,0.048271418,-0.13887204,9.75919,-0.15937567,-0.3050065,9.754229,0
14,987.9404296875,-2.8959562769159675E-4,-4.057056503370404E-5,2.949741901829839E-4,-4.580095291137695,28.935808181762695,-39.25768280029297,0.11363331973552704,0.3215228021144867,0.045284271240234375,0.0434891,-0.13887198,9.761559,-0.16553609,-0.30156726,9.75658,0
14,987.9530639648438,-8.222027099691331E-4,-0.001771627925336361,6.944584893062711E-4,-4.799450874328613,28.940786361694336,-38.68528747558594,0.11332975327968597,0.31961357593536377,0.04059123992919922,0.045876443,-0.13648863,9.771027,-0.16477735,-0.29656762,9.766198,0
14,987.9811401367188,-5.558624980039895E-4,-9.726841235533357E-4,1.618372043594718E-4,-4.894669532775879,28.957265853881836,-39.13347625732422,0.11737878620624542,0.31298038363456726,0.04537200927734375,0.041094124,-0.14602168,9.756823,-0.1704531,-0.3028891,9.751811,0
14,987.9434204101562,1.09951535705477E-4,-4.05824976041913E-5,-2.3762614000588655E-4,-5.212830543518066,29.34406089782715,-38.95311737060547,0.11637555062770844,0.31100136041641235,0.04069232940673828,0.05543101,-0.1293387,9.763924,-0.15531257,-0.28533942,9.759532,0
14,987.9633178710938,-4.226556629873812E-4,8.91519186552614E-4,2.8700160328298807E-5,-4.772735595703125,29.229665756225586,-39.47615051269531,0.10605134069919586,0.29927772283554077,0.054947853088378906,0.057818353,-0.12933858,9.773392,-0.14862901,-0.2865734,9.769087,0
14,987.9711303710938,0.0011752641294151545,-4.400642355903983E-4,4.2818448855541646E-4,-4.769829273223877,29.126699447631836,-38.931678771972656,0.1200631707906723,0.31280556321144104,0.04076385498046875,0.04586634,-0.13172184,9.761557,-0.15978457,-0.285618,9.757068,0
14,987.9683837890625,-1.5629100380465388E-4,2.257215091958642E-4,-2.375948242843151E-4,-4.8931474685668945,28.958738327026367,-39.210784912109375,0.1099359542131424,0.3348042964935303,0.05500984191894531,0.05542338,-0.15555449,9.759188,-0.1541889,-0.30803365,9.754504,0
14,987.9612426757812,2.4320738157257438E-4,9.255955228582025E-5,-2.3758423049002886E-4,-4.661892414093018,28.753713607788086,-39.00347137451172,0.123531773686409,0.31417107582092285,0.059784889221191406,0.043471336,-0.14840467,9.752087,-0.16198815,-0.29877573,9.74739,0
14,987.9685668945312,2.432317123748362E-4,-1.7376034520566463E-4,-6.370475748553872E-4,-4.427156448364258,29.28968620300293,-39.2249755859375,0.11397342383861542,0.3076869249343872,0.036141395568847656,0.053028405,-0.14125474,9.766291,-0.14861071,-0.29303467,9.761929,0
14,988.0042724609375,2.4325615959241986E-4,-0.0019048175308853388,-7.701951544731855E-4,-4.8524675369262695,28.680761337280273,-39.20079040527344,0.11342525482177734,0.3011932671070099,0.02197742462158203,0.045856148,-0.1317216,9.775759,-0.15868816,-0.27853978,9.771497,0
14,987.9664306640625,-2.3035157937556505E-5,3.588634426705539E-4,1.6192090697586536E-4,-4.740751266479492,29.680906295776367,-39.276527404785156,0.10356925427913666,0.3280901312828064,0.05041790008544922,0.057803154,-0.1388713,9.756821,-0.14463305,-0.28660035,9.752699,0
14,987.9609985351562,1.1014699703082442E-4,-9.727198048494756E-4,-5.03858202137053E-4,-4.947930335998535,29.697668075561523,-39.32257080078125,0.12699060142040253,0.30752724409103394,0.045716285705566406,0.04824099,-0.14602114,9.759188,-0.15637551,-0.28999123,9.754837,0
14,987.9744262695312,2.4332973407581449E-4,-3.06934118270874E-4,2.9509986052289605E-4,-5.128533363342285,29.89739418029785,-39.46038818359375,0.11678797006607056,0.3058888912200928,0.045754432678222656,0.050628334,-0.14602102,9.763922,-0.15465397,-0.28811294,9.759668,0
14,987.9766845703125,2.4335406487807631E-4,9.253580356016755E-5,6.945842178538442E-4,-4.898799419403076,29.690893173217773,-39.17577362060547,0.11613194644451141,0.3089102804660797,0.0410614013671875,0.048235953,-0.14125444,9.75682,-0.153563,-0.28227913,9.752669,0
14,987.9996337890625,3.7653633626177907E-4,2.2568966960534453E-4,-2.375108888372779E-4,-4.114838600158691,27.89656639099121,-39.42253875732422,0.10619617998600006,0.29300856590270996,0.03162384033203125,0.053013206,-0.13410453,9.766289,-0.14234126,-0.27713773,9.762383,0
14,987.962158203125,1.1024513514712453E-4,-0.001105893636122346,1.619734102860093E-4,-4.59409236907959,28.29041862487793,-38.98680877685547,0.1247841864824295,0.30588340759277344,0.041126251220703125,0.041061163,-0.14363758,9.761554,-0.16355965,-0.27866048,9.757349,0
14,987.96923828125,2.4342729011550546E-4,2.256817533634603E-4,2.882594708353281E-5,-5.246879577636719,29.259641647338867,-39.17388916015625,0.0990472286939621,0.2897951602935791,0.060004234313964844,0.058901906,-0.1269819,9.756921,-0.13528821,-0.26686314,9.753337,0
14,987.9844360351562,-6.939555169083178E-4,9.338062955066562E-5,2.9288011137396097E-4,-4.3700103759765625,28.81608009338379,-38.66718292236328,0.1031697690486908,0.2879401743412018,0.04583549499511719,0.051774085,-0.13413276,9.768761,-0.1431219,-0.27120537,9.765005,0
15,987.971923828125,-2.92439479380846E-4,-3.585772356018424E-5,4.1562161641195416E-4,-4.397290229797363,28.47517204284668,-39.79779052734375,0.09841200709342957,0.30089449882507324,0.06952381134033203,0.054205805,-0.14366694,9.737991,-0.14454164,-0.27754027,9.734173,0
15,987.9650268554688,7.72420666180551E-4,-0.0019000035244971514,2.8229085728526115E-4,-4.728606224060059,28.48042869567871,-38.82323455810547,0.10288378596305847,0.28491079807281494,0.0506134033203125,0.056637585,-0.1365181,9.7593,-0.1414851,-0.26922053,9.75568,0
15,987.9719848632812,-2.6930239982903004E-5,9.743118425831199E-5,6.8159174406901E-4,-4.899778366088867,29.321134567260742,-39.00001525878906,0.11658519506454468,0.30230438709259033,0.04117584228515625,0.04472986,-0.1436689,9.764038,-0.1530617,-0.27338293,9.760168,0
15,987.9625244140625,-2.936495002359152E-4,-7.014510338194668E-4,-1.1752871796488762E-4,-4.778281211853027,28.85548973083496,-39.0684814453125,0.1018349826335907,0.28607767820358276,0.04120635986328125,0.049551517,-0.14605327,9.780612,-0.14637138,-0.27580333,9.776844,0
15,987.9520263671875,-9.598423494026065E-4,-4.3506966903805733E-4,4.1493019671179354E-4,-4.554496765136719,28.749013900756836,-39.17372131347656,0.11055649816989899,0.2984333336353302,0.041245460510253906,0.04959339,-0.14128773,9.759312,-0.14417072,-0.26905736,9.755685,0
15,987.9498291015625,-2.944560255855322E-4,9.762757690623403E-5,-3.8419023621827364E-4,-4.546887397766113,28.756376266479492,-39.56024169921875,0.1098138689994812,0.2779681086540222,0.03180408477783203,0.047245324,-0.13652219,9.76405,-0.14475077,-0.26297426,9.760504,0
15,987.9473266601562,-1.6114034224301577E-5,5.174778634682298E-4,-2.0340958144515753E-5,-4.487239837646484,28.654008865356445,-39.25550079345703,0.10858620703220367,0.280878484249115,0.06025218963623047,0.047287107,-0.13413997,9.74985,-0.1423408,-0.2589833,9.746407,0
15,987.9752807617188,-6.823068833909929E-4,0.0015828069299459457,3.789600741583854E-4,-4.499820709228516,29.116426467895508,-39.434593200683594,0.10307346284389496,0.2746780514717102,0.03187274932861328,0.04732901,-0.14367409,9.766425,-0.140704,-0.26851153,9.762893,0
15,987.9602661132812,-1.6920675989240408E-5,1.1813503806479275E-4,-2.870025928132236E-4,-4.165193557739258,28.53400230407715,-39.06715393066406,0.10217057168483734,0.27804598212242126,0.06031036376953125,0.04737085,-0.13652529,9.754593,-0.1407149,-0.25884473,9.751214,0
15,987.962646484375,6.484659970737994E-4,6.508323131129146E-4,5.117722321301699E-4,-4.518627643585205,29.467042922973633,-38.605384826660156,0.09211449325084686,0.27659744024276733,0.05560016632080078,0.054582417,-0.13890962,9.764065,-0.1350234,-0.26004916,9.76081,0
15,987.9348754882812,0.001047536265105009,3.845818864647299E-4,-1.5419040573760867E-4,-4.651919364929199,29.026395797729492,-38.94398498535156,0.10079078376293182,0.27044934034347534,0.03195476531982422,0.045064628,-0.13176079,9.764069,-0.14489168,-0.24903256,9.76081,0
15,987.9552001953125,-2.844464615918696E-4,1.183314889203757E-4,1.1195288971066475E-4,-4.9814372062683105,29.24495506286621,-39.44488525390625,0.11423857510089874,0.2833065390586853,0.050922393798828125,0.0451065,-0.1460615,9.764072,-0.14602466,-0.26180667,9.760667,0
15,987.9552001953125,-2.844464615918696E-4,1.183314889203757E-4,1.1195288971066475E-4,-4.946845054626465,28.961088180541992,-39.12566375732422,0.10851931571960449,0.28172755241394043,0.05095481872558594,0.052318066,-0.14129598,9.761709,-0.13233216,-0.2591519,9.758534,0
15,987.9654541015625,2.477820380590856E-4,6.510287057608366E-4,-4.2085180757567286E-4,-4.342889785766602,28.63075828552246,-38.66051483154297,0.1076616644859314,0.26597946882247925,0.03677940368652344,0.045190156,-0.14368017,9.76408,-0.14197537,-0.2575583,9.760813,0
15,987.9578857421875,-1.9340601284056902E-5,0.0010506333783268929,-6.875134422443807E-4,-5.135056972503662,29.1534481048584,-38.87696838378906,0.10645453631877899,0.2643764615058899,0.05101776123046875,0.04284209,-0.14368124,9.766452,-0.14594837,-0.2541504,9.7632065,0
15,987.9730834960938,-1.5290180454030633E-4,0.0015833305660635233,-8.208443759940565E-4,-4.800834655761719,29.045225143432617,-39.30706024169922,0.09114933013916016,0.27699363231658936,0.03684806823730469,0.05722338,-0.14606558,9.761721,-0.12811837,-0.25849205,9.758717,0
15,987.9909057617188,-1.5330518363043666E-4,7.844484644010663E-4,-9.541751933284104E-4,-4.8117876052856445,28.40277671813965,-39.1907958984375,0.09055222570896149,0.2758161723613739,0.027399063110351562,0.052485436,-0.14130004,9.77356,-0.1325382,-0.25167054,9.770584,0
15,987.9607543945312,7.783971377648413E-4,-1.4759154873900115E-4,-2.885581343434751E-4,-5.072908401489258,29.42231559753418,-38.825286865234375,0.08992995321750641,0.25983136892318726,0.04162883758544922,0.054917157,-0.12938471,9.771196,-0.12850545,-0.23812008,9.768462,0
15,987.9657592773438,-5.535856471396983E-4,-1.475260651204735E-4,1.1074281064793468E-4,-4.6332502365112305,28.569860458374023,-39.07411193847656,0.09419681131839752,0.2633582353591919,0.051115989685058594,0.050179213,-0.13653554,9.756998,-0.13079193,-0.2445831,9.754141,0
15,987.9939575195312,0.0011770641431212425,2.520132402423769E-4,-2.2587948478758335E-5,-4.811489105224609,29.034910202026367,-38.76592254638672,0.08398257195949554,0.25718507170677185,0.051138877868652344,0.059780717,-0.13653655,9.761736,-0.12155344,-0.24416754,9.759064,0
15,987.968505859375,1.1139741400256753E-4,1.1892072507180274E-4,2.435549977235496E-4,-4.470773696899414,28.458372116088867,-38.70770263671875,0.08801907300949097,0.274997353553772,0.027490615844726562,0.055042684,-0.1460707,9.768841,-0.1246748,-0.25294757,9.766017,0
15,987.9412231445312,2.4415209190919995E-4,9.179338812828064E-4,-4.2240769835188985E-4,-4.728063583374023,28.112138748168945,-38.72478485107422,0.08695429563522339,0.25879138708114624,0.055927276611328125,0.047914863,-0.14607172,9.7546425,-0.13318112,-0.24938652,9.751757,0
15,987.963623046875,6.432225345633924E-4,2.5220963289029896E-4,1.1005130363628268E-4,-4.738985061645508,28.68195152282715,-39.68025207519531,0.09140488505363464,0.2488992065191269,0.04646587371826172,0.059482723,-0.13414599,9.764076,-0.11885084,-0.2387057,9.761538,0
15,987.9863891601562,9.091351530514657E-4,-1.4040764654055238E-5,2.430363674648106E-4,-4.802356719970703,29.043752670288086,-39.22975158691406,0.08254444599151611,0.2667238712310791,0.05129241943359375,0.05429566,-0.13890256,9.752203,-0.1243341,-0.24129453,9.749565,0
15,987.963623046875,7.874244474805892E-4,-5.504412110894918E-4,-2.9362645000219345E-4,-4.753225803375244,29.036985397338867,-39.08296203613281,0.08644130825996399,0.2603592276573181,0.05132484436035156,0.05430323,-0.13890274,9.752203,-0.12291007,-0.2400158,9.749615,0
16,987.9539794921875,-4.1006034007295966E-4,3.8151239277794957E-4,3.7256462383084E-4,-4.562512397766113,29.215856552124023,-39.584716796875,0.09553052484989166,0.2685285210609436,0.04187774658203125,0.04236138,-0.14366944,9.754572,-0.13301823,-0.24278301,9.751793,0
16,987.9666137695312,3.8881407817825675E-4,-1.5110743697732687E-4,-1.6009865794330835E-4,-4.727627754211426,28.850194931030273,-38.998985290527344,0.0853244960308075,0.25318700075149536,0.01822662353515625,0.06148821,-0.13651986,9.778244,-0.11452137,-0.23666935,9.775856,0
16,987.9563598632812,6.550565012730658E-4,9.14167903829366E-4,-8.259195601567626E-4,-4.503844261169434,28.743722915649414,-39.10423278808594,0.08503346145153046,0.25657808780670166,0.07032394409179688,0.056716025,-0.14128657,9.756941,-0.11742526,-0.24002804,9.75447,0
16,987.969482421875,2.5550933787599206E-4,-8.16873274743557E-4,-2.7003581635653973E-5,-4.376502990722656,29.284391403198242,-39.155487060546875,0.08460813760757446,0.25509417057037354,0.03720664978027344,0.059113503,-0.13890351,9.775878,-0.112863526,-0.23750347,9.773508,0
16,987.9691162109375,-2.771957661025226E-4,-2.842296671587974E-4,-8.259826572611928E-4,-4.499278545379639,28.748144149780273,-39.336143493652344,0.08885885775089264,0.24898409843444824,0.07036781311035156,0.044781744,-0.13890363,9.745106,-0.12741594,-0.2333142,9.742574,0
16,987.9540405273438,3.8852059515193105E-4,5.147298215888441E-4,-2.9338221065700054E-4,-5.1447319984436035,29.51289939880371,-38.51158905029297,0.0922919511795044,0.2525992691516876,0.027790069580078125,0.047179222,-0.14605375,9.768778,-0.12927824,-0.23764628,9.766238,0
16,987.95166015625,5.216050776652992E-4,0.0017131632193922997,-1.6025581862777472E-4,-4.971899509429932,28.779584884643555,-39.111183166503906,0.08753453195095062,0.25755852460861206,0.008849143981933594,0.044796944,-0.13890405,9.782982,-0.12880361,-0.23166661,9.780479,0
16,988.0203857421875,0.0038504800759255886,-0.0014826154801994562,-5.597610725089908E-4,-4.811489105224609,29.034914016723633,-38.76592254638672,0.10103927552700043,0.24633340537548065,0.04202079772949219,0.042414635,-0.13413768,9.759311,-0.12644133,-0.22632702,9.756882,0
16,988.089599609375,-0.0022748582996428013,0.0013137131463736296,2.391550806351006E-4,-4.503545761108398,29.3758602142334,-38.679359436035156,0.07174389064311981,0.22954747080802917,0.042054176330566406,0.05915159,-0.13652118,9.766413,-0.109524615,-0.22850066,9.76426,0
16,987.8677978515625,-0.0013428262900561094,-2.8417014982551336E-4,-2.9350805561989546E-4,-4.538979530334473,29.3958797454834,-39.52189636230469,0.07596088945865631,0.23763976991176605,0.046810150146484375,0.04720968,-0.13413803,9.752211,-0.11810194,-0.22414407,9.749957,0
16,987.911376953125,1.218377728946507E-4,6.479474832303822E-4,-2.9353948775678873E-4,-4.233675003051758,29.259672164916992,-38.483192443847656,0.08027306199073792,0.24195250868797302,0.013681411743164062,0.054386973,-0.14605464,9.790087,-0.11486058,-0.23566693,9.787818,0
16,987.9747924804688,0.0026517652440816164,-5.504621658474207E-4,-4.2672886047512293E-4,-4.552677154541016,29.38262367248535,-38.826148986816406,0.08923646807670593,0.2542233467102051,0.02791309356689453,0.04722488,-0.14605476,9.764048,-0.11944723,-0.23321673,9.761738,0
16,987.9796752929688,-0.0018756778445094824,6.479712319560349E-4,3.72187263565138E-4,-4.287671089172363,28.629884719848633,-38.82293701171875,0.10277102887630463,0.23872622847557068,0.04687309265136719,0.04484263,-0.14367177,9.778252,-0.12124433,-0.2293401,9.775969,0
16,987.893798828125,-1.1540309060364962E-5,3.816672251559794E-4,-1.6047596000134945E-4,-4.329329967498779,28.53809928894043,-38.65718078613281,0.07827141880989075,0.22303907573223114,0.032691001892089844,0.052019954,-0.13413878,9.766417,-0.113276735,-0.21874797,9.76437,0
16,987.9242553710938,-1.4477159129455686E-4,2.485211589373648E-4,2.3896642960608006E-4,-4.549227714538574,28.911359786987305,-38.1832275390625,0.07833269238471985,0.23123326897621155,0.02323436737060547,0.052027524,-0.13652225,9.775887,-0.11428739,-0.21951026,9.773847,0
16,987.9195556640625,-1.1687108781188726E-5,-0.001349362195469439,-6.931704701855779E-4,-4.673089027404785,29.111692428588867,-38.560791015625,0.08284468948841095,0.23471859097480774,0.0469207763671875,0.05442506,-0.13175593,9.756949,-0.111302204,-0.21334922,9.755024,0
16,987.9903564453125,5.208714283071458E-4,-2.840867673512548E-4,3.7206150591373444E-4,-4.806081771850586,29.30318260192871,-38.474517822265625,0.08239401876926422,0.2387133687734604,0.04220008850097656,0.052042782,-0.14367245,9.759317,-0.110960975,-0.22607465,9.757264,0
16,987.9725341796875,6.539560272358358E-4,-1.509169233031571E-4,1.0571419261395931E-4,-4.318920612335205,29.5488338470459,-38.87189483642578,0.07751289010047913,0.22281348705291748,0.046950340270996094,0.056830227,-0.13413955,9.768787,-0.10635823,-0.21499133,9.766928,0
16,987.9879150390625,-6.776968366466463E-4,-5.503788124769926E-4,3.71998583432287E-4,-4.464387893676758,29.096403121948242,-38.59205627441406,0.08220906555652618,0.23111125826835632,0.06589984893798828,0.05444792,-0.13175641,9.749849,-0.10598532,-0.21192317,9.748013,0
16,987.9573974609375,8.417002973146737E-4,-9.42815444432199E-4,-8.10823286883533E-4,-4.110112190246582,28.42720603942871,-38.53050231933594,0.07693932950496674,0.22970658540725708,0.03277873992919922,0.05206561,-0.1389065,9.76642,-0.11084265,-0.21650162,9.764518,0
16,987.9501342773438,-2.236365689896047E-4,5.219337763264775E-4,-1.190707553178072E-5,-4.363516807556152,28.34776496887207,-38.178871154785156,0.07637129724025726,0.22827163338661194,0.0233306884765625,0.049683303,-0.13652338,9.77589,-0.113150805,-0.21208946,9.7740135,1
16,987.9501342773438,-2.236365689896047E-4,5.219337763264775E-4,-1.190707553178072E-5,-4.606512069702148,29.2790584564209,-38.041954040527344,0.06160147488117218,0.22690850496292114,0.07542610168457031,0.056860656,-0.13890685,9.745117,-0.10429232,-0.21442819,9.743357,1
16,987.9805908203125,-6.231838488020003E-4,-2.770019636955112E-4,-1.1938507668673992E-5,-4.428954124450684,29.076383590698242,-37.74951171875,0.06551472842693329,0.23051780462265015,0.051718711853027344,0.06457487,-0.13653697,9.773574,-0.09390034,-0.21324787,9.771963,1
16,987.9449462890625,-4.914566525258124E-4,-8.094013901427388E-4,-2.788675483316183E-4,-4.097232818603516,28.596921920776367,-37.926544189453125,0.07527685165405273,0.2387276589870453,0.06592845916748047,0.050264657,-0.1436875,9.742802,-0.109028056,-0.21684179,9.740967,1
17,987.9603881835938,1.7649924848228693E-4,-0.0012069980148226023,2.45074974372983E-4,-4.302454471588135,29.353208541870117,-38.3240966796875,0.09380201995372772,0.22303339838981628,0.03280448913574219,0.05268371,-0.14368822,9.768845,-0.10705323,-0.21562847,9.767077,1
17,987.9627685546875,-3.5641377326101065E-4,-5.411627935245633E-4,-1.5451933722943068E-4,-4.195357799530029,28.71637535095215,-38.919212341308594,0.07457642257213593,0.22605359554290771,0.028082847595214844,-0.16476817,0.054123193,9.7806835,-0.29759282,0.009422302,9.77769,1
17,987.9780883789062,-0.0011556425597518682,-4.0795913082547486E-4,-0.002551482990384102,-4.4764251708984375,29.19053840637207,-38.672691345214844,2.403384208679199,-2.036196231842041,-0.014475822448730469,-1.0346633,0.46166307,9.837498,-1.0982378,0.52420115,9.827466,1
17,987.96826171875,-0.005816452205181122,-0.0012068611104041338,-0.757290780544281,-6.107420921325684,29.40165901184082,-38.4337158203125,-2.2028777599334717,2.0676662921905518,-0.1611490249633789,1.0039524,-0.75857604,10.10973,0.69620705,-0.9259204,10.121657,1
17,987.9376831054688,-0.1750604808330536,-0.03889050707221031,-0.8105541467666626,-6.856980323791504,29.173635482788086,-37.919944763183594,-0.22751069068908691,0.34253817796707153,-0.6153841018676758,0.5355606,-0.35580283,10.159444,0.345564,-0.37899292,10.1668415,1
17,987.8815307617188,-0.2347155064344406,0.17935539782047272,-0.20601719617843628,-6.555966377258301,29.244840621948242,-38.04747772216797,0.30349358916282654,-0.04006381332874298,0.4494943618774414,-0.298486,-0.08172651,9.967703,-0.25366533,0.13174242,9.96841,1
17,987.88427734375,-0.26387739181518555,0.2820202112197876,-0.06074198707938194,-5.89581298828125,29.283403396606445,-37.920509338378906,0.18218979239463806,-0.35874199867248535,-0.9450445175170898,-0.15267277,-0.25332326,10.595015,0.00928247,0.17344533,10.597721,1
17,987.8866577148438,-0.7548309564590454,0.2941376268863678,-0.22998583316802979,-5.698553562164307,30.626523971557617,-37.18267822265625,-0.5221930742263794,1.0857195854187012,1.227041244506836,0.19628215,-2.0503159,8.42666,0.11649844,-1.4210205,8.556754,1
17,987.89697265625,-1.1569682359695435,0.3460693061351776,-0.13943856954574585,-5.61447811126709,32.6005859375,-35.540496826171875,-0.21469484269618988,0.2416222095489502,-0.31255149841308594,0.10310507,-1.3543994,10.109743,0.28666317,-0.008460522,10.196551,1
17,987.9706420898438,-1.310499668121338,-0.38270407915115356,0.3947909474372864,-5.334175109863281,33.915443420410156,-33.73602294921875,-1.2912089824676514,-0.29955315589904785,0.07254886627197266,0.841614,-1.8405889,9.250451,0.9578402,-0.39652503,9.412346,1
17,987.9706420898438,-0.9111591577529907,0.07975348830223083,0.10783549398183823,-5.3468403816223145,35.904510498046875,-32.464744567871094,0.6731621026992798,0.21819710731506348,0.018975257873535156,-0.24576223,-2.608005,8.845662,-0.24771959,-0.57487667,9.204128,1
17,987.9713134765625,-1.1103638410568237,-0.25447291135787964,0.21036697924137115,-5.276080131530762,36.97080993652344,-31.152318954467773,-1.8081791400909424,-0.9497586488723755,-1.7063941955566406,0.8106036,-1.6642277,10.9288025,0.85336125,1.2886142,10.976189,1
17,988.0017700195312,-1.4902637004852295,-0.706544041633606,0.18306946754455566,-5.834169864654541,38.71215057373047,-29.1666202545166,4.251273155212402,1.4904437065124512,0.9613523483276367,-2.5973675,-4.6743093,8.407736,-3.0026183,-1.173105,9.428342,1
17,988.0042724609375,-1.1050381660461426,0.19107365608215332,-0.432519793510437,-6.2158403396606445,39.354835510253906,-27.836679458618164,-0.53253173828125,-0.14641928672790527,-0.1151123046875,0.17255813,-3.4373882,9.326212,0.070044994,0.14438486,9.9397135,1
17,987.99658203125,-1.0226134061813354,-0.08229953795671463,0.10983237624168396,-6.519737720489502,39.80690002441406,-26.430585861206055,0.20354348421096802,0.06696033477783203,-0.01701641082763672,-0.07118273,-4.090407,8.885916,-0.23486125,-0.11364317,9.778954,1
17,988.0221557617188,-1.1833354234695435,-0.001073155552148819,-0.004017786588519812,-6.386530876159668,41.774200439453125,-24.641618728637695,0.44585275650024414,0.21895790100097656,0.039363861083984375,-0.1500203,-4.6171126,8.777027,-0.31774867,-0.12845325,9.912567,1
17,987.9940795898438,-1.2524447441101074,0.11091271042823792,-0.22093218564987183,-6.534689903259277,43.583526611328125,-23.031002044677734,-0.40354716777801514,0.04404449462890625,0.24986553192138672,0.43314493,-5.136668,7.995853,0.20010227,-0.52796817,9.496728,1
17,987.9990844726562,-1.4053102731704712,0.16643962264060974,-0.28271761536598206,-6.640133857727051,43.535789489746094,-20.317508697509766,0.3204176127910614,-0.037059783935546875,0.6336331367492676,-0.042416394,-5.4226623,7.6526113,-0.2587042,-0.38983202,9.367531,1
17,987.9788208007812,-1.0561704635620117,0.050325945019721985,-0.07259448617696762,-7.022485733032227,44.44084167480469,-18.386940002441406,-0.11092116683721542,0.3184952735900879,0.5567035675048828,0.079497844,-5.751555,7.3519797,-0.1749785,-0.5745182,9.31545,1
17,987.9814453125,-0.6560311317443848,0.04939388856291771,-0.0631403923034668,-7.033384323120117,45.43096160888672,-17.519384384155273,0.042819276452064514,0.2160806655883789,0.8892931938171387,0.09864622,-5.8182874,7.3496146,-0.15372235,-0.5494056,9.357005,1
17,987.9736938476562,-0.035115987062454224,0.058182358741760254,-0.07099682837724686,-7.363039970397949,45.543601989746094,-17.321208953857422,0.3180747926235199,-0.15044021606445312,0.10632514953613281,-0.30760795,-5.232002,8.296497,-0.32842302,0.42682934,9.798484,1
17,987.938232421875,0.36049598455429077,0.06204397976398468,-0.09283484518527985,-7.620192527770996,45.30328369140625,-18.037363052368164,-0.3563464879989624,0.5696206092834473,0.5223369598388672,0.53366673,-6.008951,7.5531993,0.18474334,-0.933115,9.619681,1
17,987.9713134765625,0.2824651300907135,0.21743935346603394,-0.32080137729644775,-7.779081344604492,45.04943084716797,-18.459932327270508,0.14478006958961487,0.1030116081237793,0.606511116027832,-0.0088118315,-5.3678503,7.704703,-0.21092206,-0.3234992,9.382281,1
17,988.0780029296875,0.43706125020980835,-0.0034696331713348627,0.010894937440752983,-7.923569679260254,44.966758728027344,-18.355844497680664,0.07686254382133484,0.1229848861694336,0.3136758804321289,-0.042241275,-4.9817595,8.350951,-0.14952189,0.049459457,9.722823,1
17,988.0601196289062,0.8214879035949707,0.0066504161804914474,-0.008013609796762466,-7.625759601593018,44.50879669189453,-19.45271873474121,0.38592463731765747,-0.3681483268737793,-0.833247184753418,-0.3576792,-4.1094804,9.534555,-0.19563901,1.1098685,10.327315,1
18,988.075439453125,0.7386634349822998,0.14047420024871826,-0.19390220940113068,-8.068241119384766,43.93756866455078,-21.198732376098633,0.15127001702785492,0.1011343002319336,0.7748193740844727,-0.1114901,-4.4812727,8.367527,-0.17783368,0.034052134,9.490889,1
18,988.0704345703125,0.31415560841560364,0.40878748893737793,-0.6358535289764404,-8.69091796875,43.09185791015625,-22.285043716430664,-0.050859712064266205,-0.7156286239624023,-1.8265905380249023,0.07734135,-4.357343,10.031673,0.2297014,0.6815996,10.913733,1
18,987.9865112304688,0.3803348243236542,0.3713701367378235,-0.38458460569381714,-9.216174125671387,41.968772888183594,-23.601091384887695,-0.7094817757606506,1.3624186515808105,-1.0842418670654297,0.63641214,-4.5623007,10.559544,0.886336,0.1487565,11.485461,1
18,988.0347290039062,0.949318528175354,0.3109164834022522,0.29159125685691833,-8.613358497619629,40.742462158203125,-24.084131240844727,-0.311726838350296,-0.6200776100158691,-1.666748046875,0.10806766,-3.599452,10.038744,0.4182579,0.4069357,10.649112,1
