Timestamp,P,Gx,Gy,Gz,Mx,My,Mz,LiAx,LiAy,LiAz,Ax,Ay,Az,Value,Type
0,990.0169067382812,1.1680126772262156E-4,0.004889313597232103,-4.604125570040196E-4,-6.6818742752075195,28.1718692779541,-36.837547302246094,2.474617213010788E-4,0.0010692179203033447,0.05860614776611328,0.02477333,-0.13989112,9.769367,0
0,989.8631591796875,-2.608063514344394E-4,0.0015940655721351504,2.188433427363634E-5,7.909543037414551,27.556516647338867,-34.353981018066406,0.018562491983175278,-0.008646458387374878,0.04913616180419922,8.6420774E-4,-0.13750759,9.769366,0
0,989.8631591796875,-2.608063514344394E-4,0.0015940655721351504,2.188433427363634E-5,7.909543037414551,27.556516647338867,-34.353981018066406,-0.01937182806432247,0.005584925413131714,0.01599407196044922,0.022363156,-0.1446571,9.781201,0
0,989.8785400390625,1.3876536104362458E-4,-6.696352502331138E-4,-5.107054603286088E-4,7.591382026672363,27.943315505981445,-34.173622131347656,-0.005246475338935852,-0.008667796850204468,0.030200958251953125,0.017573178,-0.13274041,9.771731,0
0,989.8836669921875,-3.9367092540487647E-4,2.624385815579444E-4,-9.100954048335552E-4,7.594287872314453,27.84034538269043,-33.629154205322266,-0.019715430215001106,-0.0041844844818115234,0.01599407196044922,0.024732769,-0.13035691,9.778832,0
0,989.9039306640625,-2.604150795377791E-4,5.287386011332273E-4,1.5520991291850805E-4,7.445073127746582,27.227041244506836,-34.41709899902344,-7.04597681760788E-4,0.0010142922401428223,0.03020477294921875,0.0056034327,-0.13512322,9.771729,0
0,989.8760375976562,5.386302364058793E-4,-3.909079168806784E-6,-1.1106400052085519E-4,7.694754600524902,27.565908432006836,-34.01349639892578,0.00828981027007103,9.171068668365479E-4,0.03020477294921875,0.007983148,-0.13512298,9.781198,0
0,989.8760375976562,5.386302364058793E-4,-3.909079168806784E-6,-1.1106400052085519E-4,7.694754600524902,27.565908432006836,-34.01349639892578,-0.001341918483376503,0.005402490496635437,0.025468826293945312,0.015142739,-0.14227259,9.771728,0
0,989.8963623046875,6.194037268869579E-6,6.618489278480411E-4,-5.104540614411235E-4,7.556215286254883,27.38321876525879,-33.519554138183594,-0.0015065483748912811,0.00996263325214386,0.03966999053955078,0.017522454,-0.14227238,9.776462,0
0,989.8963623046875,6.194037268869579E-6,6.618489278480411E-4,-5.104540614411235E-4,7.556215286254883,27.38321876525879,-33.519554138183594,0.007852071896195412,-0.004218831658363342,0.03493785858154297,0.015122414,-0.14703867,9.776461,0
0,989.8961181640625,-3.9318198105320334E-4,3.955170977860689E-4,-0.0010430439142510295,7.676872253417969,26.653730392456055,-34.11133575439453,0.012571671977639198,0.005333662033081055,0.053877830505371094,0.012722373,-0.13988861,9.766991,0
0,989.891357421875,4.0586345130577683E-4,-3.9725691749481484E-6,4.2173537076450884E-4,7.351131439208984,28.245420455932617,-34.616180419921875,-0.015921182930469513,-0.00904799997806549,0.04440784454345703,0.02466172,-0.12320545,9.771724,0
0,989.9064331054688,-5.260464386083186E-4,-5.366361001506448E-4,1.5550333773717284E-4,7.870192527770996,26.097492218017578,-34.493499755859375,-0.01569962315261364,0.014531314373016357,0.025467872619628906,0.022261709,-0.14227137,9.783559,0
0,989.8885498046875,-1.2600036279764026E-4,-2.693870337679982E-4,2.6216672267764807E-5,7.167593002319336,27.335859298706055,-34.22673797607422,-0.009978268295526505,1.2168288230895996E-4,0.030264854431152344,0.021544874,-0.13033745,9.76929,0
0,989.8885498046875,-1.2600036279764026E-4,-2.693870337679982E-4,2.6216672267764807E-5,7.167593002319336,27.335859298706055,-34.22673797607422,-3.703758120536804E-4,0.0052859485149383545,0.035007476806640625,0.021506786,-0.14225286,9.785857,0
0,989.88623046875,5.434356862679124E-4,-2.6997894747182727E-4,-0.0011706420918926597,7.559939384460449,27.12379264831543,-34.2747917175293,-0.023844679817557335,0.009901955723762512,0.0444793701171875,0.026248515,-0.14225191,9.766916,0
0,989.8887329101562,-3.8830284029245377E-4,-2.7003855211660266E-4,0.0013595160562545061,7.503199577331543,27.12318992614746,-34.035057067871094,0.009472336620092392,0.00987359881401062,0.03974723815917969,0.014260948,-0.1374844,9.764545,0
0,989.89111328125,4.1101162787526846E-4,-2.700980403460562E-4,9.601993951946497E-4,7.486051559448242,27.58119773864746,-33.98223114013672,-0.009408261626958847,0.005231127142906189,0.020813941955566406,0.021392614,-0.1446333,9.778746,0
0,989.8809814453125,4.294091195333749E-4,-2.741989155765623E-4,2.946405438706279E-4,7.184632301330566,27.98420524597168,-34.6522216796875,-0.009394858032464981,-0.01392132043838501,0.02555084228515625,0.021354556,-0.13509926,9.778742,0
0,989.9013061523438,-5.023296689614654E-4,2.5837330031208694E-4,2.8481852496042848E-5,7.394719123840332,27.864469528198242,-34.06171417236328,-0.004439536482095718,3.06054949760437E-4,0.05395984649658203,0.15993077,-0.25902882,9.762168,0
0,989.8887329101562,3.066894714720547E-5,-8.002158210729249E-6,-0.0034334673546254635,6.860629081726074,27.364683151245117,-34.48905944824219,0.09120520204305649,-0.1919136494398117,0.020792007446289062,-0.17947333,0.11753008,9.792938,0
0,989.8861694335938,-0.006760019343346357,0.007315624970942736,-1.5150423049926758,5.500185966491699,27.19724464416504,-34.654544830322266,0.2064387947320938,-0.4437604248523712,0.006588935852050781,-0.110204265,0.2938936,9.7882,0
0,989.9038696289062,-0.007691758219152689,0.008114513009786606,-1.6667091846466064,3.835982322692871,27.587793350219727,-34.113014221191406,0.02424275502562523,-0.13225795328617096,0.01607227325439453,-0.0074765086,0.1747306,9.800033,0
0,989.8935546875,-0.00236507342197001,0.005983926821500063,-1.257514476776123,2.675543785095215,28.13429069519043,-34.120140075683594,0.01728380098938942,-0.0640360563993454,0.0018672943115234375,0.12870985,-0.48305318,9.776357,0
1,989.883544921875,-0.009954708628356457,0.009579131379723549,-2.095743417739868,0.7446203231811523,27.537626266479492,-33.556724548339844,-0.40715983510017395,0.6612681746482849,0.05384635925292969,0.41068017,-0.6975473,9.766885,0
1,989.90869140625,-0.010353815741837025,0.01237538829445839,-2.462327480316162,-1.1734237670898438,27.11067771911621,-32.38935089111328,-0.05343508720397949,0.0035531073808670044,0.0064544677734375,0.04737705,-0.058827788,9.785819,0
1,989.9064331054688,-0.008089764043688774,0.009712169878184795,-2.2572638988494873,-3.696263551712036,26.750211715698242,-32.21045684814453,-0.09106127917766571,0.35220950841903687,0.05851554870605469,0.1620543,-0.39963564,9.762143,0
1,989.901123046875,-0.00515992334112525,0.010377900674939156,-2.4986791610717773,-6.222147464752197,26.386796951293945,-31.87694549560547,0.16519716382026672,-0.05384324491024017,0.03957176208496094,0.04013124,-0.15892366,9.795281,0
1,989.8960571289062,-0.008222187869250774,0.010777314193546772,-2.416653633117676,-7.821785926818848,24.572620391845703,-31.216350555419922,0.1151278167963028,-0.11293479800224304,0.006451606750488281,-0.074622124,-0.004009679,9.790544,0
1,989.8934936523438,-0.0030286621768027544,0.006649359129369259,-1.5339492559432983,-9.317180633544922,23.857149124145508,-30.944049835205078,5.58905303478241E-4,0.04923298954963684,0.06326675415039062,0.08785319,-0.16368839,9.759767,0
1,989.9136352539062,-6.314524216577411E-4,-1.417556923115626E-4,-0.1592266857624054,-8.801514625549316,23.81304168701172,-30.712997436523438,5.529150366783142E-4,0.016070157289505005,0.04433727264404297,0.06869584,-0.14700446,9.76213,0
1,989.8909301757812,1.678620756138116E-4,5.239744205027819E-4,-0.02273963950574398,-8.656620979309082,23.4215030670166,-30.019554138183594,3.4680217504501343E-4,0.03476595878601074,0.03960132598876953,0.07104772,-0.1589199,9.762126,0
1,989.8907470703125,1.6822890029288828E-4,9.233886958099902E-4,-0.02606843039393425,-8.827112197875977,23.999834060668945,-30.796966552734375,-0.023816175758838654,0.034914061427116394,0.025406837463378906,0.09729856,-0.16845211,9.771592,0
1,989.8958129882812,1.6859572497196496E-4,9.233292075805366E-4,-0.03432406485080719,-8.954590797424316,23.35324478149414,-30.046630859375,-0.004510670900344849,0.030269742012023926,0.058551788330078125,0.09487063,-0.15415147,9.759751,0
1,989.8856811523438,9.679103968665004E-4,3.906379279214889E-4,-0.01994284987449646,-9.259895324707031,23.48945426940918,-31.08533477783203,0.014844708144664764,0.020576611161231995,0.039612770080566406,0.08527294,-0.14223412,9.7692175,0
1,989.8930053710938,-6.296181818470359E-4,-5.415271152742207E-4,-0.0023658452555537224,-8.965948104858398,23.18500328063965,-30.727890014648438,-0.008990630507469177,0.02017498016357422,0.06328201293945312,0.08284497,-0.15414968,9.759746,0
1,989.9110107421875,-3.629353304859251E-4,2.57360894465819E-4,0.0010964181274175644,-9.093534469604492,23.64476203918457,-30.35021209716797,2.6201456785202026E-4,0.034287288784980774,0.01594257354736328,0.07563725,-0.15891531,9.776313,0
1,989.9080200195312,-9.625274105928838E-5,7.899330812506378E-4,4.307855851948261E-4,-9.009673118591309,23.460037231445312,-30.58327865600586,-0.01896119862794876,0.019855454564094543,0.034882545471191406,0.090524554,-0.15892872,9.766894,0
1,989.9029541015625,-0.0011729594552889466,2.59989668847993E-4,-1.0311187361367047E-4,-9.166742324829102,23.839794158935547,-30.658279418945312,-0.010496392846107483,0.028870806097984314,0.039504051208496094,0.081548095,-0.1565597,9.771682,0
1,989.9029541015625,-0.0011729594552889466,2.59989668847993E-4,-1.0311187361367047E-4,-9.166742324829102,23.839794158935547,-30.658279418945312,0.00872783362865448,0.03343793749809265,0.0442352294921875,0.083946854,-0.15655997,9.769315,0
1,989.905517578125,-1.0917216422967613E-4,-0.001071350066922605,2.9572914354503155E-4,-8.913772583007812,23.181182861328125,-30.735706329345703,-5.396828055381775E-4,0.023403778672218323,0.05369281768798828,0.083955735,-0.14702705,9.759847,0
1,989.9181518554688,-6.418894045054913E-4,2.602432214189321E-4,1.6253464855253696E-4,-9.363405227661133,23.76094627380371,-30.54637908935547,-0.010496973991394043,0.027843981981277466,0.025284767150878906,0.09113431,-0.15656042,9.771684,0
1,989.8928833007812,-2.4250123533420265E-4,3.9341504452750087E-4,2.9565588920377195E-4,-9.003286361694336,24.098066329956055,-30.467628479003906,-0.020148389041423798,0.028007015585899353,0.030022621154785156,0.08875328,-0.16132715,9.76695,0
1,989.9005126953125,5.563609302043915E-4,3.934288979507983E-4,4.2877712985500693E-4,-8.950132369995117,24.46401023864746,-30.651199340820312,0.0032870471477508545,0.02307167649269104,0.04895973205566406,0.09354198,-0.1684772,9.762216,0
1,989.8928833007812,-7.753896061331034E-4,-6.0171278164489195E-6,-1.0392794501967728E-4,-9.284652709960938,23.940095901489258,-30.645980834960938,0.0030814185738563538,0.02736833691596985,0.020546913146972656,0.076821506,-0.16609415,9.774054,0
1,989.8928833007812,-7.753896061331034E-4,-6.0171278164489195E-6,-1.0392794501967728E-4,-9.284652709960938,23.940095901489258,-30.645980834960938,-0.01125478744506836,0.0320984423160553,0.044219970703125,0.08639005,-0.15656126,9.771686,0
1,989.92041015625,1.565449929330498E-4,9.261162485927343E-4,8.281043265014887E-4,-8.972143173217773,24.28545570373535,-30.79132843017578,-0.011559173464775085,0.03664486110210419,0.03474903106689453,0.08639887,-0.16371134,9.762218,0
1,989.9281005859375,2.896172518376261E-4,-2.7229139232076705E-4,2.9120012186467648E-5,-9.246877670288086,23.765087127685547,-31.180450439453125,-0.01153835654258728,0.02240823209285736,0.01581096649169922,0.08640778,-0.14226207,9.774056,0
1,989.9281005859375,2.896172518376261E-4,-2.7229139232076705E-4,2.9120012186467648E-5,-9.229433059692383,23.939218521118164,-30.80840301513672,0.0027805492281913757,0.02688141167163849,0.053680419921875,0.084026754,-0.16371176,9.774056,0
2,989.9102172851562,-3.762580163311213E-4,-2.722774224821478E-4,1.622412819415331E-4,-8.77385139465332,23.259431838989258,-30.607879638671875,0.01284598559141159,0.026639774441719055,0.04893970489501953,0.07686591,-0.15656209,9.776424,0
2,989.9000244140625,-5.095014348626137E-4,-0.0013375270646065474,-3.7042718031443655E-4,-9.05880355834961,23.46680450439453,-30.730072021484375,0.00823306292295456,0.026424720883369446,0.05366706848144531,0.0792647,-0.15656233,9.771691,0
2,989.930419921875,8.21992289274931E-4,-4.05407598009333E-4,-9.030954679474235E-4,-9.45473861694336,24.044219970703125,-30.62586212158203,-0.025024428963661194,0.030839771032333374,0.03472423553466797,0.09122306,-0.15417928,9.766957,0
2,989.9049072265625,-6.42830622382462E-4,-5.919935574638657E-6,5.616050912067294E-4,-9.336828231811523,23.94391441345215,-30.638160705566406,0.013026542961597443,0.021130353212356567,0.044190406799316406,0.07928246,-0.15417951,9.771692,0
2,989.93017578125,1.5603160136379302E-4,-4.0537980385124683E-4,1.6209459863603115E-4,-9.191361427307129,24.39634895324707,-30.918006896972656,-0.0010190382599830627,0.011567339301109314,0.04892158508300781,0.088850975,-0.15179649,9.776427,0
2,989.8999633789062,-6.43001520074904E-4,2.6042372337542474E-4,4.2837386718019843E-4,-9.13962173461914,23.65447425842285,-30.651615142822266,0.008697427809238434,0.030251771211624146,0.05838298797607422,0.08169007,-0.15179667,9.764592,0
2,989.9021606445312,-5.099292611703277E-4,-6.71667861752212E-4,1.6202128608711064E-4,-9.070842742919922,23.560937881469727,-30.810707092285156,-0.010488830506801605,0.03494337201118469,0.044178009033203125,0.08647877,-0.15418011,9.769328,0
2,989.8947143554688,2.889327297452837E-4,1.2729356240015477E-4,6.946163484826684E-4,-8.897712707519531,23.459760665893555,-30.985435485839844,-0.005617782473564148,0.039419084787368774,0.04890632629394531,0.09843719,-0.16848001,9.771696,0
2,989.8941650390625,-1.1062654084526002E-4,-5.8504501794232056E-6,6.945796776562929E-4,-8.973122596740723,23.915693283081055,-30.615570068359375,-0.005208812654018402,0.02498127520084381,0.02996349334716797,0.09127632,-0.15656388,9.781165,0
2,989.899658203125,1.5560377505607903E-4,-4.053103912156075E-4,2.9506924329325557E-4,-9.090489387512207,23.647703170776367,-30.50482177734375,-0.00979592651128769,0.04389543831348419,0.011019706726074219,0.0817256,-0.15894738,9.776432,0
2,989.9047241210938,1.5551820979453623E-4,-9.379283292219043E-4,5.61348395422101E-4,-8.939509391784668,23.262060165405273,-30.12059783935547,-0.014566510915756226,0.02500869333744049,0.029959678649902344,0.086514294,-0.15656433,9.766964,0
2,989.9046630859375,2.2274820366874337E-5,-1.3896673044655472E-4,2.949959016405046E-4,-8.985160827636719,24.009824752807617,-30.696212768554688,-0.01921309530735016,0.03914538025856018,0.048892974853515625,0.09608275,-0.1684809,9.759863,0
2,989.899658203125,2.8850490343756974E-4,-1.3895284791942686E-4,-2.3767261882312596E-4,-8.969237327575684,24.18248748779297,-30.24686050415039,-0.02434021234512329,0.01992754638195038,0.02995586395263672,0.09609166,-0.16133127,9.774067,0
2,989.88134765625,-2.4316387134604156E-4,2.603647008072585E-4,2.9055954655632377E-5,-9.013259887695312,23.825380325317383,-30.527118682861328,0.004429742693901062,0.03390997648239136,0.029982566833496094,0.08622241,-0.16847357,9.785874,0
2,989.8793334960938,5.576721159741282E-4,1.2690018047578633E-4,1.6302321455441415E-4,-9.27413558959961,23.8444881439209,-30.488037109375,-0.009424209594726562,0.010181635618209839,0.011042594909667969,0.08382875,-0.15179047,9.766936,0
2,989.8793334960938,5.576721159741282E-4,1.2690018047578633E-4,1.6302321455441415E-4,-9.27413558959961,23.8444881439209,-30.488037109375,0.004981890320777893,0.010154545307159424,0.029979705810546875,0.081435025,-0.13987395,9.781138,0
2,989.9068603515625,-5.0751818343997E-4,5.263620987534523E-4,-3.695771156344563E-4,-8.96649169921875,23.55329704284668,-30.826339721679688,1.389533281326294E-5,0.028984233736991882,0.03471183776855469,0.08143121,-0.15417358,9.766936,0
2,989.9068603515625,-5.0751818343997E-4,5.263620987534523E-4,-3.695771156344563E-4,-8.96649169921875,23.55329704284668,-30.826339721679688,-0.014308519661426544,0.028745919466018677,0.02050495147705078,0.08620721,-0.15894005,9.776404,0
2,989.9267578125,1.583451230544597E-4,-1.3943956582807004E-4,-5.027035949751735E-4,-9.251443862915039,23.76066780090332,-30.948532104492188,-0.014203742146492004,0.0335271954536438,0.044178009033203125,0.09098321,-0.1565567,9.771668,0
2,989.9267578125,1.583451230544597E-4,-1.3943956582807004E-4,-5.027035949751735E-4,-9.251443862915039,23.76066780090332,-30.948532104492188,0.0047190189361572266,0.02429845929145813,0.03944873809814453,0.08858949,-0.16370642,9.783505,0
2,989.8838500976562,8.241713512688875E-4,2.6002831873483956E-4,8.288915269076824E-4,-9.539579391479492,23.859174728393555,-30.217041015625,0.009515300393104553,0.024176597595214844,0.034712791442871094,0.08141598,-0.15417323,9.774036,0
2,989.9015502929688,1.5841846470721066E-4,2.6002241065725684E-4,4.294334212318063E-4,-9.371420860290527,24.2277889251709,-30.957382202148438,-0.014422178268432617,0.02876095473766327,0.03944587707519531,0.093361676,-0.1541731,9.764567,0
2,989.9063720703125,2.529719495214522E-5,-6.299449523794465E-6,-6.358143873512745E-4,-8.937849044799805,23.369447708129883,-30.896984100341797,-0.019122950732707977,0.018927201628684998,0.03470611572265625,0.09096795,-0.14702323,9.774036,0
2,989.891357421875,2.5370653020218015E-5,-9.384170407429338E-4,0.0010952703887596726,-9.331718444824219,23.580045700073242,-30.771625518798828,-0.01890379935503006,0.02350008487701416,0.039437294006347656,0.0909642,-0.15417293,9.771668,0
3,989.891357421875,2.5370653020218015E-5,-9.384170407429338E-4,0.0010952703887596726,-9.331718444824219,23.580045700073242,-30.771625518798828,0.004801556468009949,0.02348986268043518,0.0441741943359375,0.088570476,-0.15893939,9.771667,0
3,989.8983154296875,-1.077141787391156E-4,-1.3948125706519932E-4,5.626699421554804E-4,-9.372941970825195,24.226314544677734,-30.88007354736328,0.0050503164529800415,0.0090007483959198,0.044170379638671875,0.07661715,-0.14463964,9.762198,0
3,989.8983154296875,-1.077141787391156E-4,-1.3948125706519932E-4,5.626699421554804E-4,-9.372941970825195,24.226314544677734,-30.88007354736328,-0.004043169319629669,0.03263765573501587,0.020490646362304688,0.079003245,-0.16370574,9.771667,0
3,989.88818359375,2.5480898329988122E-5,-0.001471066614612937,-2.3626189795322716E-4,-8.953612327575684,23.72300910949707,-30.222381591796875,-0.01857742667198181,0.018422186374664307,0.029964447021484375,0.08616918,-0.15178931,9.762198,0
3,989.8856201171875,2.918698883149773E-4,1.2681676889769733E-4,3.0085444450378418E-5,-9.212285995483398,23.481218338012695,-30.86123275756836,-0.004311583936214447,0.018534794449806213,0.03943443298339844,0.08855522,-0.15893903,9.771667,0
3,989.8856201171875,2.918698883149773E-4,1.2681676889769733E-4,3.0085444450378418E-5,-9.212285995483398,23.481218338012695,-30.86123275756836,0.014681018888950348,0.02330690622329712,0.05363941192626953,0.08138174,-0.15417233,9.769299,0
3,989.8856201171875,2.918698883149773E-4,1.2681676889769733E-4,3.0085444450378418E-5,-9.460145950317383,23.77595329284668,-30.917266845703125,3.516674041748047E-4,0.03754395246505737,0.025232315063476562,0.08854765,-0.16132215,9.781135,0
3,989.9362182617188,7.733599049970508E-4,4.2952754301950336E-4,-5.538939731195569E-4,-9.143208503723145,24.019819259643555,-30.595455169677734,0.005117796361446381,0.018554240465164185,0.048905372619628906,0.08854383,-0.15655544,9.771665,0
3,989.9284057617188,6.402387516573071E-4,1.632057101232931E-4,2.450694446451962E-4,-8.882331848144531,24.00071144104004,-30.634536743164062,3.151819109916687E-4,0.01360289752483368,0.048903465270996094,0.081370294,-0.14463899,9.774033,0
3,989.9284057617188,6.402387516573071E-4,1.632057101232931E-4,2.450694446451962E-4,-9.273999214172363,23.95040512084961,-31.187114715576172,0.005155377089977264,0.018255993723869324,0.044167518615722656,0.08375639,-0.15655527,9.764562,0
3,989.9234619140625,-9.576198644936085E-4,-6.357478559948504E-4,5.114010418765247E-4,-9.379327774047852,23.588285446166992,-30.9957275390625,2.7451664209365845E-4,0.027774915099143982,0.044170379638671875,0.09570211,-0.15178856,9.776399,0
3,989.898193359375,5.071540363132954E-4,5.626676720567048E-4,-2.875308564398438E-4,-9.57859992980957,24.24454689025879,-31.00341796875,1.772269606590271E-4,0.022958382964134216,0.039435386657714844,0.086138666,-0.15178853,9.771665,0
3,989.9130859375,-1.5859876293689013E-4,5.626617348752916E-4,-2.1199259208515286E-5,-9.207720756530762,23.485633850097656,-31.09314727783203,-0.01877405494451523,0.017929807305336,0.04416465759277344,0.08613491,-0.15417174,9.759828,0
3,989.898193359375,1.0775379632832482E-4,-6.357657839544117E-4,-2.1183514036238194E-5,-9.149456977844238,23.487703323364258,-31.410186767578125,-0.008385270833969116,0.03693106770515442,0.04423332214355469,0.09292379,-0.16369548,9.773995,0
3,989.90283203125,5.072641652077436E-4,3.0017983590369113E-5,6.446219049394131E-4,-8.959860801696777,23.19089698791504,-31.037109375,-0.01309281587600708,0.027097567915916443,0.03476238250732422,0.09252018,-0.15653577,9.771592,0
3,989.9002685546875,-2.8938340255990624E-4,-3.6857527447864413E-4,-2.829751465469599E-4,-9.171606063842773,23.203237533569336,-30.851234436035156,-0.008321188390254974,0.027129247784614563,0.034766197204589844,0.07814652,-0.16368476,9.766854,0
3,989.8826293945312,2.4537259014323354E-4,-2.3576208332087845E-4,-5.483806598931551E-4,-8.881650924682617,23.73833656311035,-31.235164642333984,0.005679391324520111,0.017391562461853027,0.04423999786376953,0.08528197,-0.14938423,9.76685,0
3,989.9000244140625,-4.2008707532659173E-4,0.001362079638056457,-2.8192339232191443E-4,-9.384735107421875,23.32002067565918,-31.287132263183594,-0.008970841765403748,0.007679641246795654,0.053711891174316406,0.09002751,-0.15414992,9.764481,0
3,989.9178466796875,-4.1975692147389054E-4,0.001228868030011654,-1.5466081094928086E-5,-9.101847648620605,23.479463577270508,-31.18608856201172,0.005499303340911865,0.02146342396736145,0.044239044189453125,0.082823545,-0.14938253,9.778681,0
3,989.9027099609375,-1.531109883217141E-4,-2.3592285288032144E-4,-4.147983272559941E-4,-9.201333999633789,24.1236629486084,-30.977497100830078,-0.009097985923290253,0.025974959135055542,0.034770965576171875,0.089959025,-0.15891483,9.769208,0
3,989.900146484375,-6.8541249493137E-4,2.9665528563782573E-4,-1.5183075447566807E-5,-9.070405960083008,24.29899024963379,-31.084915161132812,-0.008877597749233246,0.02114272117614746,0.01583385467529297,0.08036515,-0.15414742,9.776307,0
3,989.887451171875,-4.187665763311088E-4,0.0010955494362860918,-1.5041630831547081E-5,-9.057825088500977,23.83656883239746,-30.905826568603516,9.307488799095154E-4,0.04006347060203552,0.04423999786376953,0.085110694,-0.1684463,9.769202,0
3,989.9097290039062,-1.8962702597491443E-5,-0.0011681892210617661,-9.470058139413595E-4,-9.302640914916992,24.134252548217773,-31.116477966308594,-0.004012458026409149,0.025631800293922424,0.020569801330566406,0.07790673,-0.15176252,9.781035,0
3,989.9097290039062,6.474872934632003E-4,3.0125054763630033E-5,-1.47775121149607E-4,-9.291038513183594,23.302066802978516,-30.761627197265625,9.615197777748108E-4,0.011340036988258362,0.06318187713623047,0.09460181,-0.14699504,9.7691965,0
3,989.9146728515625,1.1518558312673122E-4,-2.3624445020686835E-4,-0.0012128971284255385,-9.345279693603516,23.672704696655273,-30.774959564208984,-0.008668661117553711,0.016177281737327576,0.03004741668701172,0.085007936,-0.1493775,9.773927,0
4,989.9146728515625,1.1518558312673122E-4,-2.3624445020686835E-4,-0.0012128971284255385,-9.345279693603516,23.672704696655273,-30.774959564208984,0.02015124261379242,0.01612493395805359,0.058452606201171875,0.08019388,-0.1589098,9.766824,0
4,989.9247436523438,-5.502740968950093E-4,1.6317579138558358E-4,-2.8065009973943233E-4,-9.096982955932617,24.11602020263672,-30.99312973022461,-0.003569670021533966,0.0444454699754715,0.03951454162597656,0.07537985,-0.16844207,9.771554,0
4,989.9122314453125,1.1584589083213359E-4,-3.695095656439662E-4,2.521231072023511E-4,-9.05575942993164,23.469751358032227,-30.884681701660156,-0.012967504560947418,0.03933718800544739,0.030042648315429688,0.08490518,-0.16129139,9.77155,0
4,989.9044189453125,-4.16455848608166E-4,-3.695631748996675E-4,3.8542255060747266E-4,-9.469278335571289,23.767114639282227,-30.45343780517578,-0.008013211190700531,0.029519468545913696,0.011101722717285156,0.0872609,-0.16367379,9.788118,0
4,989.9046020507812,-5.492836353369057E-4,-3.696167259477079E-4,-4.1338359005749226E-4,-9.153181076049805,23.747133255004883,-30.654945373535156,-0.012892290949821472,7.323622703552246E-4,0.04424571990966797,0.092006445,-0.14937326,9.76681,0
4,989.884033203125,-2.826377167366445E-4,2.9611936770379543E-4,-2.800841466523707E-4,-8.872114181518555,23.272968292236328,-30.901466369628906,0.01064293086528778,0.010157570242881775,0.053719520568847656,0.08241257,-0.1565223,9.766807,0
4,989.9119262695312,-1.5991550753824413E-5,0.0010950133437290788,-8.125745225697756E-4,-8.915838241577148,23.548002243041992,-30.756851196289062,0.0011804625391960144,0.028992056846618652,0.04898262023925781,0.087158084,-0.16128802,9.764438,0
4,989.9169921875,-2.8197740903124213E-4,2.969632623717189E-5,2.528305631130934E-4,-8.738142013549805,23.451242446899414,-31.163497924804688,-0.0037032663822174072,0.023982450366020203,0.03004741668701172,0.072784424,-0.15413734,9.769168,0
4,989.884033203125,-1.533124304842204E-5,8.285903022624552E-4,7.856038282625377E-4,-9.04662799835205,23.47859001159668,-31.3485107421875,-0.003950722515583038,0.023980915546417236,0.04899024963378906,0.08469969,-0.1565198,9.766797,0
4,989.8967895507812,3.844723687507212E-4,-2.3672675888519734E-4,1.1995552631560713E-4,-8.975486755371094,23.650375366210938,-31.06159210205078,0.01520036906003952,0.014461562037467957,0.04426002502441406,0.07988566,-0.15413567,9.773896,0
4,989.9017944335938,-1.4782899233978242E-4,-1.0362239845562726E-4,-4.1253468953073025E-4,-9.249080657958984,24.025985717773438,-30.502517700195312,9.095817804336548E-4,0.00960521399974823,0.03479290008544922,0.08702111,-0.15413481,9.780995,0
4,989.9063110351562,-1.4341130736283958E-5,1.6263991710729897E-4,-4.123932449147105E-4,-9.282587051391602,23.573278427124023,-30.624832153320312,0.015732891857624054,0.028672799468040466,0.030057907104492188,0.070257515,-0.16128382,9.77389,0
4,989.9139404296875,7.84937001299113E-4,-0.0011689930688589811,-5.454096244648099E-4,-9.069022178649902,24.194547653198242,-30.46314239501953,-0.007885374128818512,0.019126400351524353,0.025322914123535156,0.08217278,-0.15174988,9.762052,0
4,989.908935546875,3.8579286774620414E-4,-6.364149739965796E-4,-1.2636490282602608E-5,-8.810508728027344,23.910123825073242,-30.9482421875,-0.00829014927148819,0.02407132089138031,0.0299835205078125,0.09016162,-0.15891981,9.781062,0
4,989.9442138671875,3.851054352708161E-4,-0.0010357771534472704,1.2022671580780298E-4,-8.695940017700195,23.17473602294922,-31.230804443359375,0.01063452661037445,0.005080312490463257,0.05839252471923828,0.087771714,-0.14462012,9.759758,0
4,989.9215087890625,-9.53454349655658E-4,1.6377767315134406E-4,5.16708823852241E-4,-9.460689544677734,24.144245147705078,-31.01572036743164,0.010536625981330872,0.018912076950073242,0.05365180969238281,0.08060202,-0.15415326,9.771594,0
4,989.9215087890625,-9.53454349655658E-4,1.6377767315134406E-4,5.16708823852241E-4,-9.460689544677734,24.144245147705078,-31.01572036743164,9.20027494430542E-4,0.03781688213348389,0.05364990234375,0.08299193,-0.16845295,9.757392,0
4,989.8986206054688,2.449671155773103E-4,2.9693549731746316E-4,-1.592295302543789E-5,-9.268049240112305,23.85038185119629,-30.797256469726562,0.01106908917427063,0.013820797204971313,0.0441741943359375,0.0829919,-0.16130307,9.778695,0
4,989.9111328125,1.1180918954778463E-4,-6.351700285449624E-4,-5.485547007992864E-4,-9.139484405517578,23.76038932800293,-31.350692749023438,0.006318919360637665,0.027762070298194885,0.0157623291015625,0.08299193,-0.16130307,9.783431,0
4,989.88330078125,1.1180918954778463E-4,-9.014859679155052E-4,2.503929426893592E-4,-9.15622615814209,23.744186401367188,-30.500335693359375,-0.013004861772060394,0.017852574586868286,0.015758514404296875,0.087771714,-0.15653652,9.778695,0
4,989.89599609375,-9.53454349655658E-4,-2.3569625045638531E-4,-1.4908089360687882E-4,-9.000679016113281,23.362958908081055,-30.34803009033203,-0.0032374635338783264,0.012876346707344055,0.04416084289550781,0.085381836,-0.15653655,9.762126,0
4,989.8980712890625,-0.0011952572967857122,4.3351249769330025E-4,4.6486619976349175E-4,-8.527375221252441,23.06913948059082,-31.17361831665039,0.011200517416000366,0.012868985533714294,0.044159889221191406,0.075822204,-0.15891981,9.781062,0
4,989.9210815429688,3.1641829991713166E-6,-0.0010312249651178718,-7.33555294573307E-4,-9.056846618652344,24.206331253051758,-31.081584930419922,0.00580800324678421,0.00806795060634613,0.039429664611816406,0.09016162,-0.15415326,9.773961,0
4,989.8731689453125,0.0010684276930987835,0.0018982498440891504,1.985503186006099E-4,-9.063668251037598,22.830249786376953,-30.92302703857422,7.992982864379883E-4,0.026767030358314514,0.04416179656982422,0.08299193,-0.15653655,9.771594,0
4,989.8832397460938,-2.6315171271562576E-4,1.671966165304184E-4,-2.0092350314371288E-4,-8.95086669921875,23.09381866455078,-30.801864624023438,0.015221714973449707,0.012641996145248413,0.04416370391845703,0.08299196,-0.14938667,9.773961,0
5,989.89306640625,-1.299937575822696E-4,4.3351255590096116E-4,-4.6723938430659473E-4,-9.302640914916992,24.134252548217773,-31.116477966308594,0.00991317629814148,0.0077252984046936035,0.03943061828613281,0.08060202,-0.14223686,9.76686,0
5,989.8829345703125,-1.299937575822696E-4,0.0017650916706770658,-6.003973539918661E-4,-8.754202842712402,23.172664642333984,-30.91376495361328,-0.004684977233409882,0.022243216633796692,0.04417133331298828,0.08060202,-0.15653655,9.76686,0
5,989.8853759765625,6.689538713544607E-4,-9.911931556416675E-5,1.985503186006099E-4,-9.262939453125,23.486509323120117,-30.93072509765625,0.018442273139953613,0.008197635412216187,0.03471088409423828,0.08060205,-0.14938667,9.781064,0
5,989.8978881835938,2.6948004961013794E-4,0.0020314075518399477,8.643399924039841E-4,-9.285492897033691,23.67624855041504,-31.16930389404297,-5.124062299728394E-4,0.0268944650888443,0.03943920135498047,0.085381836,-0.15653655,9.762126,0
5,989.92822265625,0.0010684276930987835,-9.911933011608198E-5,4.6486619976349175E-4,-9.307642936706543,23.391780853271484,-30.6103515625,-0.014894820749759674,0.007962241768836975,0.058379173278808594,0.10211116,-0.14462012,9.762126,0
5,989.9029541015625,-9.289414156228304E-4,1.6719655832275748E-4,-6.776556256227195E-5,-9.12606143951416,23.56181526184082,-30.648284912109375,0.004322603344917297,0.02688811719417572,0.02997112274169922,0.08299193,-0.16368636,9.785797,0
5,989.9156494140625,3.1641829991713166E-6,3.4038668673019856E-5,6.539237801916897E-5,-9.178236961364746,23.565635681152344,-30.640464782714844,0.009345799684524536,0.012224867939949036,0.04416656494140625,0.06865251,-0.15176997,9.762126,0
5,989.8851928710938,-5.294675938785076E-4,-6.317509687505662E-4,-2.0092350314371288E-4,-9.097419738769531,23.377967834472656,-30.71892547607422,-0.009923368692398071,0.02635452151298523,0.02522754669189453,0.07821214,-0.15891981,9.773961,0
5,989.933349609375,1.3632212358061224E-4,3.003544989041984E-4,8.643399924039841E-4,-9.06421184539795,23.19854164123535,-31.02147674560547,0.0037052109837532043,0.012091144919395447,0.03470134735107422,0.07821211,-0.15176997,9.773962,0
5,989.8878784179688,2.6948004961013794E-4,0.001498775789514184,-3.340814437251538E-4,-9.307641983032227,23.39177894592285,-30.6103515625,0.013735242187976837,0.01672162115573883,0.03943061828613281,0.085381866,-0.15891981,9.773961,0
5,989.9130249023438,-5.294675938785076E-4,-0.00103122484870255,-2.0092350314371288E-4,-8.88012981414795,23.739810943603516,-31.31247329711914,-0.005694523453712463,0.01650466024875641,0.03469562530517578,0.085381836,-0.15653652,9.773962,0
5,989.8799438476562,-1.299937575822696E-4,6.99828437063843E-4,1.985503186006099E-4,-8.948908805847168,23.833343505859375,-31.153377532958984,-0.0011364519596099854,0.021054178476333618,0.020491600036621094,0.085381836,-0.16368636,9.773962,0
5,989.9076538085938,3.1641829991713166E-6,0.0012324599083513021,6.539237801916897E-5,-8.885674476623535,23.365629196166992,-30.904800415039062,0.017728358507156372,0.01623702049255371,0.044165611267089844,0.087771714,-0.15415326,9.771594,0
5,989.9076538085938,3.1641829991713166E-6,0.0012324599083513021,6.539237801916897E-5,-8.885674476623535,23.365629196166992,-30.904800415039062,0.004326753318309784,0.01162022352218628,0.030071258544921875,0.09139538,-0.15412483,9.77859,0
5,989.8546752929688,5.412711761891842E-4,1.6630768368486315E-4,6.773899076506495E-5,-9.1339693069458,22.922311782836914,-30.686630249023438,0.00905868411064148,0.0019674748182296753,0.039542198181152344,0.08179015,-0.15650705,9.785687,0
5,989.8848876953125,-1.2323661940172315E-4,-2.3153501388151199E-4,2.069267793558538E-4,-8.752681732177734,23.17413902282715,-30.991073608398438,0.00492452085018158,0.025546550750732422,0.034804344177246094,0.07218486,-0.1588892,9.77148,0
5,989.8695678710938,-3.886720514856279E-4,7.004276849329472E-4,4.7361996257677674E-4,-8.85496711730957,22.814964294433594,-30.95429229736328,0.014118008315563202,0.02049483358860016,0.034809112548828125,0.07691899,-0.16603792,9.776211,0
5,989.8695678710938,-3.886720514856279E-4,7.004276849329472E-4,4.7361996257677674E-4,-8.85496711730957,22.814964294433594,-30.95429229736328,-2.860724925994873E-4,0.0202762633562088,0.030076026916503906,0.084043026,-0.16127023,9.773839,0
5,989.8896484375,1.1241936590522528E-5,7.003562641330063E-4,3.4065067302435637E-4,-9.224462509155273,23.469430923461914,-30.24279022216797,-0.009666748344898224,0.010865256190299988,0.03007984161376953,0.09116709,-0.16841897,9.783303,0
5,989.8641967773438,5.443136324174702E-4,-3.6497876862995327E-4,6.071551470085979E-4,-8.909207344055176,23.18560218811035,-30.967620849609375,0.009538687765598297,0.015672490000724792,0.04902172088623047,0.081561774,-0.15411815,9.766728,0
5,989.8896484375,2.7843815041705966E-4,-6.313660996966064E-4,-5.844587576575577E-5,-9.309707641601562,23.758596420288086,-30.631500244140625,0.010137408971786499,0.020284026861190796,0.049019813537597656,0.0767363,-0.16126686,9.77146,0
5,989.9022827148438,-3.8691150257363915E-4,-0.0011640693992376328,-4.5773101737722754E-4,-9.347343444824219,24.039518356323242,-30.796104431152344,-0.004107140004634857,0.029727861285209656,0.025348663330078125,0.08386037,-0.16603234,9.75962,0
5,989.8870849609375,8.119501289911568E-4,-2.320351923117414E-4,4.74563188618049E-4,-9.251443862915039,23.76066780090332,-30.948532104492188,-0.02297183871269226,0.020236000418663025,0.02535247802734375,0.08620459,-0.15411475,9.778552,0
5,989.90478515625,4.1291670640930533E-4,-4.984225379303098E-4,8.742256904952228E-4,-9.490310668945312,23.95832633972168,-30.769325256347656,0.010830536484718323,0.00575670599937439,0.034820556640625,0.0765993,-0.14934716,9.771447,0
6,989.89208984375,-7.850647089071572E-4,3.413778540561907E-5,3.417825500946492E-4,-9.198725700378418,23.3885555267334,-30.857898712158203,-0.008838362991809845,0.005431443452835083,0.039562225341796875,0.08372334,-0.15649584,9.766707,0
6,989.8591918945312,-7.846245425753295E-4,9.661719086579978E-4,-1.906605320982635E-4,-9.241471290588379,24.033349990844727,-30.88904571533203,0.005621016025543213,6.076693534851074E-4,0.034829139709472656,0.06933826,-0.15172818,9.766705,0
6,989.8895874023438,1.4792144065722823E-4,1.671527570579201E-4,-4.567877040244639E-4,-9.232338905334473,24.04218864440918,-31.352874755859375,-0.008951641619205475,0.010125473141670227,0.04903888702392578,0.090801716,-0.15411031,9.780904,0
6,989.9097900390625,1.520354999229312E-5,8.328711264766753E-4,3.423485322855413E-4,-9.324353218078613,24.58783531188965,-30.83173370361328,-0.01348741352558136,0.01482275128364563,0.03483772277832031,0.090756,-0.16364232,9.783267,0
6,989.8743286132812,5.482757114805281E-4,-7.650957559235394E-4,-5.6936522014439106E-5,-9.111522674560547,23.838918685913086,-30.82070541381836,4.6006590127944946E-4,0.005023345351219177,0.030109405517578125,0.08115071,-0.15172479,9.773793,0
6,989.9071655273438,1.492421724833548E-4,8.3272805204615E-4,-7.225375738926232E-4,-8.848037719726562,23.084701538085938,-30.740192413330078,-0.013794392347335815,0.047521039843559265,0.025371551513671875,0.08110505,-0.17555642,9.769054,0
6,989.8966064453125,-0.001181897008791566,-2.326069661648944E-4,3.4291460178792477E-4,-9.148615837097168,23.751550674438477,-30.886863708496094,7.322952151298523E-4,0.009324997663497925,0.039577484130859375,0.081059396,-0.14457273,9.773785,0
6,989.8812866210938,-6.488250219263136E-4,1.6679543477948755E-4,-5.6370539823547006E-5,-9.193074226379395,22.656396865844727,-30.892913818359375,0.015206433832645416,0.009220942854881287,0.03957939147949219,0.08101368,-0.1612545,9.77378,0
6,989.8818359375,2.837207284756005E-4,-7.653815555386245E-4,-5.618188879452646E-5,-9.061710357666016,23.56977653503418,-31.27454376220703,0.005948975682258606,0.028155863285064697,0.03957843780517578,0.08335793,-0.15887019,9.776143,0
6,989.8768310546875,4.1731883538886905E-4,2.9981043189764023E-4,7.716470281593502E-5,-8.962904930114746,23.187952041625977,-30.88249969482422,-0.013164915144443512,-1.8456578254699707E-4,0.020648956298828125,0.08331227,-0.1469526,9.780873,0
6,989.894287109375,7.278702687472105E-4,-4.1723984759300947E-4,-2.7753994800150394E-6,-9.264461517333984,23.485036849975586,-30.853416442871094,0.015605151653289795,0.02850307524204254,0.05379295349121094,0.0784868,-0.15886793,9.764299,0
6,989.8840942382812,6.252074672374874E-5,-5.504691507667303E-4,-5.352184525690973E-4,-9.176714897155762,23.567108154296875,-30.7177734375,-0.00861058384180069,-2.662390470504761E-4,0.034862518310546875,0.08322093,-0.1469504,9.771397,0
6,989.886474609375,-6.028288044035435E-4,5.147228948771954E-4,0.0010628653690218925,-9.390525817871094,23.946266174316406,-30.55303955078125,-0.003847852349281311,0.009090706706047058,0.03486156463623047,0.07122576,-0.15886566,9.769025,0
6,989.8790893554688,4.628750029951334E-4,0.0010472831781953573,5.304223159328103E-4,-8.852603912353516,23.080286026000977,-30.508277893066406,-0.013074956834316254,-4.377514123916626E-4,0.025394439697265625,0.08608961,-0.14934543,9.78091,0
6,989.8788452148438,-3.356324741616845E-4,-9.501574095338583E-4,9.300847887061536E-4,-9.020051002502441,23.66156005859375,-31.44029998779297,1.46523118019104E-4,0.008920595049858093,0.04896259307861328,0.07947859,-0.15650901,9.776227,0
6,989.8660888671875,-2.1350450697354972E-4,-1.491742004873231E-4,-8.036061190068722E-4,-9.174214363098145,23.938343048095703,-30.97083282470703,0.009776487946510315,0.022852927446365356,0.0584259033203125,0.08425838,-0.1612756,9.76439,0
6,989.8914794921875,-0.001013805391266942,-1.5796598745509982E-5,-5.238456651568413E-6,-9.445606231689453,24.053056716918945,-31.089691162109375,1.726001501083374E-4,0.013124346733093262,0.05842304229736328,0.074698806,-0.15650901,9.754921,0
6,989.8887939453125,-2.1485771867446601E-4,-2.8211247990839183E-4,2.6107742451131344E-4,-9.466777801513672,24.13835334777832,-30.706497192382812,0.014716193079948425,0.003163054585456848,0.04894542694091797,0.07947862,-0.15650901,9.771491,0
6,989.8533325195312,-8.169977809302509E-5,1.1736140004359186E-4,1.279194839298725E-4,-9.190817832946777,24.02805519104004,-30.819557189941406,-0.01402357965707779,0.022227570414543152,0.03947734832763672,0.08903819,-0.1708087,9.771491,0
6,989.8635864257812,-2.1485771867446601E-4,-1.5796555089764297E-5,2.6107742451131344E-4,-9.260981559753418,24.226037979125977,-31.282230377197266,0.00508677214384079,0.007831171154975891,0.04421043395996094,0.08425838,-0.1588923,9.769124,0
6,989.8634643554688,-8.169977809302509E-5,-2.8211247990839183E-4,-1.3839639723300934E-4,-9.560611724853516,24.050390243530273,-30.53292465209961,0.024330109357833862,0.017214640974998474,0.06314468383789062,0.06991899,-0.15412572,9.757289,0
6,989.893798828125,-8.169977809302509E-5,-5.484283901751041E-4,1.279194839298725E-4,-9.026575088500977,22.917613983154297,-30.85687255859375,0.010337360203266144,0.007614955306053162,0.020531654357910156,0.065139174,-0.14935917,9.778593,0
6,989.8737182617188,5.145816248841584E-5,-6.815862143412232E-4,1.279194839298725E-4,-9.427916526794434,23.226762771606445,-31.044071197509766,-0.003785178065299988,0.01288565993309021,0.03473949432373047,0.07708871,-0.16365886,9.769124,0
6,989.8683471679688,0.0013830375391989946,-8.14744271337986E-4,-5.378702189773321E-4,-9.328675270080566,23.582990646362305,-30.926239013671875,0.006252653896808624,0.007824420928955078,0.03946685791015625,0.0818685,-0.15412572,9.778593,0
6,989.8456420898438,-8.806474506855011E-4,-5.484283901751041E-4,6.605512462556362E-4,-9.108478546142578,23.841861724853516,-30.975318908691406,0.006539784371852875,0.012018948793411255,0.0252532958984375,0.07947859,-0.1469759,9.766757,0
7,989.8456420898438,-8.806474506855011E-4,-5.484283901751041E-4,6.605512462556362E-4,-9.108478546142578,23.841861724853516,-30.975318908691406,0.020957648754119873,0.02146182954311371,0.04892158508300781,0.0723089,-0.1612756,9.766757,0
7,989.883544921875,-3.4801565925590694E-4,-4.152703913860023E-4,-4.047122783958912E-4,-9.303183555603027,24.50254249572754,-31.214920043945312,-0.0029808878898620605,0.002637818455696106,0.03472328186035156,0.0818685,-0.14459261,9.766757,0
7,989.8528442382812,3.177740436512977E-4,-0.0017468497389927506,3.9423536509275436E-4,-9.158153533935547,24.216920852661133,-31.220565795898438,0.012089021503925323,0.0029167979955673218,0.039455413818359375,0.074698776,-0.14697587,9.776225,0
7,989.8807983398438,5.840898957103491E-4,-5.484283901751041E-4,-1.3839639723300934E-4,-9.1962251663208,23.75979232788086,-31.1109619140625,-0.002164021134376526,0.017094209790229797,0.04418659210205078,0.07947859,-0.1588923,9.759656,0
7,989.8658447265625,-4.8117359983734787E-4,1.1736134183593094E-4,6.605512462556362E-4,-9.38237190246582,23.58534049987793,-30.84111785888672,0.002632841467857361,0.012273550033569336,0.02524852752685547,0.077088684,-0.15650901,9.773858,0
7,989.8658447265625,-4.8117359983734787E-4,1.1736134183593094E-4,6.605512462556362E-4,-9.38237190246582,23.58534049987793,-30.84111785888672,0.017033740878105164,-0.002012193202972412,0.048919677734375,0.08425844,-0.15412572,9.762023,0
7,989.8782348632812,-3.4801565925590694E-4,-5.484282737597823E-4,-1.3839639723300934E-4,-9.489767074584961,23.590036392211914,-30.670875549316406,-0.0020234286785125732,0.01653723418712616,0.03470802307128906,0.074698806,-0.15650901,9.766757,0
7,989.8832397460938,-8.806474506855011E-4,1.1736140004359186E-4,-1.3839639723300934E-4,-9.07388687133789,23.557992935180664,-30.656097412109375,-0.011552564799785614,0.006821051239967346,0.034705162048339844,0.08425838,-0.16365886,9.771491,0
7,989.88818359375,3.177740436512977E-4,-1.4895446656737477E-4,-2.7155433781445026E-4,-8.99956226348877,23.838640213012695,-31.22286605834961,-0.001958027482032776,0.01616087555885315,0.04417133331298828,0.09381801,-0.1588923,9.766757,0
7,989.88818359375,3.177740436512977E-4,-1.4895446656737477E-4,-2.7155433781445026E-4,-9.176279067993164,24.30516242980957,-30.991981506347656,-0.015997901558876038,0.016378134489059448,0.03943824768066406,0.08903819,-0.15650901,9.769124,0
7,989.8779907226562,-2.1485771867446601E-4,-0.0013473759172484279,-6.71028159558773E-4,-8.82961368560791,23.62860107421875,-30.543903350830078,0.01288287341594696,0.011653944849967957,0.044170379638671875,0.07230887,-0.1588923,9.752554,0
7,989.8655395507812,4.509319842327386E-4,-5.484283901751041E-4,-2.7155433781445026E-4,-8.957061767578125,24.19426918029785,-30.86530303955078,0.008624576032161713,0.011684119701385498,0.058371543884277344,0.0818685,-0.1612756,9.762023,0
7,989.870849609375,4.509319842327386E-4,-4.1527042048983276E-4,-5.378702189773321E-4,-9.168126106262207,23.944236755371094,-31.28005599975586,0.008737325668334961,0.021244466304779053,0.039432525634765625,0.086648285,-0.15174246,9.773858,0
7,989.9035034179688,3.177740436512977E-4,-8.147441549226642E-4,3.9423536509275436E-4,-8.787817001342773,23.8262996673584,-31.40874481201172,0.004626832902431488,0.016178354620933533,0.03473854064941406,0.08374873,-0.16126299,9.776179,0
7,989.8906860351562,-7.9884979641065E-5,-4.155650094617158E-4,6.613289006054401E-4,-8.853009223937988,23.55449104309082,-31.305809020996094,-0.009757593274116516,0.00685235857963562,0.03001117706298828,0.090898156,-0.14934614,9.76434,0
7,989.8804321289062,-2.0988387404941022E-4,2.497119130566716E-4,-4.0258071385324E-4,-8.933826446533203,23.742158889770508,-31.22734832763672,0.009457223117351532,-0.0026637911796569824,0.06315135955810547,0.07892832,-0.15411222,9.752503,0
7,989.8831176757812,4.561015230137855E-4,-5.492675118148327E-4,-5.356548936106265E-4,-8.774256706237793,23.733640670776367,-31.405410766601562,0.004310488700866699,0.016366973519325256,0.02054595947265625,0.078908026,-0.15172842,9.77144,0
7,989.885498046875,1.8998121959157288E-4,9.154381696134806E-4,-4.024130757898092E-4,-8.72580623626709,23.989248275756836,-30.657989501953125,-0.009890720248222351,0.006734102964401245,0.044219017028808594,0.08844736,-0.15649441,9.766703,0
7,989.8728637695312,-3.4245496499352157E-4,-1.669922494329512E-5,2.6346041704528034E-4,-9.182367324829102,24.29926872253418,-30.682762145996094,-0.005343526601791382,0.020787373185157776,0.05368804931640625,0.09320688,-0.15411067,9.757233,0
7,989.8927612304688,-3.4225915442220867E-4,2.49584874836728E-4,-1.359295565634966E-4,-9.169648170471191,23.94276237487793,-31.202747344970703,0.0143202543258667,0.011354207992553711,0.02527904510498047,0.08123705,-0.1541102,9.778535,0
7,989.8779907226562,1.9056818564422429E-4,-0.0010820262832567096,5.299439653754234E-4,-8.961381912231445,23.189424514770508,-30.959808349609375,0.009558446705341339,0.011375367641448975,0.05842304229736328,0.08360666,-0.14934316,9.764329,0
7,989.8699951171875,3.2392170396633446E-4,-2.8311036294326186E-4,-6.683936808258295E-4,-8.63987922668457,23.437707901000977,-30.869911193847656,-0.004442378878593445,0.006666392087936401,0.020546913146972656,0.07402676,-0.15887573,9.778531,0
7,989.8547973632812,4.5727522228844464E-4,-6.826159078627825E-4,3.9695369196124375E-4,-9.028203964233398,24.022485733032227,-31.152225494384766,-0.01869305968284607,-0.0027495622634887695,0.039488792419433594,0.09790546,-0.14934209,9.771428,0
7,989.8953857421875,2.9930734308436513E-4,-1.0304251918569207E-4,-2.0264662452973425E-5,-9.437454223632812,23.692129135131836,-31.377769470214844,-0.004300437867641449,0.020842432975769043,0.015813827514648438,0.09071547,-0.15649146,9.783263,0
8,989.8602294921875,-9.99709009192884E-5,-1.0307430056855083E-4,-6.859704735688865E-4,-9.041764259338379,24.115144729614258,-31.155555725097656,0.005088143050670624,0.016138970851898193,0.03948974609375,0.08591539,-0.15887424,9.776159,0
8,989.8927612304688,-2.3293326376006007E-4,5.62683679163456E-4,6.456926930695772E-4,-8.693033218383789,23.07176399230957,-30.68633270263672,0.014207012951374054,0.020558804273605347,0.05369377136230469,0.07633546,-0.16364035,9.759587,0
8,989.8927612304688,-3.657000488601625E-4,1.6314633830916137E-4,2.4638656759634614E-4,-8.797245979309082,23.18532371520996,-31.369781494140625,0.009496890008449554,0.006019532680511475,0.058426856994628906,0.07870507,-0.1541067,9.757217,0
8,989.8927612304688,-3.657000488601625E-4,1.6314633830916137E-4,2.4638656759634614E-4,-8.797245979309082,23.18532371520996,-31.369781494140625,-0.009748563170433044,-0.003551185131072998,0.030022621154785156,0.08346459,-0.14933959,9.7690525,0
8,989.897705078125,1.671275240369141E-4,1.631146005820483E-4,-1.9845509086735547E-5,-8.815916061401367,23.641857147216797,-31.239646911621094,0.008679375052452087,0.006155282258987427,0.03950214385986328,0.085834205,-0.14933911,9.783254,0
8,989.8851928710938,3.4165161196142435E-5,0.001494662370532751,1.1339625052642077E-4,-8.972579956054688,23.54740333557129,-30.517120361328125,0.013243891298770905,0.0012843012809753418,0.039504051208496094,0.08342403,-0.14933863,9.783252,0
8,989.8799438476562,-2.3195514222607017E-4,5.62524888664484E-4,6.461118464358151E-4,-9.329217910766602,23.95128059387207,-31.024688720703125,0.01774442195892334,0.010778948664665222,0.025304794311523438,0.07145423,-0.15887132,9.764312,0
8,989.882568359375,4.3403025483712554E-4,5.624931654892862E-4,3.7987984251230955E-4,-9.263483047485352,23.854799270629883,-31.0291748046875,-0.005938783288002014,0.015782088041305542,0.025308609008789062,0.0809935,-0.16125405,9.769044,0
8,989.900146484375,7.005417137406766E-4,-2.3648625938221812E-4,2.46805720962584E-4,-8.871134757995605,23.642728805541992,-31.077224731445312,0.003146730363368988,0.020385295152664185,0.03478050231933594,0.07619342,-0.15648696,9.77141,0
8,989.8577270507812,1.681055291555822E-4,0.0014945351285859942,1.1373161396477371E-4,-8.92733383178711,23.27384376525879,-30.73904037475586,0.003017604351043701,0.011106491088867188,0.04899120330810547,0.08573273,-0.16125304,9.769041,0
8,989.8545532226562,-4.972930182702839E-4,-3.697394859045744E-4,1.1389928113203496E-4,-9.000242233276367,24.101011276245117,-30.622238159179688,-0.011065855622291565,-0.0035092681646347046,0.039519309997558594,0.08571243,-0.1469529,9.764304,0
8,989.8545532226562,-4.972930182702839E-4,-3.697394859045744E-4,1.1389928113203496E-4,-9.000242233276367,24.101011276245117,-30.622238159179688,0.017569400370121002,0.005853414535522461,0.04898548126220703,0.07374263,-0.14933571,9.759568,0
8,989.86962890625,-3.6393949994817376E-4,-1.0345526970922947E-4,-9.512804099358618E-4,-9.292123794555664,24.038644790649414,-30.958534240722656,-0.020618513226509094,0.005670398473739624,0.034781455993652344,0.09762135,-0.1517185,9.757199,0
8,989.8924560546875,1.6908353427425027E-4,1.6279709234368056E-4,2.473086933605373E-4,-8.980051040649414,23.645954132080078,-30.829673767089844,0.017242223024368286,0.020251259207725525,0.039485931396484375,0.08107591,-0.15648952,9.778522,0
8,989.8722534179688,6.989370449446142E-4,-0.001035173423588276,-2.865137648768723E-4,-9.196906089782715,24.022167205810547,-30.510334014892578,-0.015802018344402313,0.02522815763950348,0.020547866821289062,0.08366203,-0.16602743,9.764336,0
8,989.8722534179688,6.989370449446142E-4,-0.001035173423588276,-2.865137648768723E-4,-9.196906089782715,24.022167205810547,-30.510334014892578,0.003148004412651062,0.006256520748138428,0.03475379943847656,0.086048126,-0.15887752,9.76907,0
8,989.8873291015625,-6.335405050776899E-4,-2.3607994080521166E-4,-2.0582767319865525E-5,-9.054238319396973,23.471227645874023,-30.961990356445312,0.0078134685754776,0.02036730945110321,0.04895591735839844,0.081264496,-0.1612607,9.754867,0
8,989.8798217773438,0.0012307073920965195,3.0229974072426558E-5,2.457488444633782E-4,-9.224324226379395,23.575347900390625,-30.941871643066406,0.012671925127506256,0.010779023170471191,0.05842399597167969,0.09082031,-0.15649408,9.771436,0
8,989.8798217773438,0.0012307073920965195,3.0229974072426558E-5,2.457488444633782E-4,-9.318564414978027,23.961591720581055,-31.565818786621094,-0.0064038559794425964,0.010358169674873352,0.034745216369628906,0.093206406,-0.14696082,9.773804,0
8,989.8949584960938,-8.997828117571771E-4,2.965398889500648E-4,6.452383822761476E-4,-9.059240341186523,22.72875213623047,-30.45586395263672,-0.011234201490879059,0.01009446382522583,0.03474235534667969,0.08603293,-0.16602698,9.769068,0
8,989.8594360351562,-1.0076205944642425E-4,1.6337003035005182E-4,-2.868357696570456E-4,-8.987959861755371,23.006452560424805,-30.868019104003906,-0.001724250614643097,3.8154423236846924E-4,0.034740447998046875,0.07646948,-0.15172723,9.761966,0
8,989.9026489257812,-5.001990939490497E-4,3.0206181691028178E-5,-2.8682005358859897E-4,-9.445201873779297,23.57884979248047,-30.29216766357422,0.007814139127731323,-0.00428403913974762,0.04894542694091797,0.08124548,-0.14934382,9.766702,0
8,989.9026489257812,-5.001990939490497E-4,3.0206181691028178E-5,-2.8682005358859897E-4,-9.24755859375,24.0274600982666,-30.579822540283203,-0.006727457046508789,0.005352020263671875,0.03474617004394531,0.08602148,-0.14934376,9.776168,0
8,989.8721313476562,6.982590421102941E-4,4.2967399349436164E-4,-9.525941568426788E-4,-9.182229042053223,24.405187606811523,-31.3818359375,-0.001891106367111206,0.010096028447151184,0.020542144775390625,0.08601767,-0.15887675,9.778536,0
8,989.8822631835938,3.2505777198821306E-5,3.0194263672456145E-5,-5.531045026145875E-4,-9.139078140258789,23.286184310913086,-30.553165435791016,0.002668216824531555,-0.0042247474193573,0.04421710968017578,0.095573455,-0.14696029,9.769067,0
9,989.8771362304688,3.254279727116227E-5,6.959780002944171E-4,-2.045700966846198E-5,-9.261417388916016,23.48798179626465,-31.008026123046875,0.007443942129611969,0.02424803376197815,0.039481163024902344,0.07645044,-0.16602641,9.7738,0
9,989.8822631835938,-2.3373652948066592E-4,-2.361335209570825E-4,-4.1991512989625335E-4,-9.259597778320312,24.121591567993164,-30.66046142578125,-0.011351801455020905,0.009623676538467407,0.044208526611328125,0.08839619,-0.15649325,9.754863,0
9,989.8873291015625,-5.000159726478159E-4,-2.361395163461566E-4,-1.5358351811300963E-4,-8.897711753845215,23.459760665893555,-30.985435485839844,0.0029420629143714905,0.004642665386199951,0.058409690856933594,0.08839235,-0.15410984,9.771432,0
9,989.8770751953125,2.989688073284924E-4,-3.693033941090107E-4,1.1274813732597977E-4,-8.936327934265137,23.37092399597168,-30.974288940429688,-0.01126120239496231,0.004505470395088196,0.03946876525878906,0.09077847,-0.15410972,9.771432,0
9,989.8544311523438,-3.667845739983022E-4,-3.6930933129042387E-4,-1.5355208597611636E-4,-9.227367401123047,23.57240104675293,-30.787261962890625,0.0031210631132125854,-1.491159200668335E-4,0.04893779754638672,0.078825146,-0.15410966,9.771432,0
9,989.879638671875,-1.0043202200904489E-4,4.296323750168085E-4,-2.0378429326228797E-5,-9.12247371673584,23.196468353271484,-30.70444107055664,0.027071215212345123,0.0046263188123703,0.044205665588378906,0.07165164,-0.15172628,9.759595,0
9,989.85693359375,3.276282222941518E-5,-6.356372032314539E-4,1.1279522732365876E-4,-8.84705924987793,23.454465866088867,-30.91594696044922,0.017638511955738068,2.0101666450500488E-5,0.04894065856933594,0.07881755,-0.15649274,9.771432,0
9,989.8770751953125,5.654311389662325E-4,2.964625018648803E-4,-2.866628346964717E-4,-8.824504852294922,23.264726638793945,-30.6773681640625,-0.006246238946914673,-0.014128625392913818,0.04420948028564453,0.08359352,-0.14457625,9.769064,0
9,989.8771362304688,6.98625750374049E-4,-1.0301737347617745E-4,-4.1980500100180507E-4,-9.027117729187012,23.285905838012695,-30.955322265625,-0.011241719126701355,0.014460936188697815,0.03474140167236328,0.09792912,-0.14934269,9.769063,0
9,989.8771362304688,-2.3344304645434022E-4,4.2960853897966444E-4,9.11790004465729E-4,-8.914316177368164,23.549474716186523,-30.83415985107422,-0.011273585259914398,0.014298215508460999,0.048943519592285156,0.09075561,-0.15649247,9.77143,0
9,989.8695068359375,-4.997223732061684E-4,-1.0302918963134289E-4,-1.5345776046160609E-4,-9.233318328857422,23.672426223754883,-31.177120208740234,0.022396579384803772,0.023601174354553223,0.053671836853027344,0.07641244,-0.1755586,9.764329,0
9,989.88916015625,-3.6652787821367383E-4,-6.356668891385198E-4,-2.8660002863034606E-4,-9.444520950317383,23.316476821899414,-30.892791748046875,-0.006053991615772247,0.008976727724075317,0.03946399688720703,0.08118844,-0.15410903,9.769062,0
9,989.8917846679688,-3.673564933706075E-4,5.4998577979858965E-5,4.2654783464968204E-4,-9.094374656677246,23.380910873413086,-30.87353515625,-0.025477200746536255,0.008999034762382507,0.015793800354003906,0.10030383,-0.17079183,9.778531,0
9,989.8644409179688,5.647857906296849E-4,5.876244395039976E-4,4.265635216142982E-4,-8.9498872756958,23.463581085205078,-30.977622985839844,-0.006426729261875153,0.003968089818954468,0.03945350646972656,0.088445276,-0.15172786,9.769071,0
9,989.8818359375,-7.668699836358428E-4,3.2132089836522937E-4,-3.7241671816445887E-4,-9.319681167602539,23.485910415649414,-30.69098663330078,0.012217387557029724,0.013353437185287476,0.053658485412597656,0.08366549,-0.16126099,9.773805,0
9,989.8765869140625,-1.0185528662987053E-4,7.209205650724471E-4,2.9304061899892986E-4,-9.212531089782715,24.48164176940918,-30.534812927246094,0.02681317925453186,0.008587479591369629,0.053656578063964844,0.07649577,-0.15411115,9.76197,0
9,989.8742065429688,1.6446059453301132E-4,-0.001010132604278624,-9.053809335455298E-4,-9.108478546142578,23.841861724853516,-30.975318908691406,-0.006296023726463318,0.008719444274902344,0.039452552795410156,0.08127558,-0.15649444,9.759602,0
9,989.8917846679688,5.639344453811646E-4,-3.4434295957908034E-4,1.5988267841748893E-4,-8.835563659667969,23.72862434387207,-30.933761596679688,-0.011207737028598785,0.003977775573730469,0.01104736328125,0.0860554,-0.15649441,9.773805,0
9,989.8992919921875,2.9761853511445224E-4,4.546046839095652E-4,2.9304061899892986E-4,-8.532920837402344,22.694955825805664,-30.765945434570312,0.007849864661693573,0.01354818046092987,0.04892253875732422,0.08366549,-0.1588777,9.773806,0
9,989.8815307617188,-1.0185528662987053E-4,5.513085488928482E-5,-5.059071118012071E-4,-8.891624450683594,23.465654373168945,-31.294658660888672,0.0075579434633255005,0.018297910690307617,0.04419231414794922,0.08366549,-0.16126099,9.766704,0
9,989.8865356445312,1.6446059453301132E-4,5.877626244910061E-4,-1.0643320274539292E-4,-9.002062797546387,23.4674015045166,-30.969802856445312,0.0025654584169387817,-0.010281175374984741,0.039459228515625,0.08127555,-0.14219472,9.769071,0
9,989.8966674804688,-3.681711677927524E-4,5.513085488928482E-5,2.9304061899892986E-4,-9.183643341064453,23.2973690032959,-30.93187713623047,0.021859899163246155,-8.155256509780884E-4,0.04419231414794922,0.08127558,-0.15172789,9.769071,0
9,989.8637084960938,1.6446059453301132E-4,-2.111849607899785E-4,4.261985595803708E-4,-9.089266777038574,23.01704216003418,-31.006996154785156,-0.0022324398159980774,0.01790483295917511,0.04892158508300781,0.090835184,-0.16364428,9.773806,0
9,989.8789672851562,-5.013290792703629E-4,3.214468015357852E-4,2.9304061899892986E-4,-8.971057891845703,23.54887580871582,-30.59442901611328,-0.016499370336532593,0.017720773816108704,0.03471565246582031,0.090835154,-0.15411115,9.773806,0
9,989.8789672851562,-5.013290792703629E-4,3.214468015357852E-4,2.9304061899892986E-4,-8.971057891845703,23.54887580871582,-30.59442901611328,-0.0023496970534324646,0.022585183382034302,0.048920631408691406,0.08605537,-0.16841081,9.771438,0
10,989.8966064453125,5.639344453811646E-4,3.214467433281243E-4,2.6724737836048007E-5,-8.914316177368164,23.549474716186523,-30.83415985107422,-0.007351987063884735,0.0035664886236190796,0.034720420837402344,0.08127558,-0.16126099,9.773806,0
10,989.8811645507812,4.3077647569589317E-4,5.513085488928482E-5,4.261985595803708E-4,-8.755725860595703,23.171194076538086,-30.83646011352539,0.011743612587451935,0.012951835989952087,0.03945350646972656,0.07410586,-0.16602755,9.766704,0
10,989.884033203125,-5.013290792703629E-4,3.214467433281243E-4,-5.059069953858852E-4,-8.891219139099121,22.991445541381836,-30.49713134765625,0.006697259843349457,-0.0015806108713150024,0.05839061737060547,0.0860554,-0.14457801,9.766704,0
10,989.884033203125,-5.013290792703629E-4,3.214467433281243E-4,-5.059069953858852E-4,-8.884695053100586,23.73539161682129,-31.080554962158203,0.0067460909485816956,0.01279132068157196,0.053656578063964844,0.07410586,-0.16602755,9.76197,0
10,989.8687744140625,-2.3501322721131146E-4,5.877626244910061E-4,2.6724737836048007E-5,-9.311527252197266,23.12498664855957,-30.97906494140625,0.02070526033639908,0.00799858570098877,0.044190406799316406,0.078885674,-0.16126099,9.773805,0
10,989.8637084960938,3.130265395157039E-5,3.214467433281243E-4,6.925144698470831E-4,-9.288537979125977,23.673303604125977,-31.014694213867188,0.0018601715564727783,0.01717519760131836,0.039447784423828125,0.078885674,-0.1588777,9.764337,0
10,989.8837280273438,-6.344870198518038E-4,-3.44342872267589E-4,1.5988267841748893E-4,-9.278158187866211,23.47178077697754,-30.157669067382812,0.011029444634914398,0.007456675171852112,0.04891681671142578,0.08366549,-0.15411115,9.769071,0
10,989.88134765625,-1.0185528662987053E-4,8.540786220692098E-4,5.593565292656422E-4,-8.949344635009766,23.09528923034668,-30.879165649414062,-0.008210882544517517,0.012192174792289734,0.029981613159179688,0.08127558,-0.16126099,9.771438,0
10,989.8837280273438,-1.0185528662987053E-4,5.877626244910061E-4,2.9304061899892986E-4,-8.570556640625,22.975881576538086,-30.93054962158203,0.0055301859974861145,0.00273112952709198,0.034720420837402344,0.07649577,-0.1493446,9.77854,0
10,989.8712158203125,1.6446059453301132E-4,5.877626244910061E-4,-1.0643320274539292E-4,-8.570557594299316,22.97588539123535,-30.93054962158203,-0.008973248302936554,0.00706896185874939,0.020511627197265625,0.08366549,-0.15411115,9.769071,0
10,989.8992919921875,-6.344870198518038E-4,4.546047421172261E-4,-7.722228765487671E-4,-9.030704498291016,23.651247024536133,-30.89916229248047,0.009924814105033875,0.02590736746788025,0.044182777404785156,0.08366549,-0.16602758,9.769071,0
10,989.8636474609375,-6.344870198518038E-4,0.001120394328609109,-5.059069953858852E-4,-8.89618968963623,23.461233139038086,-31.062744140625,0.010182328522205353,0.00680696964263916,0.03944587707519531,0.08366549,-0.16364428,9.780907,0
10,989.8661499023438,5.639344453811646E-4,5.513085488928482E-5,2.9304061899892986E-4,-9.026138305664062,23.655668258666992,-31.131080627441406,0.005615890026092529,0.0111054927110672,0.04417228698730469,0.0860554,-0.1588777,9.764336,0
10,989.8837280273438,-9.008029010146856E-4,-0.001143290544860065,1.5988267841748893E-4,-9.095897674560547,23.379440307617188,-30.796226501464844,0.015110433101654053,0.0016756653785705566,0.03946113586425781,0.07388109,-0.15648893,9.771417,0
10,989.88623046875,3.23668064083904E-5,3.212739829905331E-4,-6.386088207364082E-4,-8.858552932739258,23.180307388305664,-30.89813232421875,0.0011825934052467346,0.0018102377653121948,0.029993057250976562,0.09538138,-0.1517221,9.783252,0
10,989.8733520507812,3.3495103707537055E-5,-6.110147223807871E-4,-6.381251150742173E-4,-9.076249122619629,23.292673110961914,-31.10211944580078,0.01072894036769867,0.0019698888063430786,0.05366802215576172,0.07147348,-0.15172186,9.764314,0
10,989.8912963867188,4.3305449071340263E-4,-7.839693716960028E-5,-5.049305036664009E-4,-9.177556037902832,23.30326271057129,-31.24109649658203,-0.008251376450061798,0.011420562863349915,0.02526092529296875,0.08341408,-0.15410492,9.761945,0
10,989.8788452148438,1.6682440764270723E-4,-2.115687821060419E-4,4.2721175123006105E-4,-9.035270690917969,23.64682960510254,-30.667247772216797,-0.007997572422027588,0.025765687227249146,0.02999401092529297,0.085795105,-0.16840449,9.766679,0
10,989.8885498046875,6.996272131800652E-4,-4.779124283231795E-4,2.781124203465879E-5,-8.928854942321777,23.272371292114258,-30.66173553466797,-0.017243385314941406,0.016266852617263794,0.03472709655761719,0.08100647,-0.15887111,9.766679,0
10,989.8885498046875,6.996272131800652E-4,-4.779124283231795E-4,2.781124203465879E-5,-8.928854942321777,23.272371292114258,-30.66173553466797,0.011423781514167786,-0.0028398483991622925,0.04892921447753906,0.08577734,-0.14695448,9.766678,0
10,989.8809204101562,-6.318665109574795E-4,-7.845251093385741E-5,1.610059116501361E-4,-8.596698760986328,23.53096580505371,-31.112972259521484,0.0019990727305412292,-0.003026917576789856,0.029989242553710938,0.07381898,-0.14695424,9.759576,0
10,989.8809814453125,4.335678822826594E-4,5.873094196431339E-4,-1.0523665696382523E-4,-8.97562313079834,23.544458389282227,-30.362510681152344,0.006721124053001404,0.011272206902503967,0.04419422149658203,0.078589916,-0.15410385,9.776145,0
10,989.8809814453125,4.335678822826594E-4,5.873094196431339E-4,-1.0523665696382523E-4,-8.97562313079834,23.544458389282227,-30.362510681152344,-0.0122871994972229,-0.003118664026260376,0.03472328186035156,0.08575073,-0.1541036,9.773777,0
10,989.8785400390625,-2.3213590611703694E-4,-0.0010105997789651155,-1.0519992792978883E-4,-8.93165397644043,22.26899528503418,-30.833545684814453,0.0163261815905571,-0.00332757830619812,0.034722328186035156,0.080962,-0.14933687,9.783245,0
11,989.8858032226562,-0.001164156012237072,5.464987043524161E-5,-2.383211685810238E-4,-8.785207748413086,23.0911922454834,-31.289146423339844,0.0065720826387405396,0.020260870456695557,0.05365943908691406,0.08095318,-0.16840294,9.761939,0
11,989.8631591796875,-9.354188805446029E-4,-1.5947599604260176E-4,-6.88181899022311E-6,-8.618304252624512,22.878206253051758,-30.45557403564453,0.011496298015117645,-0.0038987696170806885,0.039450645446777344,0.073774576,-0.15171972,9.766673,0
11,989.885986328125,3.96246206946671E-4,-1.5948984946589917E-4,1.2631282152142376E-4,-8.815074920654297,23.905702590942383,-30.716327667236328,0.0021445676684379578,-0.00406743586063385,0.04891681671142578,0.08810508,-0.15171948,9.773774,0
11,989.8886108398438,2.631735987961292E-4,-2.63457877736073E-5,-1.399663888150826E-4,-8.509930610656738,23.24327278137207,-30.801570892333984,0.0022463127970695496,6.618201732635498E-4,0.05364990234375,0.08809626,-0.15648583,9.766671,0
11,989.8809814453125,-2.69372365437448E-4,-2.635968485265039E-5,-5.394035833887756E-4,-8.55145263671875,23.25740623474121,-31.33489227294922,0.002351529896259308,0.014927133917808533,0.011038780212402344,0.07852772,-0.16601872,9.78324,0
11,989.8707275390625,1.3018702156841755E-4,-6.921633030287921E-4,-1.3989304716233164E-4,-8.73371410369873,23.349742889404297,-30.696334838867188,-0.00238143652677536,-0.004001796245574951,0.02051067352294922,0.07851884,-0.15410212,9.778505,0
11,989.9468383789062,0.0067881690338253975,-0.0044205994345247746,-4.0617218473926187E-4,-8.819938659667969,23.269145965576172,-30.909282684326172,0.003580443561077118,0.0028688162565231323,0.03473663330078125,0.08328977,-0.15171868,9.77377,0
11,989.9468383789062,0.0067881690338253975,-0.0044205994345247746,-4.0617218473926187E-4,-8.819938659667969,23.269145965576172,-30.909282684326172,-0.006719328463077545,0.0019853562116622925,0.025262832641601562,0.08089101,-0.15648499,9.759565,0
11,989.9468383789062,-0.003997537773102522,0.00423465296626091,3.9281207136809826E-4,-8.449304580688477,23.510663986206055,-30.672592163085938,-0.016876332461833954,-0.0226680189371109,0.04419231414794922,0.088051796,-0.13741854,9.773768,0
11,989.85791015625,1.3052928261458874E-4,1.0672875214368105E-4,2.597275306470692E-4,-8.715725898742676,23.155588150024414,-30.22583770751953,0.011111035943031311,0.01062937080860138,0.011057853698730469,0.066533804,-0.1588678,9.787971,0
11,989.8809814453125,0.004524827003479004,-0.002290128031745553,-5.391834420152009E-4,-8.647626876831055,23.324426651000977,-29.78430938720703,-0.01630016416311264,-0.016134142875671387,0.039483070373535156,0.08803409,-0.15171772,9.759563,0
11,989.9591674804688,-0.003198247868567705,0.0025035436265170574,7.924326346255839E-4,-8.8231201171875,23.1602840423584,-30.05559539794922,0.01604706048965454,0.010921582579612732,0.03946971893310547,0.08085549,-0.14933428,9.7737665,0
11,989.9591674804688,-0.003198247868567705,0.0025035436265170574,7.924326346255839E-4,-8.800129890441895,23.708600997924805,-30.091224670410156,-0.012663163244724274,0.0012515634298324585,0.020529747009277344,0.083236486,-0.15171736,9.773766,0
11,989.8198852539062,-0.0010676353704184294,7.724767201580107E-4,-6.478323484770954E-6,-8.948503494262695,23.359140396118164,-30.355850219726562,0.002298213541507721,0.020200073719024658,0.03946208953857422,0.08299017,-0.1683943,9.77611,0
11,989.8832397460938,-4.0176010224968195E-4,-0.0017575379461050034,-2.7275754837319255E-4,-8.838607788085938,23.725677490234375,-30.779151916503906,0.007939577102661133,-0.008432090282440186,0.030035972595214844,0.085119426,-0.14455506,9.783187,0
11,989.860595703125,-2.667693770490587E-4,-5.584372556768358E-4,-6.684900727123022E-4,-8.677654266357422,23.61271858215332,-30.335437774658203,0.008290551602840424,0.005869388580322266,0.025302886962890625,0.07792184,-0.14693764,9.773716,0
11,989.8831176757812,-6.65410712826997E-4,-2.922565909102559E-4,2.639723243191838E-4,-8.435200691223145,23.049711227416992,-30.57080841064453,0.008255429565906525,0.010293200612068176,0.04423809051513672,0.08028382,-0.1636199,9.773713,0
11,989.880615234375,-1.325099146924913E-4,-6.917741266079247E-4,-1.353863044641912E-4,-8.25375747680664,23.113828659057617,-29.90966033935547,-0.010733306407928467,0.005429744720458984,0.03476715087890625,0.08742562,-0.16123596,9.773711,0
11,989.8985595703125,4.003909998573363E-4,-1.591859763721004E-4,5.30518707819283E-4,-8.467865943908691,22.860849380493164,-30.169803619384766,0.003676988184452057,8.797198534011841E-4,0.02530384063720703,0.09217751,-0.15885201,9.776076,0
11,989.8856811523438,4.006598028354347E-4,-1.5922961756587029E-4,-1.351557148154825E-4,-8.757789611816406,23.538009643554688,-30.85760498046875,-0.025070011615753174,0.014889895915985107,0.01583576202392578,0.092149615,-0.16123459,9.776074,0
11,989.8909301757812,-1.317030400969088E-4,6.396743701770902E-4,-5.345141980797052E-4,-8.657462120056152,23.157655715942383,-30.542877197265625,-0.0015073642134666443,-0.004065200686454773,0.04898357391357422,0.08256212,-0.15885061,9.7666025,1
11,989.887939453125,1.7239362932741642E-6,3.733147750608623E-4,-4.0124106453731656E-4,-8.730807304382324,23.246774673461914,-30.151866912841797,0.012613296508789062,0.01496647298336029,0.058457374572753906,0.07536447,-0.15646663,9.768966,1
11,989.8931884765625,-1.311648520641029E-4,3.732711193151772E-4,1.3150603626854718E-4,-8.314085960388184,23.478574752807617,-29.61376953125,-0.0016097500920295715,-0.008739665150642395,0.04425811767578125,0.087286115,-0.1469329,9.773698,1
11,989.8831176757812,5.348938866518438E-4,7.72701227106154E-4,6.6425307886675E-4,-9.006467819213867,23.98920440673828,-29.613941192626953,-0.0066549405455589294,0.01944112777709961,0.039521217346191406,0.08486828,-0.15884858,9.764228,1
11,989.8804321289062,-3.969428944401443E-4,3.73183807823807E-4,-6.672111339867115E-4,-8.522648811340332,23.599777221679688,-30.281585693359375,-0.011940747499465942,-0.004358813166618347,0.025325775146484375,0.08962017,-0.15408131,9.773693,1
12,989.8977661132812,-3.9667385863140225E-4,7.726139738224447E-4,-1.3060634955763817E-6,-8.468952178955078,23.597429275512695,-30.36670684814453,0.007262498140335083,-0.004477828741073608,0.0489959716796875,0.08003265,-0.13978091,9.773691,1
12,989.9030151367188,-3.964048228226602E-4,9.057281422428787E-4,-6.669804570265114E-4,-8.378597259521484,22.944395065307617,-30.111465454101562,-0.01670156419277191,0.014756157994270325,0.03953361511230469,0.087174416,-0.16361305,9.766586,1
12,989.885498046875,4.028119728900492E-4,-2.9273692052811384E-4,2.6524040731601417E-4,-8.15079116821289,23.210630416870117,-30.54706573486328,-0.01647922396659851,0.023763447999954224,0.03479194641113281,0.08953643,-0.16122913,9.761849,1
12,989.8876342773438,-7.953408057801425E-4,2.3985122970771044E-4,6.648294511251152E-4,-8.38066291809082,23.31121253967285,-30.132606506347656,0.0023484602570533752,0.009605839848518372,0.039534568786621094,0.08950853,-0.16122842,9.787887,1
12,989.9231567382812,4.0334969526156783E-4,2.3980748665053397E-4,-8.449424058198929E-7,-8.823663711547852,23.528573989868164,-30.15404510498047,0.002540506422519684,0.005118563771247864,0.039539337158203125,0.07992107,-0.16122773,9.768946,1
12,989.9055786132812,5.367767880670726E-4,-2.9286794597283006E-4,-0.0015986249782145023,-8.32696533203125,23.308862686157227,-30.217727661132812,0.002900354564189911,0.02434326708316803,0.058478355407714844,0.087062836,-0.17076012,9.771312,1
12,989.9129638671875,8.033617050386965E-4,-8.255433640442789E-4,-0.0026637730188667774,-8.59034252166748,22.95673179626465,-29.92559051513672,-0.007263436913490295,-0.0137147456407547,0.015878677368164062,0.07986522,-0.15407655,9.780778,1
12,989.8926391601562,2.7099897852167487E-4,0.0018375717336311936,-0.006924711633473635,-8.698280334472656,23.32971954345703,-29.853797912597656,-0.013438783586025238,0.012663111090660095,0.03952980041503906,-0.03726788,-0.56161654,9.797345,1
12,989.806396484375,-0.10106165707111359,0.009294329211115837,0.04154501482844353,-8.631428718566895,23.70891761779785,-30.733112335205078,-0.07808732986450195,-1.053309679031372,-0.5057163238525391,-0.12811208,0.22963268,10.268416,1
12,989.806396484375,-0.10106165707111359,0.009294329211115837,0.04154501482844353,-8.631428718566895,23.70891761779785,-30.733112335205078,0.16857735812664032,0.19444334506988525,-0.7286367416381836,-0.49140507,-0.042060375,10.140584,1
12,989.8265991210938,-0.3471370041370392,0.4686891436576843,-0.676042914390564,-8.635993957519531,23.704500198364258,-30.501197814941406,-0.22205930948257446,-1.3335567712783813,-0.7133235931396484,-0.2428832,1.3021092,10.41281,1
12,989.8291625976562,-0.6388857364654541,0.6342043876647949,-1.10161554813385,-8.797521591186523,22.973491668701172,-29.97162628173828,-0.4766847491264343,0.7292011380195618,0.5313816070556641,-0.16643426,-1.2432315,9.411481,1
12,989.8291625976562,-0.6388857364654541,0.6342043876647949,-1.10161554813385,-8.797521591186523,22.973491668701172,-29.97162628173828,-0.384463906288147,0.582606852054596,1.8156933784484863,-0.24293901,-1.2765965,9.383073,1
12,989.8849487304688,-0.967252790927887,0.15989573299884796,-0.5464798808097839,-10.455720901489258,24.89657974243164,-28.288944244384766,-0.8490399122238159,-0.0084761381149292,0.35325050354003906,-0.090013176,-1.2622962,10.384397,1
12,989.8849487304688,-0.967252790927887,0.15989573299884796,-0.5464798808097839,-10.455720901489258,24.89657974243164,-28.288944244384766,-0.5683364272117615,0.29984021186828613,0.8856849670410156,-0.4867648,-1.9796624,8.810204,1
12,989.9227294921875,-0.8190476298332214,0.6389980316162109,-0.668718695640564,-10.730701446533203,25.376638412475586,-28.351646423339844,-0.7598394155502319,-0.672514796257019,-0.384674072265625,-0.17371556,-1.4315076,10.351251,1
12,989.9227294921875,-0.9527379870414734,0.09118615090847015,-0.20386427640914917,-10.926225662231445,26.193771362304688,-27.291549682617188,0.43576228618621826,-0.5753999948501587,-0.31709957122802734,-0.97436064,-2.6159964,8.00535,1
12,989.9253540039062,-0.61451655626297,0.6899973154067993,-0.20599469542503357,-10.944894790649414,26.650304794311523,-27.161418914794922,0.17848706245422363,1.1961686611175537,2.3764171600341797,-1.2133788,-3.364345,8.142645,1
12,989.9024047851562,-0.8981424570083618,-1.0979143381118774,0.1355556845664978,-11.998427391052246,29.19295310974121,-26.68594741821289,0.6263443827629089,0.10834741592407227,-1.467569351196289,-0.64461,-2.985403,9.697894,1
12,989.9351806640625,-0.7933468222618103,-0.9126917719841003,-0.09760376811027527,-12.65689754486084,29.68208122253418,-25.766273498535156,0.07234624028205872,-0.40754270553588867,1.2676687240600586,-0.47495484,-3.1450822,9.065849,1
12,989.9351806640625,-0.7933468222618103,-0.9126917719841003,-0.09760376811027527,-13.771387100219727,30.112951278686523,-24.772918701171875,0.030810505151748657,0.4382896423339844,-1.9103021621704102,0.10098359,-3.595521,9.896734,1
12,989.9277954101562,-0.3508627116680145,-0.37393471598625183,-0.3916163742542267,-14.299227714538574,30.1452693939209,-24.38553237915039,0.05450274050235748,-0.03162789344787598,-0.05905342102050781,0.21806097,-3.8147821,9.08715,1
12,989.8897094726562,-0.39973142743110657,0.16974908113479614,-0.42796844244003296,-14.637877464294434,30.35499382019043,-24.422603607177734,-0.03682945668697357,-0.03428840637207031,0.17461585998535156,0.06507927,-3.7051504,8.999559,1
12,989.882080078125,-0.45472538471221924,0.12594006955623627,-0.2998703122138977,-15.47002124786377,31.313596725463867,-23.426652908325195,0.17792001366615295,-0.13466835021972656,-0.4060955047607422,-0.09507206,-3.9005785,9.314395,1
13,989.91748046875,-0.5119830369949341,0.15803109109401703,-0.3675144612789154,-16.01338005065918,30.699045181274414,-22.691089630126953,0.08763371407985687,-0.19716644287109375,-0.038817405700683594,0.017225385,-4.079324,8.765201,1
13,989.9553833007812,-0.8697782158851624,0.24764633178710938,-0.5368912220001221,-15.95688533782959,31.700071334838867,-22.604400634765625,-0.2088831067085266,-0.06636285781860352,0.1161336898803711,0.39241213,-4.870571,8.469298,1
13,989.9273681640625,-0.8123868107795715,0.2505757808685303,-0.4898863434791565,-16.683048248291016,31.54615592956543,-21.328731536865234,-0.0532846674323082,0.45171451568603516,0.022340774536132812,0.18685263,-5.085066,8.455092,1
13,989.9248657226562,-0.8616549968719482,0.21808521449565887,-0.4024014472961426,-17.24365997314453,32.49595260620117,-20.912996292114258,-0.4337490200996399,0.03236055374145508,0.4672369956970215,0.45210385,-5.1732464,7.804109,1
13,989.9169311523438,-0.9547320604324341,0.16229195892810822,-0.2691102623939514,-16.937814712524414,31.9914608001709,-19.775840759277344,-0.25741106271743774,-0.4261775016784668,-0.11207103729248047,0.4162274,-5.304326,8.234939,1
13,989.90966796875,-0.5981348752975464,-0.1350497454404831,0.2115899920463562,-16.714275360107422,32.88541030883789,-19.55466079711914,0.3394046127796173,-1.1630749702453613,-0.36171722412109375,-0.47045416,-4.3271813,8.128411,1
13,989.9320678710938,-0.5037257075309753,-0.21241454780101776,0.39002177119255066,-16.672317504882812,33.60932922363281,-19.295547485351562,0.5491603016853333,-1.3082270622253418,-0.4855670928955078,0.07202572,-4.434428,8.530833,1
13,989.9191284179688,0.1476832926273346,-0.12972351908683777,0.12383914738893509,-16.603103637695312,34.253849029541016,-19.72884750366211,-0.46895405650138855,-0.5243334770202637,-0.33437633514404297,0.5523681,-5.49022,9.205483,1
13,989.9220581054688,0.632644772529602,-0.11760620027780533,0.2197129726409912,-16.914493560791016,34.3841667175293,-20.458332061767578,-0.5705865025520325,1.4081196784973145,-0.6179571151733398,0.41611576,-6.107488,7.7378144,1
13,989.944580078125,0.8423687815666199,0.9331430792808533,0.27430787682533264,-15.636712074279785,33.685359954833984,-22.38498306274414,-0.3675945997238159,0.008724689483642578,-0.2815589904785156,-0.41081825,-4.6441545,9.697856,1
13,989.929443359375,0.7157358527183533,0.2252754122018814,-0.008652658201754093,-15.645323753356934,32.8879280090332,-23.645729064941406,1.2911943197250366,1.2046499252319336,-2.8940982818603516,-1.8726214,-5.7643156,12.024891,1
13,989.96240234375,1.2318532466888428,-0.17819269001483917,-0.21065443754196167,-15.68936824798584,32.11052322387695,-25.749013900756836,2.1574785709381104,0.9989478588104248,-2.6596174240112305,-2.8883395,-3.84101,10.812882,1
13,990.1145629882812,1.8703408241271973,0.7420625686645508,0.35300102829933167,-14.66599178314209,30.542203903198242,-28.971302032470703,2.1658105850219727,-0.9926116466522217,-0.27599525451660156,-2.541813,-2.1274323,9.7192335,1
13,990.0486450195312,2.0985734462738037,-0.016538161784410477,0.6452828049659729,-14.525060653686523,27.83099937438965,-31.220890045166016,1.5062925815582275,0.2749669551849365,-1.055746078491211,-2.097301,-2.5611887,10.909936,1
13,989.994873046875,1.3658055067062378,-0.2763293385505676,0.8930898308753967,-14.53614330291748,23.503122329711914,-34.43023681640625,0.5845841765403748,0.6036398410797119,-2.394354820251465,-1.3444915,-2.265662,11.695846,1
13,989.994873046875,1.3658055067062378,-0.2763293385505676,0.8930898308753967,-14.53614330291748,23.503122329711914,-34.43023681640625,0.3793850541114807,0.3189021348953247,-1.801508903503418,-0.63948,-0.9834578,10.914668,1
13,989.9847412109375,1.6873821020126343,-0.19909775257110596,0.978710412979126,-14.521137237548828,21.359071731567383,-37.07852554321289,-0.8782588839530945,-0.49657830595970154,-0.5188531875610352,0.3164711,0.07233477,10.666111,1
13,989.85498046875,1.795772671699524,-0.190975159406662,0.1472722589969635,-14.863725662231445,15.297964096069336,-39.36552429199219,1.1300203800201416,0.6999471783638,-0.7855215072631836,-1.1126997,-0.42338696,10.486203,1
13,989.85498046875,1.795772671699524,-0.190975159406662,0.1472722589969635,-14.863725662231445,15.297964096069336,-39.36552429199219,0.8192168474197388,0.9235522150993347,-1.3459014892578125,-0.8641595,0.08901818,11.558545,1
13,989.9459838867188,1.5792582035064697,0.2761429250240326,0.14540810883045197,-15.84926700592041,10.372854232788086,-41.081031799316406,1.659425139427185,1.3425612449645996,0.21821975708007812,-1.6528368,0.46557638,10.026964,1
13,989.84228515625,0.7615354061126709,1.1672358512878418,0.4050661325454712,-14.042694091796875,8.799226760864258,-42.499088287353516,1.0739989280700684,1.4163258075714111,-0.08872222900390625,-1.9993821,0.6324061,9.423327,1
13,989.849365234375,0.41425958275794983,1.0503231287002563,0.6768415570259094,-12.058265686035156,7.655059337615967,-43.19983673095703,0.8854328393936157,1.699194312095642,-0.6965932846069336,-1.9468138,0.81353545,10.176097,1
13,989.849365234375,0.41425958275794983,1.0503231287002563,0.6768415570259094,-12.058265686035156,7.655059337615967,-43.19983673095703,1.0067015886306763,2.299941301345825,-0.2828178405761719,-2.02808,0.49179316,9.309699,1
13,989.7909545898438,0.9122703671455383,0.3059702217578888,0.6579331755638123,-10.914591789245605,6.672059535980225,-44.165382385253906,0.8707045316696167,1.5781561136245728,-0.5247802734375,-1.8679663,1.3378572,9.960679,1
13,989.8060913085938,0.66472989320755,0.642859697341919,1.075916051864624,-9.644885063171387,4.01556921005249,-44.35956573486328,0.935185432434082,1.215956687927246,-0.034104347229003906,-1.9444526,1.9694262,9.082446,1
14,989.8060913085938,0.66472989320755,0.642859697341919,1.075916051864624,-9.644885063171387,4.01556921005249,-44.35956573486328,0.4726005792617798,1.558026909828186,-2.5860300064086914,-1.7006924,2.264953,11.248435,1
14,989.8212890625,0.9016180634498596,1.3989304304122925,0.9511470794677734,-5.712822437286377,2.2720093727111816,-45.402347564697266,0.793441891670227,-1.9649744033813477,-2.9514474868774414,-2.4439616,5.2678843,10.737119,1
14,989.8212890625,0.9016180634498596,1.3989304304122925,0.9511470794677734,-5.712822437286377,2.2720093727111816,-45.402347564697266,0.17948484420776367,-0.8936910629272461,-4.705165863037109,-2.3890033,4.419437,12.446238,1
14,989.9451904296875,0.7530139088630676,1.5174411535263062,0.14301159977912903,-2.9850587844848633,1.2440528869628906,-45.60857009887695,0.5137183666229248,0.5843384265899658,-0.42204761505126953,-4.291375,3.9975972,8.043241,1
14,989.6177978515625,0.5012122988700867,2.608004570007324,-0.1969405859708786,4.619193077087402,-1.4338970184326172,-46.007781982421875,1.1350061893463135,-0.930976390838623,-0.49715328216552734,-4.9462175,5.472846,7.9154105,1
14,989.5059814453125,0.8607388138771057,1.086808204650879,0.3490070104598999,4.630602836608887,-4.004561424255371,-45.70515441894531,0.4225583076477051,0.6305856704711914,0.07680130004882812,-3.6198316,5.19162,8.081114,1
14,989.6631469726562,1.9020339250564575,-0.49324384331703186,0.5976129770278931,3.4034738540649414,-7.682518005371094,-44.83894348144531,-0.1245722770690918,-0.3965482711791992,0.34953975677490234,-2.7833753,6.2950783,7.266795,1
14,989.7315063476562,1.892713189125061,-0.47753122448921204,0.4439487159252167,2.926882743835449,-10.762687683105469,-44.662254333496094,0.7775194644927979,1.5183696746826172,-0.6117801666259766,-3.9305382,4.586268,6.9637923,1
14,989.7138061523438,1.4638115167617798,0.3163563907146454,0.14647389948368073,3.709588050842285,-13.138612747192383,-43.335105895996094,0.40957117080688477,1.9170794486999512,0.8270244598388672,-3.7704244,4.4647207,4.9919114,1
14,989.7462768554688,1.5479674339294434,1.0082449913024902,0.7143925428390503,4.579337120056152,-15.590396881103516,-43.0947151184082,1.2215590476989746,4.379940032958984,0.8109316825866699,-3.2063293,3.0061526,5.0416303,1
14,989.7158203125,1.4648770093917847,0.8306123614311218,1.180312156677246,4.519735336303711,-19.018884658813477,-40.883323669433594,-1.5431408882141113,3.5321221351623535,2.1953089237213135,-0.91433036,4.5814977,2.1938934,1
14,989.7489013671875,2.2651548385620117,0.3913244605064392,1.7563530206680298,3.620901107788086,-22.28474235534668,-39.01403045654297,-0.02634429931640625,5.082677841186523,3.592939853668213,-2.4653792,3.2778444,1.2375436,1
14,989.7032470703125,1.1081452369689941,0.5087698101997375,1.334108829498291,2.742722511291504,-24.055330276489258,-38.6981201171875,1.9050519466400146,5.331223487854004,1.945465087890625,-4.264978,3.6615524,2.3524957,1
14,989.7615966796875,0.3591318428516388,-0.08032090961933136,2.283125400543213,-0.49907684326171875,-24.0881404876709,-38.4276008605957,3.0680811405181885,4.50473690032959,3.36869478225708,-1.7747025,3.3541095,1.4955682,1
14,989.7716064453125,0.6370324492454529,-0.39297574758529663,3.384474754333496,-5.0724101066589355,-25.0523624420166,-36.8966064453125,1.0104174613952637,5.876202583312988,-1.2650980949401855,-0.27384675,2.8035722,4.80255,1
14,989.7666015625,0.42557770013809204,-1.0049697160720825,3.501520872116089,-10.13759994506836,-25.580617904663086,-36.93199157714844,3.1725499629974365,6.7338666915893555,2.140981674194336,0.05356729,2.1886864,1.639967,1
14,989.827392578125,0.9447605013847351,-0.37859469652175903,3.564903974533081,-14.877646446228027,-24.59337043762207,-36.182350158691406,1.8086748123168945,5.810979843139648,2.168358325958252,2.436297,2.2315855,0.71439064,1
14,989.77880859375,0.7950910329818726,-0.30495837330818176,4.189148902893066,-20.125587463378906,-23.028425216674805,-34.92634201049805,1.9444804191589355,6.232078552246094,3.223534345626831,4.3506055,1.0256467,-0.050215937,1
14,989.7302856445312,0.4427551329135895,-0.2732667922973633,4.503401279449463,-25.130313873291016,-19.444040298461914,-34.826778411865234,0.9240069389343262,6.437856674194336,3.646536111831665,6.350951,-1.2337012,-1.3166693,1
14,989.778564453125,-0.059649743139743805,-0.49044737219810486,4.791022300720215,-29.77983856201172,-13.420177459716797,-34.46278381347656,-0.8110103607177734,8.053150177001953,5.581114768981934,10.726859,-3.0497594,-1.7948446,1
14,989.781005859375,-0.8679184317588806,-1.3317393064498901,5.034035682678223,-34.56110763549805,-7.415191173553467,-32.69166564941406,-5.327581405639648,5.604254722595215,-0.24616074562072754,13.704675,-2.9496617,4.918541,1
14,989.7754516601562,-1.975526213645935,-2.519108772277832,4.348804950714111,-38.25587844848633,1.2396197319030762,-30.242225646972656,-3.374922752380371,3.2633190155029297,-5.4436259269714355,13.061788,-1.5530604,7.4419785,1
14,989.8090209960938,-1.7000222206115723,0.024873830378055573,1.112667441368103,-38.88926315307617,11.86545181274414,-28.14891815185547,-3.2043237686157227,4.635808944702148,-4.34384822845459,12.746318,-3.4668326,6.6537,1
14,989.8090209960938,-1.7000222206115723,0.024873830378055573,1.112667441368103,-38.88926315307617,11.86545181274414,-28.14891815185547,-1.8220710754394531,4.604772090911865,-2.637613534927368,10.535657,-4.1556005,4.222583,1
14,989.8186645507812,-0.872312605381012,2.183363914489746,0.2701771557331085,-34.44750213623047,14.92093276977539,-32.9383659362793,-2.190826416015625,3.5741474628448486,1.069812297821045,10.717286,-3.631279,2.482689,1
15,989.8186645507812,-0.872312605381012,2.183363914489746,0.2701771557331085,-34.44750213623047,14.92093276977539,-32.9383659362793,-1.4771432876586914,3.522995948791504,1.0649025440216064,9.864089,-3.7814255,2.3998365,1
15,989.8134765625,-0.663520872592926,1.4647105932235718,0.5669862627983093,-32.37800979614258,16.91254425048828,-35.06745910644531,-1.6115808486938477,3.0946044921875,3.0088729858398438,11.266959,-3.2880867,2.5371342,1
15,989.8385620117188,-1.4506171941757202,0.6424603462219238,1.532780647277832,-27.392513275146484,23.267574310302734,-37.59328079223633,-3.3539352416992188,1.7981758117675781,-1.1430182456970215,12.438008,-2.8090477,5.9979835,1
15,989.8385620117188,-1.4506171941757202,0.6424603462219238,1.532780647277832,-27.392513275146484,23.267574310302734,-37.59328079223633,-1.843836784362793,2.911637783050537,0.3169713020324707,10.038544,-4.501175,4.4924426,1
15,989.8917846679688,-1.3451563119888306,1.4244968891143799,1.1161296367645264,-23.707733154296875,27.034189224243164,-38.53546142578125,-2.799884796142578,0.3985269069671631,-0.22165632247924805,11.276511,-2.8161976,5.3588386,1
15,989.8614501953125,-0.7966787815093994,0.544855535030365,1.5347779989242554,-20.536151885986328,30.003889083862305,-38.89002227783203,-3.4196553230285645,1.2703361511230469,0.36363840103149414,10.741171,-4.448743,4.7125926,1
15,989.8433227539062,-0.9242439270019531,0.9445956945419312,1.2986891269683838,-16.654850006103516,33.74343490600586,-39.245025634765625,-3.0789413452148438,-0.43184518814086914,0.9676275253295898,9.751749,-3.4310832,4.764671,1
15,989.8810424804688,-1.3560750484466553,0.6860029101371765,0.7785742878913879,-9.431587219238281,40.1887321472168,-36.65507507324219,-2.234368324279785,-0.2919187545776367,0.25417375564575195,8.819684,-4.253314,5.28072,1
15,989.8810424804688,-1.3560750484466553,0.6860029101371765,0.7785742878913879,-9.431587219238281,40.1887321472168,-36.65507507324219,-2.5884151458740234,-0.828977108001709,0.6075868606567383,9.326341,-4.1984987,5.105547,1
15,989.908935546875,-0.8514065146446228,0.16868434846401215,0.6760427355766296,-6.656245231628418,42.31174850463867,-34.4355354309082,-1.520148754119873,0.21099090576171875,-0.3502383232116699,7.5112,-5.223279,5.105437,1
15,989.8784790039062,-0.8496683239936829,0.204771026968956,0.5411627888679504,-4.298252105712891,46.097900390625,-31.402175903320312,0.23603248596191406,-0.49390506744384766,0.4862227439880371,6.371166,-4.622691,4.9823375,1
15,989.8758544921875,-1.1633880138397217,0.17800618708133698,0.680446207523346,-2.0312414169311523,48.0605583190918,-28.402061462402344,0.06488466262817383,-0.7252845764160156,-1.153407096862793,6.3519964,-5.0087814,6.137528,1
15,989.8758544921875,-1.1633880138397217,0.17800618708133698,0.680446207523346,-2.0312414169311523,48.0605583190918,-28.402061462402344,-0.6446213722229004,-0.7394585609436035,-1.9837942123413086,7.047407,-5.5879164,6.8973956,1
15,989.8729248046875,-0.7286267876625061,-0.3184066712856293,0.6887021660804749,1.239842414855957,50.014400482177734,-24.247421264648438,-0.6789450645446777,0.21634483337402344,-3.435405731201172,6.901572,-6.276683,7.6904035,1
15,989.9158935546875,-0.19519561529159546,-0.5494357943534851,0.5592728853225708,2.515009880065918,49.25873947143555,-23.398906707763672,-0.9503512382507324,-0.1829380989074707,-2.115056037902832,6.8226547,-6.2576156,6.1209435,1
15,989.89306640625,-0.363107293844223,0.34724974632263184,0.5783147215843201,3.718790054321289,49.331722259521484,-22.510894775390625,-0.34714603424072266,-0.2916111946105957,-1.1031498908996582,6.1271424,-6.279063,5.6332955,1
15,989.8751831054688,-0.4031873345375061,0.4445881247520447,0.5001512169837952,4.530085563659668,49.510860443115234,-20.875755310058594,-0.576502799987793,0.30536842346191406,-1.4286375045776367,6.184449,-7.0512447,5.874745,1
15,989.862548828125,-0.10983990877866745,0.21395842730998993,0.48363983631134033,6.096291542053223,48.5537223815918,-20.214271545410156,-0.38900136947631836,-0.40994834899902344,-0.6041555404663086,5.763776,-6.4864063,5.3302836,1
15,989.8929443359375,0.15434594452381134,0.2657567858695984,0.6153332591056824,6.722258567810059,48.40195083618164,-19.608989715576172,-0.701453685760498,-0.515437126159668,-0.847252368927002,6.189128,-6.1813455,5.574101,1
15,989.8723754882812,0.11093694716691971,0.15070824325084686,0.6877713799476624,7.467360496520996,47.51920700073242,-19.518184661865234,-1.6576571464538574,-1.2167224884033203,-1.1669178009033203,6.5810213,-5.869135,5.6687837,1
15,989.8723754882812,0.32252538204193115,-0.21654143929481506,0.5274494290351868,8.128192901611328,47.2953987121582,-19.99184226989746,-0.9929471015930176,-1.026057243347168,-0.7130303382873535,5.995444,-6.047879,5.387083,1
15,989.8572998046875,0.23770427703857422,-0.22013677656650543,0.21133266389369965,8.447877883911133,46.910072326660156,-20.24951171875,-0.8104028701782227,-0.5804591178894043,-0.8741264343261719,5.751623,-6.4006033,5.5078053,1
15,989.8419189453125,0.12904790043830872,-0.10442258417606354,0.16645866632461548,7.970827102661133,47.04301834106445,-20.491716384887695,-1.7772321701049805,-1.132185935974121,-0.08784914016723633,6.5498,-5.859598,5.616692,1
15,989.8162841796875,0.07844837009906769,0.31076377630233765,0.09069199860095978,8.27833366394043,46.645904541015625,-20.130943298339844,-0.49790239334106445,-0.32521629333496094,-0.42271852493286133,5.2759314,-6.188489,4.2839527,1
16,989.8388061523438,0.3719289302825928,0.38346797227859497,-0.2299521267414093,7.965558052062988,46.88066864013672,-21.482200622558594,-0.5765423774719238,-0.28067445755004883,-0.5362720489501953,5.739522,-6.4196663,5.526729,1
16,989.9583129882812,0.07365566492080688,-0.09017492830753326,-0.2047850638628006,7.741881370544434,45.880794525146484,-21.004302978515625,-0.11394786834716797,0.1981792449951172,0.15722942352294922,5.0846376,-6.984502,5.0012054,1
16,989.8515014648438,0.2868419885635376,-0.29630348086357117,-0.28973960876464844,6.4276628494262695,45.80956268310547,-21.567462921142578,0.25502586364746094,0.32624387741088867,-0.2719388008117676,5.00572,-6.7604723,5.5243526,1
16,989.8283081054688,0.32505881786346436,-0.17939090728759766,-0.1971946358680725,6.355134963989258,45.74222183227539,-22.476158142089844,0.31796932220458984,-0.26687192916870117,1.3991551399230957,4.9602613,-6.4005957,4.0708857,1
16,989.9042358398438,0.4219982624053955,0.1911875456571579,-0.09772544354200363,6.450491905212402,45.831661224365234,-22.727039337158203,0.4963526725769043,-0.1855316162109375,1.306056022644043,4.795307,-6.2289987,3.8317938,1
16,989.8661499023438,0.08178073167800903,-0.2812569737434387,-0.09066764265298843,6.08067512512207,45.43368148803711,-24.26343536376953,0.02893352508544922,-0.011006355285644531,0.12512826919555664,5.156132,-6.269513,4.6461067,1
16,989.8661499023438,0.08178073167800903,-0.2812569737434387,-0.09066764265298843,6.08067512512207,45.43368148803711,-24.26343536376953,-0.006278514862060547,0.2548999786376953,-0.5408105850219727,5.3807325,-6.5006905,5.455685,1
16,989.8711547851562,0.1398380696773529,-0.2656775712966919,-0.13274535536766052,5.328889846801758,45.046260833740234,-24.894760131835938,0.32654762268066406,0.020937442779541016,0.8272576332092285,5.1273518,-6.205162,4.1347814,1
16,989.8809814453125,0.048759035766124725,-0.1947045475244522,-0.044993847608566284,5.01613712310791,45.701324462890625,-24.422992706298828,-0.04205465316772461,-0.015346050262451172,0.6099634170532227,5.4379883,-6.2099276,4.2839108,1
16,989.8809814453125,0.048759035766124725,-0.1947045475244522,-0.044993847608566284,5.01613712310791,45.701324462890625,-24.422992706298828,-0.39524269104003906,0.04357099533081055,-0.29422569274902344,5.882615,-6.4053583,5.592983,1
16,989.8882446289062,-0.06496128439903259,-0.0915055125951767,-0.1967921108007431,4.542237281799316,44.730873107910156,-24.447147369384766,0.2023906707763672,0.20865440368652344,0.21654939651489258,5.464497,-6.5054593,5.0438027,1
16,989.8882446289062,-0.06496128439903259,-0.0915055125951767,-0.1967921108007431,4.542237281799316,44.730873107910156,-24.447147369384766,0.057204246520996094,-0.035462379455566406,0.14041900634765625,5.636532,-6.238531,5.015393,1
16,989.8703002929688,-0.14285942912101746,-0.172199085354805,-0.11490029841661453,4.055512428283691,45.223270416259766,-24.323974609375,-0.002562999725341797,0.2739086151123047,-0.877540111541748,5.760769,-6.567423,5.8036675,1
16,989.8676147460938,-0.0014449594309553504,-0.21108132600784302,0.06632797420024872,2.999967575073242,45.39383316040039,-24.24828338623047,0.30925416946411133,-0.03160715103149414,0.25652170181274414,5.5336905,-6.3624597,4.9041276,0
16,989.8676147460938,-0.0014449594309553504,-0.21108132600784302,0.06632797420024872,2.999967575073242,45.39383316040039,-24.24828338623047,0.3218569755554199,-0.19345378875732422,0.7294206619262695,5.634028,-6.1574965,4.167924,0
16,989.8546752929688,-0.07787688821554184,-0.3872494101524353,0.21852782368659973,3.2376089096069336,45.82683181762695,-23.925315856933594,-0.41251087188720703,0.03379344940185547,-0.6217145919799805,6.2266855,-6.4053574,5.121903,0
16,989.8546752929688,-0.07787688821554184,-0.3872494101524353,0.21852782368659973,3.2376089096069336,45.82683181762695,-23.925315856933594,-0.12639713287353516,0.03344297409057617,0.019175052642822266,5.939859,-6.269509,4.198691,0
16,989.8798217773438,0.1409023553133011,-0.49950164556503296,0.21360130608081818,3.2833986282348633,45.18498611450195,-24.048786163330078,-0.20119857788085938,-0.2819795608520508,1.1208810806274414,6.0593166,-6.0764627,3.3393927,0
16,989.8798217773438,0.1409023553133011,-0.49950164556503296,0.21360130608081818,3.2833986282348633,45.18498611450195,-24.048786163330078,-0.3724799156188965,-0.11652708053588867,0.7195370197296143,6.381915,-6.441104,3.8601737,0
16,989.8545532226562,-0.06282857060432434,-0.9527714252471924,0.19988635182380676,1.8651275634765625,45.7535285949707,-24.17144012451172,0.12485980987548828,0.030044078826904297,0.4119880199432373,6.1094284,-6.5388174,3.876741,0
16,989.8847045898438,0.12106291204690933,-1.189792513847351,0.29189860820770264,1.330357551574707,45.51611328125,-23.998157501220703,-0.24447298049926758,0.033204078674316406,0.3459782600402832,6.35555,-6.612697,3.2636318,0
16,989.8538818359375,0.20508594810962677,-1.4775469303131104,0.32079407572746277,0.393404483795166,45.32400131225586,-24.53539276123047,-0.08672761917114258,0.1185307502746582,0.032401084899902344,6.298154,-6.834342,3.3038707,0
16,989.8538818359375,0.20508594810962677,-1.4775469303131104,0.32079407572746277,-0.38647937774658203,44.75212860107422,-24.997629165649414,0.12468385696411133,0.20399045944213867,0.5592520236968994,6.3028955,-6.927288,2.6481524,0
16,989.8690795898438,0.42279955744743347,-1.7333433628082275,0.4535526931285858,-1.7049660682678223,45.30861282348633,-24.904001235961914,0.024933815002441406,0.03818941116333008,0.3720104694366455,6.470151,-6.9010715,2.229154,0
16,989.851318359375,0.3323856592178345,-1.7602413892745972,0.6056192517280579,-2.63651180267334,45.384765625,-25.149829864501953,0.16241455078125,0.15631484985351562,0.20956897735595703,6.350618,-7.129865,2.0823839,0
17,989.8787841796875,0.1522233486175537,-1.6838088035583496,0.6940362453460693,-2.3901748657226562,45.088558197021484,-25.016490936279297,-0.7583894729614258,-0.5309004783630371,-0.3755711317062378,6.924156,-6.8581705,2.0965836,0
17,989.8638916015625,-0.10370586067438126,-1.3505144119262695,0.8057559132575989,-2.3642783164978027,45.53390121459961,-24.507648468017578,-0.9863443374633789,-0.6788935661315918,-0.742949366569519,7.194177,-6.736623,2.4540277,0
17,989.8866577148438,-0.16868656873703003,-1.0289381742477417,0.5712649822235107,-2.9979915618896484,45.572391510009766,-24.027324676513672,-0.4601163864135742,-0.4426579475402832,-0.6166552305221558,6.603833,-7.027382,1.8882627,0
17,989.8789672851562,0.1584828644990921,-0.8831302523612976,0.17365548014640808,-3.3655829429626465,45.33382034301758,-24.418628692626953,-0.18556737899780273,-0.07541751861572266,-0.07185220718383789,6.4795203,-7.244259,1.3769436,0
17,989.858642578125,0.25648748874664307,-0.7395860552787781,0.029046114534139633,-3.773853063583374,45.373226165771484,-24.819927215576172,-0.11013507843017578,-0.07754898071289062,-0.5944691896438599,6.448414,-7.3753386,1.71545,0
17,989.870849609375,-0.0053006685338914394,-0.4295944571495056,-0.0011805826798081398,-4.101986885070801,45.487342834472656,-24.699054718017578,-0.08537149429321289,-0.1347804069519043,-0.7606203556060791,6.484224,-7.2418737,1.9734716,0
17,989.87841796875,-0.10583454370498657,-0.14184021949768066,-0.04219307377934456,-4.488682746887207,44.967254638671875,-24.686019897460938,0.31113767623901367,-0.055495262145996094,-0.3946511745452881,6.15438,-7.2800055,1.6941384,0
17,989.8781127929688,0.034647442400455475,-0.024661291390657425,-0.13979768753051758,-4.709964752197266,45.4449577331543,-24.83384132385254,0.5606527328491211,-0.31581783294677734,-0.03411734104156494,5.8986216,-7.1084085,1.3769296,0
17,989.885498046875,0.07179887592792511,0.08985447883605957,-0.11915804445743561,-5.437620162963867,46.5018310546875,-24.552600860595703,0.29526424407958984,-0.3387742042541504,0.04064583778381348,6.0419784,-6.9105954,1.2656677,0
17,989.895751953125,0.02785712294280529,0.11142600327730179,-0.051913127303123474,-5.033096790313721,46.301544189453125,-25.219091415405273,0.4569272994995117,0.10716724395751953,-0.24090945720672607,6.104236,-7.320522,1.4952974,0
17,989.8902587890625,0.03704538568854332,0.006763806566596031,-0.09039561450481415,-5.221607685089111,45.861778259277344,-25.395263671875,0.49162960052490234,0.4093327522277832,-0.4805121421813965,5.9992104,-7.52787,1.7059903,0
17,989.9031982421875,0.07019901275634766,-0.02199787087738514,-0.11409888416528702,-5.670451641082764,45.072818756103516,-25.433902740478516,0.7271442413330078,0.4378223419189453,-0.4968905448913574,5.760195,-7.689933,1.7722696,0
17,989.88525390625,0.08511295169591904,0.04471421614289284,-0.06762666255235672,-5.760262966156006,45.357566833496094,-25.5906925201416,0.6549534797668457,0.36075305938720703,-0.10949432849884033,5.913123,-7.4492216,1.4455934,0
17,989.8878784179688,0.15741796791553497,0.06055997312068939,0.08657034486532211,-5.486124515533447,44.61366271972656,-26.051311492919922,0.23979902267456055,-0.01455831527709961,0.15515565872192383,6.1019,-7.2728577,1.2775198,0
17,989.9029541015625,0.2554227113723755,-0.04583330452442169,0.16979427635669708,-5.108721733093262,44.598697662353516,-26.724468231201172,0.24732732772827148,0.1337871551513672,0.5515890121459961,6.042127,-7.4110875,1.03843,0
17,989.9029541015625,0.2554227113723755,-0.04583330452442169,0.16979427635669708,-5.108721733093262,44.598697662353516,-26.724468231201172,0.1259908676147461,0.055336952209472656,0.494787335395813,6.2452435,-7.449219,1.1946629,0
17,989.8922119140625,0.20895083248615265,-0.17433075606822968,0.21014124155044556,-4.274895191192627,44.16779327392578,-26.67377471923828,0.005903720855712891,0.2272624969482422,0.06473982334136963,6.2356586,-7.527867,1.5402722,0
17,989.8922119140625,0.10841681063175201,-0.1583518385887146,0.2171986997127533,-4.394626617431641,43.63448715209961,-27.00904083251953,-0.2134847640991211,-0.1030569076538086,0.004469513893127441,6.4339952,-7.358653,1.5213323,0
17,989.8998413085938,0.07632599771022797,-0.05621974170207977,0.24915671348571777,-4.124212741851807,43.15000534057617,-26.71442413330078,-0.18652915954589844,-0.09102010726928711,0.22472882270812988,6.309695,-7.461134,1.3414226,0
17,989.8943481445312,0.15528914332389832,-0.15715353190898895,0.17272426187992096,-3.336611270904541,42.622901916503906,-26.26605796813965,-0.1722402572631836,0.08479738235473633,0.2319660186767578,6.245142,-7.6279626,1.3485217,0
17,989.8943481445312,0.15528914332389832,-0.15715353190898895,0.17272426187992096,-3.336611270904541,42.622901916503906,-26.26605796813965,-0.40384864807128906,-0.004358768463134766,0.1587212085723877,6.4888864,-7.5802965,1.4455748,0
17,989.9016723632812,0.07339725643396378,-0.13504935801029205,0.19855700433254242,-3.6866188049316406,42.66437911987305,-26.984394073486328,-0.56103515625,0.18945789337158203,0.016494154930114746,6.5605583,-7.773341,1.6041751,0
17,989.8889770507812,0.03677906095981598,-0.14756624400615692,0.148223415017128,-3.259786367416382,43.274784088134766,-27.08588409423828,-0.5024652481079102,0.004435539245605469,-0.2023448944091797,6.505565,-7.5612288,1.7296344,0
17,989.8837890625,0.14783328771591187,-0.2052236944437027,0.04183042049407959,-3.736591100692749,42.40729904174805,-27.654508590698242,-0.6653890609741211,-0.1940145492553711,0.08792006969451904,6.6489334,-7.4229984,1.5307871,0
18,989.9066772460938,0.09430403262376785,-0.08804477006196976,-0.0953221470117569,-3.702542304992676,42.49171829223633,-27.43374252319336,-0.5008673667907715,-0.24392223358154297,0.22144293785095215,6.558092,-7.3371997,1.3319399,0
18,989.89111328125,-0.053101569414138794,0.08905525505542755,-0.25018471479415894,-4.30954122543335,42.819095611572266,-27.744285583496094,-0.06850194931030273,-0.03169679641723633,0.15455114841461182,6.304737,-7.4301467,1.386383,0
18,989.89111328125,-0.053101569414138794,0.08905525505542755,-0.25018471479415894,-4.30954122543335,42.819095611572266,-27.744285583496094,0.09534406661987305,0.0872049331665039,0.27881693840026855,6.032263,-7.6112757,1.1828015,0
18,989.9064331054688,-0.10809554904699326,0.20942997932434082,-0.3597736060619354,-4.725857734680176,42.11309051513672,-27.484851837158203,0.4637899398803711,0.45772647857666016,0.6840822100639343,5.766958,-7.8782015,0.8371875,0
18,989.8931884765625,-0.2909208834171295,0.3154236674308777,-0.2913302481174469,-5.563706874847412,42.17128372192383,-27.205177307128906,0.753777027130127,0.7348065376281738,0.8271962404251099,5.652218,-7.9925985,0.72119236,0
18,989.8931884765625,-0.2909208834171295,0.3154236674308777,-0.2913302481174469,-4.998474597930908,42.858463287353516,-27.10153579711914,0.8339147567749023,0.797121524810791,0.7087852954864502,5.5828857,-8.128445,0.90109736,0
18,989.898193359375,-0.46242809295654297,0.307567298412323,-0.14938373863697052,-5.263618469238281,43.50529098510742,-26.40566635131836,0.44516754150390625,0.4689450263977051,-0.6625524759292603,5.8576984,-7.966382,1.7627567,0
18,989.8901977539062,-0.5929226875305176,0.21102772653102875,0.006677461788058281,-4.76700496673584,44.81222915649414,-25.01898193359375,0.5170164108276367,0.13943910598754883,-0.6784154176712036,5.797926,-7.4754252,1.8574425,0
18,989.8976440429688,-0.6134287118911743,0.2949172258377075,0.08976811170578003,-4.567136764526367,45.42023849487305,-24.161544799804688,0.34182262420654297,0.0986795425415039,-0.3350721597671509,6.032111,-7.539773,1.5331334,0
18,989.9080810546875,-0.682670533657074,0.4761451482772827,0.14289826154708862,-2.982504367828369,45.00699996948242,-23.303770065307617,-0.21302175521850586,-0.4856877326965332,-0.6810649633407593,6.335603,-7.1417656,1.66096,0
18,989.9227294921875,-0.7014456391334534,0.43100452423095703,0.1767204850912094,-2.470510482788086,46.85487747192383,-21.566184997558594,-0.30943727493286133,-0.4862051010131836,-0.9073569178581238,6.419703,-7.1036434,1.9024562,0
18,989.8947143554688,-0.6424581408500671,0.3054368495941162,0.07738402485847473,-2.7622318267822266,47.3187370300293,-20.77853012084961,-0.4066305160522461,-0.08234596252441406,-0.7736260294914246,6.541581,-7.3538876,1.6302273,0
18,989.8897094726562,-0.6335413455963135,0.3939885199069977,-0.03060641884803772,-2.5323381423950195,47.638458251953125,-19.369962692260742,-0.16722869873046875,0.5798707008361816,-1.308980941772461,6.448369,-8.114154,1.9711039,0
18,989.909912109375,-0.7391355633735657,0.46829068660736084,-0.17854486405849457,-2.525002956390381,47.43399429321289,-18.358333587646484,-0.0560460090637207,0.42040443420410156,-1.528059959411621,6.2356615,-7.8805914,2.349856,0
18,989.89208984375,-0.6805459856987,0.4848022758960724,-0.2140980064868927,-2.319185256958008,47.94198226928711,-17.111040115356445,0.27613067626953125,-0.20998477935791016,-1.598731279373169,6.0110044,-7.005929,2.0350173,0
18,989.9172973632812,-0.5135658979415894,0.7110376358032227,-0.13100741803646088,-2.153801918029785,47.72751998901367,-16.200164794921875,-0.10048055648803711,-1.1831378936767578,-0.25900697708129883,6.371873,-6.340994,0.87745464,0
18,989.8995971679688,-0.26842203736305237,0.8906676173210144,-0.027011048048734665,-1.7469158172607422,47.79255294799805,-16.420637130737305,-0.35878849029541016,-0.8862357139587402,0.9322901964187622,6.563059,-6.5864716,0.25961423,0
18,989.89697265625,-0.09771349281072617,0.7760186791419983,-0.08666578680276871,-1.5549564361572266,47.76106643676758,-15.601547241210938,-0.10730314254760742,-0.6480469703674316,0.8527523875236511,6.4531174,-6.712785,0.20043361,0
18,989.8939819335938,-0.17308083176612854,0.6999854445457458,-0.1963879019021988,-1.391798973083496,47.387203216552734,-15.835765838623047,0.09914636611938477,-0.35941362380981445,-0.03777575492858887,6.2212906,-6.965412,1.0762979,0
18,989.8739013671875,-0.36030083894729614,0.6657638549804688,-0.31862688064575195,-2.0463852882385254,48.14312744140625,-14.547378540039062,0.2965211868286133,0.19526195526123047,0.7865612506866455,6.2547426,-7.339587,0.83484274,0
18,989.8938598632812,-0.16402597725391388,0.6770823001861572,-0.3350052535533905,-2.157665252685547,47.88103103637695,-14.745849609375,0.6693525314331055,0.7398138046264648,0.8532556891441345,5.7934847,-7.8925076,0.6123251,0
18,989.92431640625,-0.23446644842624664,0.899056613445282,-0.32821419835090637,-2.643709182739258,48.11105728149414,-15.22330093383789,0.3312969207763672,0.5301685333251953,0.4222913980484009,5.9655514,-7.9115725,1.144945,0
18,989.8964233398438,-0.3907938301563263,1.0382064580917358,-0.13020829856395721,-1.5547962188720703,48.28728485107422,-14.47760009765625,0.11406469345092773,0.3441152572631836,0.11774122714996338,6.3359804,-7.5302486,1.93559,0
18,989.9287719726562,-0.2645600736141205,0.9443301558494568,0.05860969051718712,-1.1254935264587402,48.05666732788086,-13.760414123535156,-0.014981269836425781,-0.18244314193725586,-0.057688236236572266,6.2116985,-6.986861,1.933222,0
18,989.8807983398438,-0.08200042694807053,1.0062485933303833,0.13863763213157654,-0.1192169189453125,47.78695297241211,-13.283821105957031,-0.5608196258544922,-0.5079660415649414,0.1186666488647461,6.811558,-6.910596,2.3971934,0
19,989.9180908203125,-0.09198721498250961,1.079219102859497,0.18431083858013153,1.0603265762329102,47.52198028564453,-13.681034088134766,-1.0046977996826172,-0.421602725982666,-0.032295942306518555,6.7900424,-6.982094,2.203082,0
19,989.9332275390625,0.19763144850730896,0.8388690948486328,-0.18480291962623596,1.7758369445800781,47.665584564208984,-14.415569305419922,-0.34136009216308594,0.17821121215820312,1.2257717847824097,6.304886,-7.3133698,1.5023897,0
19,989.9332275390625,0.19763144850730896,0.8388690948486328,-0.18480291962623596,1.7758369445800781,47.665584564208984,-14.415569305419922,-0.371884822845459,0.46715641021728516,0.2620987892150879,6.1136875,-7.842458,3.0245001,0
19,989.8900756835938,-0.11915118247270584,0.8568454384803772,-0.14805126190185547,2.1391048431396484,46.89931106567383,-14.118772506713867,0.08491086959838867,0.4123344421386719,0.165114164352417,5.716957,-7.7161436,3.2304463,0
19,989.8900756835938,-0.11915118247270584,0.8568454384803772,-0.14805126190185547,2.1391048431396484,46.89931106567383,-14.118772506713867,0.12076711654663086,0.30912160873413086,0.5461893081665039,5.549658,-7.4944983,2.7428021,0
19,989.8690185546875,0.16447535157203674,0.5623000264167786,0.1917678415775299,3.2806081771850586,47.389469146728516,-15.478118896484375,-0.12359237670898438,-0.30143022537231445,0.8555381298065186,5.563991,-7.0774245,2.6646836,0
19,989.8922119140625,0.21094752848148346,0.121680349111557,0.23357945680618286,3.8643722534179688,47.51420211791992,-14.805530548095703,-0.7118549346923828,-0.33772754669189453,0.2252817153930664,6.1495104,-6.9034452,3.2754214,0
19,989.8922119140625,0.21094752848148346,0.121680349111557,0.23357945680618286,3.8643722534179688,47.51420211791992,-14.805530548095703,-0.5680298805236816,-0.25965452194213867,0.45073366165161133,6.0204496,-7.039292,3.2280765,0
19,989.8967895507812,0.2988317906856537,-0.09683184325695038,0.08390995860099792,4.192343711853027,46.87386703491211,-16.050350189208984,-0.3543257713317871,-0.03295278549194336,0.336841344833374,5.736045,-7.301452,3.3488033,0
19,989.866455078125,0.11227761954069138,-0.05981394648551941,-0.005572148598730564,4.262646675109863,46.78181076049805,-16.28675079345703,0.026835918426513672,0.13669919967651367,0.24754047393798828,5.560726,-7.346714,3.5854454,0
19,989.85400390625,-0.08879080414772034,0.042584508657455444,0.003882091259583831,4.0263872146606445,46.24435806274414,-15.98794174194336,-0.4921116828918457,0.10111522674560547,-0.35845375061035156,6.0186806,-7.306175,3.9712162,0
19,989.8991088867188,0.018275661394000053,-0.0881756842136383,-0.0038314431440085173,4.362566947937012,46.87566375732422,-16.769546508789062,-0.26480722427368164,-0.11646795272827148,0.30194830894470215,5.7509365,-7.0797625,3.287088,0
19,989.833251953125,-0.008483601734042168,0.08839085698127747,-0.15216703712940216,3.344254493713379,47.239505767822266,-17.3267765045166,0.09013128280639648,0.0494837760925293,0.29365992546081543,5.3899865,-7.289489,3.5332701,0
19,989.833251953125,-0.008483601734042168,0.08839085698127747,-0.15216703712940216,3.344254493713379,47.239505767822266,-17.3267765045166,0.33529090881347656,0.3025240898132324,0.10478377342224121,5.3779626,-7.434867,3.729741,0
19,989.8505249023438,-0.0942365899682045,0.1681523323059082,-0.10622723400592804,3.5594491958618164,46.75590133666992,-16.869733810424805,0.08089733123779297,0.0592188835144043,0.27398252487182617,5.5499606,-7.196537,3.6539838,0
19,989.8655395507812,0.13679315149784088,-2.6254181648255326E-5,-0.05030059441924095,3.195880889892578,46.89004135131836,-17.591402053833008,0.1948857307434082,0.07613849639892578,0.6564431190490723,5.4064913,-7.1655526,3.1379266,0
19,989.878173828125,0.21455810964107513,-0.019733745604753494,-0.05416186526417732,3.4762678146362305,46.67824935913086,-17.237293243408203,0.25826263427734375,0.1818861961364746,0.31618714332580566,5.408807,-7.2346663,3.4314532,0
19,989.8449096679688,-0.024193353950977325,0.026738258078694344,-0.020339442417025566,3.6272802352905273,47.5048713684082,-17.924808502197266,0.22082185745239258,0.3176698684692383,-0.09313106536865234,5.4374104,-7.4348598,4.162912,0
19,989.8201293945312,-0.11034581065177917,0.011691292747855186,0.016412459313869476,3.8204641342163086,46.842716217041016,-17.607894897460938,0.1976919174194336,0.05334806442260742,0.19617271423339844,5.3775883,-7.22513,4.0185056,0
19,989.8550415039062,0.08872602880001068,0.05177171528339386,0.06368383765220642,4.003130912780762,46.27616882324219,-17.44892120361328,-0.06248331069946289,0.010797500610351562,0.6847195625305176,5.535247,-7.084514,3.1615715,0
19,989.870361328125,0.20417466759681702,0.013288955204188824,0.10243311524391174,3.8777475357055664,46.47502136230469,-17.749174118041992,-0.2598400115966797,0.12459421157836914,-0.3399219512939453,5.8267403,-7.2370424,4.0255933,0
19,989.8623657226562,0.032268501818180084,-0.08751172572374344,0.10163447260856628,4.324335098266602,45.89231491088867,-17.78389549255371,-0.22955083847045898,0.046512603759765625,0.05201387405395508,5.771697,-7.1345596,3.9900784,0
19,989.8672485351562,0.07847502827644348,-0.04277076944708824,0.051301077008247375,3.977128028869629,46.937164306640625,-18.330421447753906,0.05611228942871094,0.18613624572753906,0.398205041885376,5.5541415,-7.2584877,3.5994835,0
19,989.905029296875,0.12854313850402832,1.0596673382679E-4,-0.017674429342150688,4.007290840148926,46.75479507446289,-18.47836685180664,-0.028488636016845703,0.14937114715576172,0.31697607040405273,5.5827456,-7.1917543,3.6255157,0
19,989.8722534179688,0.1289433240890503,-0.04862995818257332,-0.01727464608848095,4.424939155578613,45.72379684448242,-18.86731719970703,0.07532930374145508,0.2644815444946289,0.4453470706939697,5.522923,-7.270401,3.604204,0
20,989.8567504882812,0.14984984695911407,-0.05555428937077522,-0.02353275939822197,3.9834604263305664,45.942630767822266,-18.966060638427734,0.14458084106445312,0.09636545181274414,0.8103306293487549,5.446371,-7.151235,3.2443824,0
20,989.8517456054688,0.14505688846111298,-0.042638085782527924,-0.01567613147199154,3.707638740539551,46.15884017944336,-19.552085876464844,0.05865144729614258,0.2382955551147461,0.18238091468811035,5.558622,-7.14885,3.6041903,0
20,989.8489379882812,0.011899665929377079,-0.06660662591457367,-0.008352135308086872,3.324690818786621,45.799625396728516,-18.47125816345215,0.13701772689819336,0.31484317779541016,-0.09904789924621582,5.448612,-7.239413,3.9734674,0
20,989.8565063476562,-0.021389100700616837,-0.01307725440710783,-0.020735515281558037,3.754269599914551,45.78083801269531,-19.15222930908203,0.11136960983276367,-0.06004667282104492,0.5929932594299316,5.467656,-6.967717,3.419535,0
20,989.874267578125,0.051315855234861374,-0.006020001135766506,0.010956384241580963,4.046832084655762,45.58082962036133,-19.416561126708984,-0.09735393524169922,-0.009160041809082031,0.016349077224731445,5.7113514,-7.0177636,4.1604624,0
20,989.8842163085938,-0.06892503798007965,-0.011745910160243511,-0.0015601528575643897,3.668044090270996,45.70023727416992,-19.36517906188965,0.05308389663696289,0.10508203506469727,-0.3919801712036133,5.5535426,-7.0701942,4.271714,0
20,989.8486328125,0.07555276155471802,0.12141180783510208,-0.09144113957881927,3.414095878601074,45.98908615112305,-19.111995697021484,0.16925621032714844,0.05496072769165039,0.17484736442565918,5.4554825,-7.012994,3.921361,0
20,989.8486328125,0.07555276155471802,0.12141180783510208,-0.09144113957881927,3.414095878601074,45.98908615112305,-19.111995697021484,0.04158449172973633,0.0909733772277832,-0.00186920166015625,5.5533934,-6.9891596,4.0870585,0
20,989.8740234375,-0.0016781180165708065,0.16881591081619263,-0.07865767180919647,3.458364486694336,45.34576416015625,-19.158157348632812,0.14804649353027344,-0.04470252990722656,0.15491056442260742,5.421873,-6.8819094,3.952121,0
20,989.8884887695312,-0.028841616585850716,0.20157264173030853,-0.07679315656423569,3.57863712310791,45.510780334472656,-18.724441528320312,0.23052072525024414,0.03929615020751953,0.18529796600341797,5.4110203,-6.9891844,3.9687915,0
20,989.853271484375,-0.008480280637741089,0.0561668798327446,-0.06108319014310837,3.2444162368774414,45.61900329589844,-18.294349670410156,0.11712121963500977,0.0718379020690918,0.13324928283691406,5.4635696,-7.0296993,3.9900942,0
20,989.853271484375,-0.008480280637741089,0.0561668798327446,-0.06108319014310837,3.2444162368774414,45.61900329589844,-18.294349670410156,-0.10316133499145508,-0.009027481079101562,-0.042644500732421875,5.6547346,-6.9296007,4.0847797,0
20,989.850341796875,-0.004884746856987476,0.07187948375940323,-0.03644885867834091,3.065474510192871,45.92612075805664,-19.20855712890625,0.12005901336669922,0.18056678771972656,0.5189290046691895,5.5495505,-7.0010986,3.6823528,0
20,989.8758544921875,0.0510418601334095,0.051905740052461624,-0.059351902455091476,2.8808488845825195,45.75313949584961,-19.01601791381836,-0.07895278930664062,0.08730030059814453,0.2832961082458496,5.666628,-6.9867983,3.9616802,0
20,989.8606567382812,-0.04829369857907295,0.06215886026620865,-0.042440734803676605,2.6587467193603516,46.387306213378906,-17.8641357421875,0.13625192642211914,0.2516007423400879,0.1542820930480957,5.456289,-7.1131115,4.023225,0
20,989.87060546875,-0.0407034270465374,0.07534144818782806,-0.04177482798695564,2.923211097717285,46.00285720825195,-17.95937728881836,0.1298537254333496,0.1068429946899414,0.25826001167297363,5.501669,-6.9009986,3.9001274,0
20,989.8603515625,-0.04616236314177513,0.051772408187389374,0.029331739991903305,2.5722246170043945,45.6745719909668,-18.501956939697266,0.015632152557373047,-0.10748434066772461,0.3548429012298584,5.5613885,-6.769918,3.8101716,0
20,989.8603515625,-0.04616236314177513,0.051772408187389374,0.029331739991903305,2.5722246170043945,45.6745719909668,-18.501956939697266,0.012760162353515625,-0.08023309707641602,0.14828062057495117,5.5924296,-6.753234,4.094233,0
20,989.8555297851562,-0.10754790157079697,0.07014815509319305,0.009491323493421078,2.951310157775879,46.18729782104492,-18.128469467163086,-0.1253519058227539,-0.449587345123291,0.13616085052490234,5.6234703,-6.4600906,4.0326834,0
