Timestamp,P,Gx,Gy,Gz,Mx,My,Mz,LiAx,LiAy,LiAz,Ax,Ay,Az,Value,Type
0,989.973876953125,2.2790927323512733E-4,0.0017119657713919878,-9.797695092856884E-4,15.789215087890625,-17.728660583496094,-33.979225158691406,0.015986613929271698,-0.0022375136613845825,0.039539337158203125,0.060941756,-0.15169802,9.771326,0
0,989.973876953125,2.2790927323512733E-4,0.0017119657713919878,-9.797695092856884E-4,-9.480813980102539,25.45740509033203,-32.30426025390625,0.015574619174003601,-0.0021005868911743164,0.04425239562988281,0.05151704,-0.14931807,9.771338,0
0,989.8252563476562,6.388243054971099E-4,9.594493312761188E-4,4.761239979416132E-4,-9.817941665649414,25.668598175048828,-32.41863250732422,0.01496412605047226,0.007441595196723938,0.04425621032714844,0.056306988,-0.1612347,9.76187,0
0,989.8204956054688,-5.596948321908712E-4,4.2683351784944534E-4,-3.2286549685522914E-4,-9.936832427978516,25.399137496948242,-32.23057556152344,0.010450489819049835,-0.016179054975509644,0.03005218505859375,0.051537335,-0.14693525,9.780808,0
0,989.8204956054688,-5.596948321908712E-4,4.2683351784944534E-4,-3.2286549685522914E-4,-9.936832427978516,25.399137496948242,-32.23057556152344,6.704851984977722E-4,0.0028731822967529297,0.03952217102050781,0.0706667,-0.15885189,9.776075,0
0,989.8103637695312,5.053731147199869E-4,-2.3892456374596804E-4,-4.561073728837073E-4,-9.70016860961914,25.462379455566406,-31.731855392456055,9.646043181419373E-4,-0.011219009757041931,0.044257164001464844,0.06350714,-0.14693573,9.768975,0
0,989.8103637695312,5.053731147199869E-4,-2.3892456374596804E-4,-4.561073728837073E-4,-9.70016860961914,25.462379455566406,-31.731855392456055,0.010378621518611908,-0.0015822350978851318,0.03952503204345703,0.06351727,-0.15646923,9.768975,0
0,989.8510131835938,-1.6051469719968736E-4,-5.052244523540139E-4,2.0964042050763965E-4,-9.208878517150879,24.974401473999023,-32.086952209472656,-0.009043946862220764,-0.0017469525337219238,0.03005504608154297,0.06591734,-0.16123602,9.771343,0
0,989.8382568359375,-2.9386821552179754E-4,6.932287360541523E-4,-3.2307521905750036E-4,-9.56163215637207,25.645071029663086,-32.225799560546875,0.010045617818832397,-0.011110037565231323,0.025321006774902344,0.06114769,-0.13978672,9.776079,0
0,989.87353515625,3.718239313457161E-4,-2.3886100098025054E-4,-4.5627501094713807E-4,-9.391002655029297,25.172658920288086,-32.14746856689453,-0.013666234910488129,-0.0014212429523468018,0.0347900390625,0.07788715,-0.1612365,9.773713,0
0,989.8506469726562,1.0541002848185599E-4,-0.0011709507089108229,2.094727533403784E-4,-9.4613037109375,25.264719009399414,-31.91106605529785,0.01502901315689087,-0.010907113552093506,0.04426002502441406,0.0563882,-0.15170363,9.764245,0
0,989.8329467773438,-2.784546813927591E-5,5.601184093393385E-4,-3.2320088939741254E-4,-9.21787166595459,25.07147789001465,-32.32219696044922,5.466118454933167E-4,0.012613356113433838,0.039520263671875,0.061178148,-0.16123697,9.771348,0
0,989.8534545898438,1.0521445074118674E-4,-3.7197128403931856E-4,-3.2324291532859206E-4,-9.331355094909668,25.07028579711914,-31.84273338317871,0.02036810666322708,-0.010921165347099304,0.05372142791748047,0.05162868,-0.1517041,9.771349,0
0,989.840576171875,1.0511666187085211E-4,-0.0010377451544627547,7.618911331519485E-5,-9.482090950012207,24.455503463745117,-32.553367614746094,-0.01320841908454895,0.00299990177154541,0.039511680603027344,0.07792777,-0.15647087,9.757147,0
0,989.8555908203125,-8.270867401733994E-4,-1.0562366514932364E-4,2.093050570692867E-4,-9.366926193237305,24.984392166137695,-31.986188888549805,-0.008668117225170135,-0.0017978250980377197,0.00637054443359375,0.06598839,-0.16123769,9.787921,0
0,989.845458984375,-4.2771067819558084E-4,4.270239733159542E-4,3.424211172387004E-4,-9.51057243347168,25.165571212768555,-31.35878562927246,0.020153991878032684,0.007757306098937988,0.053714752197265625,0.051659107,-0.16123793,9.759515,0
0,989.8560791015625,5.042969714850187E-4,-1.0559188376646489E-4,2.0922120893374085E-4,-9.579351425170898,25.259103775024414,-31.199689865112305,0.0010809600353240967,0.01259063184261322,0.04897785186767578,0.058838993,-0.17077139,9.766619,0
0,989.8428344726562,2.3788344697095454E-4,-6.382077699527144E-4,8.749690605327487E-4,-9.59611701965332,24.822599411010742,-32.17236328125,-0.008360058069229126,0.007847249507904053,0.02530670166015625,0.06601882,-0.15885523,9.771354,0
0,989.8380126953125,1.0462760110385716E-4,-9.045078186318278E-4,6.086111534386873E-4,-9.672911643981934,25.38297462463379,-32.42427062988281,0.020561866462230682,0.007823586463928223,0.04424095153808594,0.063639104,-0.16123876,9.780823,0
0,989.858154296875,9.36186988838017E-5,6.692917086184025E-4,9.516360005363822E-4,-9.755388259887695,25.463254928588867,-31.569433212280273,-0.003779768943786621,0.003456711769104004,0.04898262023925781,0.066039145,-0.15647241,9.759521,0
0,989.8506469726562,7.593106129206717E-4,6.693076575174928E-4,2.858041843865067E-4,-8.900094985961914,25.579191207885742,-31.4770565032959,0.034277744591236115,-0.010866507887840271,0.006373405456542969,0.037370473,-0.15408939,9.792661,0
0,989.8378295898438,4.928969428874552E-4,-1.2962418259121478E-4,4.189202736597508E-4,-8.993791580200195,25.597145080566406,-32.0025634765625,-0.004134118556976318,0.008253499865531921,0.04425048828125,0.0636695,-0.15647289,9.759521,0
0,989.853271484375,6.259570945985615E-4,6.693393806926906E-4,-2.4691145517863333E-4,-8.903543472290039,26.050453186035156,-32.11997985839844,-0.02343655377626419,-0.001000627875328064,0.03478527069091797,0.07801914,-0.15170658,9.7713585,0
0,989.8834228515625,3.595433081500232E-4,3.5655684769153595E-6,-1.1379530769772828E-4,-9.003328323364258,26.06251335144043,-32.33625793457031,0.00547211617231369,0.01793988049030304,0.020577430725097656,0.058910012,-0.17077306,9.7902975,0
1,989.8606567382812,-7.05817888956517E-4,-5.29050303157419E-4,2.8563651721924543E-4,-8.758511543273926,25.764829635620117,-32.1256103515625,0.014905385673046112,-0.0010264068841934204,0.03951740264892578,0.058920205,-0.15409032,9.77136,0
1,989.86572265625,-5.727578536607325E-4,2.6991317281499505E-4,-1.1387918493710458E-4,-8.91876220703125,26.035722732543945,-31.346925735473633,0.014892153441905975,-0.0012919604778289795,0.034786224365234375,0.05166459,-0.15408823,9.780822,0
1,989.8378295898438,-4.388492670841515E-4,6.692651659250259E-4,4.1907429113052785E-4,-8.635737419128418,26.301082611083984,-31.94495964050293,-2.053380012512207E-5,-0.010946854948997498,0.02531909942626953,0.06362045,-0.14932188,9.776088,0
1,989.8276977539062,-4.389102687127888E-4,0.001068748882971704,5.522060673683882E-4,-8.52018928527832,25.935461044311523,-32.40327453613281,0.02803855389356613,0.0031837522983551025,0.030055999755859375,0.051677227,-0.15647182,9.783189,0
1,989.8276977539062,-4.389102687127888E-4,0.001068748882971704,5.522060673683882E-4,-8.52018928527832,25.935461044311523,-32.40327453613281,0.008705608546733856,-0.010881438851356506,0.03479194641113281,0.061243206,-0.15170544,9.764253,0
1,989.8527221679688,3.5991513868793845E-4,8.024528506211936E-4,5.521536804735661E-4,-8.319098472595215,25.912813186645508,-32.04801940917969,-0.006036631762981415,-0.010940447449684143,0.02532482147216797,0.06602934,-0.15408891,9.76662,0
1,989.8527221679688,3.5991513868793845E-4,8.024528506211936E-4,5.521536804735661E-4,-8.319098472595215,25.912813186645508,-32.04801940917969,-0.0013852939009666443,-0.0014129430055618286,0.0632009506225586,0.06603569,-0.1564723,9.747683,0
1,989.8327026367188,-5.723126814700663E-4,9.356306400150061E-4,-1.1368838022463024E-4,-8.60503101348877,25.750423431396484,-31.99445152282715,0.0029082968831062317,0.0173184871673584,0.04426097869873047,0.058872342,-0.16600558,9.771356,0
1,989.8327026367188,-5.723126814700663E-4,9.356306400150061E-4,-1.1368838022463024E-4,-8.60503101348877,25.750423431396484,-31.99445152282715,0.002604648470878601,0.0028958916664123535,0.011118888854980469,0.051708937,-0.15885594,9.780825,0
1,989.84033203125,9.3416019808501E-5,9.356404771097004E-4,4.189171304460615E-4,-8.788677215576172,25.947206497192383,-31.9776668548584,-0.0024989619851112366,-0.00646539032459259,0.063201904296875,0.061274916,-0.15170622,9.761888,0
1,989.84033203125,9.3416019808501E-5,9.356404771097004E-4,4.189171304460615E-4,-8.788677215576172,25.947206497192383,-31.9776668548584,-0.0024152323603630066,0.0029967278242111206,0.03479290008544922,0.070840836,-0.16838935,9.778459,0
1,989.8453369140625,9.335478534922004E-5,2.69860727712512E-4,-1.1374070891179144E-4,-8.430378913879395,25.65071678161621,-32.246482849121094,0.01663120836019516,0.017124488949775696,0.058463096618652344,0.05411786,-0.16362298,9.754787,0
1,989.8402099609375,3.5954854683950543E-4,3.5646953620016575E-6,-5.132668884471059E-4,-8.113441467285156,25.894582748413086,-31.924673080444336,0.012132570147514343,-0.006321728229522705,0.04426288604736328,0.06368381,-0.15408996,9.7737255,0
1,989.8402099609375,3.5954854683950543E-4,3.5646953620016575E-6,-5.132668884471059E-4,-8.113441467285156,25.894582748413086,-31.924673080444336,0.007408350706100464,-0.006313443183898926,0.04426288604736328,0.056520462,-0.15409008,9.7760935,0
1,989.850341796875,9.311054600402713E-5,-1.2957339640706778E-4,-2.470034232828766E-4,-8.616524696350098,25.476261138916016,-31.97663688659668,-0.006998978555202484,-0.015540912747383118,0.020593643188476562,0.07086623,-0.14694044,9.778461,0
1,989.850341796875,9.311054600402713E-5,-1.2957339640706778E-4,-2.470034232828766E-4,-8.616524696350098,25.476261138916016,-31.97663688659668,0.012054674327373505,0.0035575032234191895,0.04900169372558594,0.061312973,-0.15885702,9.768992,0
1,989.8602905273438,3.5930360900238156E-4,-2.627114299684763E-4,2.855757193174213E-4,-8.626498222351074,25.20357894897461,-32.0361328125,0.012115225195884705,0.0034168213605880737,0.03952980041503906,0.058929443,-0.16839024,9.764258,0
1,989.8602905273438,3.5930360900238156E-4,-2.627114299684763E-4,2.855757193174213E-4,-8.626498222351074,25.20357894897461,-32.0361328125,0.002520643174648285,0.012586608529090881,0.03478813171386719,0.06371558,-0.17077371,9.76426,0
1,989.86279296875,-8.392399759031832E-4,3.624300006777048E-6,1.9207451259717345E-5,-8.865470886230469,26.50758171081543,-32.229576110839844,0.017009221017360687,0.007665008306503296,0.05372142791748047,0.05894208,-0.17315719,9.757159,0
1,989.812255859375,-4.0353566873818636E-5,-2.626816858537495E-4,6.849709898233414E-4,-9.013140678405762,26.316051483154297,-31.27180290222168,0.0025279372930526733,-0.01613101363182068,0.044254302978515625,0.073287845,-0.13979134,9.76426,0
1,989.86767578125,-3.067304496653378E-4,2.699600299820304E-4,-5.13476668857038E-4,-8.827291488647461,25.858366012573242,-31.966520309448242,0.016497448086738586,-0.0019352734088897705,0.04898834228515625,0.049395144,-0.15409121,9.750058,0
1,989.8399658203125,-5.731074488721788E-4,6.694437470287085E-4,-5.135028623044491E-4,-8.952132225036621,25.68893051147461,-32.16831970214844,0.006642423570156097,0.0029150545597076416,0.04899024963378906,0.049401492,-0.16839108,9.768996,0
1,989.8499145507812,6.252528983168304E-4,2.6997984969057143E-4,-2.4721320369280875E-4,-9.102272033691406,26.338422775268555,-32.02922058105469,-0.007806859910488129,0.016998767852783203,0.030050277709960938,0.06374726,-0.1660079,9.773731,0
1,989.8544921875,2.257180749438703E-4,0.0012020952999591827,-0.001179344835691154,-8.402278900146484,25.835161209106445,-32.41557312011719,0.0010383762419223785,-0.011473819613456726,0.025322914123535156,0.061363697,-0.15647498,9.780833,0
1,989.8373413085938,-3.0697492184117436E-4,8.026314317248762E-4,2.8536617173813283E-4,-8.442416191101074,25.744848251342773,-32.327117919921875,-0.013086594641208649,0.007310405373573303,0.03478431701660156,0.061370045,-0.17077485,9.768998,0
2,989.8346557617188,-7.065097452141345E-4,3.693712642416358E-6,2.853400947060436E-4,-8.575546264648438,25.830421447753906,-31.54176902770996,-0.008783195167779922,-0.0019488632678985596,0.03949451446533203,0.063924074,-0.16362897,9.759544,0
2,989.844970703125,7.577899959869683E-4,6.695544579997659E-4,8.177842246368527E-4,-8.620953559875488,25.577760696411133,-32.44380187988281,-0.003907397389411926,-0.006604492664337158,0.04422760009765625,0.06409776,-0.15410009,9.76903,0
2,989.8246459960938,3.569791151676327E-4,-2.65025271801278E-4,1.481650397181511E-4,-8.693319320678711,26.036640167236328,-32.228546142578125,0.005421251058578491,0.01204247772693634,0.05368995666503906,0.061726928,-0.1636337,9.764297,0
2,989.8444213867188,-5.753104342147708E-4,2.676363510545343E-4,-7.84019473940134E-4,-8.921669006347656,26.138694763183594,-31.891393661499023,-0.0044264160096645355,0.002333611249923706,0.03474998474121094,0.05218631,-0.16601747,9.759564,0
2,989.86474609375,-5.754936719313264E-4,8.002979448065162E-4,2.8116561588831246E-4,-8.525734901428223,25.561279296875,-31.995603561401367,-0.005161929875612259,-0.002378702163696289,0.02054882049560547,0.06654477,-0.15648481,9.790339,0
2,989.8494873046875,-1.7620305879972875E-4,0.0011998014524579048,2.810870937537402E-4,-8.479211807250977,26.289621353149414,-31.96840476989746,-3.1338632106781006E-4,0.002421736717224121,0.05842304229736328,0.057004154,-0.15648529,9.764302,0
2,989.8494873046875,-1.7638641293160617E-4,-2.6490617892704904E-4,6.804823060519993E-4,-8.495134353637695,26.116958618164062,-32.417755126953125,-3.818050026893616E-5,-0.0025491267442703247,0.04421424865722656,0.06419289,-0.15171918,9.771405,0
2,989.8595581054688,1.1306258966214955E-4,-0.001945697353221476,-5.243560881353915E-4,-8.625083923339844,26.3113956451416,-32.48609161376953,0.009984448552131653,-0.006996870040893555,0.039478302001953125,0.05704224,-0.15171969,9.778508,0
2,989.8595581054688,1.1306258966214955E-4,-0.001945697353221476,-5.243560881353915E-4,-8.625083923339844,26.3113956451416,-32.48609161376953,-0.02379385381937027,-0.002280622720718384,0.02527618408203125,0.07618046,-0.15887001,9.797448,0
2,989.8516845703125,-4.1993646300397813E-4,5.843631224706769E-4,-1.250396016985178E-4,-8.313010215759277,25.9187068939209,-32.35723114013672,-0.004720013588666916,-0.007317736744880676,0.03000354766845703,0.061860085,-0.14695406,9.769043,0
2,989.8516845703125,-4.1993646300397813E-4,5.843631224706769E-4,-1.250396016985178E-4,-8.313010215759277,25.9187068939209,-32.35723114013672,-0.009232744574546814,-0.01207907497882843,0.029999732971191406,0.05948919,-0.15648767,9.776147,0
2,989.84912109375,3.786445886362344E-4,-2.1452500368468463E-4,4.0743502904661E-4,-8.554920196533203,26.11341667175293,-32.023414611816406,-0.01378832757472992,-0.0024372637271881104,0.029997825622558594,0.07145774,-0.15648803,9.776149,0
2,989.84912109375,3.786445886362344E-4,-2.1452500368468463E-4,4.0743502904661E-4,-8.554920196533203,26.11341667175293,-32.023414611816406,-0.01847986876964569,0.002052873373031616,0.03472709655761719,0.073866606,-0.16602162,9.766682,0
2,989.84912109375,1.1214546975679696E-4,-8.133720984915271E-5,-3.915911656804383E-4,-8.393284797668457,25.738080978393555,-32.180328369140625,-0.027984119951725006,0.00717674195766449,0.04893302917480469,0.07627556,-0.15648898,9.769051,0
2,989.8389282226562,-1.543536491226405E-4,-8.802551310509443E-4,-1.253538648597896E-4,-8.520870208740234,26.19783592224121,-31.802644729614258,9.691342711448669E-4,-0.016955778002738953,0.04419136047363281,0.06434512,-0.14933959,9.776154,0
2,989.8541870117188,7.773847319185734E-4,0.0012503316393122077,5.402785027399659E-4,-8.055177688598633,25.896650314331055,-32.24170684814453,6.633847951889038E-4,0.0024601370096206665,0.03946113586425781,0.064364135,-0.15172336,9.7666855,0
2,989.84130859375,-2.1746120182797313E-5,-0.0014127976028248668,2.7388407033868134E-4,-8.563370704650879,25.842206954956055,-32.16020965576172,-0.003628060221672058,-0.016615644097328186,0.04419136047363281,0.07155287,-0.14934054,9.773789,0
2,989.8661499023438,-5.545612657442689E-4,1.8512754468247294E-4,-6.583000649698079E-4,-8.535271644592285,26.026649475097656,-32.329307556152344,-0.0034697353839874268,-0.0073294490575790405,0.0347137451171875,0.06918198,-0.1541076,9.780893,0
2,989.8536987304688,-8.210603846237063E-4,-0.001412738231010735,1.4056902728043497E-4,-8.340129852294922,26.104021072387695,-32.36389923095703,0.006612129509449005,-0.007590144872665405,0.04890727996826172,0.06920099,-0.1469582,9.769059,0
2,989.8563232421875,2.440198149997741E-4,8.509766194038093E-4,7.332564564421773E-6,-8.03857421875,25.80693817138672,-32.392982482910156,-0.01293943077325821,0.0020259320735931396,0.006300926208496094,0.06922001,-0.17079148,9.790365,0
2,989.8563232421875,2.440198149997741E-4,8.509766194038093E-4,7.332564564421773E-6,-8.378746032714844,26.01518440246582,-32.352752685546875,-0.017291441559791565,0.002132609486579895,0.03470420837402344,0.07162899,-0.16602543,9.769063,0
2,989.8410034179688,1.106782874558121E-4,-0.001013204688206315,5.398856010288E-4,-8.487119674682617,25.65011978149414,-32.006752014160156,0.0022691115736961365,-0.007146388292312622,0.0441741943359375,0.06447834,-0.15887603,9.773798,0
2,989.846435546875,0.0010426003718748689,-8.800170035101473E-4,1.4033314073458314E-4,-8.529321670532227,25.926626205444336,-31.939443588256836,-0.01212988793849945,0.016304194927215576,0.04889869689941406,0.07883671,-0.16840965,9.776168,0
2,989.846435546875,0.0010426003718748689,-8.800170035101473E-4,1.4033314073458314E-4,-8.529321670532227,25.926626205444336,-31.939443588256836,-0.012112841010093689,-0.0024424195289611816,0.044170379638671875,0.07168603,-0.16126028,9.773801,0
2,989.8461303710938,0.0010422337800264359,-0.0010131153976544738,-3.924557822756469E-4,-8.935527801513672,25.599214553833008,-32.31959533691406,-0.006945468485355377,-0.00666499137878418,0.029970169067382812,0.06692523,-0.15887746,9.766702,0
3,989.8461303710938,0.0010422337800264359,-0.0010131153976544738,-3.924557822756469E-4,-8.935527801513672,25.599214553833008,-32.31959533691406,-0.010083816945552826,-0.0021536052227020264,0.02539539337158203,0.07947397,-0.15645018,9.785476,0
3,989.8331909179688,1.184174616355449E-4,4.5027630403637886E-4,-1.225872547365725E-4,-8.538315773010254,26.02370262145996,-32.17469024658203,-0.005145326256752014,-0.006794989109039307,0.02540111541748047,0.067471206,-0.15883216,9.768901,0
3,989.8480834960938,2.590658550616354E-4,5.0384944188408554E-5,-0.0010477626929059625,-8.546222686767578,25.384199142456055,-32.213035583496094,-0.024049587547779083,0.0027555525302886963,0.02067089080810547,0.06980783,-0.15644756,9.783099,0
3,989.8206176757812,-1.3989457511343062E-4,-6.154880975373089E-4,1.5087888459675014E-4,-8.51826286315918,25.46272850036621,-31.68305015563965,-0.00956551730632782,-0.020457163453102112,0.039626121520996094,0.06975457,-0.13499674,9.78546,0
3,989.8206176757812,-1.3989457511343062E-4,-6.154880975373089E-4,1.5087888459675014E-4,-8.51826286315918,25.46272850036621,-31.68305015563965,0.014200352132320404,-0.0014432072639465332,0.006487846374511719,0.060141683,-0.15167841,9.792558,0
3,989.8505859375,-6.714991759508848E-4,4.496086621657014E-4,6.839508423581719E-4,-8.854166030883789,25.043256759643555,-32.29960632324219,-0.014172166585922241,-0.015671372413635254,0.053836822509765625,0.072037935,-0.14929381,9.754678,0
3,989.8304443359375,6.60593737848103E-4,-0.001281527802348137,-3.810925700236112E-4,-8.554132461547852,24.744699478149414,-32.251380920410156,0.019758298993110657,-0.0014377236366271973,0.04910564422607422,0.055255353,-0.15882567,9.764142,0
3,989.8506469726562,-5.373142194002867E-4,-4.8266357043758035E-4,-3.8087248685769737E-4,-8.810688018798828,25.768651962280273,-32.1177978515625,0.004900768399238586,-0.001544460654258728,0.03964424133300781,0.06237179,-0.15644106,9.76887,0
3,989.8709716796875,-2.704849757719785E-4,0.0012483063619583845,5.514530930668116E-4,-9.028084754943848,26.513154983520508,-31.896909713745117,-0.009444192051887512,-0.0012243092060089111,0.039650917053222656,0.07426801,-0.15882304,9.773601,0
3,989.8277587890625,7.952923187986016E-4,1.8295929476153105E-4,-6.467483472079039E-4,-8.784110069274902,25.951622009277344,-32.20957946777344,0.019616179168224335,0.008482277393341064,0.05386066436767578,0.055095494,-0.16120502,9.766494,0
3,989.8557739257812,3.963318595197052E-4,-0.0012818612158298492,-2.470544131938368E-4,-8.779001235961914,25.587751388549805,-32.343048095703125,-0.00360175222158432,0.008139118552207947,0.02544879913330078,0.06699169,-0.16597027,9.771224,0
3,989.8609008789062,-6.684181280434132E-4,-0.0011487867450341582,-2.468342718202621E-4,-9.02283763885498,26.255197525024414,-32.72944641113281,-0.0032930895686149597,0.003229185938835144,0.025449752807617188,0.06693846,-0.15643582,9.775953,0
3,989.8328857421875,1.3104299432598054E-4,-8.825542172417045E-4,-7.792460964992642E-4,-8.852346420288086,25.67686653137207,-31.952035903930664,-0.003252938389778137,-0.01076081395149231,0.020725250244140625,0.06688517,-0.15166798,9.780683,0
3,989.84521484375,6.641881773248315E-4,1.8262593948747963E-4,1.5307962894439697E-4,-9.168985366821289,26.065141677856445,-31.84897804260254,-0.01751147210597992,-9.072870016098022E-4,0.02073383331298828,0.0716117,-0.16358307,9.773577,0
3,989.8477172851562,-1.0879302863031626E-6,3.157004830427468E-4,2.864576817955822E-4,-9.083059310913086,25.513601303100586,-32.06089782714844,-0.007786378264427185,0.003882572054862976,0.016007423400878906,0.061998814,-0.15404865,9.768837,0
3,989.8578491210938,5.320574855431914E-4,-3.5017257323488593E-4,5.529936170205474E-4,-8.770549774169922,25.858964920043945,-32.20625305175781,0.006891608238220215,0.004041314125061035,0.04442119598388672,0.064335436,-0.15643063,9.7783,0
3,989.8578491210938,1.3309702626429498E-4,-6.165718077681959E-4,2.868978481274098E-4,-9.091212272644043,25.874526977539062,-31.772825241088867,0.012171037495136261,-7.23227858543396E-4,0.044422149658203125,0.06428218,-0.15642932,9.787765,0
3,989.8375244140625,3.9992641541175544E-4,-0.0012824449222534895,-3.78671771613881E-4,-8.871176719665527,25.607179641723633,-32.94585418701172,0.0025993436574935913,-0.010360568761825562,0.034954071044921875,0.061839014,-0.13974503,9.775924,0
3,989.8626098632812,-9.311394533142447E-4,9.811567142605782E-4,-3.784517466556281E-4,-9.049415588378906,26.072227478027344,-32.637664794921875,0.007236659526824951,-0.0054846107959747314,0.034961700439453125,0.0713453,-0.1540434,9.783021,0
3,989.8396606445312,5.341112846508622E-4,-6.16821926087141E-4,1.5440009883604944E-4,-9.173956871032715,26.534929275512695,-32.41459655761719,-0.006657607853412628,-0.005562245845794678,0.03970050811767578,0.06173241,-0.15165883,9.759343,0
3,989.8396606445312,-6.071719108149409E-4,8.940558764152229E-4,-1.6183903790079057E-4,-9.441762924194336,26.2842960357666,-32.58960723876953,0.002520434558391571,-0.015237733721733093,0.03970623016357422,0.059289247,-0.14927426,9.778276,0
3,989.8396606445312,-6.071719108149409E-4,8.940558764152229E-4,-1.6183903790079057E-4,-9.441762924194336,26.2842960357666,-32.58960723876953,0.0026842206716537476,-0.005808055400848389,0.006565093994140625,0.061625868,-0.16118935,9.79721,0
3,989.8421630859375,-2.0718443556688726E-4,-3.813306102529168E-5,-6.9425068795681E-4,-9.191402435302734,26.36079216003418,-32.78663635253906,-0.007074601948261261,0.0034839212894439697,0.034974098205566406,0.06396249,-0.16118804,9.778266,0
3,989.8650512695312,-6.061447784304619E-4,6.275732885114849E-4,-2.8240930987522006E-5,-9.534618377685547,26.566097259521484,-32.591796875,-0.007227681577205658,-0.006021514534950256,0.05391883850097656,0.061519325,-0.16357002,9.759324,0
4,989.8265380859375,5.933038191869855E-4,7.605645223520696E-4,-1.609587634447962E-4,-9.321351051330566,26.55523109436035,-32.85497283935547,-0.013702288269996643,-0.02014772593975067,0.02063274383544922,0.069480956,-0.14452317,9.775968,0
4,989.8546752929688,-2.1960350568406284E-4,7.628306047990918E-4,0.0011646380880847573,-9.109743118286133,26.436973571777344,-32.341773986816406,-0.004600308835506439,0.003743305802345276,0.03957176208496094,0.07032424,-0.15884355,9.77131,0
4,989.8417358398438,4.440131888259202E-4,3.6370957968756557E-4,-1.6787266940809786E-4,-9.349992752075195,26.739078521728516,-32.784332275390625,0.01433265209197998,-0.0010978132486343384,0.05377483367919922,0.06077987,-0.16361046,9.761842,0
4,989.8417358398438,4.440131888259202E-4,3.6370957968756557E-4,-1.6787266940809786E-4,-9.349992752075195,26.739078521728516,-32.784332275390625,0.004733093082904816,0.013410046696662903,0.0301055908203125,0.06796485,-0.15646103,9.776048,0
4,989.8517456054688,8.433402981609106E-4,9.741752000991255E-5,-3.477759310044348E-5,-8.979114532470703,25.980165481567383,-32.874061584472656,0.014489881694316864,-0.014666080474853516,0.04904937744140625,0.06559008,-0.1516948,9.776049,0
4,989.8517456054688,5.76877617277205E-4,-4.3519039172679186E-4,2.3147539468482137E-4,-8.645435333251953,26.240232467651367,-33.40260314941406,-0.0039738863706588745,-0.009929567575454712,0.039572715759277344,0.06799525,-0.15884504,9.7642145,0
4,989.8443603515625,-8.905885624699295E-5,-0.0016335882246494293,7.640442345291376E-4,-8.98835277557373,27.077669143676758,-32.78289031982422,-0.003942206501960754,-0.005095615983009338,0.039572715759277344,0.072790265,-0.15646216,9.766582,0
4,989.8467407226562,3.1026851502247155E-4,9.74889553617686E-5,4.976654890924692E-4,-9.320808410644531,26.18693733215332,-32.75652313232422,-0.013489551842212677,-1.8803775310516357E-4,0.025369644165039062,0.072805494,-0.15646252,9.7855215,0
4,989.8341674804688,4.432795394677669E-4,-3.019610303454101E-4,3.6444468423724174E-4,-9.100069046020508,26.07752227783203,-32.7071533203125,-0.022549785673618317,-0.0051940977573394775,0.030096054077148438,0.0847702,-0.15169632,9.773686,0
4,989.8341674804688,4.432795394677669E-4,-3.019610303454101E-4,3.6444468423724174E-4,-9.100069046020508,26.07752227783203,-32.7071533203125,0.005821853876113892,-0.019140198826789856,0.05850791931152344,0.070446014,-0.14216354,9.766587,0
4,989.8492431640625,3.098282322753221E-4,2.3071836039889604E-4,4.974768962711096E-4,-8.90438461303711,25.78660774230957,-32.64330291748047,0.010869614779949188,0.004826098680496216,0.030101776123046875,0.06568146,-0.14931381,9.785525,0
4,989.871826171875,0.0011086291633546352,-1.6873161075636744E-4,2.3109812173061073E-4,-9.153329849243164,26.81792449951172,-32.896240234375,0.0013284683227539062,0.009898260235786438,0.025369644165039062,0.06330678,-0.15646401,9.776058,0
4,989.8212890625,4.426926898304373E-4,3.6392395850270987E-4,-3.528068191371858E-5,-9.409235000610352,26.36724281311035,-32.291542053222656,0.02002381533384323,-0.004635319113731384,0.05850696563720703,0.056152284,-0.15408108,9.768958,0
4,989.8212890625,4.426926898304373E-4,3.6392395850270987E-4,-3.528068191371858E-5,-9.409235000610352,26.36724281311035,-32.291542053222656,0.010408185422420502,0.004864096641540527,0.04430389404296875,0.06333721,-0.15646479,9.76896,0
4,989.84619140625,-2.233903796877712E-4,2.308136608917266E-4,-1.6856429283507168E-4,-9.423636436462402,26.196054458618164,-32.81819152832031,0.00546429306268692,0.009577944874763489,0.030099868774414062,0.06813228,-0.17076483,9.785531,0
4,989.8206787109375,3.0909458291716874E-4,6.303112604655325E-4,6.30320399068296E-4,-9.183792114257812,26.368162155151367,-33.17316436767578,-0.004059270024299622,0.00480923056602478,0.05850410461425781,0.06575757,-0.15408221,9.759493,0
4,989.8184204101562,4.263201844878495E-5,-7.012442802079022E-4,-3.553213900886476E-5,-8.875848770141602,26.709104537963867,-33.08659362792969,-0.013119801878929138,-0.014175370335578918,0.025360107421875,0.06816268,-0.14216617,9.766596,0
4,989.8410034179688,3.0880121630616486E-4,-0.0013670101761817932,9.756290819495916E-5,-8.547715187072754,26.594989776611328,-33.20746612548828,-0.00310380756855011,-0.014451548457145691,0.030084609985351562,0.06817794,-0.14693314,9.771333,0
4,989.8258056640625,-0.0012892407830804586,-0.0011006705462932587,3.638159541878849E-4,-8.44532299041748,25.84781837463379,-32.87158966064453,0.006322622299194336,-0.009843051433563232,0.03481578826904297,0.061023474,-0.15170005,9.771334,0
4,989.843505859375,-0.0010230715852230787,0.0010298803681507707,4.969110013917089E-4,-8.437414169311523,26.487321853637695,-32.83324432373047,0.020691052079200745,-5.06088137626648E-4,0.04901313781738281,0.06342855,-0.15885022,9.764234,0
4,989.8285522460938,-3.574286529328674E-4,-9.674649336375296E-4,-3.020995354745537E-4,-8.47396469116211,26.031665802001953,-32.80094909667969,0.0161081925034523,0.004016414284706116,0.053742408752441406,0.061053842,-0.14931753,9.7595,0
4,989.843505859375,-3.5757533623836935E-4,-3.0165136558935046E-4,-3.58465185854584E-5,-8.106917381286621,26.638526916503906,-32.50810241699219,0.0019592344760894775,-7.262080907821655E-4,0.04427146911621094,0.07540852,-0.1469346,9.773705,0
4,989.85107421875,1.7490974278189242E-4,-5.679434980265796E-4,4.967223503626883E-4,-7.74503231048584,25.97669219970703,-32.83306884765625,0.02584652602672577,0.0037804991006851196,0.044264793395996094,0.056304514,-0.15885136,9.776073,0
4,989.8511352539062,-6.241847295314074E-4,9.78700554696843E-5,-3.597224713303149E-5,-7.887454986572266,25.52720832824707,-32.70783996582031,0.0019660964608192444,0.008607655763626099,0.03952980041503906,0.06826925,-0.17553475,9.776074,0
4,989.81787109375,3.0777420033700764E-4,-8.342117653228343E-4,3.6343865212984383E-4,-8.097678184509277,25.541019439697266,-32.599273681640625,-0.0026934146881103516,0.01358744502067566,0.039531707763671875,0.06350464,-0.166002,9.776076,0
5,989.8281860351562,1.7446957645006478E-4,3.642335650511086E-4,-3.6098092095926404E-5,-8.000800132751465,25.631929397583008,-32.927459716796875,0.016610249876976013,0.008587166666984558,0.030055999755859375,0.053371757,-0.1564548,9.776024,0
5,989.8533325195312,3.10281669953838E-4,-9.677766938693821E-4,9.819742990657687E-5,-8.162434577941895,26.007265090942383,-32.770545959472656,0.01319848746061325,-0.005826175212860107,0.04910087585449219,0.06710267,-0.14929003,9.7617655,0
5,989.8558959960938,-4.82518516946584E-4,-2.99687817459926E-4,-4.265188763383776E-4,-8.716853141784668,25.85661506652832,-32.29137420654297,0.008231386542320251,0.0036252588033676147,0.020696640014648438,0.05751139,-0.1564391,9.787801,0
5,989.8455200195312,-4.822130431421101E-4,9.97364113572985E-5,3.7255967617966235E-4,-8.420267105102539,26.02931785583496,-32.886070251464844,0.003609299659729004,-0.0059098899364471436,0.030167579650878906,0.0694291,-0.15882155,9.773595,0
5,989.8224487304688,-4.8190687084570527E-4,-9.655767353251576E-4,-6.925726775079966E-4,-8.780928611755371,26.060487747192383,-33.063270568847656,-0.005363002419471741,-0.01091746985912323,0.03963184356689453,0.06700754,-0.14928773,9.759389,0
5,989.8123168945312,5.133607191964984E-5,6.32219307590276E-4,-4.259949491824955E-4,-8.729869842529297,25.580984115600586,-32.196258544921875,0.004130706191062927,-0.006230756640434265,0.03489971160888672,0.0669758,-0.15643671,9.771222,0
5,989.8250732421875,-7.473060977645218E-4,9.953787957783788E-5,5.062418058514595E-4,-8.63796329498291,26.14168357849121,-33.090049743652344,0.023203641176223755,0.007853671908378601,0.06330680847167969,0.052604675,-0.16120258,9.76175,0
5,989.8250732421875,-7.473060977645218E-4,9.953787957783788E-5,5.062418058514595E-4,-8.63796329498291,26.14168357849121,-33.090049743652344,-0.005571678280830383,0.00786370038986206,0.04910564422607422,0.06930229,-0.1659683,9.764115,0
5,989.8199462890625,-3.475268022157252E-4,-1.66827579960227E-4,-2.6259076548740268E-5,-8.650137901306152,26.129899978637695,-32.47161102294922,0.004012472927570343,-0.016140267252922058,0.044371604919433594,0.06688064,-0.14928457,9.768846,0
5,989.8326416015625,-2.1406338782981038E-4,-3.0003514257259667E-4,2.4018777185119689E-4,-8.957101821899414,26.158716201782227,-32.73393249511719,0.008740916848182678,-0.006925106048583984,0.03490161895751953,0.062069148,-0.15166709,9.783047,0
5,989.8428344726562,5.404046969488263E-4,-4.681592690758407E-5,-3.961425682064146E-4,-8.538613319396973,25.39156150817871,-32.59956359863281,-9.571462869644165E-4,0.017232373356819153,0.034911155700683594,0.05964753,-0.15166631,9.77831,0
5,989.8428344726562,5.404046969488263E-4,-4.681592690758407E-5,-3.961425682064146E-4,-8.538613319396973,25.39156150817871,-32.59956359863281,-0.024759970605373383,0.021989047527313232,0.02070903778076172,0.07156533,-0.16834852,9.780675,0
5,989.8428344726562,5.404046969488263E-4,-4.681592690758407E-5,-3.961425682064146E-4,-8.471356391906738,25.29655647277832,-32.68135070800781,0.013173811137676239,0.003024756908416748,0.020715713500976562,0.066753775,-0.15643129,9.778304,0
5,989.8326416015625,6.738681113347411E-4,2.1945039043202996E-4,2.6977804373018444E-4,-8.90134048461914,25.78955078125,-32.79791259765625,0.008398495614528656,0.0029800236225128174,0.044391632080078125,0.05955237,-0.15881386,9.773566,0
5,989.8251342773438,1.4154278323985636E-4,8.624276961199939E-5,1.36751274112612E-4,-8.89484691619873,25.32123565673828,-32.309600830078125,0.003950528800487518,0.017129376530647278,0.03018665313720703,0.07386008,-0.16119629,9.778296,0
5,989.8174438476562,-0.0011897311778739095,8.61931184772402E-5,1.368821831420064E-4,-8.688913345336914,25.51483726501465,-33.58441162109375,0.012979097664356232,-0.011302456259727478,0.044399261474609375,0.054709136,-0.15642896,9.761724,0
5,989.8424072265625,2.756171452347189E-4,0.0010181994875892997,0.0010692498181015253,-9.02381706237793,25.885435104370117,-32.553688049316406,0.013195835053920746,0.0032699257135391235,0.049139976501464844,0.06184712,-0.17072788,9.768823,0
5,989.8424072265625,2.756171452347189E-4,0.0010181994875892997,0.0010692498181015253,-9.02381706237793,25.885435104370117,-32.553688049316406,0.003702618181705475,0.008118033409118652,0.044409751892089844,0.07137501,-0.16596055,9.764085,0
5,989.8072509765625,9.41712292842567E-4,-7.129033328965306E-4,-1.2904070899821818E-4,-8.563233375549316,25.948122024536133,-32.859291076660156,-0.0013033971190452576,0.008284911513328552,0.039681434631347656,0.078513,-0.15642664,9.773551,0
5,989.8650512695312,-2.5640366948209703E-4,3.523105988278985E-4,4.2481988202780485E-6,-8.98908805847168,25.707483291625977,-32.933555603027344,0.008394755423069,-0.010825231671333313,0.03968334197998047,0.06414187,-0.14927605,9.778283,0
5,989.8299560546875,2.7683997177518904E-4,-4.467363760340959E-4,9.366158628836274E-4,-8.997782707214355,26.436697006225586,-32.743927001953125,0.008743569254875183,0.0034843236207962036,0.011277198791503906,0.06411016,-0.14927527,9.783014,0
5,989.8299560546875,2.7683997177518904E-4,-4.467363760340959E-4,9.366158628836274E-4,-8.997782707214355,26.436697006225586,-32.743927001953125,-0.015271298587322235,0.008337840437889099,0.020750999450683594,0.080807745,-0.16595739,9.77591,0
5,989.81982421875,1.1135853128507733E-5,6.184279918670654E-4,4.042461223434657E-4,-8.765846252441406,25.969301223754883,-33.137245178222656,0.008406154811382294,0.018037989735603333,0.030229568481445312,0.056877047,-0.16119012,9.780642,0
5,989.8350219726562,4.109152650926262E-4,3.520624595694244E-4,-2.614125551190227E-4,-8.960009574890137,26.261688232421875,-33.278404235839844,-0.020304106175899506,-0.0012052655220031738,0.020761489868164062,0.080744386,-0.15165618,9.778272,0
6,989.8324584960938,-6.540428148582578E-4,8.569695637561381E-5,5.034205969423056E-6,-8.454209327697754,24.83855438232422,-32.73417663574219,-7.325261831283569E-4,-9.896010160446167E-4,0.030231475830078125,0.0663732,-0.15642196,9.787738,0
6,989.8097534179688,1.2052390957251191E-5,-8.464581333100796E-4,5.165289621800184E-6,-8.483394622802734,25.39069175720215,-32.761985778808594,-0.0061965808272361755,-0.010682657361030579,0.04909706115722656,0.08148104,-0.14929095,9.754666,0
6,989.8096313476562,-3.9373256731778383E-4,-1.7724436474964023E-4,6.704599363729358E-4,-8.693181991577148,26.142555236816406,-32.92762756347656,-0.005836039781570435,-0.0012888908386230469,0.0064830780029296875,0.074311316,-0.15644082,9.7901745,0
6,989.7966918945312,6.696651689708233E-4,-5.764152156189084E-4,-1.2928739306516945E-4,-8.653182983398438,26.126949310302734,-32.31700134277344,-9.101703763008118E-4,0.0037346184253692627,0.03489208221435547,0.0695315,-0.15882412,9.761768,0
6,989.786865234375,3.87546606361866E-6,-4.432572750374675E-4,-6.619191262871027E-4,-8.35246753692627,25.56601905822754,-32.869407653808594,-0.010527215898036957,0.003617331385612488,0.03489112854003906,0.076701224,-0.16120738,9.773604,0
6,989.8369750976562,-6.61914236843586E-4,-1.7694151028990746E-4,6.696602795273066E-4,-8.422087669372559,25.395708084106445,-33.23363494873047,0.008920781314373016,-0.0014218389987945557,0.039618492126464844,0.06714159,-0.16597393,9.780705,0
6,989.8217163085938,-3.955983556807041E-4,-4.3783511500805616E-5,-1.2928739306516945E-4,-8.357576370239258,25.929887771606445,-32.735939025878906,0.018194854259490967,-0.006222844123840332,0.0301513671875,0.062361807,-0.14929095,9.780705,0
6,989.8092651367188,5.365072283893824E-4,-1.7694151028990746E-4,2.701864286791533E-4,-8.792424201965332,25.786331176757812,-33.04545593261719,-0.015078827738761902,-0.005910933017730713,0.0443572998046875,0.076701224,-0.16120738,9.761768,0
6,989.8369140625,4.0334928780794144E-4,-1.7694151028990746E-4,1.370284880977124E-4,-9.067403793334961,26.266386032104492,-33.10816192626953,-0.010143622756004333,-0.010526537895202637,0.03962516784667969,0.08148101,-0.15167424,9.771237,0
6,989.8318481445312,2.701913472265005E-4,8.93743708729744E-5,3.870547516271472E-6,-8.71617317199707,25.594240188598633,-32.891998291015625,-0.01991705596446991,-0.015075922012329102,0.034895896911621094,0.074311316,-0.14690769,9.76887,0
6,989.8168334960938,1.3703340664505959E-4,3.5569025203585625E-4,-1.2928739306516945E-4,-8.257791519165039,25.917827606201172,-32.51966094970703,0.008582018315792084,-9.61601734161377E-4,0.03489398956298828,0.0695315,-0.14929098,9.78544,0
6,989.8369140625,-7.950721774250269E-4,0.0012877958361059427,2.701864286791533E-4,-8.626605987548828,26.30992317199707,-32.408790588378906,-0.0053958892822265625,0.008421868085861206,0.049091339111328125,0.074311316,-0.15882409,9.76887,0
6,989.8090209960938,1.3703340664505959E-4,-0.001242204918526113,-1.2928739306516945E-4,-8.636578559875488,26.0372371673584,-32.46827697753906,-6.578788161277771E-4,-0.0011885911226272583,0.025419235229492188,0.05758199,-0.16120738,9.76887,0
6,989.8115234375,-6.61914236843586E-4,-3.100994508713484E-4,5.365023389458656E-4,-8.672149658203125,25.951345443725586,-32.61174011230469,-0.005526028573513031,0.008215412497520447,0.02068328857421875,0.07192141,-0.16597393,9.78544,0
6,989.8343505859375,-1.2928247451782227E-4,2.2253231145441532E-4,-0.0010613929480314255,-8.492090225219727,26.119905471801758,-32.572364807128906,-0.015079274773597717,0.0034872591495513916,0.03488731384277344,0.08148101,-0.15644082,9.771237,0
6,989.8343505859375,-1.2928247451782227E-4,2.2253231145441532E-4,-0.0010613929480314255,-8.492090225219727,26.119905471801758,-32.572364807128906,0.0037743300199508667,0.00822991132736206,0.034888267517089844,0.07192141,-0.16120738,9.773604,0
6,989.8343505859375,2.701913472265005E-4,4.888481926172972E-4,-6.619191262871027E-4,-8.45445442199707,25.83898162841797,-32.40776062011719,0.013292498886585236,0.01781979203224182,0.03962421417236328,0.062361807,-0.16359064,9.773604,0
6,989.8262329101562,-3.955983556807041E-4,6.22006191406399E-4,-3.956032742280513E-4,-8.253225326538086,25.9222469329834,-32.75157928466797,-0.006104476749897003,0.003302961587905884,0.0632944107055664,0.07909113,-0.15167424,9.761768,0
6,989.8262329101562,-3.955983556807041E-4,6.22006191406399E-4,-3.956032742280513E-4,-8.253225326538086,25.9222469329834,-32.75157928466797,-0.015613488852977753,-0.0062132179737091064,0.006482124328613281,0.07192141,-0.14690769,9.792542,0
6,989.8338012695312,-5.28756296262145E-4,4.888481926172972E-4,2.701864286791533E-4,-8.387740135192871,26.112260818481445,-32.58799743652344,-0.006514906883239746,-0.0011861175298690796,0.044363975524902344,0.08148104,-0.16120738,9.76887,0
6,989.8134765625,6.696651689708233E-4,6.220061331987381E-4,6.696602795273066E-4,-8.36146068572998,25.66309928894043,-33.104652404785156,0.012432403862476349,0.0037547051906585693,0.049101829528808594,0.05997193,-0.16359064,9.773604,0
6,989.8312377929688,4.0334928780794144E-4,3.5569025203585625E-4,-2.624453336466104E-4,-8.737885475158691,26.047826766967773,-32.607261657714844,-0.01624058187007904,0.013277903199195862,0.039633750915527344,0.07909113,-0.1731238,9.766502,0
6,989.8160400390625,9.359810501337051E-4,4.888481926172972E-4,-1.2928739306516945E-4,-8.597963333129883,26.126073837280273,-32.47942352294922,0.0030661746859550476,-0.010366633534431458,0.015962600708007812,0.06714159,-0.14929095,9.773604,0
6,989.8262329101562,-2.624404150992632E-4,-8.427310967817903E-4,1.370284880977124E-4,-8.70576286315918,26.60498046875,-33.106712341308594,-0.01585816591978073,-8.360743522644043E-4,0.044368743896484375,0.09343052,-0.15644082,9.778338,0
6,989.8262329101562,-7.070103310979903E-5,2.80287436908111E-4,-1.6967355622909963E-4,-8.618154525756836,26.581132888793945,-32.271995544433594,0.007577940821647644,0.008641943335533142,0.02069854736328125,0.06714159,-0.17789033,9.771237,0
7,989.8262329101562,-7.070103310979903E-5,2.80287436908111E-4,-1.6967355622909963E-4,-8.618154525756836,26.581132888793945,-32.271995544433594,0.0311470627784729,0.013195618987083435,0.039635658264160156,0.0522815,-0.16596118,9.77119,0
7,989.821044921875,3.2877278863452375E-4,0.001079235109500587,-3.0283149681054056E-4,-8.721281051635742,25.958112716674805,-32.75853729248047,-0.03407502919435501,0.017741873860359192,0.03499031066894531,0.09713757,-0.1850138,9.764037,0
7,989.8287963867188,-3.3577499561943114E-4,1.4692789409309626E-4,-5.686151562258601E-4,-8.609457969665527,25.85191535949707,-32.46161651611328,0.008920058608055115,-0.01085500419139862,0.02552509307861328,0.054077506,-0.15164691,9.780604,0
7,989.8234252929688,2.0341473282314837E-4,-0.0013151615858078003,-9.612973080947995E-4,-8.092813491821289,26.177576065063477,-32.40631866455078,0.017928682267665863,-0.005907490849494934,0.025536537170410156,0.06598514,-0.15641245,9.787702,0
7,989.8236694335938,-3.2841015490703285E-4,8.152344962581992E-4,2.3747008526697755E-4,-8.371977806091309,25.758705139160156,-33.262596130371094,-0.02012801170349121,0.012844443321228027,0.035004615783691406,0.0755029,-0.1707111,9.766394,0
7,989.8387451171875,-4.6116436715237796E-4,-2.500945411156863E-4,-6.94462563842535E-4,-8.652502059936523,25.864578247070312,-32.917625427246094,-9.0751051902771E-4,0.00782860815525055,0.03973674774169922,0.06590143,-0.1540271,9.771125,0
7,989.82568359375,-1.944452233146876E-4,1.6155769117176533E-5,-1.6165783745236695E-4,-8.734405517578125,26.7888240814209,-33.03607177734375,0.0088905468583107,-0.001543194055557251,0.03974342346191406,0.058689892,-0.15879264,9.780589,0
7,989.8533935546875,2.054319775197655E-4,-2.502255665604025E-4,-8.272746345028281E-4,-8.618017196655273,26.68705177307129,-32.9710693359375,0.018357470631599426,0.012709081172943115,0.044483184814453125,0.063427806,-0.16117486,9.773483,0
7,989.8359985351562,-6.04804081376642E-5,1.4918275701347739E-4,2.3816162138246E-4,-8.338470458984375,26.21141242980957,-33.140281677246094,-0.01516953855752945,-0.015646278858184814,0.03975391387939453,0.084895074,-0.15402403,9.766377,0
7,989.82568359375,4.7255484969355166E-4,5.485910223796964E-4,-5.606131162494421E-4,-8.353446006774902,25.196252822875977,-32.69364929199219,-0.010475605726242065,-0.0011818408966064453,0.030294418334960938,0.0752936,-0.1468732,9.782945,0
7,989.8206787109375,6.061161402612925E-4,5.485255969688296E-4,-8.267560042440891E-4,-8.532526016235352,25.397459030151367,-32.908782958984375,0.008147284388542175,0.02261810004711151,0.0350341796875,0.06569213,-0.15640524,9.778207,0
7,989.8027954101562,7.38880189601332E-5,0.0010810919338837266,2.3868042626418173E-4,-8.312872886657715,26.024621963500977,-33.056312561035156,-0.006016351282596588,0.012986168265342712,0.011363983154296875,0.06804019,-0.16832063,9.785304,0
7,989.8106689453125,-3.251825401093811E-4,-2.505530428607017E-4,-4.26936341682449E-4,-8.581901550292969,26.404651641845703,-32.729156494140625,-0.01550465077161789,0.008303791284561157,0.025571823120117188,0.072778165,-0.16593635,9.782933,0
7,989.8231811523438,7.469477714039385E-5,1.569735468365252E-5,0.0010379739105701447,-8.571386337280273,26.30904769897461,-32.57121276855469,-0.006177246570587158,-0.006070330739021301,0.03504753112792969,0.070346355,-0.15878543,9.766358,0
7,989.8358764648438,-5.8059667935594916E-5,6.8142160307616E-4,1.06041319668293E-4,-8.220016479492188,25.74281883239746,-33.05413055419922,-0.0061704739928245544,-9.440332651138306E-4,0.030321121215820312,0.079864085,-0.15878442,9.775824,0
7,989.81298828125,8.744492661207914E-4,5.481981206685305E-4,7.720035500824451E-4,-8.50815200805664,25.84132957458496,-32.32263946533203,-0.011015564203262329,0.013624101877212524,0.030332565307617188,0.077432334,-0.16593328,9.773452,0
7,989.8257446289062,6.085368804633617E-4,1.4865878620184958E-4,7.721766596660018E-4,-8.60489273071289,25.85633659362793,-32.69352722167969,-0.02513056993484497,0.008608102798461914,0.020859718322753906,0.07739049,-0.16116562,9.768714,0
7,989.80517578125,-1.9000735483132303E-4,-2.5088051916100085E-4,-4.2607184150256217E-4,-8.644050598144531,26.13578987121582,-32.78083038330078,-0.010676786303520203,0.003911644220352173,0.049269676208496094,0.072568834,-0.1540148,9.756875,0
7,989.82275390625,7.671202183701098E-5,-2.509460609871894E-4,-2.9274102416820824E-4,-8.74383544921875,26.147850036621094,-32.99711608886719,-0.0014932677149772644,-7.968246936798096E-4,0.04927825927734375,0.06535727,-0.1611636,9.766339,0
7,989.83544921875,-5.886740982532501E-4,0.0017463575350120664,-2.625220804475248E-5,-8.60695743560791,26.223154067993164,-32.71467590332031,-0.01643667370080948,-0.024315670132637024,0.039824485778808594,0.077264905,-0.13732973,9.7710705,0
7,989.8380126953125,0.0011427823919802904,0.001080502406693995,-2.923950960393995E-4,-8.880553245544434,26.59876823425293,-32.155601501464844,0.007563598453998566,-0.0052074044942855835,0.049297332763671875,0.05810386,-0.1540117,9.756864,0
7,989.8125610351562,-5.5235548643395305E-5,-1.1798451305367053E-4,-2.5906279915943742E-5,-8.424833297729492,26.0248966217041,-32.654151916503906,-0.006922438740730286,-4.5274198055267334E-4,0.04456615447998047,0.0700115,-0.15639398,9.771062,0
7,989.81787109375,6.10957620665431E-4,2.8142373776063323E-4,-4.252072249073535E-4,-8.478530883789062,26.027246475219727,-32.56903076171875,0.002409517765045166,0.009347468614578247,0.0398406982421875,0.060410023,-0.16592601,9.763957,0
7,989.8153686523438,4.782032046932727E-4,0.0010803058976307511,3.7391320802271366E-4,-8.798213958740234,26.412572860717773,-32.311363220214844,-0.016643740236759186,-0.01909199357032776,0.054050445556640625,0.08187729,-0.1420922,9.761586,0
7,989.8151245117188,7.913276203908026E-5,-3.8449690327979624E-4,-8.243352640420198E-4,-8.561412811279297,26.581727981567383,-32.51172637939453,-0.002476625144481659,0.009640663862228394,0.03512096405029297,0.074665725,-0.16354075,9.778153,0
8,989.843017578125,6.121678743511438E-4,5.475431680679321E-4,2.4110113736242056E-4,-8.657609939575195,26.22844886779785,-32.78416442871094,-0.013369418680667877,-0.004754737019538879,0.03498363494873047,0.06897783,-0.15404394,9.766453,0
8,989.8151245117188,-1.9366396008990705E-4,5.486607551574707E-4,5.044665886089206E-4,-8.434507369995117,26.384347915649414,-32.288780212402344,-0.013320989906787872,-0.004772871732711792,0.03498077392578125,0.07616657,-0.15404436,9.768821,0
8,989.8174438476562,-2.0009779836982489E-4,-3.8408784894272685E-4,2.3358382168225944E-4,-9.007756233215332,26.164011001586914,-32.80342102050781,0.0010544732213020325,1.2156367301940918E-4,0.006572723388671875,0.06901592,-0.15404484,9.792495,0
8,989.8178100585938,6.603437941521406E-5,4.148895968683064E-4,-3.2810872653499246E-5,-8.518529891967773,26.0428524017334,-33.179656982421875,-0.00391358882188797,2.365708351135254E-4,0.03024768829345703,0.06425515,-0.14927876,9.764091,0
8,989.8226318359375,-7.330967346206307E-4,2.8176145860925317E-4,-2.992053050547838E-4,-8.231512069702148,25.468660354614258,-33.03632354736328,-0.00396408885717392,-0.004809558391571045,0.03497505187988281,0.06905395,-0.15404579,9.7735615,0
8,989.8226318359375,-7.330967346206307E-4,2.8176145860925317E-4,-2.992053050547838E-4,-8.186809539794922,25.563392639160156,-33.356689453125,4.383772611618042E-4,6.051361560821533E-5,0.039711952209472656,0.06668311,-0.17072925,9.768828,0
8,989.8101196289062,5.981161957606673E-4,2.8182094683870673E-4,-3.3046555472537875E-5,-8.812614440917969,26.24138832092285,-32.83802032470703,0.005165621638298035,-0.013897597789764404,0.04445075988769531,0.069091976,-0.1468969,9.771196,0
8,989.8101196289062,5.981161957606673E-4,2.8182094683870673E-4,-3.3046555472537875E-5,-8.812614440917969,26.24138832092285,-32.83802032470703,0.005164451897144318,-0.009120792150497437,0.049182891845703125,0.06911105,-0.15166393,9.766465,0
8,989.7947998046875,3.3161696046590805E-4,-1.1762313079088926E-4,2.331908035557717E-4,-8.713510513305664,26.491697311401367,-32.02111053466797,5.033090710639954E-4,6.433427333831787E-4,0.04445075988769531,0.07629973,-0.14928111,9.768834,0
8,989.7947998046875,3.3161696046590805E-4,-1.1762313079088926E-4,2.331908035557717E-4,-8.335564613342285,26.108442306518555,-32.59581756591797,-0.004278264939785004,0.015119478106498718,0.030248641967773438,0.071538985,-0.17311439,9.771202,0
8,989.8174438476562,4.645916633307934E-4,1.5564553905278444E-5,6.325860740616918E-4,-9.11971664428711,26.164289474487305,-32.401268005371094,-0.018774598836898804,9.408891201019287E-4,0.044452667236328125,0.076337814,-0.15643191,9.764102,0
8,989.8123779296875,8.636981947347522E-4,1.4878209913149476E-4,-2.9967690352350473E-4,-8.586467742919922,26.400232315063477,-32.49723815917969,-0.00919514149427414,-0.003755539655685425,0.03024768829345703,0.078746736,-0.14928254,9.778307,0
8,989.8223266601562,-9.407196193933487E-5,1.2954096018802375E-4,-4.694857925642282E-4,-8.777586936950684,26.69556999206543,-32.793006896972656,-0.013862356543540955,0.006138041615486145,0.044455528259277344,0.08115566,-0.16119942,9.771207,0
8,989.8173217773438,1.7206068150699139E-4,-2.699031902011484E-4,-6.0272216796875E-4,-8.571822166442871,25.570993423461914,-32.29700469970703,-0.018496766686439514,0.005694970488548279,0.03497505187988281,0.08117467,-0.1588166,9.768842,0
8,989.8096313476562,-3.6075443495064974E-4,3.959161986131221E-4,5.956206587143242E-4,-8.824109077453613,25.967227935791016,-32.82020568847656,-0.01334218680858612,-0.003980070352554321,0.039703369140625,0.069244206,-0.15881708,9.773578,0
8,989.81201171875,-6.272535538300872E-4,-0.0012019493151456118,3.2922622631303966E-4,-8.703292846679688,25.76395606994629,-32.28804016113281,-0.008405923843383789,-0.018423616886138916,0.03969764709472656,0.07643291,-0.15166774,9.775948,0
8,989.81201171875,-6.272535538300872E-4,-0.0012019493151456118,3.2922622631303966E-4,-8.703292846679688,25.76395606994629,-32.28804016113281,-0.027744248509407043,-0.0042102038860321045,0.01602458953857422,0.08123177,-0.15643466,9.780684,0
8,989.8223266601562,3.8169207982718945E-5,3.960056055802852E-4,-8.693524869158864E-4,-8.59339714050293,26.1304931640625,-32.711341857910156,9.277015924453735E-4,-0.013495028018951416,0.03969764709472656,0.071691215,-0.1445187,9.771216,0
8,989.8397827148438,-3.614880843088031E-4,2.6287746732123196E-4,-3.3679933403618634E-4,-8.071101188659668,25.723989486694336,-32.69105529785156,0.00571855902671814,-0.0089806467294693,0.03022480010986328,0.06932032,-0.14451918,9.787787,0
8,989.8145141601562,-8.943030843511224E-4,-3.4086033338098787E-6,-6.031937664374709E-4,-8.956560134887695,25.79042625427246,-32.63548278808594,-0.0278499573469162,3.921240568161011E-4,0.04442405700683594,0.08367875,-0.15643609,9.759383,0
8,989.8248291015625,1.707770861685276E-4,6.624108646064997E-4,1.95675267605111E-4,-8.464970588684082,25.934585571289062,-32.565696716308594,-0.008857175707817078,2.4153292179107666E-4,0.03968524932861328,0.07174823,-0.15643653,9.771222,0
8,989.8119506835938,3.743590787053108E-5,5.292827263474464E-4,3.2875468605197966E-4,-8.333499908447266,25.74162483215332,-32.574668884277344,-0.023011498153209686,0.019057273864746094,0.04441261291503906,0.08610672,-0.16597012,9.773591,0
8,989.8222045898438,-6.28537149168551E-4,-5.359509377740324E-4,6.236022454686463E-5,-8.294341087341309,25.46217155456543,-32.48736572265625,-0.013157464563846588,0.004435926675796509,0.01599597930908203,0.08373582,-0.16835389,9.787796,0
8,989.8193969726562,-6.287203868851066E-4,-1.3644750288221985E-4,8.612293750047684E-4,-8.137815475463867,25.450706481933594,-32.51081848144531,0.0012293234467506409,-1.8090009689331055E-4,0.04913806915283203,0.06941545,-0.15405467,9.76886,0
9,989.8193969726562,-9.627209510654211E-5,-2.695757139008492E-4,-3.372708160895854E-4,-8.582743644714355,26.140804290771484,-33.252479553222656,-0.003617316484451294,-0.010066911578178406,0.025458335876464844,0.06654385,-0.14689305,9.778285,0
9,989.81689453125,-2.2961373906582594E-4,1.2992792471777648E-4,-2.041915722656995E-4,-8.970120429992676,25.883087158203125,-32.638816833496094,-0.017167486250400543,-4.604458808898926E-4,0.039757728576660156,0.07320142,-0.16356343,9.759299,0
9,989.8346557617188,4.4456718023866415E-4,3.948815574403852E-4,-6.00069179199636E-4,-8.52559757232666,25.66719627380371,-32.694679260253906,-0.01238461583852768,0.013880088925361633,0.020822525024414062,0.080349505,-0.16832945,9.782969,0
9,989.7893676757812,-2.1981413010507822E-4,7.941268268041313E-4,3.326400474179536E-4,-8.79753303527832,26.150197982788086,-32.91199493408203,-0.0031133368611335754,-0.014635175466537476,0.030297279357910156,0.07793802,-0.15164599,9.79007,0
9,989.822021484375,1.7986749298870564E-4,5.277771269902587E-4,-5.993765080347657E-4,-8.336108207702637,26.47673225402832,-32.69426727294922,0.006301984190940857,0.004685074090957642,0.04450702667236328,0.06835687,-0.16117856,9.761661,0
9,989.81689453125,7.127071730792522E-4,2.614275726955384E-4,8.654500124976039E-4,-8.470377922058105,25.666322708129883,-32.85710906982422,-0.02712824195623398,0.0044592320919036865,0.025567054748535156,0.077894956,-0.15641147,9.780597,0
9,989.8321533203125,-4.85506490804255E-4,-4.922118932881858E-6,-1.9972448353655636E-4,-8.417223930358887,26.032262802124023,-33.040679931640625,0.006385497748851776,-0.00994090735912323,0.025568008422851562,0.05397433,-0.15164438,9.773494,0
9,989.802001953125,-6.18248712271452E-4,-2.7130552916787565E-4,-1.9954636809416115E-4,-8.637121200561523,26.405527114868164,-32.566734313964844,-0.00808832049369812,-8.177012205123901E-4,0.030300140380859375,0.075461894,-0.15879372,9.780593,0
9,989.802001953125,-6.18248712271452E-4,-2.7130552916787565E-4,-1.9954636809416115E-4,-8.637121200561523,26.405527114868164,-32.566734313964844,-0.012296028435230255,-0.0151909738779068,0.044501304626464844,0.06827062,-0.1540266,9.768754,0
9,989.8193969726562,-6.180409109219909E-4,-8.039709064178169E-4,2.0001656957902014E-4,-8.629511833190918,26.412893295288086,-32.95325469970703,-0.0028031542897224426,-0.019749999046325684,0.02556896209716797,0.06824902,-0.14210972,9.773486,0
9,989.8120727539062,3.142725909128785E-4,-2.713729627430439E-4,2.001055981963873E-4,-9.041943550109863,25.973674774169922,-32.325111389160156,-0.0026387348771095276,0.013342604041099548,0.044503211975097656,0.07061741,-0.17070848,9.761649,0
9,989.8142700195312,-2.181513700634241E-4,-5.0908338380395435E-6,-4.6559495967812836E-4,-8.805143356323242,26.142831802368164,-32.52546691894531,-0.0023786798119544983,-0.010557353496551514,0.030298233032226562,0.065816045,-0.15402505,9.768748,0
9,989.7965087890625,-3.511016257107258E-4,-5.124477866047528E-6,-4.6550590195693076E-4,-9.060611724853516,26.430208206176758,-32.194976806640625,-0.016762904822826385,0.008697852492332458,0.030304908752441406,0.07774395,-0.1707074,9.77348,0
9,989.8041381835938,1.8194597214460373E-4,-1.3834997662343085E-4,-4.6532778651453555E-4,-9.140205383300781,25.98720932006836,-32.61869812011719,-0.002071462571620941,-6.336420774459839E-4,0.03030872344970703,0.06577289,-0.15402398,9.768744,0
9,989.8041381835938,1.8194597214460373E-4,-1.3834997662343085E-4,-4.6532778651453555E-4,-9.140205383300781,25.98720932006836,-32.61869812011719,0.002636738121509552,0.008829131722450256,0.05397987365722656,0.07053113,-0.15640673,9.7616415,0
9,989.8118286132812,3.1531171407550573E-4,3.9424802525900304E-4,-3.32080788211897E-4,-8.800577163696289,26.147254943847656,-32.75738525390625,0.0023180022835731506,-0.029122471809387207,0.044518470764160156,0.0657298,-0.13972321,9.759273,0
9,989.8168334960938,3.1551963184028864E-4,6.605303497053683E-4,-3.319917304906994E-4,-9.268632888793945,26.183120727539062,-32.76434326171875,-0.02625361829996109,0.008961424231529236,0.03031635284423828,0.08004761,-0.15640566,9.771106,0
9,989.8244018554688,-2.1690432913601398E-4,-5.293236426950898E-6,2.0072917686775327E-4,-8.763782501220703,25.602481842041016,-33.11609649658203,-0.007137671113014221,-0.0049096643924713135,0.03979301452636719,0.07046643,-0.15640512,9.761636,0
9,989.8244018554688,-2.1690432913601398E-4,-5.293236426950898E-6,2.0072917686775327E-4,-8.621358871459961,26.051969528198242,-33.2413330078125,-0.0026355981826782227,0.004612088203430176,0.04926490783691406,0.077614546,-0.15878788,9.778204,0
9,989.8320922851562,4.490931751206517E-4,3.94146831240505E-4,6.002921145409346E-4,-8.367549896240234,25.65720558166504,-32.795433044433594,-0.0077294036746025085,0.0046171098947525024,0.03506755828857422,0.07520309,-0.1635539,9.775834,0
9,989.8168334960938,4.982727114111185E-5,9.267448331229389E-4,-4.648824979085475E-4,-8.970663070678711,26.251375198364258,-32.737266540527344,0.006600238382816315,0.009240150451660156,0.04453754425048828,0.053672433,-0.15878686,9.763995,0
9,989.82958984375,3.163509536534548E-4,0.0013261849526315928,-6.531938561238348E-5,-8.192055702209473,25.821348190307617,-32.524147033691406,-0.01732877641916275,-0.014363929629325867,0.011401176452636719,0.07515997,-0.14686987,9.780564,0
9,989.8218383789062,3.165589878335595E-4,1.2772968329954892E-4,3.34243435645476E-4,-8.822725296020508,25.86278533935547,-32.19843292236328,0.0018219277262687683,-0.014237135648727417,0.0019359588623046875,0.07274854,-0.15163594,9.794766,0
9,989.844482421875,-3.488152287900448E-4,1.276622642762959E-4,-4.645259177777916E-4,-8.538614273071289,25.39156723022461,-32.59956359863281,-0.007924795150756836,0.00499938428401947,0.011412620544433594,0.06794715,-0.1564019,9.775826,0
9,989.844482421875,-3.488152287900448E-4,1.276622642762959E-4,-4.645259177777916E-4,-8.538614273071289,25.39156723022461,-32.59956359863281,0.0016704350709915161,0.00974602997303009,0.04928779602050781,0.06792557,-0.16116801,9.761622,0
10,989.8218994140625,8.500220719724894E-4,-1.387210941174999E-4,-3.311899199616164E-4,-8.771093368530273,26.227252960205078,-32.30470275878906,-0.0035174861550331116,0.0051987916231155396,0.044503211975097656,0.075375855,-0.15640825,9.768749,0
10,989.8218994140625,8.500220719724894E-4,-1.387210941174999E-4,-3.311899199616164E-4,-8.771093368530273,26.227252960205078,-32.30470275878906,0.001043066382408142,0.00499098002910614,0.03503227233886719,0.061335087,-0.16118222,9.775878,0
10,989.8212890625,-8.353253360837698E-4,2.960409037768841E-4,3.7176659679971635E-4,-8.627447128295898,26.04607582092285,-32.93211364746094,0.0010547265410423279,-0.004563719034194946,0.030297279357910156,0.066117436,-0.14688256,9.771144,0
10,989.7989501953125,3.630714491009712E-4,5.62360801268369E-4,6.380719132721424E-4,-8.877264976501465,25.601285934448242,-32.636634826660156,-0.0038741976022720337,0.005029633641242981,0.049236297607421875,0.0756796,-0.16833219,9.764043,0
10,989.8193969726562,-5.690584657713771E-4,6.95522699970752E-4,3.717455838341266E-4,-8.7644624710083,25.86485481262207,-32.515472412109375,6.225332617759705E-4,0.018987655639648438,0.04449939727783203,0.07090229,-0.16356564,9.768777,0
10,989.80908203125,9.670692088548094E-5,-1.0342095629312098E-4,5.048930761404335E-4,-8.200507164001465,25.550134658813477,-32.66094207763672,0.00578693300485611,-0.009823918342590332,0.04922676086425781,0.06373513,-0.1587992,9.76641,0
10,989.80615234375,-5.691074766218662E-4,-9.023647289723158E-4,-2.7749163564294577E-5,-8.678642272949219,26.419660568237305,-33.10004425048828,-0.013141065835952759,0.0043225884437561035,0.02555084228515625,0.07329726,-0.16356575,9.780614,0
10,989.8262939453125,-7.02289748005569E-4,-2.3657095152884722E-4,-2.9407552210614085E-4,-8.666604995727539,26.325529098510742,-33.01941680908203,0.0013452768325805664,0.004315808415412903,0.030284881591796875,0.063740194,-0.15403274,9.778246,0
10,989.8035888671875,9.663357923272997E-5,-1.0340911103412509E-4,-2.940859994851053E-4,-8.285453796386719,26.471437454223633,-32.624778747558594,0.01573842018842697,0.004320502281188965,0.03975200653076172,0.066132665,-0.15641603,9.771145,0
10,989.8338623046875,-3.0286493711173534E-4,-7.691948558203876E-4,-5.604123580269516E-4,-8.761419296264648,25.867801666259766,-32.670082092285156,-0.0031230077147483826,0.004305779933929443,0.035015106201171875,0.061355382,-0.16594926,9.778247,0
10,989.8212890625,2.2974250896368176E-4,-5.028749583289027E-4,3.716826904565096E-4,-8.549673080444336,25.8554630279541,-32.85595703125,0.0019231662154197693,0.004183858633041382,0.030277252197265625,0.06852764,-0.16356596,9.77588,0
10,989.8290405273438,2.2969349811319262E-4,-5.028670420870185E-4,-2.781202783808112E-5,-8.899382591247559,26.529077529907227,-33.14942169189453,0.0022878721356391907,-3.9477646350860596E-4,0.05868339538574219,0.07331002,-0.15641627,9.766412,0
10,989.8290405273438,2.2969349811319262E-4,-5.028670420870185E-4,-2.781202783808112E-5,-8.899382591247559,26.529077529907227,-33.14942169189453,-0.012012235820293427,0.00421026349067688,0.030275344848632812,0.0757024,-0.15403304,9.77588,0
10,989.8368530273438,-5.692783743143082E-4,-2.365471882512793E-4,2.384933177381754E-4,-8.630491256713867,26.043128967285156,-32.777496337890625,0.007025010883808136,-0.0049742162227630615,0.05395221710205078,0.06614536,-0.15641639,9.764045,0
10,989.816162109375,4.959604702889919E-4,-3.697011270560324E-4,-1.609909231774509E-4,-8.514644622802734,26.30964469909668,-32.810943603515625,0.002407871186733246,0.00446338951587677,0.035012245178222656,0.063758016,-0.16594955,9.773514,0
10,989.8211669921875,-3.66957247024402E-5,-5.028551095165312E-4,-2.7843459974974394E-5,-8.69264030456543,25.774267196655273,-32.82917785644531,0.002717427909374237,0.004226773977279663,0.053943634033203125,0.068540335,-0.16356632,9.754576,0
10,989.8085327148438,9.643776866141707E-5,-1.0337727144360542E-4,-8.268016972579062E-4,-8.410593032836914,25.66986656188965,-33.25144958496094,-0.002366684377193451,-0.005348026752471924,0.049210548400878906,0.070932746,-0.15165001,9.761678,0
10,989.7933959960938,-3.030605148524046E-4,6.955742719583213E-4,1.0529349674470723E-4,-8.561712265014648,25.949596405029297,-32.93659210205078,-0.01182093471288681,0.008840382099151611,0.035003662109375,0.078105,-0.16356644,9.759312,0
10,989.8416137695312,-4.362429026514292E-4,1.629465405130759E-4,3.7159884232096374E-4,-8.181402206420898,25.8316593170166,-33.065277099609375,0.0024522170424461365,-0.0053739994764328,0.053943634033203125,0.068547934,-0.15641668,9.768781,0
10,989.8438720703125,-4.3626734986901283E-4,-3.696812782436609E-4,-2.7885427698493004E-5,-8.531547546386719,25.767221450805664,-33.08454132080078,0.0028749555349349976,-0.0011103451251983643,0.03026103973388672,0.06377071,-0.15641674,9.778249,0
10,989.8009643554688,-1.6997601778712124E-4,-9.023090242408216E-4,1.0526206460781395E-4,-8.466492652893066,25.933115005493164,-32.48839569091797,-0.01589537411928177,0.017785921692848206,0.03972339630126953,0.0781126,-0.17309979,9.764047,0
10,989.8136596679688,-1.7000023217406124E-4,-2.3651540686842054E-4,-0.0012263280805200338,-8.472878456115723,25.29508399963379,-32.60404968261719,-0.011023484170436859,-0.0010672807693481445,0.030257225036621094,0.07333535,-0.16594997,9.775883,0
10,989.82861328125,-3.6866855225525796E-5,-2.3651144874747843E-4,-2.791691804304719E-5,-8.580816268920898,25.668073654174805,-32.532257080078125,0.003403864800930023,-0.010743990540504456,0.025519371032714844,0.06616819,-0.15403369,9.782985,0
10,989.808349609375,-4.363652551546693E-4,-1.0334959370084107E-4,-4.274012171663344E-4,-8.331977844238281,25.74309730529785,-32.6519775390625,-0.006410367786884308,0.003412589430809021,0.034987449645996094,0.073340416,-0.16118354,9.780618,0
10,989.7933349609375,-3.691574966069311E-5,-5.028193700127304E-4,-6.937275757081807E-4,-8.623018264770508,25.944580078125,-32.46495056152344,-0.02052418142557144,-0.006233915686607361,0.030249595642089844,0.08529252,-0.15403381,9.766414,0
11,989.8111572265625,-1.7009825387503952E-4,0.0012282378738746047,5.046834703534842E-4,-8.447525024414062,26.10871696472168,-32.19365692138672,0.009880401194095612,-0.0015315264463424683,0.03986167907714844,0.06938785,-0.15399536,9.773373,0
11,989.8111572265625,-1.7009825387503952E-4,0.0012282378738746047,5.046834703534842E-4,-8.447525024414062,26.10871696472168,-32.19365692138672,-0.013952851295471191,-0.01560753583908081,0.025665283203125,0.0717181,-0.1516107,9.775734,0
11,989.8084106445312,6.387801840901375E-4,2.7733563911169767E-5,1.1840596562251449E-4,-8.409750938415527,25.9337100982666,-32.728126525878906,0.005196340382099152,0.0033960044384002686,-0.0027341842651367188,0.06209892,-0.15875897,9.799401,0
11,989.8362426757812,-2.9275077395141125E-4,1.6079825581982732E-4,-2.8082175413146615E-4,-8.57777214050293,25.671018600463867,-32.686866760253906,1.4960765838623047E-4,-0.006353780627250671,0.0304107666015625,0.06681907,-0.15637428,9.7780905,0
11,989.8362426757812,-2.9275077395141125E-4,1.6079825581982732E-4,-2.8082175413146615E-4,-8.57777214050293,25.671018600463867,-32.686866760253906,2.0018965005874634E-4,0.007802188396453857,0.03987884521484375,0.069149375,-0.15875614,9.761516,0
11,989.821044921875,-5.584919126704335E-4,2.938628604169935E-4,-5.468913004733622E-4,-8.557283401489258,25.84809684753418,-32.46942901611328,-0.013958081603050232,0.002745985984802246,0.020941734313964844,0.07147968,-0.16113788,9.77808,0
11,989.8207397460938,-1.58443464897573E-4,6.932433461770415E-4,-1.4717126032337546E-4,-8.787015914916992,26.054594039916992,-32.754051208496094,-0.009350687265396118,0.0025402605533599854,0.02094554901123047,0.07380995,-0.15875319,9.77334,0
11,989.8133544921875,-6.899263244122267E-4,-3.722066758200526E-4,-2.7983664767816663E-4,-8.781608581542969,26.322858810424805,-32.462646484375,-0.008950397372245789,0.007677808403968811,0.030427932739257812,0.07136047,-0.16351831,9.775701,0
11,989.805908203125,7.753856480121613E-4,-2.3914207122288644E-4,2.530414203647524E-4,-8.465513229370117,26.302875518798828,-32.664146423339844,-0.004071637988090515,-0.0065071433782577515,0.03516674041748047,0.06652105,-0.15398362,9.759126,0
11,989.8084106445312,3.7648656871169806E-4,2.7080619474872947E-5,-1.4618615387007594E-4,-8.740928649902344,26.04488182067871,-32.45264434814453,-0.00853731483221054,0.0028250962495803833,0.030431747436523438,0.07363111,-0.15398222,9.761487,0
11,989.8134765625,-6.882023299112916E-4,-0.0011714340653270483,9.193236473947763E-4,-8.403120040893555,25.571313858032227,-32.93889617919922,-0.003264792263507843,0.0023589879274368286,0.025691986083984375,0.06640175,-0.15159753,9.778052,0
11,989.7933349609375,-5.544697633013129E-4,-5.057377275079489E-4,-1.2535660061985254E-5,-9.06547737121582,25.79365348815918,-32.38793182373047,-0.003176666796207428,-0.016574427485466003,0.025699615478515625,0.06873202,-0.14921269,9.773313,0
11,989.7958374023438,-5.538951372727752E-4,2.6800757041200995E-5,7.866581436246634E-4,-9.140205383300781,25.98720932006836,-32.61869812011719,0.011438645422458649,-0.002276510000228882,0.04937458038330078,0.06867242,-0.15397784,9.766206,0
11,989.8236694335938,1.1246895883232355E-4,-0.0010385559871792793,3.8743065670132637E-4,-8.748401641845703,26.143434524536133,-32.76519775390625,-0.0027308911085128784,-0.0022382140159606934,0.030445098876953125,0.066222936,-0.16112626,9.778037,0
11,989.8258056640625,1.1926444130949676E-4,-7.378919690381736E-5,-5.785145331174135E-4,-8.803621292114258,26.144304275512695,-32.60276794433594,-0.007126234471797943,-0.0021841078996658325,0.039916038513183594,0.06855321,-0.14682505,9.763827,0
11,989.8306884765625,7.856287993490696E-4,-3.401982830837369E-4,-1.7879452207125723E-4,-8.62051773071289,26.315813064575195,-32.71800994873047,-0.007406026124954224,0.0026250332593917847,0.03518962860107422,0.07088351,-0.16112328,9.770924,0
11,989.821044921875,-4.122179525438696E-4,1.9234024512115866E-4,-4.539036308415234E-5,-8.555462837219238,26.481706619262695,-32.121864318847656,-0.012068189680576324,-0.006800562143325806,0.044666290283203125,0.07560372,-0.15635529,9.770918,0
11,989.8181762695312,-6.779591785743833E-4,1.9224690913688391E-4,2.211717946920544E-4,-8.270809173583984,25.64219856262207,-32.42454528808594,0.016762301325798035,0.01680588722229004,0.05413627624511719,0.06598449,-0.18018657,9.759076,0
11,989.8181762695312,3.8787894300185144E-4,-3.4047814551740885E-4,0.0011535236844792962,-9.034875869750977,26.349328994750977,-32.810089111328125,0.0024571865797042847,-0.0025093108415603638,0.02573394775390625,0.063534975,-0.1587356,9.775642,0
11,989.8331909179688,-2.773363667074591E-4,4.5837624929845333E-4,-4.465159145183861E-5,-8.880851745605469,25.966630935668945,-32.580474853515625,0.002551041543483734,0.0024590641260147095,0.03994274139404297,0.068255186,-0.15635091,9.766168,0
11,989.8080444335938,3.8902784581296146E-4,5.880913158762269E-5,-5.770369898527861E-4,-8.984222412109375,26.344038009643555,-32.7406005859375,-0.011977098882198334,-0.0022903233766555786,0.030481338500976562,0.075365186,-0.16111591,9.770896,0
11,989.8312377929688,7.890764391049743E-4,4.5818969374522567E-4,7.547885179519653E-4,-8.189555168151855,26.19258689880371,-32.77720642089844,-0.006979763507843018,-0.011503323912620544,0.035228729248046875,0.082475305,-0.15158138,9.777992,0
11,989.8179321289062,-9.29660745896399E-6,-7.453534635715187E-5,0.001021350733935833,-8.562690734863281,25.579832077026367,-32.760841369628906,-0.02606908231973648,-0.01598706841468811,0.011566162109375,0.08480561,-0.15396324,9.7779875,0
11,989.822998046875,6.570677505806088E-4,1.9168725702911615E-4,-7.094563916325569E-4,-8.610001564025879,26.2202091217041,-32.56006622314453,0.002488337457180023,0.003012344241142273,0.04944419860839844,0.06562674,-0.16587809,9.761411,0
12,989.797607421875,3.913264663424343E-4,-3.4103781217709184E-4,-1.7657820717431605E-4,-8.426355361938477,26.02342414855957,-32.57685089111328,0.009576857089996338,-0.010786116123199463,0.04920387268066406,0.071735084,-0.15637758,9.7639,0
12,989.8331909179688,3.6538063432089984E-4,8.61595559399575E-4,2.117759722750634E-4,-8.40257740020752,25.203022003173828,-32.84044647216797,-0.0051544830203056335,0.017788201570510864,0.049201011657714844,0.07792711,-0.1683287,9.7663965,0
12,989.8331909179688,3.6538063432089984E-4,8.61595559399575E-4,2.117759722750634E-4,-8.40257740020752,25.203022003173828,-32.84044647216797,-2.4993717670440674E-4,-0.019874364137649536,0.044467926025390625,0.06602964,-0.13734728,9.764033,0
12,989.9248657226562,0.006356485188007355,-0.003798769786953926,-5.876013310626149E-4,-8.321163177490234,26.279626846313477,-32.06916046142578,-0.01326093077659607,0.001609697937965393,0.02555370330810547,0.07325134,-0.16594788,9.778242,0
12,989.8916015625,-0.004562966525554657,0.0029923669062554836,3.442894376348704E-4,-8.600028038024902,26.49289321899414,-32.500572204589844,-0.0048956498503685,-0.014710932970046997,0.04919719696044922,0.068523526,-0.14449969,9.764044,0
12,989.8916015625,-0.004562966525554657,0.0029923669062554836,3.442894376348704E-4,-8.600028038024902,26.49289321899414,-32.500572204589844,-0.00976291298866272,0.004070669412612915,0.039722442626953125,0.06857556,-0.1659505,9.764049,0
12,989.7112426757812,-0.001101361820474267,5.956051754765213E-4,-5.5399228585883975E-5,-8.440458297729492,26.484375,-32.67863464355469,-0.019267290830612183,0.00400128960609436,0.0255126953125,0.07579726,-0.16356847,9.773522,0
12,989.7874755859375,3.6287421244196594E-4,1.9621280080173165E-4,0.001409123302437365,-8.57388687133789,25.93781089782715,-32.318153381347656,-0.003949262201786041,-0.012368366122245789,0.020809173583984375,0.0782392,-0.15165332,9.792464,0
12,989.9599609375,0.005955005995929241,-0.0033989702351391315,-4.5530268107540905E-4,-8.530406951904297,26.663204193115234,-32.13634490966797,0.009797364473342896,0.014775186777114868,0.04919147491455078,0.06634167,-0.16357103,9.76643,0
12,989.8480224609375,-0.004831288009881973,0.0019274287624284625,-1.8920170259661973E-4,-8.659812927246094,26.489351272583008,-32.106231689453125,-0.004539892077445984,0.004151299595832825,0.034964561462402344,0.07117349,-0.15165594,9.778271,0
12,989.7615966796875,-9.702090173959732E-4,-8.68806557264179E-4,7.689936319366097E-5,-8.300536155700684,26.562623977661133,-32.550804138183594,-0.004068896174430847,-0.005073145031929016,0.020758628845214844,0.068835616,-0.15642372,9.78301,0
12,989.7874755859375,3.608690749388188E-4,-0.001001883065328002,-8.554211817681789E-4,-8.829898834228516,26.59347152709961,-32.08611297607422,-0.004358358681201935,-0.014857694506645203,0.025485992431640625,0.076057315,-0.14689192,9.775912,0
12,989.7874755859375,3.608690749388188E-4,-0.001001883065328002,-8.554211817681789E-4,-8.186349868774414,26.721750259399414,-31.8078670501709,-0.018374480307102203,0.009370312094688416,0.04442310333251953,0.08327904,-0.17072597,9.768816,0
12,989.8302001953125,-4.385798529256135E-4,9.955673012882471E-4,-3.2300411839969456E-4,-8.429536819458008,25.914562225341797,-31.723161697387695,7.444620132446289E-4,0.018776297569274902,0.049149513244628906,0.076161325,-0.17072728,9.775924,0
12,989.8475952148438,7.593403570353985E-4,-2.0277273142710328E-4,2.0941277034580708E-4,-8.259856224060059,26.284643173217773,-32.540809631347656,-0.008771747350692749,-0.009890347719192505,0.030205726623535156,0.07382345,-0.15166226,9.771192,0
12,989.81494140625,3.5886370460502803E-4,-6.945198401808739E-5,7.582508260384202E-5,-8.266923904418945,25.90898895263672,-32.05583190917969,0.005416639149188995,0.009317129850387573,0.04913806915283203,0.0690957,-0.16357997,9.759362,0
12,989.8251342773438,-4.1111401515081525E-5,4.6326115261763334E-4,4.750840598717332E-4,-8.651660919189453,26.1284236907959,-32.39430236816406,-0.004404127597808838,0.00450703501701355,0.053870201110839844,0.07392746,-0.16119796,9.77357,0
12,989.8048095703125,-4.1612685890868306E-5,1.9702657300513238E-4,-3.240783989895135E-4,-8.51728343963623,25.83249282836914,-31.858808517456055,-0.013816624879837036,0.013914927840232849,0.04912757873535156,0.07158959,-0.15643269,9.754636,1
12,989.8048095703125,-4.1612685890868306E-5,1.9702657300513238E-4,-3.240783989895135E-4,-8.51728343963623,25.83249282836914,-31.858808517456055,0.005437590181827545,0.028495654463768005,0.04439353942871094,0.071641594,-0.17073363,9.766477,1
12,989.8480224609375,0.0015552801778540015,-6.912653043400496E-5,-1.913501473609358E-4,-8.148033142089844,26.178449630737305,-32.24388885498047,0.010112933814525604,-0.009175136685371399,0.039658546447753906,0.062134027,-0.15405196,9.768849,1
12,989.8502197265625,6.226734258234501E-4,-7.348348735831678E-4,-5.8406993048265576E-5,-8.273990631103516,25.533334732055664,-31.57085609436035,9.958893060684204E-4,0.004801139235496521,0.04438018798828125,0.07652542,-0.16358635,9.778323,1
12,989.8123779296875,-4.430916451383382E-4,-6.015955004841089E-4,-8.575693937018514E-4,-8.295022010803223,25.724546432495117,-31.88673973083496,-0.0179782435297966,0.009848952293395996,0.015974044799804688,0.08613706,-0.16120437,9.780696,1
12,989.837646484375,8.903883281163871E-5,-8.678299491293728E-4,-5.883668200112879E-5,-8.48019027709961,25.91985511779785,-31.792646408081055,6.368309259414673E-4,0.01458442211151123,0.030172348022460938,0.06467992,-0.16597214,9.783067,1
12,989.8099975585938,2.2169560543261468E-4,9.964624186977744E-4,-5.916834343224764E-4,-8.251543045043945,26.449941635131836,-31.704931259155273,0.029167301952838898,2.744346857070923E-4,0.025437355041503906,0.052782416,-0.15167376,9.783072,1
12,989.81982421875,0.002884353045374155,-8.676672005094588E-4,6.065233610570431E-4,-8.067354202270508,25.88486671447754,-31.623266220092773,0.03708779811859131,0.02240636944770813,-0.01712799072265625,0.06717384,-0.16120815,9.799647,1
13,989.8680419921875,0.01912911981344223,-0.026700224727392197,0.001671571983024478,-8.383992195129395,26.273141860961914,-31.52020835876465,-0.0367840901017189,-0.01934446394443512,0.120330810546875,0.12736374,-0.25887474,9.775798,1
13,989.8322143554688,-0.03718762844800949,0.029091481119394302,0.02045072615146637,-8.53472900390625,25.65835952758789,-32.23085021972656,0.037184007465839386,0.5370311141014099,-0.05093955993652344,0.019790292,-0.34943876,9.934396,1
13,989.7511596679688,-0.12692643702030182,-0.03642378747463226,0.12232068181037903,-8.5669584274292,26.207551956176758,-32.10404968261719,-0.10114313662052155,-0.4166182577610016,-0.52117919921875,0.09862912,0.108151406,10.2918415,1
13,989.7662353515625,-0.20402459800243378,0.12016990035772324,0.02058812975883484,-8.525979995727539,26.561708450317383,-31.6691837310791,0.17516353726387024,-0.1676233410835266,0.3282346725463867,-0.042402998,-0.5019672,9.186357,1
13,989.7918701171875,-0.38764914870262146,0.17529723048210144,-0.07981283962726593,-8.290946006774902,27.729822158813477,-31.465810775756836,-0.19739557802677155,-0.3297841548919678,-0.11928176879882812,0.38297164,-0.6187471,10.315509,1
13,989.7916259765625,-0.9248080253601074,-0.29488345980644226,0.1392320841550827,-8.404672622680664,28.72905158996582,-30.65993309020996,-0.04454852640628815,-0.11422699689865112,0.20816421508789062,-0.009000212,-1.1049352,9.870473,1
13,989.8168334960938,-0.7050971388816833,-0.01937974989414215,0.3477575480937958,-8.498208999633789,29.273221969604492,-30.06148338317871,0.08813247084617615,0.0889207124710083,-0.7901544570922852,-0.056826144,-1.331346,9.894141,1
13,989.8017578125,-0.5467720627784729,0.4408140182495117,0.1734539121389389,-7.676122665405273,29.568586349487305,-29.666555404663086,-0.04279671609401703,-0.35546159744262695,0.47870540618896484,-0.054464176,-1.5243907,9.673989,1
13,989.8193969726562,-0.5820586085319519,0.3318907916545868,0.1749187558889389,-7.222414493560791,30.99410057067871,-29.434965133666992,-0.05806592106819153,-0.473876953125,-0.2425374984741211,-0.19549629,-1.214564,9.344945,1
13,989.8424072265625,-0.6879189014434814,0.1282922625541687,0.4533521234989166,-6.667835235595703,31.67096519470215,-28.79018211364746,-0.055918872356414795,0.8568377494812012,2.168917179107666,-0.35803753,-2.8876247,8.639516,1
13,989.8499145507812,-0.9242737293243408,-0.5556069612503052,0.4361749589443207,-7.300356864929199,34.238006591796875,-26.61037826538086,-0.2199598103761673,-0.737541675567627,-1.0887317657470703,0.2919879,-2.0582433,10.438588,1
13,989.8472900390625,-0.8855245113372803,-0.0786353051662445,0.2733229398727417,-7.107662200927734,35.57670593261719,-25.640623092651367,0.4359666109085083,-0.03434610366821289,0.21540164947509766,-0.40828127,-2.6993446,9.292859,1
13,989.8826904296875,-0.9100252985954285,-0.02151058241724968,0.06519719958305359,-7.671457767486572,36.41764831542969,-24.37120246887207,-0.15592879056930542,-0.16003060340881348,-0.10241508483886719,0.15570769,-3.1188006,9.3686075,1
13,989.8316040039062,-0.9475756287574768,-0.03935379534959793,0.09369311481714249,-7.156717300415039,37.63634490966797,-23.213098526000977,0.14563171565532684,-0.14020824432373047,-0.22309017181396484,-0.09287003,-3.5001245,9.122416,1
13,989.8316040039062,-0.9475756287574768,-0.03935379534959793,0.09369311481714249,-7.156717300415039,37.63634490966797,-23.213098526000977,-0.1416407823562622,-0.02812671661376953,0.23804569244384766,0.24407828,-3.9672465,8.566121,1
13,989.8140258789062,-0.950637936592102,-0.0093932980671525,0.030176883563399315,-7.664314270019531,38.84617614746094,-22.281858444213867,-0.06489291042089462,-0.013042449951171875,-0.013628005981445312,0.06719756,-4.162675,8.911729,1
13,989.7960815429688,-0.7441093921661377,-0.04334866255521774,0.08570398390293121,-7.246047019958496,39.49974822998047,-19.9980411529541,0.251106321811676,-0.032193660736083984,-0.08095073699951172,-0.21722868,-4.4176846,8.795733,1
13,989.7960815429688,-0.7441093921661377,-0.04334866255521774,0.08570398390293121,-7.246047019958496,39.49974822998047,-19.9980411529541,0.11274608969688416,-0.017302513122558594,0.09421920776367188,0.021733612,-4.744193,8.400409,1
13,989.8644409179688,-0.6306583285331726,0.08248551189899445,-0.15025165677070618,-7.626173496246338,40.564208984375,-16.922380447387695,-0.22524958848953247,0.04753541946411133,0.21315670013427734,0.2224575,-4.9944367,8.277311,1
13,989.8644409179688,-0.6306583285331726,0.08248551189899445,-0.15025165677070618,-7.626173496246338,40.564208984375,-16.922380447387695,-0.28296127915382385,0.09115982055664062,0.5512127876281738,0.41123188,-5.1755652,7.801501,1
13,989.8314819335938,-0.3683370053768158,-0.05759669095277786,0.0960906445980072,-8.035804748535156,41.12836456298828,-16.122425079345703,-0.5649988651275635,0.07044267654418945,0.3776230812072754,0.58327687,-5.1493483,8.116337,1
13,989.8492431640625,0.09518612176179886,-0.3582673966884613,0.59117192029953,-6.699162483215332,41.695899963378906,-17.51637077331543,0.364216148853302,-0.019388675689697266,0.2868537902832031,-0.057244778,-4.992051,8.248898,1
13,989.8492431640625,0.09518612176179886,-0.3582673966884613,0.59117192029953,-6.699162483215332,41.695899963378906,-17.51637077331543,0.5836822986602783,-0.15242242813110352,0.18020343780517578,-0.41097814,-4.505862,8.459577,1
13,989.8411254882812,0.47535258531570435,-0.4304390549659729,0.7339175939559937,-4.589862823486328,41.933433532714844,-19.087053298950195,-0.13071340322494507,0.031339168548583984,0.42264461517333984,-0.035791487,-4.465346,8.6110735,1
14,989.8411254882812,0.47535258531570435,-0.4304390549659729,0.7339175939559937,-4.589862823486328,41.933433532714844,-19.087053298950195,-0.3621037006378174,1.1126317977905273,0.711756706237793,0.33222556,-5.087381,8.090287,1
14,989.9375610351562,0.7910706400871277,-0.41832178831100464,0.4972960650920868,-4.654672622680664,40.767112731933594,-20.00961685180664,-0.05144047737121582,-0.6817367076873779,-0.3931617736816406,0.58074737,-3.4214683,9.060838,1
14,989.91748046875,1.1456704139709473,-1.8973071575164795,0.7000957727432251,-4.960137367248535,40.377098083496094,-22.172269821166992,-0.5374850630760193,-0.17248749732971191,-5.622078895568848,1.199704,-3.6288128,12.625842,1
14,990.0010375976562,1.201863408088684,-0.6448234915733337,1.0546953678131104,-3.636404514312744,39.562660217285156,-23.098440170288086,-0.9608243703842163,-0.8264000415802002,-0.9568653106689453,0.5520128,-2.816114,9.349631,1
14,990.0010375976562,1.201863408088684,-0.6448234915733337,1.0546953678131104,-3.636404514312744,39.562660217285156,-23.098440170288086,0.5790796875953674,-1.315783977508545,1.762009620666504,-0.49240226,-2.213144,7.38485,1
14,989.9501342773438,0.8457996249198914,0.33175671100616455,-0.5274869799613953,-4.0901360511779785,37.71685028076172,-25.153060913085938,1.2509386539459229,0.09666967391967773,0.38468456268310547,-0.642994,-2.992475,10.033748,1
14,989.8587036132812,0.4645686447620392,-0.6938258409500122,-0.5068473219871521,-5.192747116088867,37.52735900878906,-25.20301628112793,0.8987417221069336,0.4912147521972656,-1.349919319152832,-0.40164185,-3.395249,10.814921,1
14,989.8991088867188,-0.5423713326454163,0.642946720123291,0.047622423619031906,-4.510146617889404,38.48252868652344,-25.210126876831055,0.5077405571937561,-0.725757360458374,-3.391674041748047,-0.09576225,-2.4872189,11.970114,1
14,989.9323120117188,0.20770753920078278,-0.010192988440394402,0.1902346909046173,-4.818387985229492,37.50945281982422,-25.7215633392334,0.3172392249107361,-0.014810323715209961,-0.9065055847167969,-0.30132174,-2.7517624,10.38882,1
14,989.8992919921875,0.5354095697402954,0.15705333650112152,0.020857905969023705,-5.36451530456543,37.103790283203125,-26.229543685913086,0.6042113304138184,-0.6002750396728516,-1.5919876098632812,-0.19858389,-2.5539494,11.2055025,1
14,989.8226928710938,0.23101072013378143,-0.017250433564186096,0.034839604049921036,-5.566448211669922,36.86259460449219,-27.108125686645508,0.22496026754379272,-0.9790947437286377,-3.443985939025879,0.19572207,-1.6220868,12.800995,1
14,989.903564453125,0.8213000893592834,-1.2287214994430542,-0.038929782807826996,-7.989664077758789,35.963844299316406,-27.83689308166504,0.8916053771972656,1.3966327905654907,-1.6623611450195312,0.31040943,-3.1998162,11.385406,1
14,989.9038696289062,1.7508759498596191,-0.6782465577125549,0.08211091160774231,-9.348363876342773,34.37715148925781,-30.2291316986084,0.7126561403274536,0.3515740633010864,-0.7708616256713867,0.35339975,-1.3384752,10.331998,1
14,989.791748046875,1.6262403726577759,-0.12470903992652893,0.42059850692749023,-9.598119735717773,31.985403060913086,-33.20704650878906,0.8634058237075806,0.8019018173217773,-1.1476116180419922,0.35576177,-1.2979589,11.148679,1
14,989.8424072265625,1.848214864730835,-0.571587085723877,0.1558806151151657,-10.372566223144531,28.52259635925293,-35.57953643798828,0.33061885833740234,0.728942334651947,-0.7968053817749023,0.6162331,-0.5948911,10.500064,1
14,989.8040161132812,1.678572177886963,0.10512148588895798,0.22152762115001678,-10.421804428100586,25.26423454284668,-37.228919982910156,0.8035110235214233,0.7804149389266968,-0.7361431121826172,0.26488966,0.0605112,10.111839,1
14,989.8295288085938,1.815591812133789,-0.1794370859861374,0.21979667246341705,-11.364081382751465,23.277204513549805,-39.50792694091797,0.6177549362182617,0.3582228422164917,-1.3155231475830078,0.97227275,0.7874119,11.638682,1
14,989.7987670898438,1.911598801612854,-0.3346993029117584,0.1783846765756607,-11.587972640991211,20.11855125427246,-40.9052734375,1.9255039691925049,2.451660633087158,-0.36012935638427734,-0.63854903,0.043829575,10.568706,1
14,989.8013916015625,1.590821623802185,1.3370985984802246,0.03523999825119972,-9.355055809020996,16.78470802307129,-42.90190887451172,1.3449792861938477,2.558267116546631,-0.22216796875,-0.9205854,0.49665323,9.685736,1
14,989.737548828125,1.0206397771835327,1.7802481651306152,0.8192741274833679,-6.069884300231934,14.277788162231445,-44.493194580078125,1.434133768081665,1.5703927278518677,1.785712718963623,-1.1094155,1.721659,7.5552506,1
14,989.7020263671875,1.4099936485290527,0.9006067514419556,0.9467063546180725,-3.590714931488037,12.174383163452148,-44.90612030029297,0.6119648814201355,1.2953274250030518,0.3715677261352539,-0.6051742,2.3413122,8.878514,1
14,989.7604370117188,0.9858861565589905,0.6474734544754028,0.8725374937057495,-2.446796417236328,10.190954208374023,-46.198081970214844,0.9018704891204834,1.880057692527771,2.135519027709961,-1.1524897,1.9623716,6.4402933,1
14,989.73486328125,0.9158452749252319,0.5619860887527466,0.8421775698661804,-0.7814006805419922,7.957481384277344,-46.17005920410156,0.6273186802864075,1.4676949977874756,2.0772438049316406,-0.46422577,2.9013836,8.028684,1
14,989.694091796875,0.7045238614082336,-0.28090375661849976,0.9785314798355103,-0.5353612899780273,7.029134750366211,-46.461585998535156,0.5026148557662964,1.1686325073242188,0.5490837097167969,-0.55745983,2.9847991,7.889016,1
14,989.6660766601562,0.06629838794469833,0.37596431374549866,0.9202085137367249,1.4954538345336914,6.507391929626465,-46.436065673828125,0.7624677419662476,0.7185847759246826,1.1809983253479004,-0.77257895,3.4257064,7.6570272,1
15,989.6660766601562,0.06629838794469833,0.37596431374549866,0.9202085137367249,1.4954538345336914,6.507391929626465,-46.436065673828125,1.0273765325546265,0.3513936996459961,2.048412322998047,-0.6339925,4.219339,6.6912065,1
15,989.7066040039062,0.8089205026626587,-1.3074184656143188,0.8636164665222168,-0.28877830505371094,5.732492446899414,-46.6546630859375,1.0951378345489502,0.4442763328552246,0.9772367477416992,0.34105957,4.0548935,7.701999,1
15,989.7752075195312,0.8138476014137268,-2.257899761199951,0.7807923555374146,-3.6016135215759277,4.42155647277832,-46.29841613769531,1.2948472499847412,0.7981805801391602,0.775052547454834,0.9815253,4.1287756,7.5765347,1
15,989.7929077148438,0.5938709378242493,-1.9440467357635498,0.9890515208244324,-7.252853870391846,2.31990909576416,-46.30565643310547,1.3586037158966064,0.8306927680969238,0.48284912109375,1.8206178,4.0143723,7.460563,1
15,989.7846069335938,0.7327492833137512,-1.7753322124481201,1.5495184659957886,-15.288427352905273,2.0644359588623047,-44.128639221191406,1.1841259002685547,1.9493017196655273,0.3405752182006836,2.7861152,3.1706924,7.5528827,1
15,989.7846069335938,0.7327492833137512,-1.7753322124481201,1.5495184659957886,-15.288427352905273,2.0644359588623047,-44.128639221191406,1.0314583778381348,1.5358316898345947,1.5196547508239746,4.1172676,3.6973975,5.9739566,1
15,989.7489624023438,1.1539279222488403,-1.8630834817886353,1.8714945316314697,-17.948558807373047,1.3109130859375,-42.13494873046875,0.8112325668334961,0.9888906478881836,0.7311038970947266,4.671702,3.5043526,4.8542676,1
15,989.7489624023438,1.1539279222488403,-1.8630834817886353,1.8714945316314697,-21.030384063720703,0.7953739166259766,-41.244956970214844,1.5222969055175781,2.1120665073394775,2.2732129096984863,5.171169,2.5915575,3.7842898,1
15,989.7769165039062,1.2194418907165527,-1.5235307216644287,1.8248893022537231,-23.544069290161133,0.8640499114990234,-39.70686340332031,0.31480884552001953,1.252377986907959,0.4991159439086914,6.7699904,2.8370357,5.0389047,1
15,989.7338256835938,0.9999978542327881,-1.4227300882339478,1.9963966608047485,-25.637989044189453,1.1674728393554688,-37.78528594970703,1.111046314239502,1.9151655435562134,0.645453929901123,6.251359,1.876575,3.760614,1
15,989.7463989257812,0.35258445143699646,-0.042548298835754395,2.231154441833496,-26.53013038635254,4.335210800170898,-37.14030456542969,1.6992459297180176,2.1589066982269287,1.4028749465942383,6.366051,1.0424283,3.0267792,1
15,989.7463989257812,0.35258445143699646,-0.042548298835754395,2.231154441833496,-26.53013038635254,4.335210800170898,-37.14030456542969,1.746109962463379,1.8510311841964722,1.208805799484253,6.57156,0.31791216,3.1877468,1
15,989.7716674804688,0.21303516626358032,-0.5208516716957092,2.3065218925476074,-27.601110458374023,6.703731536865234,-37.03687286376953,2.5412521362304688,2.223881721496582,2.660466194152832,6.2489004,-0.6759144,0.7897686,1
15,989.7846069335938,0.5808176398277283,-1.4925050735473633,2.4671106338500977,-29.08297348022461,9.054803848266602,-34.55958557128906,1.784883975982666,1.3522512912750244,3.0780277252197266,7.458167,-0.71404624,1.2205973,1
15,989.745849609375,0.07921209931373596,-1.0300476551055908,2.527963876724243,-30.49306869506836,14.054201126098633,-32.017356872558594,2.781667709350586,3.2528183460235596,0.10248994827270508,6.624069,-3.2307878,2.818457,1
15,989.8167724609375,0.12062443047761917,-1.3799868822097778,2.5187761783599854,-30.93846321105957,17.165456771850586,-30.28315544128418,-0.15938377380371094,1.8016002178192139,-0.3265676498413086,10.651031,-2.3704238,3.77007,1
15,989.7913818359375,0.09505832195281982,-0.6970197558403015,2.8432819843292236,-28.79598617553711,20.382770538330078,-29.95473289489746,-1.985081672668457,0.5737359523773193,-2.255769968032837,10.3427105,-3.585895,4.8329415,1
15,989.8291015625,-0.5262564420700073,0.7862264513969421,2.215575695037842,-25.99710464477539,23.47776985168457,-30.567129135131836,-0.39447784423828125,2.5279042720794678,0.7211771011352539,9.159686,-5.428169,1.7508423,1
15,989.8719482421875,-0.24049922823905945,1.1019439697265625,2.0632431507110596,-22.992321014404297,25.55411148071289,-31.382604598999023,-0.2147541046142578,2.217020034790039,2.427290916442871,8.428353,-6.233716,1.0880235,1
15,989.79833984375,-0.4443638026714325,0.20366041362285614,2.153923749923706,-20.62801742553711,27.9254207611084,-30.80790901184082,-0.5352544784545898,1.9901251792907715,1.6617270708084106,8.485688,-7.1798773,0.97913015,1
15,989.8541870117188,-0.7185357809066772,-0.2891571819782257,2.198265552520752,-18.044336318969727,30.712068557739258,-28.982587814331055,-1.1827259063720703,2.8034820556640625,1.6466493606567383,8.913458,-8.450165,1.6632495,1
15,989.8667602539062,-1.5526368618011475,0.0903429239988327,2.0451338291168213,-15.094449043273926,33.84172058105469,-27.387739181518555,-2.0633130073547363,3.1335244178771973,-0.9740393161773682,9.03293,-9.496423,3.1498504,1
15,989.85888671875,-2.624558210372925,1.1887627840042114,1.6661663055419922,-11.052169799804688,37.88861846923828,-25.47600555419922,-2.766997814178467,2.489029884338379,-2.6728813648223877,8.906243,-9.763349,4.3642235,1
15,989.8284301757812,-3.3249683380126953,1.756015658378601,1.125412106513977,-7.291667938232422,41.45977783203125,-21.645387649536133,-3.324291229248047,1.827629566192627,-3.838386058807373,9.539544,-8.86247,5.9289417,1
15,989.846435546875,-2.6317484378814697,1.074646234512329,0.6449782848358154,-4.582038879394531,44.099578857421875,-17.598337173461914,-3.4367127418518066,-0.34079742431640625,-4.232448101043701,9.501283,-7.4563346,6.056769,1
16,989.8736572265625,-1.0330538749694824,0.7534692883491516,0.2769298851490021,-3.375053882598877,44.70172882080078,-15.740987777709961,-2.0890750885009766,-0.3522043228149414,-0.7542471885681152,8.375615,-7.0797763,3.5688367,1
16,989.8432006835938,0.2841448187828064,1.3052760362625122,-0.1880575567483902,-2.793515682220459,44.66706085205078,-16.21349334716797,-0.6488547325134277,1.2220845222473145,1.5993237495422363,7.438751,-7.9353724,1.3412974,1
16,989.8151245117188,0.8218367695808411,1.5652000904083252,-0.5104328393936157,-2.1941490173339844,43.912010192871094,-17.339452743530273,0.23964262008666992,-0.06403350830078125,3.0502357482910156,5.5290713,-7.4086647,0.18372189,1
16,989.8176879882812,0.6303558349609375,1.3201895952224731,-0.2884584367275238,-1.0406627655029297,42.67546844482422,-19.369455337524414,-0.07506799697875977,-0.0454096794128418,1.134235143661499,5.8228736,-7.1584167,1.4762001,1
16,989.8075561523438,-0.1868334412574768,0.8325660824775696,0.07586590945720673,-0.1547689437866211,43.34709167480469,-19.699235916137695,-0.3540163040161133,-0.18479681015014648,-0.21636557579040527,6.131138,-7.0726175,3.7297735,1
16,989.8506469726562,-0.1874985694885254,0.34920257329940796,0.25150150060653687,0.9989538192749023,44.68964385986328,-18.030969619750977,-1.1113371849060059,-0.9391460418701172,-0.4656076431274414,6.563677,-6.650776,3.8718026,1
16,989.8506469726562,-0.1874985694885254,0.34920257329940796,0.25150150060653687,0.9989538192749023,44.68964385986328,-18.030969619750977,-1.1649765968322754,-1.0293688774108887,-0.16677379608154297,6.66641,-6.4815636,3.348648,1
16,989.8678588867188,-0.15274405479431152,0.40006890892982483,0.059221576899290085,1.8806886672973633,44.88262939453125,-17.331308364868164,-0.7317285537719727,-0.5558924674987793,-0.05497121810913086,6.006764,-7.132197,3.5048804,1
16,989.8095092773438,-0.41586384177207947,0.5466757416725159,-0.23345942795276642,2.026698112487793,44.966773986816406,-17.512699127197266,0.042722225189208984,0.10509920120239258,-1.0075273513793945,5.633906,-7.3705244,4.316828,1
16,989.85205078125,-0.36792662739753723,0.4770340919494629,-0.21548298001289368,1.5593452453613281,45.16056823730469,-16.297256469726562,-0.9889712333679199,-0.6058955192565918,-0.6574888229370117,6.3341146,-6.8914843,3.803142,1
16,989.8497924804688,0.13501153886318207,0.2643807530403137,-0.2576937973499298,1.3992328643798828,45.537376403808594,-16.217647552490234,-0.31377744674682617,-0.13991308212280273,-0.1956632137298584,5.8919497,-7.151261,3.6255987,1
16,989.8497924804688,0.13501153886318207,0.2643807530403137,-0.2576937973499298,1.3992328643798828,45.537376403808594,-16.217647552490234,-0.2332921028137207,0.028900623321533203,-0.19383525848388672,5.841728,-7.3085566,3.736854,1
16,989.8218994140625,-0.20893511176109314,0.7931509017944336,-0.1017656996846199,1.753103256225586,45.34239196777344,-16.95362663269043,-0.3337087631225586,-0.40392494201660156,-0.03299450874328613,5.6146555,-6.946297,3.6208582,1
16,989.8115234375,-0.20560584962368011,0.6243064999580383,-6.986780790612102E-4,2.3844757080078125,45.458885192871094,-16.05694007873535,-0.22079706192016602,-0.35657501220703125,-0.24649834632873535,5.6672,-6.9820457,3.9451618,1
16,989.7911376953125,0.19200438261032104,-0.1782364547252655,0.1124858409166336,2.8612289428710938,44.69379425048828,-16.239606857299805,-0.4592409133911133,-0.27857303619384766,-0.4520127773284912,5.810561,-6.9296126,4.1061287,1
16,989.7911376953125,0.19200438261032104,-0.1782364547252655,0.1124858409166336,2.8612289428710938,44.69379425048828,-16.239606857299805,-0.44365978240966797,-0.16778564453125,-0.27470898628234863,5.810528,-7.191773,4.025641,1
16,989.8186645507812,0.10412047803401947,0.10805307328701019,0.09424334019422531,2.5423641204833984,44.92266845703125,-17.28164291381836,0.0737147331237793,-0.5548548698425293,-0.3392517566680908,5.423331,-6.908161,4.1558337,1
16,989.8186645507812,0.10412047803401947,0.10805307328701019,0.09424334019422531,2.5423641204833984,44.92266845703125,-17.28164291381836,0.2333531379699707,-0.7061128616333008,-0.10001492500305176,5.1102204,-6.49347,3.8102193,1
16,989.8186645507812,0.3219671845436096,0.028025100007653236,0.05695926025509834,2.894712448120117,44.72620391845703,-17.940317153930664,0.04094552993774414,-0.7692327499389648,0.7434203624725342,5.155596,-6.6507664,3.398323,1
16,989.8007202148438,0.5721713304519653,-0.035224977880716324,0.07134044170379639,2.870880126953125,43.91404724121094,-18.428010940551758,0.37137556076049805,0.10473346710205078,0.3934051990509033,4.849655,-7.3156996,4.006691,1
16,989.8055419921875,0.32742762565612793,0.07955706119537354,0.03512176126241684,2.532750129699707,43.335166931152344,-20.189661026000977,0.21915817260742188,0.14040184020996094,0.407698392868042,4.89981,-7.2537336,4.1203136,1
16,989.8055419921875,0.32742762565612793,0.07955706119537354,0.03512176126241684,2.532750129699707,43.335166931152344,-20.189661026000977,0.22603702545166016,0.24252748489379883,0.6461071968078613,4.854369,-7.4157953,3.8599186,1
16,989.8564453125,0.3749653100967407,0.09273965656757355,0.12353876978158951,3.5583763122558594,42.3465576171875,-20.44382667541504,0.44843101501464844,0.5105838775634766,0.23872947692871094,4.720502,-7.5039763,4.3475595,1
16,989.8157348632812,0.3462035357952118,0.009249566122889519,0.11408469080924988,3.572615623474121,41.99152374267578,-21.041120529174805,0.057518959045410156,0.027074813842773438,0.3280062675476074,4.995307,-7.0440035,4.1558127,1
17,989.8103637695312,0.2930741310119629,-0.06185687705874443,0.2548328936100006,3.8211565017700195,41.434410095214844,-21.585710525512695,-0.03242826461791992,-0.20050954818725586,0.3870534896850586,4.9450865,-6.9272213,4.167646,1
17,989.8223876953125,0.16910439729690552,0.04400363564491272,0.21754881739616394,4.433540344238281,40.954994201660156,-22.80678939819336,0.0459895133972168,-0.10715866088867188,0.4116344451904297,4.9044256,-6.95582,4.387793,1
17,989.82470703125,0.0467325858771801,0.12070254981517792,0.16415263712406158,4.755585670471191,40.834991455078125,-22.618440628051758,-0.12953519821166992,-0.12520790100097656,0.07438802719116211,4.854204,-6.993952,4.3996253,1
17,989.8147583007812,-0.047143444418907166,0.045068785548210144,0.16495169699192047,4.881511688232422,40.267845153808594,-22.219738006591797,-0.21499109268188477,-0.034165382385253906,-0.2671046257019043,4.9697094,-7.0750027,4.8186927,1
17,989.7814331054688,-0.04794503003358841,0.034150272607803345,0.16068953275680542,5.510415077209473,41.22535705566406,-22.141725540161133,-0.3128776550292969,-0.251187801361084,0.1998147964477539,5.1274424,-6.932006,4.5819726,1
17,989.7789306640625,-0.13090726733207703,0.17010529339313507,0.11474796384572983,5.405521392822266,41.601287841796875,-22.22454261779785,-0.42088794708251953,-0.05428886413574219,-0.1318044662475586,4.979269,-7.2799644,4.9891315,1
17,989.8240966796875,-0.060200389474630356,0.1493326723575592,-0.008423132821917534,5.170785903930664,41.06532287597656,-22.00303840637207,-0.44200992584228516,-0.21075963973999023,-0.03620576858520508,5.1489515,-7.1893997,5.4649386,1
17,989.8369750976562,0.14326493442058563,0.4645175039768219,-0.09910369664430618,5.891265869140625,40.7391357421875,-22.171960830688477,0.43048667907714844,-0.44678497314453125,1.521418809890747,4.3124857,-6.829525,3.8007956,1
17,990.0021362304688,0.30971238017082214,0.1432074010372162,-0.06328420341014862,6.134698867797852,40.54589080810547,-22.583086013793945,-0.4511227607727051,-0.2841362953186035,-0.4964938163757324,5.070085,-7.055936,5.886301,1
17,989.9081420898438,-0.39349472522735596,0.5219085216522217,0.09770374000072479,6.469761848449707,40.701515197753906,-22.489856719970703,-0.4313349723815918,-0.26775074005126953,-0.3848848342895508,4.776127,-6.748493,4.705067,1
17,989.738037109375,0.2684333920478821,0.07862581312656403,0.08705110847949982,7.290027618408203,40.36327362060547,-22.442495346069336,-0.386197566986084,-0.46451759338378906,0.65362548828125,4.8167553,-6.6984444,4.5346284,1
17,989.8339233398438,0.2204965353012085,-0.18316271901130676,0.042310040444135666,6.630012512207031,40.430625915527344,-23.268543243408203,0.010869026184082031,-0.25710439682006836,0.15895843505859375,4.46544,-6.9248557,4.8281617,1
17,989.8441162109375,0.04179858788847923,-0.11471952497959137,0.04470688849687576,6.822652816772461,40.13676452636719,-23.050081253051758,-0.016728878021240234,-0.31020593643188477,0.14013004302978516,4.369844,-6.917706,4.877873,1
17,989.8009643554688,-0.16592779755592346,0.0424068458378315,0.08891532570123672,7.1387481689453125,40.116783142089844,-23.251588821411133,0.11216878890991211,-0.1800398826599121,2.7179718017578125E-4,4.4009123,-7.010654,5.0980225,1
17,989.7935791015625,-0.14369043707847595,-0.09700950980186462,0.15070059895515442,7.251550674438477,40.380348205566406,-23.13042640686035,-0.31764888763427734,-0.28330326080322266,-0.7217340469360352,4.668581,-7.005887,5.6353774,1
17,989.8362426757812,-0.053542498499155045,-0.026702120900154114,0.15869009494781494,6.976133346557617,40.122352600097656,-22.918920516967773,-0.1105494499206543,-0.5164451599121094,0.26896142959594727,4.4511003,-6.8056917,4.920482,1
17,989.8056640625,0.1706954687833786,-0.04907265678048134,0.12979482114315033,7.0244245529174805,39.85173797607422,-23.295446395874023,-0.12219858169555664,-0.4301929473876953,0.2970709800720215,4.482169,-6.9224725,4.8399973,1
17,989.7904663085938,0.015832792967557907,-0.0602579228579998,0.09464111179113388,7.315029144287109,38.912208557128906,-23.208269119262695,-0.1924128532409668,-0.1410837173461914,-0.5724143981933594,4.46066,-7.0964518,5.524119,1
17,989.81298828125,-0.009999853558838367,-0.024837909266352654,0.07999373227357864,6.975836753845215,39.49021911621094,-23.34379005432129,-0.10544729232788086,-0.37272119522094727,-0.14586400985717773,4.410472,-6.9081726,4.906279,1
17,989.8053588867188,0.2192981094121933,-0.07969897985458374,0.053495313972234726,7.203343391418457,39.12432098388672,-24.204265594482422,-0.06479215621948242,-0.2570476531982422,0.39313364028930664,4.2885876,-7.0321035,4.7216372,1
17,989.8097534179688,0.10651333630084991,-0.07690266519784927,0.038048986345529556,7.219512939453125,38.296546936035156,-24.08133888244629,0.07348155975341797,-0.16605663299560547,0.12399053573608398,4.269468,-7.179867,5.0175376,1
17,989.8198852539062,-0.011464590206742287,-0.07170950621366501,0.09011374413967133,6.786186218261719,38.154457092285156,-24.468154907226562,-0.00800180435180664,-0.15977907180786133,-0.1467723846435547,4.3650637,-7.115518,5.2116485,0
17,989.8098754882812,0.12701965868473053,-0.0380205474793911,0.06414794921875,6.897573471069336,37.310211181640625,-23.89702796936035,-0.021364212036132812,-0.16191673278808594,-0.02913379669189453,4.3292155,-7.113135,5.209281,0
17,989.8098754882812,0.12701965868473053,-0.0380205474793911,0.06414794921875,6.326826095581055,37.46111297607422,-24.664735794067383,0.055736541748046875,-0.15363454818725586,0.23861980438232422,4.2145,-7.1345844,4.8613024,0
17,989.8098754882812,0.12701965868473053,-0.0380205474793911,0.06414794921875,6.326826095581055,37.46111297607422,-24.664735794067383,-0.0821075439453125,-0.12427902221679688,0.13326025009155273,4.3626738,-7.1608005,5.0151706,0
18,989.835205078125,0.15658071637153625,-0.08955266326665878,0.07866215705871582,6.5369110107421875,37.34138488769531,-24.074228286743164,-0.11834001541137695,-0.10547065734863281,-0.27103662490844727,4.3244357,-7.203699,5.318172,0
18,989.852783203125,0.08294438570737839,-0.12683691084384918,0.09703796356916428,6.488024711608887,36.34772491455078,-24.547443389892578,2.6702880859375E-4,-0.020071983337402344,0.1530137062072754,4.2407894,-7.2489815,5.0128036,0
18,989.852783203125,0.08294438570737839,-0.12683691084384918,0.09703796356916428,6.488024711608887,36.34772491455078,-24.547443389892578,-0.06769180297851562,-0.024017810821533203,0.16718482971191406,4.3053164,-7.234682,4.915748,0
18,989.8296508789062,0.1694970577955246,-0.17357534170150757,0.10396216064691544,6.44538688659668,35.88617706298828,-24.205928802490234,0.04810285568237305,-0.017845630645751953,0.16687536239624023,4.1820817,-7.2537155,4.8138347,0
18,989.8218994140625,0.0692291259765625,-0.19607903063297272,0.13046060502529144,5.935129165649414,36.19854736328125,-24.145578384399414,0.23084306716918945,0.08135509490966797,0.2559037208557129,3.9836664,-7.4658256,4.619719,0
18,989.826904296875,0.04646597057580948,-0.3944835960865021,0.14658185839653015,5.430086135864258,35.04070281982422,-23.846033096313477,0.5803923606872559,0.3617210388183594,0.41964054107666016,3.8210998,-7.7708836,4.340385,0
18,989.82666015625,0.012248042970895767,-0.6312389969825745,0.19571872055530548,4.572183609008789,35.659873962402344,-24.058000564575195,0.6285128593444824,0.5361580848693848,0.3690218925476074,3.8879642,-7.911496,4.098925,0
18,989.8240356445312,-0.001199880731292069,-1.4247273206710815,0.6027829647064209,3.5742225646972656,36.094879150390625,-23.698720932006836,0.16194486618041992,0.18466901779174805,-0.12887048721313477,4.5857615,-7.825697,4.435063,0
18,989.8186645507812,0.16325069963932037,-2.0444443225860596,0.7905358076095581,2.1035842895507812,34.92877197265625,-23.865772247314453,-0.15683794021606445,0.19705438613891602,-0.2346329689025879,4.8701067,-7.8423777,4.011328,0
18,989.8338012695312,0.3794997036457062,-2.2661526203155518,0.8692324757575989,0.19869565963745117,34.88336944580078,-23.492595672607422,-0.3537325859069824,-0.1829090118408203,-0.1539783477783203,5.235708,-7.5992827,3.7248921,0
18,989.8057250976562,0.5226449966430664,-2.4515085220336914,0.8802847862243652,-1.0292987823486328,34.892730712890625,-23.842802047729492,-0.8463177680969238,-0.21503591537475586,-0.1295633316040039,5.797282,-7.64218,3.4337215,0
18,989.8209228515625,0.6266418099403381,-2.546982526779175,0.7714949250221252,-2.7293710708618164,34.56524658203125,-23.869604110717773,-1.0199179649353027,-0.42503976821899414,-0.07839250564575195,5.981251,-7.565914,3.0573316,0
18,989.8413696289062,0.5512750148773193,-2.1633548736572266,0.6242225170135498,-4.112399101257324,33.37528991699219,-23.201932907104492,-0.6621832847595215,-0.12234783172607422,-0.4989314079284668,5.809125,-7.644561,3.1188738,0
18,989.8033447265625,0.3757733404636383,-1.7385811805725098,0.3714889585971832,-5.311751365661621,33.20081329345703,-23.62278175354004,-0.4849514961242676,-0.06269359588623047,-0.3766059875488281,5.677627,-7.7160587,2.9602666,0
18,989.8284301757812,0.3456801474094391,-1.344566822052002,0.21130014955997467,-6.706489086151123,33.94938659667969,-23.682615280151367,-0.19993877410888672,-0.09011077880859375,0.5848100185394287,5.742101,-7.727973,2.3400545,0
18,989.8134765625,0.4925538897514343,-1.172659993171692,0.014226632192730904,-7.532055854797363,32.91302490234375,-23.648723602294922,0.47193479537963867,0.27568769454956055,0.33155691623687744,4.9079723,-8.087847,1.9139533,0
18,989.8282470703125,0.12144319713115692,-0.801548957824707,-0.08550845086574554,-8.4954252243042,33.06415557861328,-22.970226287841797,0.44008302688598633,0.08177900314331055,-0.21437931060791016,4.9150887,-7.966298,2.1932783,0
18,989.8153686523438,-0.10346003621816635,-0.660801112651825,0.007169706281274557,-9.172863006591797,33.37767791748047,-22.34528923034668,0.13573551177978516,0.34333133697509766,-0.08032846450805664,4.960443,-8.164109,2.2548206,0
18,989.784912109375,0.07736895978450775,-0.7829069495201111,-0.07924957573413849,-10.025251388549805,33.158775329589844,-21.8931941986084,0.7595863342285156,0.6906881332397461,-0.4384669065475464,4.6640415,-8.678896,1.942345,0
18,989.809814453125,0.19614635407924652,-0.649616003036499,-0.1243898943066597,-10.98753547668457,32.573326110839844,-21.017793655395508,0.8104872703552246,0.5340476036071777,0.005551576614379883,4.816942,-8.31187,1.9944186,0
18,989.8096313476562,0.06844840943813324,-0.5699875950813293,-0.08164598047733307,-11.347654342651367,32.2362060546875,-21.096540451049805,1.1518621444702148,0.6582932472229004,-0.4122415781021118,4.592238,-8.459632,2.1624851,0
18,989.7871704101562,0.10160524398088455,-0.5984835028648376,-0.13983578979969025,-12.2548246383667,32.7562255859375,-20.7562255859375,1.1386971473693848,0.5490999221801758,-0.49413537979125977,4.649543,-8.35715,2.0299168,0
18,989.8375244140625,-0.07389640808105469,-0.2104613333940506,-0.10934240370988846,-12.349501609802246,32.4044189453125,-21.105972290039062,1.1975560188293457,0.3531150817871094,-0.3156694173812866,4.63276,-8.090221,2.0346465,0
18,989.8218994140625,-0.12649327516555786,0.03814445063471794,-0.09389586001634598,-12.332353591918945,31.946413040161133,-21.15880012512207,1.408198356628418,0.5629105567932129,-0.7013149261474609,4.4032764,-8.428645,2.1885095,0
19,989.8221435546875,-0.0833490714430809,0.3677101731300354,0.11343150585889816,-12.493446350097656,31.953458786010742,-20.9034366607666,0.7895135879516602,0.13922786712646484,0.044846415519714355,4.773658,-8.075919,1.7411034,0
19,989.8221435546875,-0.0833490714430809,0.3677101731300354,0.11343150585889816,-12.493446350097656,31.953458786010742,-20.9034366607666,0.7024621963500977,0.07520294189453125,0.0799630880355835,5.091461,-7.847123,1.8949668,0
19,989.8471069335938,-0.23528127372264862,0.7123227715492249,-0.03850126639008522,-11.757882118225098,31.536088943481445,-21.146329879760742,0.41058874130249023,0.27887773513793945,-0.5508368015289307,5.241972,-7.9948854,2.4630904,0
19,989.8471069335938,-0.23528127372264862,0.7123227715492249,-0.03850126639008522,-11.757882118225098,31.536088943481445,-21.146329879760742,-0.09475946426391602,0.11992120742797852,-0.34330034255981445,5.999708,-7.961522,2.510447,0
19,989.8521728515625,-0.39973169565200806,1.1313707828521729,-0.10081934928894043,-11.748452186584473,32.17706298828125,-21.18528938293457,-0.5134038925170898,0.5623579025268555,-2.0527801513671875,6.026147,-8.352384,4.162768,0
19,989.8446044921875,-0.4701765775680542,1.5368388891220093,-0.33650630712509155,-10.26332950592041,31.987714767456055,-21.941951751708984,-0.4588613510131836,0.40758228302001953,-0.5769326686859131,6.145604,-7.8328276,2.4370742,0
19,989.8490600585938,-0.20186296105384827,1.9943695068359375,-0.43397775292396545,-9.69162654876709,31.78627586364746,-23.173025131225586,-0.8282747268676758,-0.7582321166992188,1.564997911453247,6.04519,-6.5887556,1.1185389,0
19,989.8363037109375,-0.29094523191452026,1.6301825046539307,-0.5731276869773865,-8.276506423950195,32.321128845214844,-23.26841926574707,-0.31380271911621094,-0.591975212097168,0.9062795639038086,5.543273,-6.755584,2.3352776,0
19,989.8236694335938,-0.5294307470321655,0.6167173385620117,-0.9845856428146362,-8.559555053710938,31.63545799255371,-24.49341583251953,0.41655397415161133,-1.0874290466308594,0.05875539779663086,5.8969398,-6.197896,2.6311743,0
19,989.8236694335938,-0.5294307470321655,0.6167173385620117,-0.9845856428146362,-8.804370880126953,31.933141708374023,-24.70406150817871,-0.10590124130249023,-1.1054625511169434,-0.5322940349578857,6.1813,-6.343275,3.078572,0
19,989.8587036132812,-0.8644557595252991,0.653335690498352,-0.999232828617096,-9.635833740234375,32.629371643066406,-24.30873680114746,0.4370121955871582,0.01735544204711914,0.21537470817565918,5.813217,-7.170272,2.5199087,0
19,989.8463134765625,-0.762323260307312,0.557861328125,-0.8670068383216858,-10.63325309753418,32.696083068847656,-23.85100555419922,0.43990564346313477,0.38446044921875,-0.7837574481964111,5.9613533,-7.4657974,3.1424794,0
19,989.8382568359375,-1.167921543121338,0.7450813055038452,-0.41067418456077576,-9.953834533691406,33.542388916015625,-23.004423141479492,0.1526017189025879,0.5068211555480957,-0.9380319118499756,6.1668463,-7.6278596,3.1259055,0
19,989.8280639648438,-0.8356921672821045,0.8196496963500977,-0.2249186933040619,-9.409335136413574,35.05291748046875,-22.79179573059082,0.1210927963256836,0.2483534812927246,-0.38862133026123047,6.224166,-7.3704643,2.9081197,0
19,989.8280639648438,-0.8356921672821045,0.8196496963500977,-0.2249186933040619,-9.409335136413574,35.05291748046875,-22.79179573059082,0.5579490661621094,0.6731195449829102,-0.7508945465087891,5.5836344,-7.863802,3.3602514,0
19,989.8555908203125,-0.3908107578754425,0.8918212056159973,0.039533279836177826,-7.675235748291016,35.04450988769531,-24.36725616455078,0.10857248306274414,-0.2639331817626953,-0.07969474792480469,5.8584356,-7.1655006,3.0809183,0
19,989.8123779296875,-0.17602664232254028,0.8954164385795593,0.18121349811553955,-6.353950023651123,35.49140167236328,-24.289073944091797,-0.24064111709594727,-0.7993097305297852,1.3469038009643555,6.0472,-6.7460427,1.736344,0
19,989.8098754882812,-0.06244254857301712,0.5606572031974792,0.3115752637386322,-5.633575916290283,36.27156066894531,-24.830652236938477,-0.034116268157958984,0.24463987350463867,0.16480445861816406,5.748424,-7.501541,2.0417094,0
19,989.7972412109375,-0.6295617818832397,0.43096137046813965,0.1396685242652893,-4.469358444213867,37.09819793701172,-24.827470779418945,-0.4891219139099121,0.06318902969360352,-0.6082007884979248,6.071023,-7.8280497,3.1140487,0
19,989.8574829101562,-0.7559283375740051,0.49793973565101624,0.21303869783878326,-2.9314637184143066,38.16930389404297,-24.74220848083496,-0.6485261917114258,0.3467216491699219,0.18046069145202637,6.008847,-8.135491,2.3352356,0
19,989.8195190429688,-0.6419447660446167,0.4980728328227997,0.3021215498447418,-1.5743093490600586,39.334228515625,-24.095693588256836,-0.7872128486633301,0.44223594665527344,-0.1874711513519287,6.3171062,-8.204605,2.7021484,0
19,989.8067626953125,-0.7784312963485718,0.4898170232772827,0.3712306618690491,-0.7708921432495117,40.08612060546875,-23.570634841918945,-1.4105987548828125,-0.16173171997070312,-0.27359557151794434,6.587127,-7.851879,2.6405978,0
19,989.8016357421875,-0.40891769528388977,0.1232331246137619,0.4463319182395935,0.2153301239013672,40.37738037109375,-23.585683822631836,-1.3645415306091309,-0.4860396385192871,0.0737619400024414,6.5392914,-7.6802826,2.1245441,0
19,989.819091796875,-0.06270667910575867,-0.4030071496963501,0.34792831540107727,0.8858919143676758,41.42668151855469,-23.67342758178711,-1.3063559532165527,-0.7363629341125488,-0.08650660514831543,6.4317074,-7.246525,2.2760415,0
19,989.8289794921875,-0.007312597241252661,-0.7896978259086609,0.2440652996301651,0.6138200759887695,41.80376434326172,-23.191659927368164,-1.241783618927002,-1.0007119178771973,-0.7160953283309937,6.3312936,-7.2226906,2.6547904,0
20,989.8187866210938,-0.08307909965515137,-0.8437600135803223,-0.00826884526759386,0.3640012741088867,41.358985900878906,-22.89618492126465,-0.7067146301269531,-0.5392565727233887,-1.1822997331619263,5.829376,-7.654063,2.8039207,0
20,989.8289794921875,-0.15351928770542145,-0.6377647519111633,-0.21652770042419434,-1.2255783081054688,42.662315368652344,-22.496545791625977,-0.20418930053710938,-0.2572197914123535,-1.2220096588134766,5.673995,-7.6802783,2.6855574,0
20,989.8289794921875,-0.1264878511428833,-0.5155258178710938,-0.2697907090187073,-1.9436969757080078,43.253822326660156,-21.881608963012695,-0.030692577362060547,-0.11588048934936523,-1.1947569847106934,5.5998697,-7.949588,2.7092257,0
20,989.8438720703125,-0.11756591498851776,-0.45453953742980957,-0.30840638279914856,-2.571460723876953,43.192291259765625,-21.011430740356445,0.2694525718688965,0.0883626937866211,-1.6675878763198853,5.45634,-8.044915,2.893855,0
20,989.8057250976562,-0.13620926439762115,-0.2212451845407486,-0.28909412026405334,-3.5194501876831055,43.884368896484375,-19.982030868530273,0.36504697799682617,0.0164642333984375,-1.8994646072387695,5.379821,-7.813737,3.0737586,0
20,989.833251953125,-0.10544902086257935,0.01138163823634386,-0.2681880295276642,-4.258631706237793,43.45482635498047,-18.611244201660156,0.4174637794494629,-0.3232440948486328,-1.2101942300796509,5.4180174,-7.518209,2.65476,0
20,989.8157348632812,0.07431460171937943,0.17729637026786804,-0.2689867913722992,-3.613560199737549,43.584571838378906,-18.410301208496094,0.44843149185180664,-0.08007955551147461,-0.49091458320617676,5.4777236,-7.55634,2.0747917,0
20,989.8204956054688,0.29935193061828613,0.11750838905572891,-0.29881399869918823,-4.127298355102539,43.15594482421875,-17.921133041381836,0.7392168045043945,0.16968631744384766,0.7750928997993469,5.365356,-7.6755037,1.0876644,0
20,989.8255004882812,0.5315797924995422,0.04227408394217491,-0.29428642988204956,-5.0749053955078125,42.953521728515625,-17.917234420776367,1.0986580848693848,0.48343896865844727,1.3518246412277222,4.863435,-8.245107,0.15024847,0
20,989.8277587890625,0.2539462745189667,-0.10007187724113464,0.1553882658481598,-4.792453289031982,42.374908447265625,-17.541980743408203,0.4673638343811035,0.9226212501525879,1.9449725151062012,5.243387,-8.56923,-0.18589811,0
20,989.802490234375,0.08350452035665512,-0.4433531165122986,0.36524534225463867,-4.249125003814697,41.777198791503906,-17.205808639526367,-0.4472346305847168,0.5136222839355469,1.0656663179397583,6.2208157,-8.135473,0.34435138,0
20,989.802490234375,0.08350452035665512,-0.4433531165122986,0.36524534225463867,-4.249125003814697,41.777198791503906,-17.205808639526367,-0.695366382598877,0.5953993797302246,0.377893328666687,6.5696993,-8.307068,1.402487,0
20,989.8275756835938,0.1479533463716507,-0.7433580160140991,0.34220921993255615,-3.805825710296631,42.19197082519531,-16.75950050354004,-0.42024850845336914,0.45793724060058594,-0.05035984516143799,6.2063923,-8.099722,1.411952,0
20,989.78662109375,0.28896844387054443,-0.24175219237804413,0.19640161097049713,-4.019636154174805,42.571128845214844,-16.594770431518555,-0.2602419853210449,0.11356210708618164,1.2234278917312622,6.036667,-7.8995256,0.56212246,0
20,989.78662109375,0.28896844387054443,-0.24175219237804413,0.19640161097049713,-4.019636154174805,42.571128845214844,-16.594770431518555,-0.13062143325805664,-0.09591245651245117,1.668279767036438,5.840653,-7.66358,-0.10069802,0
20,989.7763671875,0.053945064544677734,-0.07996536791324615,0.08707910031080246,-3.743539810180664,42.566749572753906,-17.406904220581055,0.08152532577514648,-0.09801435470581055,1.2338078022003174,5.6541986,-7.7183943,0.4721611,0
20,989.8017578125,-0.2544482946395874,-0.16425441205501556,-0.03782286494970322,-3.9378395080566406,42.75321960449219,-16.848981857299805,0.11706304550170898,0.16875410079956055,0.3783148527145386,5.6135283,-8.066352,1.018981,0
