Timestamp,P,Gx,Gy,Gz,Mx,My,Mz,LiAx,LiAy,LiAz,Ax,Ay,Az,Value,Type
0,989.9238891601562,-1.370153040625155E-4,8.793193846940994E-4,2.1039939019829035E-4,-12.716142654418945,29.408267974853516,-42.73194122314453,-0.005560360848903656,0.006159380078315735,0.05350494384765625,0.028538078,-0.14457405,9.766688,0
0,989.9238891601562,-1.370153040625155E-4,8.793193846940994E-4,2.1039939019829035E-4,2.050025463104248,31.1663818359375,-36.103057861328125,-0.005706852301955223,1.131819725036621,3.3473968505859375E-4,0.030861974,-0.13980594,9.761948,0
0,989.7758178710938,7.236638921312988E-4,0.0016828165389597416,-2.7365691494196653E-4,2.286963939666748,31.44145965576172,-37.00249481201172,-0.015475530177354813,1.1376675367355347,-0.018219947814941406,0.026016176,-0.14218757,9.766677,0
0,989.7758178710938,7.236638921312988E-4,0.0016828165389597416,-2.7365691494196653E-4,2.286963939666748,31.44145965576172,-37.00249481201172,0.008659567683935165,1.1317410469055176,-0.008630752563476562,0.014000744,-0.1374194,9.773771,0
0,989.8088989257812,-7.464812370017171E-5,2.1797603403683752E-4,-5.397005006670952E-4,1.9693446159362793,31.459964752197266,-36.72367858886719,-9.822472929954529E-4,1.1148773431777954,-0.027304649353027344,0.021104515,-0.13503453,9.785602,0
0,989.813720703125,4.592552431859076E-4,0.001016717404127121,-5.391554441303015E-4,1.3432421684265137,31.505821228027344,-36.6298828125,0.003309076651930809,1.1220648288726807,-0.022327423095703125,0.02342847,-0.14694926,9.771393,0
0,989.8592529296875,6.041693268343806E-5,-4.4812323176302016E-4,-2.725671511143446E-4,1.7365679740905762,31.663516998291016,-36.85368728637695,0.0036821365356445312,1.1147578954696655,-0.02680206298828125,0.023362517,-0.14694765,9.77612,0
0,989.8389282226562,8.600005530752242E-4,-0.0013803320471197367,9.261268423870206E-4,1.272780418395996,31.07166290283203,-37.517433166503906,-0.0055641476064920425,1.1160619258880615,-0.031182289123535156,0.02807635,-0.13979623,9.769013,0
0,989.8264770507812,9.937938302755356E-4,7.500917417928576E-4,5.269254324957728E-4,1.924344539642334,30.73310089111328,-36.82817840576172,0.008815277367830276,1.1005116701126099,-0.007382392883300781,0.020840645,-0.135028,9.780843,0
0,989.8441162109375,3.286401624791324E-4,-3.1527489772997797E-4,3.9403990376740694E-4,2.078805446624756,31.088451385498047,-36.87277603149414,0.023370105773210526,1.1214641332626343,-0.011824607849121094,0.008825213,-0.14932606,9.776103,0
0,989.8187866210938,6.295990897342563E-5,-3.15378129016608E-4,5.274703726172447E-4,1.4924030303955078,30.486568450927734,-36.59322738647461,-0.005349909886717796,1.1094030141830444,-0.02103710174560547,0.025488585,-0.13025826,9.780831,0
0,989.8262329101562,6.359588587656617E-5,6.166242528706789E-4,6.609008414670825E-4,1.549877643585205,31.85735321044922,-36.68229675292969,-6.560422480106354E-4,1.1150041818618774,-0.020638465881347656,0.023032725,-0.14455625,9.783193,0
0,989.8187255859375,5.968630430288613E-4,3.5020525683648884E-4,2.6169948978349566E-4,1.6608595848083496,31.48731231689453,-36.90869903564453,0.00892728567123413,1.0805151462554932,-0.0015869140625,0.020576894,-0.12787178,9.768983,0
0,989.821044921875,-2.0144862355664372E-4,6.164178485050797E-4,2.6197198894806206E-4,1.0059762001037598,31.611099243164062,-36.04518127441406,0.008590053766965866,1.101291298866272,-0.015480995178222656,0.013341218,-0.14455304,9.780812,0
0,989.8388061523438,6.550276884809136E-5,2.1684081002604216E-4,2.6224442990496755E-4,1.7006983757019043,30.94548797607422,-37.422019958496094,0.01825704798102379,1.098344087600708,-0.015188217163085938,0.00849539,-0.1421681,9.7737055,0
0,989.8185424804688,1.2656819308176637E-4,-1.8232132424600422E-4,2.9877456836402416E-4,1.9639391899108887,31.191699981689453,-37.01508712768555,0.013390189036726952,1.1098084449768066,-0.014904022216796875,0.015599161,-0.15646625,9.776067,0
0,989.8385620117188,-5.953887011855841E-6,3.5020732320845127E-4,3.273115726187825E-5,2.1645941734313965,30.430999755859375,-36.3856201171875,0.01831977255642414,1.105726718902588,-2.9468536376953125E-4,0.013143301,-0.1469315,9.771326,0
0,989.8206787109375,5.273133865557611E-4,-1.8252767040394247E-4,-1.0015434236265719E-4,1.5501227378845215,30.85692596435547,-37.00871276855469,0.008744286373257637,1.0884032249450684,-0.01419830322265625,0.015467286,-0.1421633,9.77132,0
0,989.7955932617188,-2.709982800297439E-4,8.368497947230935E-5,-4.993557231500745E-4,1.8426861763000488,30.65692138671875,-37.273048400878906,0.008614476770162582,1.1012957096099854,-0.004589080810546875,0.013011426,-0.14931154,9.776048,0
0,989.8258056640625,1.2911093654111028E-4,-3.158921026624739E-4,6.993382703512907E-4,1.6680340766906738,30.756622314453125,-37.02101516723633,0.02335924096405506,1.0840485095977783,-0.023237228393554688,0.012945473,-0.14216006,9.783144,0
0,989.8256225585938,3.960629110224545E-4,-1.828372769523412E-4,3.0013680225238204E-4,1.6429791450500488,30.57512664794922,-37.006534576416016,-0.010214928537607193,1.0765860080718994,-0.01823711395263672,0.02482903,-0.146925,9.776036,0
0,989.8381958007812,3.966983058489859E-4,7.491651340387762E-4,3.004092432092875E-4,1.60892915725708,30.490707397460938,-37.227298736572266,0.018225740641355515,1.0736393928527832,-0.017948150634765625,0.017593324,-0.1469234,9.783132,0
0,989.8204345703125,-2.1395389921963215E-6,6.159038748592138E-4,4.3383962474763393E-4,1.804368495941162,31.200218200683594,-36.83702850341797,0.008315587416291237,1.0754882097244263,0.0012769699096679688,0.015137464,-0.14692172,9.780759,0
0,989.8056030273438,-2.6781990891322494E-4,0.0011484324932098389,-9.851969662122428E-5,1.8183341026306152,30.63335418701172,-36.036163330078125,0.003283325582742691,1.0911765098571777,-0.007863998413085938,0.022241235,-0.15406999,9.771284,0
0,989.822998046875,-2.671840484254062E-4,8.820134680718184E-4,3.01226566080004E-4,2.058859348297119,30.543079376220703,-36.99176025390625,-0.0036111269146203995,1.0736126899719238,-0.026676177978515625,0.019551903,-0.14697143,9.792781,0
1,989.8204345703125,-2.812875318340957E-4,-8.465572027489543E-4,-5.025181453675032E-4,1.7451262474060059,30.828384399414062,-36.34423828125,-0.008469399064779282,1.0801109075546265,-0.0027170181274414062,0.026741922,-0.14220542,9.769109,0
1,989.800048828125,-6.885562906973064E-4,8.857614593580365E-4,-1.063851232174784E-4,1.8887734413146973,30.647205352783203,-36.971641540527344,0.01558990590274334,1.053023338317871,-0.0071468353271484375,0.019592524,-0.14220586,9.780948,0
1,989.8126831054688,-2.892781631089747E-4,-8.452600450254977E-4,-9.054165566340089E-4,1.9199166297912598,30.8345947265625,-37.295345306396484,0.015461349859833717,1.0501402616500854,-0.011610984802246094,0.017222881,-0.13982308,9.773848,0
1,989.83544921875,7.757897838018835E-4,7.526670233346522E-4,2.66052084043622E-5,1.8157038688659668,30.94815444946289,-37.978790283203125,0.020093349739909172,1.0503791570663452,-0.001720428466796875,0.0052936673,-0.135057,9.766747,0
1,989.83544921875,7.757897838018835E-4,7.526670233346522E-4,2.66052084043622E-5,1.8157038688659668,30.94815444946289,-37.978790283203125,0.010710086673498154,1.0581543445587158,-0.011026382446289062,0.017263472,-0.14220735,9.776219,0
1,989.8051147460938,2.4296242918353528E-4,-4.457227187231183E-4,-2.397945208940655E-4,1.7833361625671387,31.391429901123047,-37.15291213989258,0.0011726077646017075,1.05506432056427,-0.010740280151367188,0.019673645,-0.13744137,9.773853,0
1,989.8303833007812,-2.354914613533765E-5,-7.120068185031414E-4,-1.0672042844817042E-4,1.3894672393798828,31.60202407836914,-37.027557373046875,0.010594084858894348,1.0520776510238647,-0.0057315826416015625,0.022083879,-0.14935824,9.773856,0
1,989.8202514648438,1.0941321670543402E-4,3.532885166350752E-4,-3.7312012864276767E-4,1.6002326011657715,31.219924926757812,-37.03767395019531,0.0157201886177063,1.0396270751953125,0.00400543212890625,0.017324328,-0.13505903,9.769123,0
1,989.817626953125,5.086915916763246E-4,-5.787853733636439E-4,1.5942781465128064E-4,1.9740185737609863,30.35803985595703,-36.58293914794922,0.010968884453177452,1.031541347503662,0.013777732849121094,0.019734561,-0.1350595,9.76439,0
1,989.8202514648438,-1.572937035234645E-4,-8.450695313513279E-4,-2.4012982612475753E-4,1.893775463104248,31.389678955078125,-37.47776412963867,-0.003430187702178955,1.0379841327667236,-0.023815155029296875,0.022144735,-0.1493597,9.78333,0
1,989.8201904296875,2.419844240648672E-4,6.19699596427381E-4,-3.7337164394557476E-4,1.8125205039978027,30.83929443359375,-37.12510299682617,0.0010901708155870438,1.0490226745605469,-0.004580497741699219,0.024554968,-0.14936024,9.776231,0
1,989.8074951171875,1.0863090574275702E-4,-1.7921626567840576E-4,-3.7345546297729015E-4,1.743741512298584,30.932830810546875,-36.96601104736328,-0.013182396069169044,1.0264157056808472,0.005209922790527344,0.034134835,-0.13982758,9.76913,0
1,989.7998657226562,-4.241964197717607E-4,3.5344724892638624E-4,-5.066972225904465E-4,2.1326403617858887,31.192020416259766,-37.65697479248047,0.005817608907818794,1.027674674987793,0.014994621276855469,0.024595529,-0.1350615,9.766765,0
1,989.7973022460938,-0.0010901819914579391,-1.7915279022417963E-4,1.590086321812123E-4,2.324164867401123,30.42247772216797,-36.563682556152344,8.59605148434639E-4,1.0103241205215454,-0.013136863708496094,0.027005732,-0.13506198,9.780971,0
1,989.84228515625,-4.2458780808374286E-4,4.866687231697142E-4,-6.400228594429791E-4,2.0281519889831543,31.09375,-36.94226837158203,-0.004339585080742836,1.0215661525726318,-0.012862205505371094,0.031805843,-0.13744578,9.780972,0
1,989.8401489257812,-5.581369041465223E-4,7.530481088906527E-4,-2.4071664665825665E-4,2.0371460914611816,30.99666976928711,-36.7070198059082,-0.004313340410590172,1.0231645107269287,-0.007843971252441406,0.024656415,-0.14459619,9.776239,0
1,989.8095092773438,5.069310427643359E-4,-8.448153967037797E-4,5.58147148694843E-4,2.029374599456787,30.46308135986328,-37.44444274902344,0.005396448075771332,1.0105029344558716,0.011369705200195312,0.02467668,-0.14221337,9.773875,0
1,989.8321533203125,2.4041956930886954E-4,-4.583607005770318E-5,-1.0772640234790742E-4,1.866218090057373,30.836944580078125,-37.210227966308594,-0.003979602828621864,1.019562840461731,0.007100105285644531,0.022307098,-0.15174696,9.76204,0
1,989.7893676757812,-5.5872363736853E-4,-4.4527812860906124E-4,2.916636294685304E-4,1.9575533866882324,30.553672790527344,-37.1307373046875,0.010414768010377884,1.0273789167404175,-0.006951332092285156,0.02710718,-0.14698085,9.780979,0
1,989.8143310546875,5.063443095423281E-4,-7.115622283890843E-4,-5.073678330518305E-4,1.6583590507507324,31.11608123779297,-36.655635833740234,0.005719276145100594,0.9940371513366699,0.00766754150390625,0.027127504,-0.1422148,9.764411,0
1,989.7994384765625,-2.6483045076020062E-5,2.2057506430428475E-4,-2.4113580002449453E-4,1.6534943580627441,30.479522705078125,-36.848594665527344,-0.00845605693757534,0.9923039674758911,0.0030841827392578125,0.022367954,-0.1422154,9.764413,0
1,989.8244018554688,2.3963725834619254E-4,-0.0012441305443644524,-0.001173325115814805,1.4277844429016113,31.058727264404297,-37.46357727050781,-0.013240404427051544,0.9984180927276611,0.0033817291259765625,0.036727667,-0.1469824,9.778619,0
1,989.8241577148438,-5.595061811618507E-4,0.0010195861104875803,6.908021168783307E-4,1.907334804534912,31.297019958496094,-37.47443389892578,0.015343526378273964,0.9901777505874634,0.017887115478515625,0.010459065,-0.13983306,9.759683,0
1,989.8244018554688,-6.928596994839609E-4,8.751240966375917E-5,4.24402387579903E-4,1.5465359687805176,31.222270965576172,-36.95255661010742,-0.01811983250081539,0.991206169128418,0.004008293151855469,0.026489556,-0.14458248,9.776189,0
2,989.8244018554688,-2.9358145548030734E-4,-4.45087585831061E-4,-5.077871028333902E-4,2.025651454925537,30.722511291503906,-36.689205169677734,0.007094968110322952,0.9877879023551941,-0.005034446716308594,0.023357153,-0.14218098,9.769019,0
2,989.8213500976562,-0.0010820345487445593,-5.795853212475777E-4,2.9800861375406384E-4,2.1596226692199707,30.900787353515625,-36.95123291015625,0.007257472723722458,0.968084454536438,-0.0045642852783203125,0.028098881,-0.13741347,9.773749,0
2,989.8240356445312,-1.4956241648178548E-4,7.51934596337378E-4,-7.67097866628319E-4,1.743741512298584,30.932830810546875,-36.96601104736328,-0.02165484055876732,0.993114173412323,0.009949684143066406,0.03284064,-0.14694563,9.764277,0
2,989.854248046875,-4.155114875175059E-4,7.518751081079245E-4,3.2006981200538576E-5,1.6684699058532715,31.49468231201172,-37.295223236083984,-0.00723932683467865,0.9771456718444824,-0.004109382629394531,0.03280258,-0.13741156,9.783212,0
2,989.8062133789062,1.6908504767343402E-4,-3.6009540781378746E-4,-1.347742509096861E-4,2.013749599456787,30.922561645507812,-37.46891784667969,-0.0022038202732801437,0.9692295789718628,0.015099525451660156,0.020815015,-0.1397939,9.761903,0
2,989.7935791015625,5.689254612661898E-4,-4.93312778417021E-4,3.9801461389288306E-4,1.8782572746276855,30.742813110351562,-37.12958526611328,-0.01152532733976841,0.9800128936767578,-0.013006210327148438,0.032726467,-0.14455965,9.773736,0
2,989.8087158203125,-9.649776620790362E-5,-6.265302654355764E-4,-1.3446007505990565E-4,2.0105690956115723,30.813697814941406,-36.615234375,0.012536633759737015,0.9671920537948608,0.0014781951904296875,0.018348992,-0.14932525,9.778467,0
2,989.81884765625,1.7018528888002038E-4,-2.271160774398595E-4,-1.1447409633547068E-6,1.5490374565124512,31.593505859375,-37.20561981201172,0.0030816271901130676,0.954242467880249,0.006505012512207031,0.030260473,-0.14217445,9.771361,0
2,989.7986450195312,-9.576400043442845E-5,4.386140499264002E-4,-9.87667590379715E-7,1.8746705055236816,31.108154296875,-37.07342529296875,0.007543405517935753,0.9797443151473999,0.006768226623535156,0.015882969,-0.14694008,9.7737255,0
2,989.7833862304688,0.0013693398796021938,0.0011043441481888294,-1.3398847659118474E-4,1.8534998893737793,31.193450927734375,-36.69023513793945,0.0025266744196414948,0.9570616483688354,-0.016597747802734375,0.023014665,-0.13740599,9.780824,0
2,989.8106689453125,-9.503023466095328E-5,1.721791340969503E-4,-5.33304875716567E-4,1.8128199577331543,31.47142791748047,-36.700233459472656,0.0023032035678625107,0.9489979147911072,0.0026178359985351562,0.013417006,-0.13740504,9.761882,0
2,989.816162109375,-2.2782169980928302E-4,1.721195294521749E-4,-5.160982254892588E-7,2.290412425994873,30.970199584960938,-36.35957336425781,-0.007100651040673256,0.9455265998840332,-0.0065593719482421875,0.030108273,-0.1397874,9.783183,0
2,989.816162109375,-2.2782169980928302E-4,1.721195294521749E-4,-5.160982254892588E-7,2.0591578483581543,31.17522430419922,-36.56689453125,0.01685705967247486,0.9469053149223328,0.0031919479370117188,0.020510584,-0.14931956,9.778446,0
2,989.788330078125,-4.937707562930882E-4,4.383759805932641E-4,-2.6667487691156566E-4,2.2859854698181152,31.071693420410156,-36.82673645019531,0.007811905816197395,0.9289472699165344,0.027167320251464844,0.020472556,-0.13501903,9.768973,0
2,989.7984008789062,1.7238600412383676E-4,-0.002224842319265008,5.324301309883595E-4,1.8941807746887207,30.91547393798828,-36.68023681640625,0.007489902898669243,0.9587748050689697,0.008523941040039062,0.018044591,-0.14931777,9.773704,0
2,989.7958984375,3.959465539082885E-5,9.708886500447989E-4,2.6627135230228305E-4,2.2654948234558105,30.894615173339844,-37.04417037963867,-0.0018179621547460556,0.9406515955924988,-0.014836311340332031,0.020396411,-0.1445503,9.783171,0
2,989.7935791015625,-7.589862798340619E-4,4.3819728307425976E-4,-5.325190722942352E-4,1.6117281913757324,31.49407958984375,-37.05548858642578,0.00757780484855175,0.9278268814086914,-3.6144256591796875E-4,0.017968476,-0.13739946,9.773698,0
2,989.8031005859375,4.032842116430402E-5,-9.449406206840649E-5,-5.323619116097689E-4,1.4641966819763184,31.408462524414062,-36.796791076660156,0.017576534301042557,0.9243815541267395,0.009387969970703125,0.01554051,-0.13739854,9.773694,0
2,989.8335571289062,-4.919368657283485E-4,-8.935010991990566E-4,4.270114004611969E-7,1.9084210395812988,30.560440063476562,-37.277530670166016,0.003638865426182747,0.9256360530853271,0.009672164916992188,0.020282269,-0.13978085,9.776057,0
2,989.7802124023438,4.4053554302081466E-4,-0.001293034409172833,2.669001114554703E-4,1.9024710655212402,30.660465240478516,-37.667388916015625,0.01319778524339199,0.9315832257270813,0.0052280426025390625,0.017854333,-0.14216319,9.764218,0
2,989.8108520507812,-2.248873352073133E-4,-2.2783057647757232E-4,6.665312102995813E-4,1.7005610466003418,30.839569091796875,-36.72294616699219,-0.00128115713596344,0.9089198112487793,-0.0039520263671875,0.024985969,-0.13739568,9.776051,0
2,989.778076171875,-9.136268636211753E-5,4.378996673040092E-4,1.3405652134679258E-4,1.7843165397644043,31.761188507080078,-37.32866668701172,0.004142187535762787,0.9148702621459961,0.015273094177246094,0.024947912,-0.13739485,9.771313,0
2,989.7826538085938,-6.236278568394482E-4,-7.605813443660736E-4,2.673716808203608E-4,1.6749625205993652,31.026363372802734,-36.806915283203125,-5.09992241859436E-4,0.9020527601242065,0.010799407958984375,0.0296897,-0.13977718,9.768943,0
2,989.8029174804688,-2.237869775854051E-4,-4.943250678479671E-4,-2.6510286261327565E-4,1.8570876121520996,30.828109741210938,-36.74639129638672,0.013593560084700584,0.9175022840499878,0.0063533782958984375,0.015312195,-0.14215949,9.787876,0
2,989.8355712890625,4.427360254339874E-4,1.7134557128883898E-4,-5.311045097187161E-4,1.6725993156433105,30.761043548583984,-37.2529296875,0.003946702927350998,0.9237455129623413,-0.0028543472290039062,0.027493536,-0.1564649,9.780795,0
3,989.7825317382812,1.7485563876107335E-4,-4.941901424899697E-4,4.0033060940913856E-4,1.8706469535827637,30.73544692993164,-36.74305725097656,0.0084956344217062,0.9042387008666992,0.006972312927246094,0.025351703,-0.13978797,9.780819,0
3,989.822998046875,-9.823468280956149E-5,3.934330743504688E-5,4.012048593722284E-4,1.7256169319152832,31.021068572998047,-36.7374267578125,-0.0012764520943164825,0.8836919069290161,-0.00238037109375,0.02772504,-0.13502106,9.776083,0
3,989.8128662109375,4.3455621926113963E-4,0.0015040547586977482,-6.639905623160303E-4,1.952986240386963,30.54925537109375,-36.89881896972656,0.027076954022049904,0.8992533683776855,0.012096405029296875,0.01575905,-0.14455369,9.768979,0
3,989.822998046875,-9.791640331968665E-5,-9.38662196858786E-5,-3.976064035668969E-4,1.9138293266296387,30.828704833984375,-36.986122131347656,-0.0016911718994379044,0.9080517292022705,0.007784843444824219,0.018132448,-0.14693663,9.780814,0
3,989.7899780273438,-2.3091520415619016E-4,3.926586214220151E-5,-1.312223612330854E-4,1.4527015686035156,31.134307861328125,-36.77897644042969,-0.0019062869250774384,0.9011647701263428,0.007947921752929688,0.018115938,-0.13501984,9.76661,0
3,989.832763671875,-6.302301189862192E-4,3.924007614841685E-5,-6.637859623879194E-4,1.5099859237670898,30.766616821289062,-36.920257568359375,0.00805281288921833,0.8963181972503662,0.01778697967529297,0.030048937,-0.14216924,9.771342,0
3,989.7971801757812,7.015083101578057E-4,-4.934175522066653E-4,1.3522981316782534E-4,1.6237664222717285,31.399948120117188,-36.974853515625,0.003271332010626793,0.8660237789154053,0.003711700439453125,0.027642548,-0.13501897,9.778443,0
3,989.7874145507812,3.5877630580216646E-5,3.9188416849356145E-5,2.140033757314086E-6,2.096388339996338,31.368499755859375,-37.19981002807617,0.0033810026943683624,0.8768764138221741,0.02764415740966797,0.022846282,-0.13978514,9.768971,0
3,989.8174438476562,-9.712128667160869E-5,3.0547846108675003E-4,2.685240760911256E-4,1.8803210258483887,30.375991821289062,-37.10844421386719,-0.010981660336256027,0.8637660145759583,0.004242897033691406,0.03477925,-0.13740149,9.773705,0
3,989.7996826171875,7.019852637313306E-4,-7.59810849558562E-4,2.685922081582248E-4,2.099975109100342,31.003158569335938,-37.25597381591797,-0.024625467136502266,0.8747668862342834,0.0044879913330078125,0.037152678,-0.13978437,9.7618685,0
3,989.8123168945312,-3.6311912117525935E-4,-0.0010261526331305504,1.355023996438831E-4,2.0659260749816895,30.918739318847656,-37.47673797607422,0.004198277369141579,0.8693599700927734,0.00489044189453125,0.015627027,-0.13978395,9.780803,0
3,989.7997436523438,-9.664410026744008E-5,-6.267045973800123E-4,-9.296928765252233E-4,1.1523680686950684,30.800731658935547,-37.252071380615234,0.003926347941160202,0.8724894523620605,2.78472900390625E-4,0.029949963,-0.14931664,9.773701,0
3,989.8125610351562,3.6672980058938265E-5,9.711649618111551E-4,2.480810508131981E-6,1.7764067649841309,31.121692657470703,-37.36701202392578,0.013119617477059364,0.8784205317497253,0.019483566284179688,0.017983943,-0.1564661,9.780801,0
3,989.7971801757812,3.683188697323203E-5,5.716652958653867E-4,2.6886482373811305E-4,1.4562888145446777,30.768966674804688,-36.83513641357422,-0.006121771410107613,0.8603829741477966,0.015024185180664062,0.027527064,-0.14454934,9.766595,0
3,989.8174438476562,5.696227890439332E-4,4.384815110825002E-4,-0.001328962272964418,2.4943881034851074,30.424274444580078,-37.282875061035156,-0.00613740086555481,0.8620032072067261,-0.008418083190917969,0.029900491,-0.15169868,9.778431,0
3,989.7971801757812,1.7030787421390414E-4,8.379294886253774E-4,-6.631043506786227E-4,1.8270602226257324,31.116397857666016,-37.29752731323242,0.0026775989681482315,0.8468958139419556,0.010928153991699219,0.025104165,-0.14693177,9.771327,0
3,989.81494140625,-7.616385701112449E-4,0.0011042194673791528,1.3591142487712204E-4,1.6645846366882324,31.227886199951172,-37.66393280029297,0.007484767585992813,0.8500886559486389,0.011041641235351562,0.015528023,-0.14693135,9.778427,0
3,989.80224609375,1.5701021766290069E-4,2.0148078328929842E-4,-1.681378053035587E-4,2.2140002250671387,30.636062622070312,-37.63697814941406,-0.002166949212551117,0.83705735206604,0.03496551513671875,0.025071144,-0.13501453,9.761855,0
3,989.7894897460938,1.5716924099251628E-4,-9.96966497041285E-4,-3.0122758471406996E-4,1.775428295135498,30.75192642211914,-37.19125747680664,0.007462073117494583,0.8479663729667664,0.0068035125732421875,0.020274878,-0.1469306,9.771322,0
3,989.83251953125,9.562757913954556E-4,6.009030039422214E-4,-1.6800148296169937E-4,1.800483226776123,30.933425903320312,-37.20573806762695,-0.006769994273781776,0.820932149887085,-0.002437591552734375,0.01786846,-0.1350137,9.776055,0
3,989.7894897460938,2.906452282331884E-4,6.008771015331149E-4,2.3154049995355308E-4,1.54319429397583,30.587188720703125,-37.222816467285156,-0.0076089538633823395,0.829912543296814,0.0026769638061523438,0.02741158,-0.14216319,9.785523,0
3,989.7894897460938,2.906452282331884E-4,6.008771015331149E-4,2.3154049995355308E-4,1.54319429397583,30.587188720703125,-37.222816467285156,0.0021014995872974396,0.8473256826400757,0.0027923583984375,0.020225376,-0.15646246,9.7831545,0
3,989.7996826171875,-3.7482642801478505E-4,-3.3128008362837136E-4,-3.463905886746943E-5,2.238375186920166,31.079933166503906,-37.05083465576172,-0.002498297020792961,0.8134992122650146,-0.015777587890625,0.024988651,-0.13024595,9.783153,0
3,989.7996826171875,-3.7482642801478505E-4,-3.3128008362837136E-4,-3.463905886746943E-5,2.238375186920166,31.079933166503906,-37.05083465576172,0.006782088428735733,0.8164535164833069,0.01275634765625,0.022582233,-0.13739538,9.773683,0
4,989.7994995117188,-1.0819250019267201E-4,4.6761592966504395E-4,-3.0081861768849194E-4,1.5552315711975098,30.493057250976562,-37.142181396484375,-0.0024778172373771667,0.8206272721290588,0.01784229278564453,0.03235081,-0.14693362,9.768967,0
4,989.7994995117188,-1.0819250019267201E-4,4.6761592966504395E-4,-3.0081861768849194E-4,1.5552315711975098,30.493057250976562,-37.142181396484375,0.02132144384086132,0.8142527937889099,0.017952919006347656,0.015613973,-0.14693347,9.771334,0
4,989.7564697265625,2.8936745366081595E-4,6.010845536366105E-4,6.304666167125106E-4,1.8400778770446777,31.39202880859375,-37.392642974853516,-0.007931634783744812,0.8140962719917297,0.018291473388671875,0.02994579,-0.14931652,9.768966,0
4,989.7564697265625,2.8936745366081595E-4,6.010845536366105E-4,6.304666167125106E-4,1.8400778770446777,31.39202880859375,-37.392642974853516,0.00638224184513092,0.8025981187820435,0.027894020080566406,0.017988712,-0.14693311,9.771333,0
4,989.8096313476562,9.552299161441624E-4,0.0011337045580148697,-3.529182868078351E-5,2.549607753753662,30.42339324951172,-37.4453010559082,0.0063840169459581375,0.808567464351654,0.013934135437011719,0.02037108,-0.13978305,9.776066,0
4,989.799560546875,-5.094346706755459E-4,2.0158715778961778E-4,-1.6841854085214436E-4,1.986630916595459,31.107879638671875,-37.4755859375,-0.012730823829770088,0.7860338687896729,0.009433746337890625,0.034702897,-0.13739958,9.776065,0
4,989.8046264648438,-6.424469756893814E-4,-6.475239206338301E-5,-1.683560840319842E-4,1.83964204788208,30.653972625732422,-37.118438720703125,-0.01270364597439766,0.79482102394104,0.014537811279296875,0.034695357,-0.13501614,9.778432,0
4,989.8046264648438,-6.424469756893814E-4,-6.475239206338301E-5,-1.683560840319842E-4,1.83964204788208,30.653972625732422,-37.118438720703125,-0.007914742454886436,0.7882580757141113,0.0051898956298828125,0.029908001,-0.13501588,9.776063,0
4,989.7819213867188,-5.091432831250131E-4,2.0153986406512558E-4,2.311801363248378E-4,2.010707378387451,30.91961669921875,-37.31431198120117,0.006403796374797821,0.7930862307548523,0.014970779418945312,0.013171136,-0.14216563,9.771329,0
4,989.7819213867188,-5.091432831250131E-4,2.0153986406512558E-4,2.311801363248378E-4,2.010707378387451,30.91961669921875,-37.31431198120117,0.0018697120249271393,0.8055933713912964,0.034027099609375,0.022723198,-0.14693195,9.764226,0
4,989.7969970703125,1.5679217176511884E-4,-5.974313826300204E-4,-5.677050212398171E-4,2.0088858604431152,30.28600311279297,-37.66187286376953,-0.0032551661133766174,0.7879665493965149,0.010575294494628906,0.027495444,-0.14454857,9.76896,0
4,989.8094482421875,5.563387530855834E-4,2.0150438649579883E-4,-3.0135796987451613E-4,1.889209270477295,31.38526153564453,-37.245849609375,-0.012107174843549728,0.7735658884048462,0.015625953674316406,0.03226769,-0.14216504,9.776061,0
4,989.7766723632812,2.900958643294871E-4,-9.969290113076568E-4,4.976209020242095E-4,1.829667568206787,30.38129425048828,-37.17793273925781,-0.007271947339177132,0.7747304439544678,0.02059459686279297,0.03226012,-0.14454815,9.766591,0
4,989.7840576171875,-3.7562119541689754E-4,-6.483514880528674E-5,-4.34453395428136E-4,1.833691120147705,30.753997802734375,-37.50829315185547,-0.011986972764134407,0.7730957269668579,0.015964508056640625,0.029862642,-0.14454797,9.773692,0
4,989.7966918945312,2.902414998970926E-4,2.0146890892647207E-4,-5.675801075994968E-4,2.116579532623291,30.91344451904297,-37.407249450683594,-0.002608656883239746,0.7838231325149536,0.011462211608886719,0.029855072,-0.14931434,9.773692,0
4,989.7965087890625,2.3998378310352564E-5,2.0145709277130663E-4,-3.0123305623419583E-4,1.453382968902588,30.871932983398438,-37.379608154296875,0.0020377933979034424,0.7788926362991333,0.016511917114257812,0.03223741,-0.15169743,9.776058,0
4,989.7840576171875,2.903872518800199E-4,4.6776121598668396E-4,6.309037562459707E-4,1.7528738975524902,30.941665649414062,-37.429840087890625,-0.02676650695502758,0.7608444690704346,0.021485328674316406,0.046569288,-0.13501424,9.77369,0
4,989.8092651367188,-9.079614537768066E-4,6.009071948938072E-4,2.3146113380789757E-4,2.1181015968322754,30.9149169921875,-37.484554290771484,0.0017512757331132889,0.7682570815086365,0.016884803771972656,0.027442515,-0.14693055,9.783159,0
4,989.811767578125,-0.0010410465765744448,4.6773746726103127E-4,7.641240954399109E-4,1.8262200355529785,30.852550506591797,-37.82084655761719,-0.0030205529183149338,0.760081946849823,0.01710033416748047,0.03221476,-0.13978043,9.766587,0
4,989.8121337890625,1.5744782285764813E-4,-6.490611849585548E-5,-3.0110820080153644E-4,2.007119655609131,31.284957885742188,-37.25815200805664,-0.012473398819565773,0.7522611618041992,0.0125579833984375,0.029817283,-0.13978031,9.771321,0
4,989.8067016601562,9.564682259224355E-4,-5.975497188046575E-4,6.310285534709692E-4,1.9605956077575684,30.556617736816406,-37.28535079956055,0.001840377226471901,0.7617282867431641,0.031795501708984375,0.027419865,-0.15407977,9.759484,0
4,989.7965087890625,5.570673965848982E-4,7.340178126469254E-4,-1.6788780339993536E-4,1.6303973197937012,31.037551879882812,-37.18562316894531,-0.0029376354068517685,0.731391429901123,0.017699241638183594,0.029802203,-0.13263008,9.780789,0
4,989.8067016601562,-1.0864966316148639E-4,-7.307312916964293E-4,2.3161721765063703E-4,1.8475499153137207,31.293476104736328,-37.08009338378906,-0.0028361547738313675,0.7359125018119812,0.013274192810058594,0.013065338,-0.13977972,9.780787,0
4,989.7918701171875,2.4581269826740026E-5,4.676783864852041E-4,2.316484460607171E-4,1.7930121421813965,31.03197479248047,-37.51829528808594,0.0065222084522247314,0.7514435052871704,0.027693748474121094,0.020227492,-0.14454606,9.766583,0
4,989.7893676757812,-3.748197923414409E-4,4.6766657033003867E-4,-1.6779408906586468E-4,1.7838797569274902,31.02313995361328,-37.05446243286133,-0.0030417684465646744,0.7355432510375977,0.023056983947753906,0.017234385,-0.13738146,9.768896,0
5,989.827392578125,8.236746652983129E-4,6.818086694693193E-5,-5.672367988154292E-4,1.6674914360046387,31.124916076660156,-37.119468688964844,-0.006765209138393402,0.7324985265731812,0.018616676330566406,0.021374792,-0.14451563,9.773572,0
5,989.7741088867188,2.9721370083279908E-5,4.667584435082972E-4,-2.428426523692906E-5,2.0437769889831543,30.63426971435547,-36.91778564453125,0.007666442543268204,0.7291390895843506,0.018822669982910156,0.018929124,-0.1468975,9.785403,0
5,989.8041381835938,1.6341703303623945E-4,3.3351313322782516E-4,7.748939096927643E-4,1.6499085426330566,30.844863891601562,-36.79243469238281,0.012188725173473358,0.7212324738502502,0.01901721954345703,0.016483366,-0.14212963,9.7830305,0
5,989.8045654296875,4.30271087680012E-4,-5.986797623336315E-4,-2.9013899620622396E-4,1.3876471519470215,30.96841812133789,-37.3751220703125,0.00783395953476429,0.7178993225097656,2.8133392333984375E-4,0.018817455,-0.14451149,9.787761,0
5,989.8167724609375,1.6449294344056398E-4,-8.650829549878836E-4,-1.567505532875657E-4,1.437619686126709,31.225494384765625,-36.70500564575195,0.003015780821442604,0.7193171977996826,0.019423484802246094,0.016371727,-0.14689347,9.76645,0
5,989.7914428710938,-1.0128474968951195E-4,4.664090811274946E-4,3.761117986869067E-4,1.4302849769592285,31.429962158203125,-37.716636657714844,0.012515086680650711,0.7062910795211792,0.0243682861328125,0.0067563355,-0.1397422,9.766444,0
5,989.7964477539062,-6.265405681915581E-5,-1.7991827917285264E-5,2.540293789934367E-4,1.748852252960205,30.568954467773438,-37.09947204589844,0.012964876368641853,0.7156169414520264,0.019929885864257812,0.021039933,-0.14689067,9.7830105,0
5,989.7969970703125,-6.211586878634989E-5,-6.838688859716058E-4,-1.4521402772516012E-4,1.0144047737121582,31.46200942993164,-37.73141098022461,-0.0014621522277593613,0.7121639251708984,0.015401840209960938,0.018594205,-0.144506,9.768802,0
5,989.7969970703125,-6.211586878634989E-5,-6.838688859716058E-4,-1.4521402772516012E-4,1.0144047737121582,31.46200942993164,-37.73141098022461,0.01309792511165142,0.7102494239807129,0.024982452392578125,0.0137586,-0.1421214,9.768796,0
5,989.8092651367188,-3.278939111623913E-4,2.481493283994496E-4,-8.107729954645038E-4,1.3765873908996582,31.43231201171875,-37.63151550292969,-0.005534235388040543,0.7116285562515259,0.02991485595703125,0.028042197,-0.15403643,9.766423,0
5,989.801513671875,-1.9366006017662585E-4,-0.0010836046421900392,-1.136425998993218E-5,1.8994269371032715,30.657516479492188,-37.512779235839844,0.004231911152601242,0.7021292448043823,0.020722389221191406,0.016036868,-0.14688516,9.77352,0
5,989.8117065429688,6.058255676180124E-4,-1.5158641326706856E-4,-1.4429178554564714E-4,1.556210994720459,30.86281967163086,-37.317935943603516,0.004122845828533173,0.6894327402114868,0.03984546661376953,0.020760834,-0.13496745,9.766414,0
5,989.8117065429688,6.058255676180124E-4,-1.5158641326706856E-4,-1.4429178554564714E-4,1.556210994720459,30.86281967163086,-37.317935943603516,0.018572524189949036,0.6831718683242798,0.020994186401367188,0.011145413,-0.13258275,9.778245,0
5,989.7944946289062,2.068897883873433E-4,3.809579648077488E-4,2.5541268405504525E-4,1.4618334770202637,31.143142700195312,-37.2428092956543,-2.975035458803177E-4,0.6940866708755493,0.035391807556152344,0.020649254,-0.14926443,9.764037,0
5,989.7865600585938,3.4058556775562465E-4,-2.8491910779848695E-4,5.21959038451314E-4,1.8902945518493652,30.648681640625,-37.0489501953125,0.009601820260286331,0.6953683495521545,0.011918067932128906,0.0014742017,-0.1587961,9.782969,0
5,989.78173828125,-7.241398561745882E-4,-8.176381816156209E-4,-1.0442076018080115E-5,1.8367362022399902,30.756942749023438,-37.66290283203125,0.01427619718015194,0.6873157024383545,0.016839027404785156,0.0157578,-0.13972858,9.773496,0
5,989.8043212890625,-3.23590385960415E-4,-1.88651611097157E-5,3.8949280860833824E-4,1.7990994453430176,31.037872314453125,-37.8275146484375,0.009592074900865555,0.6966643333435059,0.017119407653808594,0.018091917,-0.1540268,9.771122,0
5,989.8065795898438,7.642150740139186E-5,-1.521103986306116E-4,-4.092241870239377E-4,1.8617911338806152,30.938446044921875,-37.67738723754883,0.014423815533518791,0.676157534122467,0.026668548583984375,0.013256252,-0.14210904,9.773484,0
5,989.7667846679688,2.1011740318499506E-4,-2.8535566525533795E-4,-4.089938011020422E-4,1.971113681793213,30.461013793945312,-37.127403259277344,0.009700031951069832,0.6731250286102295,0.026839256286621094,0.010810554,-0.13734111,9.771113,0
5,989.8218383789062,7.432871498167515E-4,1.1403077223803848E-4,-9.28938970901072E-6,1.5797438621520996,31.0428466796875,-37.25511169433594,0.00504336878657341,0.6795269250869751,0.0033397674560546875,0.022704244,-0.15402272,9.780577,0
5,989.8046264648438,7.803537300787866E-5,-5.518462276086211E-4,-1.4221674064174294E-4,1.8973612785339355,31.024337768554688,-37.53392791748047,0.014750439673662186,0.6746227741241455,0.03201770782470703,0.0059191585,-0.15402135,9.759267,0
5,989.7843627929688,7.85732117947191E-5,-2.856177161447704E-4,-1.419861800968647E-4,1.4848237037658691,31.69145965576172,-37.278438568115234,0.0055263470858335495,0.661950945854187,0.03692340850830078,0.015422881,-0.13733697,9.76873,0
5,989.7894287109375,7.911139982752502E-5,-8.183368481695652E-4,1.2456023250706494E-4,1.975135326385498,30.833721160888672,-37.45777130126953,0.010361919179558754,0.6605852246284485,0.03699684143066406,0.017757058,-0.1349524,9.771092,0
5,989.8017578125,7.454389706254005E-4,2.468394231982529E-4,-8.367147529497743E-6,1.5260467529296875,31.045196533203125,-37.16999053955078,0.015015225857496262,0.6700909733772278,0.013586044311523438,0.017701209,-0.15401721,9.773454,0
5,989.8017578125,-1.861285709310323E-4,-1.9563784007914364E-5,-8.070842595770955E-4,1.5963482856750488,30.953128814697266,-37.40638732910156,8.132755756378174E-4,0.6540125012397766,-5.216598510742188E-4,0.013931453,-0.14212564,9.775914,0
6,989.7869262695312,-0.0012584824580699205,9.136927546933293E-4,-1.4433322940021753E-4,1.6409144401550293,30.941944122314453,-37.027679443359375,0.0029140040278434753,0.6586529016494751,0.027948379516601562,0.024564862,-0.14930183,9.76891,0
6,989.8173828125,3.2399932388216257E-4,-1.6637248336337507E-5,-9.471365483477712E-4,1.9186930656433105,31.46526336669922,-36.79316711425781,0.0028808284550905228,0.6464205980300903,0.028084754943847656,0.022204101,-0.1421527,9.766545,0
6,989.8271484375,0.001122665824368596,-1.659158442635089E-5,1.1800654465332627E-4,2.033942699432373,30.467498779296875,-37.676353454589844,0.012762503698468208,0.644757866859436,0.004496574401855469,0.012673646,-0.14215341,9.787854,0
6,989.7869262695312,3.234370378777385E-4,-0.0010818095179274678,-6.810616469010711E-4,1.8104567527770996,31.20610809326172,-37.14624786376953,0.013159723952412605,0.630588173866272,0.0426025390625,0.010312915,-0.13738754,9.768919,0
6,989.786865234375,-4.757917486131191E-4,-0.0012149217072874308,6.503973854705691E-4,1.8291258811950684,30.74958038330078,-37.27638244628906,0.013220876455307007,0.6337648630142212,0.028478622436523438,0.010342121,-0.1445381,9.773656,0
6,989.8094482421875,5.655897257383913E-5,-9.485603077337146E-4,1.176451041828841E-4,2.383948802947998,30.42601776123047,-36.95802307128906,0.008508458733558655,0.6339301466941833,0.038176536560058594,0.012761146,-0.14215553,9.773659,0
6,989.7793579101562,5.6277713156305254E-5,1.167489099316299E-4,-2.8194926562719047E-4,1.796597957611084,30.66663360595703,-37.57444763183594,0.008475115522742271,0.6277951002120972,0.024039268493652344,0.024739861,-0.13977298,9.78313,0
6,989.7919311523438,1.8915451073553413E-4,-1.4952135097701102E-4,-4.152276960667223E-4,1.5616183280944824,31.131088256835938,-37.026527404785156,-9.918641299009323E-4,0.6294912695884705,0.028923988342285156,0.0223791,-0.14454022,9.7712965,0
6,989.7869262695312,3.2203143928200006E-4,3.831560898106545E-4,-1.490323047619313E-4,1.8677411079406738,30.838417053222656,-37.28752899169922,0.017936788499355316,0.635768711566925,0.019616127014160156,0.00806886,-0.14454097,9.773666,0
6,989.8123779296875,-6.103552877902985E-4,-0.00121469353325665,3.83478996809572E-4,2.3007683753967285,30.348365783691406,-37.32558059692383,0.013062531128525734,0.6039125323295593,0.010304450988769531,0.012877822,-0.13500857,9.778403,0
6,989.8072509765625,5.515314114745706E-5,6.495632696896791E-4,2.502005663700402E-4,1.9208950996398926,31.204357147216797,-37.471099853515625,0.0176932904869318,0.624944806098938,0.02937602996826172,0.01051712,-0.14692566,9.76657,0
6,989.7870483398438,-4.7775963321328163E-4,1.1697711306624115E-4,-1.6235775547102094E-5,1.3775362968444824,30.589813232421875,-36.73553466796875,0.008056722581386566,0.602658748626709,0.034264564514160156,0.024885654,-0.13262668,9.771307,0
6,989.8224487304688,-2.1172490960452706E-4,6.496544228866696E-4,-1.635626540519297E-5,1.6017556190490723,31.221397399902344,-37.11498260498047,0.012599576264619827,0.6184393167495728,0.02495288848876953,0.012965322,-0.13977724,9.776044,0
6,989.8046264648438,-3.4516409505158663E-4,-1.4924751303624362E-4,2.498390676919371E-4,1.9700274467468262,31.197593688964844,-37.32430648803711,0.0029391199350357056,0.6181738376617432,0.020455360412597656,0.029723823,-0.15646091,9.79025,0
6,989.8046264648438,-3.4516409505158663E-4,-1.4924751303624362E-4,2.498390676919371E-4,1.9700274467468262,31.197593688964844,-37.32430648803711,0.02686474286019802,0.6022295951843262,0.03000164031982422,0.0010741353,-0.13501212,9.771316,0
6,989.8046264648438,-8.780767675489187E-4,3.8342989864759147E-4,-1.6597245121374726E-5,1.723252773284912,30.755752563476562,-37.183441162109375,0.012523375451564789,0.6040859222412109,0.015932083129882812,0.010662943,-0.14692923,9.771318,0
6,989.7996826171875,-8.786391699686646E-4,-0.0012143740896135569,-2.8315410600043833E-4,1.9002690315246582,30.921363830566406,-36.98945617675781,0.007141772657632828,0.59917813539505,0.020895004272460938,0.008302212,-0.14216337,9.768953,0
6,989.7869873046875,-2.131306246155873E-4,0.001315672299824655,-8.159064454957843E-4,2.084052562713623,30.83049774169922,-37.70531463623047,0.011784039437770844,0.5915886163711548,0.02102375030517578,0.013111174,-0.14693066,9.776057,0
6,989.7869873046875,-2.131306246155873E-4,0.001315672299824655,-8.159064454957843E-4,2.084052562713623,30.83049774169922,-37.70531463623047,0.0023382939398288727,0.613853931427002,0.04003143310546875,0.022699952,-0.14454809,9.766592,0
6,989.8148193359375,4.5237818267196417E-4,1.1729655670933425E-4,2.4923670571297407E-4,2.1663918495178223,30.644302368164062,-37.861083984375,0.011730533093214035,0.596705973148346,0.021224021911621094,0.013169527,-0.1445488,9.773696,0
6,989.7899169921875,1.0482089419383556E-4,2.810208825394511E-4,1.8379429820924997E-4,1.452296257019043,31.60851287841797,-37.576507568359375,0.01175248809158802,0.5919432640075684,0.016702651977539062,0.01797849,-0.1469329,9.773698,0
6,989.7919921875,-8.275656145997345E-4,-3.8472318556159735E-4,1.8367383745498955E-4,1.682030200958252,31.402019500732422,-37.291893005371094,0.01643039844930172,0.5936417579650879,0.031042098999023438,0.0036682189,-0.14455032,9.771335,0
6,989.7919921875,-8.275656145997345E-4,-3.8472318556159735E-4,1.8367383745498955E-4,1.682030200958252,31.402019500732422,-37.291893005371094,-0.0025747735053300858,0.5827699899673462,0.035836219787597656,0.027596474,-0.1374012,9.776071,0
6,989.8124389648438,-2.9521522810682654E-4,-1.1836160410894081E-4,-7.485522655770183E-4,1.8280396461486816,31.486160278320312,-37.47328186035156,0.016903094947338104,0.5797008275985718,0.01703166961669922,0.00611645,-0.14455172,9.780808,0
7,989.7919921875,1.0397746518719941E-4,-0.0010504215024411678,5.0274888053536415E-5,1.7658915519714355,31.217300415039062,-37.52495574951172,-0.002074500545859337,0.5719991326332092,0.021938323974609375,0.022395223,-0.14215732,9.778399,0
7,989.7997436523438,2.435718197375536E-4,-3.860638535115868E-4,8.482237462885678E-4,1.520937442779541,31.40906524658203,-37.03652572631836,0.00792083889245987,0.5742126703262329,0.01731395721435547,0.024795264,-0.14215761,9.787869,0
7,989.809814453125,3.771926276385784E-4,-7.856128504499793E-4,1.826323859859258E-4,1.4658560752868652,31.515853881835938,-37.57317352294922,-0.0016462747007608414,0.5699030160903931,0.031703948974609375,0.010466039,-0.13977465,9.7713,0
7,989.7769775390625,1.1077884119004011E-4,1.3350698282010853E-5,-8.37253755889833E-5,1.606459140777588,31.33173370361328,-38.04597473144531,0.0029889363795518875,0.5812682509422302,0.03656578063964844,0.022425681,-0.15169129,9.766566,0
7,989.7897338867188,-2.247688826173544E-5,2.796824846882373E-4,-4.832411650568247E-4,1.966142177581787,30.930801391601562,-37.693016052246094,0.017571905627846718,0.5655553340911865,0.03662681579589844,0.010486305,-0.14215839,9.761832,0
7,989.8051147460938,0.0010426888475194573,-6.524072960019112E-4,1.825065992306918E-4,1.5956673622131348,31.21550750732422,-36.805763244628906,-0.0062536150217056274,0.5581939220428467,0.027268409729003906,0.027225792,-0.13500878,9.766568,0
7,989.8076782226562,-2.2672582417726517E-5,-3.86075465939939E-4,5.819385405629873E-4,1.8511366844177246,30.928131103515625,-37.136253356933594,0.008098170161247253,0.555368185043335,0.022653579711914062,0.017676324,-0.13500902,9.771303,0
7,989.81787109375,-2.2770371288061142E-5,-1.1974372318945825E-4,-4.833670100197196E-4,1.5797438621520996,31.0428466796875,-37.25511169433594,0.003201119601726532,0.5611428618431091,0.008607864379882812,0.02485618,-0.14454237,9.780774,0
7,989.7874145507812,9.092374239116907E-4,2.797460474539548E-4,5.81854663323611E-4,2.0037779808044434,30.649871826171875,-37.528411865234375,0.0032204650342464447,0.5502273440361023,0.04654216766357422,0.017696619,-0.1350095,9.76657,0
7,989.8026123046875,3.765078727155924E-4,-9.186596143990755E-4,-8.397700730711222E-5,1.5145516395568848,30.771038055419922,-37.15217590332031,0.013168921694159508,0.5512237548828125,0.023024559020996094,0.015316874,-0.14215958,9.77604,0
7,989.7572631835938,7.758837891742587E-4,-3.8601193227805197E-4,3.154549340251833E-4,1.2666926383972168,31.065773010253906,-37.208213806152344,0.00843673013150692,0.5449803471565247,0.013617515563964844,0.020106792,-0.13500997,9.773675,0
7,989.81787109375,1.0999618098139763E-4,4.1295160190202296E-4,-2.1721876692026854E-4,2.0698113441467285,31.185531616210938,-37.10802459716797,-0.005971955135464668,0.5469064712524414,0.008999824523925781,0.029676616,-0.14930996,9.785512,0
7,989.7977294921875,2.4305644910782576E-4,-6.522961193695664E-4,-4.835766740143299E-4,2.0152735710144043,30.924030303955078,-37.546226501464844,0.007918387651443481,0.5478987693786621,0.032825469970703125,0.010567516,-0.13977712,9.76184,0
7,989.7779541015625,3.761163679882884E-4,0.001078772940672934,-3.5046052653342485E-4,2.027310848236084,30.829898834228516,-37.4655876159668,0.017609279602766037,0.5355787873268127,0.04240703582763672,0.015357494,-0.14216062,9.761842,0
7,989.7978515625,-2.3455126211047173E-5,-5.191062809899449E-4,-7.499762577936053E-4,1.4423232078552246,31.335830688476562,-37.6359977722168,0.008307699114084244,0.5422714948654175,0.01884937286376953,0.017757505,-0.14454415,9.783147,0
7,989.7927856445312,-1.5671108849346638E-4,-7.854063296690583E-4,-2.1738652139902115E-4,1.5437674522399902,31.43115997314453,-38.19609832763672,-0.0010608360171318054,0.5407950282096863,0.033111572265625,0.022547483,-0.14931098,9.757109,0
7,989.8080444335938,1.0950712021440268E-4,-2.5275873485952616E-4,3.1520333141088486E-4,1.7965989112854004,30.66663360595703,-37.57444763183594,0.012891383841633797,0.5335079431533813,0.023743629455566406,0.022557616,-0.13739479,9.780782,0
7,989.80029296875,6.420408608391881E-4,1.3573080650530756E-5,3.1516142189502716E-4,2.1041054725646973,30.26952362060547,-37.21367645263672,0.017893634736537933,0.5312584638595581,0.03803443908691406,0.010618269,-0.15169469,9.771314,0
7,989.7801513671875,6.419431883841753E-4,1.3588942238129675E-5,-8.435430936515331E-5,1.6774630546569824,31.397598266601562,-37.059974670410156,-0.005825936794281006,0.5284686088562012,0.023940086364746094,0.017798156,-0.13739526,9.768948,0
7,989.79052734375,-8.229899685829878E-4,8.125683525577188E-4,-8.443824481219053E-5,2.1679139137268066,30.645774841308594,-37.938385009765625,0.008083727210760117,0.5194603204727173,0.03830909729003906,0.013028443,-0.13977876,9.766582,0
7,989.79052734375,-8.229899685829878E-4,8.125683525577188E-4,-8.443824481219053E-5,2.1679139137268066,30.645774841308594,-37.938385009765625,0.003423793241381645,0.503772497177124,0.03362846374511719,0.024988145,-0.13262919,9.7760515,0
7,989.7958984375,1.0901782661676407E-4,-9.184690425172448E-4,3.14993696520105E-4,2.1933741569519043,30.353065490722656,-37.15534210205078,0.008484620600938797,0.5392539501190186,0.03846263885498047,0.020218492,-0.14931244,9.7713175,0
7,989.8031005859375,-2.4335808120667934E-5,5.46300201676786E-4,4.480677598621696E-4,1.841599941253662,31.393497467041016,-37.469947814941406,0.017681045457720757,0.5259157419204712,0.024405479431152344,0.005889237,-0.14454618,9.771318,0
7,989.8031005859375,-2.4335808120667934E-5,5.46300201676786E-4,4.480677598621696E-4,1.841599941253662,31.393497467041016,-37.469947814941406,0.022530775517225266,0.5197681188583374,0.024457931518554688,0.010679126,-0.14931297,9.773686,0
7,989.8031005859375,-2.4335808120667934E-5,5.46300201676786E-4,4.480677598621696E-4,1.913285732269287,31.196998596191406,-37.08457565307617,-0.010883806273341179,0.5072298645973206,0.01983642578125,0.03172499,-0.13976845,9.776011,0
8,989.813232421875,-4.2390741873532534E-4,-2.5263166753575206E-4,4.4802582124248147E-4,1.6043639183044434,30.486289978027344,-36.995384216308594,0.014139825478196144,0.5042920708656311,0.048439979553222656,0.014503777,-0.14213964,9.766498,0
8,989.803466796875,-6.880564615130424E-4,-1.1982546129729599E-4,-6.163090001791716E-4,2.0167946815490723,30.925506591796875,-37.62352752685547,0.023636186495423317,0.4875396490097046,0.020125389099121094,0.009696037,-0.1373724,9.773597,0
8,989.79052734375,5.142540321685374E-4,-2.5318723055534065E-4,1.8845527665689588E-4,1.9366583824157715,30.850799560546875,-38.14570236206055,0.00928865559399128,0.49810877442359924,0.029738426208496094,0.016837835,-0.13975504,9.764125,0
8,989.79052734375,5.142540321685374E-4,-2.5318723055534065E-4,1.8845527665689588E-4,1.9366583824157715,30.850799560546875,-38.14570236206055,-3.9339251816272736E-4,0.5110441446304321,0.025054931640625,0.0144200325,-0.1469042,9.778325,0
8,989.8111572265625,-1.5099794836714864E-4,4.1251518996432424E-4,-2.107880136463791E-4,1.9770617485046387,30.360992431640625,-36.737548828125,0.028421498835086823,0.4834047853946686,0.044135093688964844,0.0024425983,-0.13498709,9.76412,0
8,989.8111572265625,-1.5099794836714864E-4,4.1251518996432424E-4,-2.107880136463791E-4,1.9770617485046387,30.360992431640625,-36.737548828125,-0.0052487533539533615,0.47746410965919495,0.05838203430175781,0.023923874,-0.13021985,9.754649,0
8,989.8309936523438,-2.8361770091578364E-4,4.124279075767845E-4,-7.739951252005994E-5,2.0864157676696777,31.09581756591797,-37.25930404663086,-5.351006984710693E-4,0.4926254451274872,0.030119895935058594,0.019116133,-0.1397523,9.778318,0
8,989.8309936523438,-2.8361770091578364E-4,4.124279075767845E-4,-7.739951252005994E-5,2.0864157676696777,31.09581756591797,-37.25930404663086,0.01837863400578499,0.4867408275604248,0.02069377899169922,0.0047487915,-0.13975164,9.7712145,0
8,989.8112182617188,3.8244103780016303E-4,2.7922625304199755E-4,3.2218958949670196E-4,1.8612475395202637,31.306732177734375,-37.775840759277344,0.0036572087556123734,0.47451382875442505,0.039730072021484375,0.014280498,-0.13736764,9.773579,0
8,989.7808837890625,1.2625596718862653E-4,-7.641274714842439E-5,-1.301949960179627E-4,2.4227023124694824,30.620777130126953,-37.668251037597656,0.003927487879991531,0.495801717042923,0.03035259246826172,0.019032389,-0.14690003,9.771209,0
8,989.8038940429688,2.596829435788095E-4,-0.0010085620451718569,4.0255195926874876E-4,2.013749599456787,30.922561645507812,-37.46892166137695,0.013547543436288834,0.48852548003196716,0.020975112915039062,0.016614556,-0.14451605,9.780675,0
8,989.8162841796875,-4.058377235196531E-4,3.2297373400069773E-4,6.689831498079002E-4,1.6395297050476074,31.04638671875,-37.649452209472656,0.008955642580986023,0.466746985912323,0.025806427001953125,0.011806846,-0.14451548,9.78304,0
8,989.8037109375,-6.718848017044365E-4,5.892460467293859E-4,-2.630071830935776E-4,1.4774584770202637,30.683670043945312,-37.21833038330078,0.0036214515566825867,0.4629099667072296,0.030675888061523438,0.018948674,-0.13259834,9.771201,0
8,989.798583984375,2.60489818174392E-4,1.8972843827214092E-4,-2.6289181550964713E-4,1.8132033348083496,30.576919555664062,-37.725730895996094,-0.005763385444879532,0.4663397967815399,0.025989532470703125,0.021310687,-0.1278311,9.771198,0
8,989.8319702148438,1.276009134016931E-4,5.652688560076058E-5,-6.622505025006831E-4,1.9201607704162598,29.834171295166016,-37.62176513671875,0.0034857019782066345,0.4736311137676239,0.016599655151367188,0.014113069,-0.14213005,9.785399,0
8,989.8139038085938,2.610280062071979E-4,1.8964112678077072E-4,-1.2950337259098887E-4,1.5999350547790527,30.587783813476562,-37.462547302246094,0.013077452778816223,0.4664885997772217,0.030884742736816406,0.014085144,-0.13736284,9.7782955,0
8,989.8112182617188,3.9445451693609357E-4,-2.0987633615732193E-4,-2.6254606200382113E-4,1.815864086151123,31.474376678466797,-36.85483932495117,0.013028720393776894,0.464082270860672,0.04043769836425781,0.018837035,-0.13974544,9.764089,0
8,989.8163452148438,1.284077879972756E-4,5.890275933779776E-4,4.03359008487314E-4,1.8480925559997559,30.925186157226562,-36.98163986206055,0.01251138374209404,0.470092236995697,0.03108978271484375,0.016419232,-0.13736144,9.766455,0
8,989.80126953125,1.2867682380601764E-4,8.552998187951744E-4,-6.617893814109266E-4,1.33424711227417,31.60289764404297,-36.86512756347656,0.017145264893770218,0.48300492763519287,0.035872459411621094,0.006831676,-0.15166041,9.773553,0
8,989.814208984375,-2.7052784571424127E-4,4.557823413051665E-4,5.367474514059722E-4,1.5055575370788574,30.868114471435547,-37.38742446899414,0.0025510601699352264,0.46143490076065063,0.0122833251953125,0.01875329,-0.13497677,9.775918,0
8,989.8167724609375,1.2921466259285808E-4,5.888965679332614E-4,-1.2892700033262372E-4,1.4996070861816406,30.9681396484375,-37.77728271484375,0.016825681552290916,0.45448923110961914,0.050232887268066406,0.0067759156,-0.142126,9.761712,0
8,989.814208984375,-4.031480639241636E-4,4.556950298137963E-4,-3.951276303268969E-4,1.8692622184753418,30.839889526367188,-37.36483383178711,0.002329302951693535,0.4566013813018799,0.040854454040527344,0.023477316,-0.15165845,9.773545,0
8,989.8270874023438,6.623844965361059E-4,-2.1013832883909345E-4,-7.944860844872892E-4,1.7874665260314941,30.657798767089844,-37.110618591308594,-0.002699103206396103,0.4673476815223694,0.05990791320800781,0.02344942,-0.15880755,9.752238,0
8,989.7990112304688,-3.1361705623567104E-6,7.21923541277647E-4,1.377347216475755E-4,1.3267760276794434,31.701454162597656,-37.17768478393555,0.0022346284240484238,0.4568634629249573,0.04573631286621094,0.013861895,-0.14689043,9.75697,0
9,989.7994995117188,5.29764627572149E-4,-3.433835809119046E-4,1.3785003102384508E-4,2.254542827606201,30.252166748046875,-36.92790603637695,-0.009012904018163681,0.44481346011161804,0.04092693328857422,0.029919803,-0.14216605,9.773698,0
9,989.8193359375,-9.86216400633566E-6,1.8900648865383118E-4,-1.3629905879497528E-6,2.074920177459717,30.821659088134766,-37.24148941040039,0.005005469545722008,0.43777406215667725,0.031525611877441406,0.010842413,-0.14216712,9.771335,0
9,989.80419921875,5.162115558050573E-4,1.900711067719385E-4,5.284581566229463E-4,1.978722095489502,30.46837615966797,-37.51393127441406,-0.014404689893126488,0.43472036719322205,0.031615257263183594,0.025223702,-0.13978484,9.766604,0
9,989.8143310546875,5.154046812094748E-4,-2.092717040795833E-4,3.9495437522418797E-4,2.1535353660583496,30.89488983154297,-36.64201354980469,0.014283481985330582,0.4420846104621887,0.022210121154785156,0.015705943,-0.14455238,9.778443,0
9,989.8143310546875,5.154046812094748E-4,-2.092717040795833E-4,3.9495437522418797E-4,2.1535353660583496,30.89488983154297,-36.64201354980469,-0.005178125575184822,0.44550034403800964,0.017515182495117188,0.020527601,-0.14455345,9.785548,0
9,989.8045043945312,-2.8394642868079245E-4,0.001388689037412405,-2.71008291747421E-4,1.4353938102722168,31.06609344482422,-37.850101470947266,-0.019598152488470078,0.4336811304092407,0.012845039367675781,0.039688706,-0.13740465,9.773718,0
9,989.8222045898438,1.1512399942148477E-4,-7.598279626108706E-5,3.9460850530304015E-4,1.3644118309020996,31.420528411865234,-37.01307678222656,-0.005056781694293022,0.4315759539604187,0.022373199462890625,0.030170977,-0.14455548,9.785558,0
9,989.812255859375,1.1472038750071079E-4,-2.0907519501633942E-4,-1.381961046718061E-4,2.1567158699035645,31.003753662109375,-37.49570083618164,-0.005236206576228142,0.4279768168926239,0.031943321228027344,0.023043096,-0.1374067,9.7689905,0
9,989.8375244140625,-1.8840928532881662E-5,-2.0900971139781177E-4,-2.715268055908382E-4,1.852658748626709,30.929603576660156,-37.21355438232422,-0.004994584247469902,0.42588362097740173,0.04620552062988281,0.030254662,-0.13979098,9.757158,0
9,989.8092651367188,5.133873200975358E-4,-6.084180204197764E-4,-5.3839467000216246E-6,1.7905097007751465,30.660743713378906,-37.265228271484375,0.0045581962913274765,0.4282248616218567,0.03206825256347656,0.02312684,-0.14455858,9.776099,0
9,989.8092651367188,5.133873200975358E-4,-6.084180204197764E-4,-5.3839467000216246E-6,1.7905097007751465,30.660743713378906,-37.265228271484375,-0.0051780566573143005,0.43193554878234863,0.027364730834960938,0.023168683,-0.13979307,9.77847,0
9,989.79443359375,-2.859636733774096E-4,-7.572080357931554E-5,2.6075902860611677E-4,2.1482653617858887,30.7325439453125,-37.63249588012695,-5.217865109443665E-4,0.4297100305557251,0.027425765991210938,0.023210526,-0.14456066,9.769006,0
9,989.8096313476562,-2.867706643883139E-4,9.896737756207585E-4,-5.902780685573816E-6,1.5548272132873535,30.967262268066406,-37.9397087097168,0.004097146913409233,0.43546953797340393,0.04173088073730469,0.02086252,-0.1493282,9.766643,0
9,989.8126220703125,-5.534900701604784E-4,-7.552429451607168E-5,-2.7239153860136867E-4,1.5321345329284668,31.05108642578125,-37.479209899902344,0.0040673911571502686,0.43345847725868225,0.05125236511230469,0.028074026,-0.15409586,9.764279,0
9,989.8126220703125,-5.534900701604784E-4,-7.552429451607168E-5,-2.7239153860136867E-4,1.5321345329284668,31.05108642578125,-37.479209899902344,-5.815513432025909E-4,0.42257192730903625,0.03708457946777344,0.018556297,-0.15171358,9.761915,0
9,989.8023681640625,7.776859565638006E-4,5.769914423581213E-5,3.932251420337707E-4,1.9078783988952637,30.928730010986328,-37.37598419189453,-0.010468512773513794,0.4015744924545288,0.022933006286621094,0.020988107,-0.13264832,9.778489,0
9,989.802490234375,1.1149277270305902E-4,-6.080250022932887E-4,2.5989452842622995E-4,1.5538477897644043,30.597496032714844,-37.763954162597656,-0.0011167917400598526,0.42785710096359253,0.022994041442871094,0.025809765,-0.15648222,9.783228,0
9,989.8202514648438,-1.5522648754995316E-4,0.00112309365067631,-4.060681094415486E-4,1.7625479698181152,30.582218170166016,-37.79521942138672,-0.0014290940016508102,0.40173083543777466,0.0419921875,0.018681914,-0.13741699,9.764294,0
9,989.8353881835938,-2.2875534341437742E-5,1.9111906294710934E-4,-6.940215826034546E-6,2.004756450653076,31.019638061523438,-37.70417022705078,-0.006507115438580513,0.4031079113483429,0.027876853942871094,0.02589345,-0.14456782,9.7737665,0
9,989.83544921875,1.0987890709657222E-4,5.906583974137902E-4,6.586765521205962E-4,1.8375773429870605,31.020793914794922,-37.13958740234375,-0.011180520057678223,0.3973173201084137,0.042105674743652344,0.030715168,-0.13503578,9.766668,0
9,989.8305053710938,2.4263346858788282E-4,-2.0822376245632768E-4,3.921877359971404E-4,1.6620831489562988,30.856651306152344,-37.41087341308594,0.008080689236521721,0.3901398181915283,0.032695770263671875,0.01880747,-0.13503677,9.76904,0
9,989.797607421875,-2.9040189110673964E-4,-8.739479817450047E-4,-2.737748436629772E-4,1.5707497596740723,31.139923095703125,-37.4903564453125,0.0034104976803064346,0.4072973430156708,0.04221153259277344,0.023629129,-0.14695418,9.759576,0
9,989.8433837890625,-2.331698196940124E-4,9.118028683587909E-4,2.3218011483550072E-4,1.6449360847473145,31.314651489257812,-37.35804748535156,0.003286655992269516,0.4003628194332123,0.03279590606689453,0.021281093,-0.1421887,9.778517,0
9,989.8277587890625,5.65374328289181E-4,-4.197109956294298E-4,9.884932660497725E-5,1.614473819732666,30.864887237548828,-37.63497543334961,0.012914000079035759,0.39713695645332336,0.051812171936035156,0.018933058,-0.13980642,9.769052,0
9,989.8206176757812,-1.0081875370815396E-4,-5.52803510800004E-4,9.86764207482338E-5,1.9846720695495605,30.36835479736328,-37.12406921386719,0.014240916818380356,0.3945711553096771,0.04723644256591797,0.01844269,-0.13979438,9.764272,0
10,989.8280639648438,-0.0010333277750760317,-8.190538501366973E-4,-3.46544838976115E-5,1.880460262298584,30.481910705566406,-37.807518005371094,0.004684088751673698,0.4022692143917084,0.04254913330078125,0.020309925,-0.14931467,9.766591,0
10,989.7877807617188,8.441736572422087E-4,-2.217672772530932E-5,3.677925269585103E-4,1.6047987937927246,31.224342346191406,-37.26959228515625,0.009419070556759834,0.401321679353714,0.05204296112060547,0.01313895,-0.14454815,9.764224,0
10,989.8359985351562,3.115540312137455E-4,3.772950731217861E-4,1.0148185538128018E-4,1.8367352485656738,30.756942749023438,-37.66290283203125,-0.005193065851926804,0.39952704310417175,0.04735374450683594,0.025087178,-0.13739821,9.761857,0
10,989.8280639648438,5.77881874050945E-4,0.0014425567351281643,-5.643027252517641E-4,1.6901822090148926,31.041091918945312,-37.57996368408203,0.0230373814702034,0.4012380838394165,0.04743194580078125,0.008356571,-0.14216474,9.75949,0
10,989.8182373046875,4.447365354280919E-4,-1.5534067642875016E-4,3.678082430269569E-4,2.0619044303894043,30.54602813720703,-37.14636993408203,-0.005804320797324181,0.4000805616378784,0.028524398803710938,0.01791495,-0.14693132,9.771325,0
10,989.8182373046875,3.115908184554428E-4,-2.218464396719355E-5,1.0149762965738773E-4,1.4021859169006348,31.24551773071289,-37.54754638671875,0.00848306156694889,0.37453269958496094,0.042769432067871094,0.013133854,-0.14931455,9.773692,0
10,989.8534545898438,-2.210290840594098E-4,9.099189192056656E-4,-3.1655130442231894E-5,1.547217845916748,30.95989990234375,-37.553184509277344,0.00840260460972786,0.3957764506340027,0.033364295959472656,0.017912418,-0.15169773,9.771325,0
10,989.80810546875,-7.536482880823314E-4,-2.2188631191966124E-5,6.341398693621159E-4,1.651566982269287,30.952255249023438,-37.568817138671875,0.013002956286072731,0.38416749238967896,0.047618865966796875,0.0131313205,-0.13978133,9.764223,0
10,989.8312377929688,4.447854298632592E-4,-2.2190668460098095E-5,-1.648025936447084E-4,1.7930121421813965,31.03197479248047,-37.51829147338867,0.008146202191710472,0.37263375520706177,0.03346443176269531,0.013130069,-0.13739806,9.780793,0
10,989.8082275390625,3.116393636446446E-4,2.4412326456513256E-4,-1.6479735495522618E-4,1.9273886680603027,30.736045837402344,-36.982791900634766,-0.01567761041224003,0.3707367777824402,0.03351020812988281,0.027468204,-0.13263145,9.764223,0
10,989.8212280273438,-3.5413788282312453E-4,1.1096328671555966E-4,-8.305818191729486E-4,1.7643694877624512,31.2158203125,-37.447654724121094,0.003487883135676384,0.3638019561767578,0.03829669952392578,0.010737628,-0.13739792,9.768957,0
10,989.7881469726562,-0.001286231097765267,-9.543022024445236E-4,2.3468697327189147E-4,1.7534174919128418,30.573375701904297,-37.33138656616211,0.0038596540689468384,0.3709551692008972,0.05255413055419922,0.025075793,-0.14693105,9.764223,0
10,989.8285522460938,-2.20955625991337E-4,-1.5535653801634908E-4,-8.305713417939842E-4,1.9759764671325684,31.09756851196289,-36.9344482421875,0.008497662842273712,0.3736325800418854,0.024196624755859375,0.017904788,-0.13263139,9.776059,0
10,989.8084716796875,5.780042265541852E-4,-5.548323388211429E-4,1.0153948096558452E-4,1.8863024711608887,31.488231658935547,-37.790313720703125,0.008699050173163414,0.38146764039993286,0.04317283630371094,0.010733783,-0.14931428,9.76659,0
10,989.8260498046875,3.1170083093456924E-4,5.104292067699134E-4,1.0154474875889719E-4,1.5185742378234863,31.14374542236328,-37.4825439453125,-0.005653096362948418,0.3651353716850281,0.03848457336425781,0.017902255,-0.13978109,9.76659,0
10,989.816162109375,-2.2091895516496152E-4,-2.885203284677118E-4,-4.3108174577355385E-4,2.198237895965576,30.9896240234375,-36.962379455566406,0.008473040536046028,0.3582668900489807,0.033799171447753906,0.015511066,-0.13739783,9.764222,0
10,989.816162109375,-2.2091895516496152E-4,-2.885203284677118E-4,-4.3108174577355385E-4,1.8987460136413574,30.919891357421875,-36.91215133666992,0.01305304653942585,0.35606876015663147,0.05752086639404297,0.022679508,-0.13978109,9.764222,0
10,989.8516845703125,-8.866964490152895E-4,7.767411880195141E-4,-8.305503870360553E-4,2.2876439094543457,31.179080963134766,-37.603118896484375,0.003635348752140999,0.3638000190258026,0.03862285614013672,0.0155085325,-0.14454761,9.771323,0
10,989.828857421875,3.1174972536973655E-4,1.1094743967987597E-4,-2.9790797270834446E-4,2.1551947593688965,31.002281188964844,-37.41839599609375,0.017927123233675957,0.33229321241378784,0.04342079162597656,0.017897189,-0.12786463,9.766589,0
10,989.828857421875,3.1174972536973655E-4,1.1094743967987597E-4,-2.9790797270834446E-4,2.1551947593688965,31.002281188964844,-37.41839599609375,-0.001205991953611374,0.3597828447818756,0.0387115478515625,0.020285785,-0.13978097,9.764222,0
10,989.8265991210938,-2.2085760429035872E-4,-2.885303401853889E-4,1.0157620999962091E-4,1.730863094329834,30.76311492919922,-37.56996536254883,0.013181710615754128,0.36179178953170776,0.03877067565917969,0.0059451163,-0.14931408,9.768956,0
10,989.8265991210938,-2.2085760429035872E-4,-2.885303401853889E-4,1.0157620999962091E-4,1.730863094329834,30.76311492919922,-37.56996536254883,0.017997384071350098,0.36083751916885376,0.043524742126464844,0.015503466,-0.14693072,9.768956,0
10,989.8240966796875,3.1178639619611204E-4,-2.221646900579799E-5,-1.6473449068143964E-4,1.7996420860290527,30.669578552246094,-37.729061126708984,0.012992147356271744,0.3395792245864868,0.03883838653564453,0.005942583,-0.14454743,9.768956,0
10,989.831787109375,-8.767544204602018E-5,2.4409742036368698E-4,-1.647291937842965E-4,1.6168370246887207,31.130210876464844,-37.1889533996582,-0.0013232734054327011,0.3423232138156891,0.034145355224609375,0.017890811,-0.13739759,9.764222,0
10,989.819091796875,-6.202947697602212E-4,1.1093751527369022E-4,-1.647239550948143E-4,2.0007338523864746,30.646926879882812,-37.373802185058594,-0.015529125928878784,0.34543347358703613,0.043648719787597656,0.023082912,-0.13502446,9.764259,0
11,989.8140869140625,3.0887554748915136E-4,6.440458237193525E-4,-4.32297820225358E-4,2.0403265953063965,31.10552978515625,-37.560707092285156,-0.0024112705141305923,0.3333907723426819,0.04835700988769531,0.011570424,-0.13265184,9.759565,0
11,989.8140869140625,3.0887554748915136E-4,6.440458237193525E-4,-4.32297820225358E-4,2.0403265953063965,31.10552978515625,-37.560707092285156,-0.007319813594222069,0.34207212924957275,0.053109169006347656,0.018771887,-0.14218572,9.757201,0
11,989.78173828125,-9.042144665727392E-5,5.11009362526238E-4,-9.695594199001789E-4,2.1111721992492676,30.645179748535156,-37.69865417480469,-0.003121575340628624,0.35933661460876465,0.0389404296875,0.023583382,-0.1517196,9.783242,0
11,989.8319702148438,0.0011076941154897213,0.0015763225965201855,-5.702166818082333E-4,2.492567539215088,29.790664672851562,-37.63043975830078,0.016253313049674034,0.34694477915763855,0.029523849487304688,0.009275675,-0.14457062,9.766675,0
11,989.804443359375,-6.236646440811455E-4,-0.0013531023869290948,9.544214117340744E-5,1.93263578414917,30.47808837890625,-37.81533432006836,-0.007398510351777077,0.3365216851234436,0.015336036682128906,0.030816495,-0.14218804,9.778514,0
11,989.8167114257812,-9.133833373198286E-5,-5.541052669286728E-4,9.531123214401305E-5,1.9666838645935059,30.562511444091797,-37.594566345214844,0.007199428975582123,0.32978081703186035,0.043778419494628906,0.01411888,-0.1374223,9.764314,0
11,989.8271484375,-4.911180003546178E-4,1.1173408711329103E-4,-3.7977733882144094E-5,1.9219813346862793,30.46778106689453,-37.274200439453125,0.006556609645485878,0.3468433618545532,0.04381561279296875,0.016540527,-0.15410605,9.776153,0
11,989.8195190429688,-4.914240562357008E-4,7.775734411552548E-4,9.50491230469197E-5,2.0227456092834473,30.825481414794922,-37.233673095703125,0.006028316915035248,0.32585275173187256,0.020177841186523438,0.016572207,-0.14219043,9.78089,0
11,989.804443359375,1.7406020197086036E-4,3.781491541303694E-4,-8.371875155717134E-4,1.9213004112243652,30.73015594482422,-36.6735725402832,0.0013347901403903961,0.31344181299209595,0.020229339599609375,0.026163518,-0.1302748,9.778525,0
11,989.8096313476562,-4.901576321572065E-4,3.1846025376580656E-4,-1.9248874741606414E-4,1.7518954277038574,30.5718994140625,-37.25408172607422,0.0011471733450889587,0.3220157325267792,0.039183616638183594,0.021415412,-0.14219195,9.773793,0
11,989.83251953125,-7.567789871245623E-4,5.848256987519562E-4,7.369613740593195E-5,1.6214032173156738,31.134628295898438,-37.420867919921875,-0.013188259676098824,0.32852935791015625,0.02976703643798828,0.02383706,-0.14219278,9.773797,0
11,989.8097534179688,-2.244526840513572E-4,-2.1407224994618446E-4,-1.927509147208184E-4,1.3620495796203613,31.15521240234375,-37.45909118652344,-0.017939599230885506,0.3230116665363312,0.04398345947265625,0.028648555,-0.1421935,9.766698,0
11,989.799560546875,1.747156638884917E-4,-8.086470188573003E-5,4.729079082608223E-4,1.8626313209533691,31.202293395996094,-37.15406036376953,0.005993219092488289,0.33556604385375977,0.029808998107910156,0.016730726,-0.14934418,9.77617,0
11,989.8072509765625,7.070419378578663E-4,4.5181665336713195E-4,-1.9301273277960718E-4,1.7391753196716309,30.92841339111328,-36.734092712402344,-0.008643662557005882,0.3148144483566284,0.053508758544921875,0.01198262,-0.13027868,9.759603,0
11,989.8073120117188,-9.221116488333791E-5,-8.076551603153348E-5,7.389619713649154E-4,2.0136122703552246,30.81664276123047,-36.76984405517578,0.005918219685554504,0.33136194944381714,0.03934478759765625,0.019184053,-0.14934573,9.7761755,0
11,989.8251953125,1.7379831115249544E-4,-6.13347627222538E-4,-6.011684308759868E-5,2.6065096855163574,30.950218200683594,-36.56108856201172,-0.0032829996198415756,0.3208160996437073,0.058300018310546875,0.023995578,-0.14219663,9.764342,0
11,989.832763671875,-3.591389104258269E-4,-0.0010127718560397625,4.723839811049402E-4,1.765754222869873,31.11138153076172,-36.82587814331055,0.011141259223222733,0.28576552867889404,0.03938770294189453,0.014467657,-0.12789777,9.766713,0
11,989.8123779296875,-3.594443842303008E-4,-4.800905007869005E-4,2.0593719091266394E-4,2.1853585243225098,30.819908142089844,-37.566341400146484,-0.0032972320914268494,0.3360975384712219,0.048890113830566406,0.02166906,-0.15411457,9.757247,0
11,989.8225708007812,-4.92907827720046E-4,5.2590869017876685E-5,7.264834130182862E-5,1.81404447555542,30.84076690673828,-37.20240783691406,-0.0037869680672883987,0.295514851808548,0.05839824676513672,0.024090707,-0.12789926,9.754883,0
11,989.8148803710938,1.725758338579908E-4,0.00151737779378891,-4.6011453378014266E-4,1.2576980590820312,31.16284942626953,-37.443458557128906,0.010644229128956795,0.3225937485694885,0.030014991760253906,0.016952693,-0.15888277,9.776191,0
11,989.8175659179688,-2.275092847412452E-4,8.516874513588846E-4,3.3857120433822274E-4,2.080167293548584,30.563705444335938,-38.07402801513672,0.005425566807389259,0.3160358667373657,0.03477764129638672,0.007424772,-0.1422005,9.771459,0
11,989.8175659179688,-2.275092847412452E-4,8.516874513588846E-4,3.3857120433822274E-4,2.080167293548584,30.563705444335938,-38.07402801513672,5.67510724067688E-4,0.3007245659828186,0.044261932373046875,0.014626175,-0.14220133,9.7714615,0
11,989.8202514648438,-2.278147585457191E-4,5.278932803776115E-5,7.379141170531511E-4,1.7694792747497559,30.851951599121094,-37.58111572265625,-0.008674433454871178,0.3179079294204712,0.044289588928222656,0.028997332,-0.15173522,9.764363,0
11,989.8204956054688,-4.9443612806499E-4,-8.031897596083581E-5,2.0515138749033213E-4,1.910081386566162,30.667831420898438,-38.05390930175781,-0.013760486617684364,0.30663391947746277,0.039580345153808594,0.014689624,-0.13981959,9.776202,0
12,989.8204956054688,-4.9443612806499E-4,-8.031897596083581E-5,2.0515138749033213E-4,1.1754956245422363,31.45496368408203,-37.98677444458008,0.0018803179264068604,0.29541438817977905,0.030221939086914062,0.013761431,-0.14218011,9.764281,0
12,989.7977905273438,-9.526776557322592E-5,-2.1342726540751755E-4,-3.276115457993001E-4,1.4208550453186035,30.788986206054688,-37.67768096923828,0.001987520605325699,0.29852789640426636,0.030249595642089844,0.032874316,-0.1445632,9.78085,0
12,989.80517578125,-3.5088323056697845E-4,-7.474412559531629E-4,7.32619664631784E-5,2.00834321975708,30.654296875,-37.76032638549805,0.030849674716591835,0.30126696825027466,0.05868721008300781,-0.010150254,-0.14217976,9.797421,0
12,989.82568359375,-2.1654204465448856E-4,-8.807912236079574E-4,-9.914945112541318E-4,2.0865530967712402,31.201736450195312,-37.95838165283203,0.006990326568484306,0.30434876680374146,0.06344795227050781,0.008962631,-0.14694616,9.754811,0
12,989.7952270507812,-3.496389836072922E-4,5.13044506078586E-5,-5.93627046328038E-5,1.2918848991394043,31.353187561035156,-37.921775817871094,0.002516757696866989,0.2933613955974579,0.04453468322753906,0.018515885,-0.13741294,9.776114,0
12,989.8027954101562,4.4936989434063435E-4,-0.0012802849523723125,7.396111031994224E-4,1.7047209739685059,31.318199157714844,-37.75238800048828,-0.0026508215814828873,0.28703176975250244,0.025620460510253906,0.023289293,-0.13979605,9.776114,0
12,989.8030395507812,-8.320086635649204E-5,7.170743774622679E-4,-5.919421091675758E-4,2.207070827484131,30.36632537841797,-37.85108184814453,0.002330819144845009,0.2903076410293579,0.04931640625,0.01850313,-0.14456242,9.7666445,0
12,989.8154907226562,-2.1629733964800835E-4,3.1759048579260707E-4,7.387396181002259E-5,2.1032633781433105,30.00567626953125,-37.73699951171875,0.011730222031474113,0.2889706492424011,0.05407142639160156,0.018496811,-0.14217901,9.757175,0
12,989.7802734375,5.014101407141425E-5,-8.190322841983289E-5,-5.923150456510484E-5,2.0547289848327637,31.276718139648438,-37.03404998779297,0.002319803461432457,0.28636419773101807,0.030439376831054688,0.018490463,-0.14217883,9.773746,0
12,989.7807006835938,5.020201570005156E-5,-4.8138690181076527E-4,-5.9205369325354695E-5,1.8968195915222168,31.392623901367188,-37.63237762451172,0.0071779657155275345,0.2942378520965576,0.035198211669921875,0.018484116,-0.1493285,9.773745,0
12,989.7807006835938,5.020201570005156E-5,-4.8138690181076527E-4,-5.9205369325354695E-5,1.8968195915222168,31.392623901367188,-37.63237762451172,0.01694951206445694,0.2696381211280823,0.03047466278076172,0.008918166,-0.13741198,9.776111,0
12,989.8310546875,-8.289481047540903E-5,-2.1508097415789962E-4,-1.9233705825172365E-4,1.6814866065979004,31.770309448242188,-37.390342712402344,0.021579882130026817,0.2917707562446594,0.049437522888183594,0.016081572,-0.1517115,9.773744,0
12,989.7953491210938,-4.8230751417577267E-4,-7.477226317860186E-4,7.400489994324744E-5,2.268676280975342,31.00347900390625,-37.897857666015625,0.002735227346420288,0.2804015576839447,0.03999519348144531,0.013685286,-0.1326451,9.771376,0
12,989.8111572265625,-6.153432186692953E-4,4.5067898463457823E-4,7.398469606414437E-4,1.8612475395202637,31.306732177734375,-37.77583312988281,0.016722099855542183,0.27891749143600464,0.035282135009765625,0.0065092444,-0.1397948,9.75954,0
12,989.8085327148438,-2.1580839529633522E-4,3.175110905431211E-4,7.398732705041766E-4,1.744859218597412,31.40850830078125,-37.840843200683594,-0.007150337100028992,0.27713704109191895,0.03057384490966797,0.02562213,-0.1445612,9.766641,0
12,989.8162841796875,-8.258933667093515E-5,-8.809202117845416E-4,-5.904826684854925E-5,2.194789409637451,31.46088409423828,-37.60530090332031,0.012272140011191368,0.28914692997932434,0.02587127685546875,0.020835996,-0.14694425,9.780843,0
12,989.8035888671875,-8.252821862697601E-5,1.8433334480505437E-4,2.0729383686557412E-4,2.3802008628845215,30.265148162841797,-38.02581024169922,0.017156317830085754,0.2931324243545532,0.040083885192871094,0.011270046,-0.14932743,9.773741,0
12,989.7882690429688,-2.1562515757977962E-4,-3.483082982711494E-4,6.06793793849647E-4,2.059976100921631,31.018760681152344,-37.86659240722656,0.007769232615828514,0.2725767493247986,0.035369873046875,0.016043514,-0.14217743,9.77374,0
12,989.8162231445312,4.5022577978670597E-4,-4.814761923626065E-4,-3.252855676691979E-4,2.4272685050964355,30.625198364257812,-37.90016174316406,-0.0017580632120370865,0.285554438829422,0.030653953552246094,0.016037166,-0.14456055,9.76427,0
12,989.7908325195312,5.834447219967842E-4,-3.483281470835209E-4,-3.2525943242944777E-4,2.3796591758728027,30.633438110351562,-38.124267578125,0.007568433880805969,0.2604457139968872,0.02593708038330078,0.011251032,-0.14456043,9.787942,0
12,989.8060913085938,3.171899588778615E-4,0.001515873009338975,-3.252332971896976E-4,1.9131255149841309,30.6707763671875,-38.20852279663086,0.007395507767796516,0.27326491475105286,0.03542613983154297,0.023194164,-0.15171012,9.766637,0
12,989.8162231445312,-8.222274482250214E-5,3.1744170701131225E-4,-3.2520698732696474E-4,1.943586826324463,31.12053680419922,-37.931602478027344,-0.016755767166614532,0.2810858488082886,0.040183067321777344,0.03035748,-0.14932668,9.769004,0
12,989.8162841796875,-8.216104470193386E-5,-8.204211189877242E-5,-5.8864738093689084E-5,1.5717291831970215,31.509689331054688,-37.666114807128906,0.007264019921422005,0.25542378425598145,0.05914497375488281,0.011231929,-0.13979337,9.7548,0
12,989.7986450195312,0.0010136057389900088,-2.717530296649784E-4,-3.772267373278737E-4,1.7297778129577637,31.49969482421875,-37.766868591308594,-0.0022060703486204147,0.259507417678833,0.05441856384277344,0.013615519,-0.15409294,9.761901,0
12,989.8087768554688,-5.1596725825220346E-5,-1.3860496983397752E-4,-5.103585426695645E-4,2.182857036590576,30.448673248291016,-37.31327819824219,0.006186049431562424,0.2477472722530365,0.04489898681640625,0.018830776,-0.13980386,9.771409,0
13,989.8087768554688,2.1266710245981812E-4,5.275178118608892E-4,1.5455184620805085E-4,2.0122294425964355,30.92108917236328,-37.39161682128906,0.001839352771639824,0.23775139451026917,0.025963783264160156,0.019292831,-0.13743195,9.778553,0
13,989.8037719726562,2.1020203712396324E-4,-0.0017359573394060135,1.4937325613573194E-4,2.3584885597229004,30.718730926513672,-37.741065979003906,0.0020659901201725006,0.26001298427581787,0.040183067321777344,0.019322038,-0.1398159,9.771455,0
13,989.8087768554688,-5.639498704113066E-5,-1.3801628665532917E-4,-2.502209972590208E-4,1.9896750450134277,31.110824584960938,-37.63019561767578,0.011454315856099129,0.2397012710571289,0.05913352966308594,0.0145713985,-0.12313372,9.757254,0
13,989.8088989257812,8.754292502999306E-4,-1.3797063729725778E-4,1.5974335838109255E-5,2.259247303009033,30.362503051757812,-37.85890197753906,-0.0027505848556756973,0.2480086088180542,0.02600383758544922,0.021770298,-0.13981739,9.766725,0
13,989.814208984375,-5.695750587619841E-5,6.610226701013744E-4,1.490117283537984E-4,2.615342617034912,30.326915740966797,-37.44978332519531,0.0016757119446992874,0.2653111219406128,0.04496002197265625,0.014629781,-0.146968,9.771462,0
13,989.7964477539062,-5.751990829594433E-5,-4.041495849378407E-4,1.5612778952345252E-5,1.6930880546569824,30.938125610351562,-37.035499572753906,0.00655769370496273,0.2441157102584839,0.03551197052001953,0.019438744,-0.1350523,9.773831,0
13,989.7964477539062,-5.751990829594433E-5,-4.041495849378407E-4,1.5612778952345252E-5,1.6930880546569824,30.938125610351562,-37.035499572753906,0.006394712254405022,0.2432098686695099,0.06392669677734375,0.026637554,-0.14220288,9.764366,0
13,989.8268432617188,-4.57274989457801E-4,3.94843693356961E-4,6.812819046899676E-4,1.8077960014343262,30.30865478515625,-38.01713562011719,-0.0030255671590566635,0.2610020637512207,0.04026603698730469,0.014717281,-0.15412,9.78094,0
13,989.7916870117188,4.745495680253953E-4,-4.584496309689712E-6,4.148455918766558E-4,1.8904318809509277,30.754600524902344,-37.74802780151367,0.006414551287889481,0.2351926863193512,0.04501914978027344,0.019526243,-0.13505444,9.769106,0
13,989.8117065429688,2.0795254386030138E-4,-2.7085462352260947E-4,1.525122206658125E-5,1.957690715789795,30.659584045410156,-37.82981872558594,0.020545413717627525,0.24360215663909912,0.0450286865234375,0.0076059103,-0.12790534,9.773843,0
13,989.8167114257812,4.739870491903275E-4,2.6182265719398856E-4,-1.1802726658061147E-4,2.3415865898132324,30.176307678222656,-38.01466369628906,0.015545746311545372,0.2706447243690491,0.03557395935058594,0.0052452087,-0.15888867,9.764377,0
13,989.8045654296875,-1.9208379671908915E-4,2.618683793116361E-4,1.481681247241795E-4,2.1375880241394043,30.30193328857422,-38.914390563964844,0.0063664671033620834,0.2498859018087387,0.007182121276855469,0.017223895,-0.14697298,9.78095,0
13,989.8045654296875,-1.9208379671908915E-4,2.618683793116361E-4,1.481681247241795E-4,2.1375880241394043,30.30193328857422,-38.914390563964844,0.0017538294196128845,0.24922916293144226,0.02138996124267578,0.014863163,-0.14935699,9.7785845,0
13,989.7968139648438,-7.249967893585563E-4,-0.0010696654208004475,0.001080153277143836,1.962256908416748,30.66400909423828,-38.061729431152344,0.011381907388567924,0.26237696409225464,0.0308685302734375,0.007722616,-0.15889081,9.778588,0
13,989.79443359375,2.06546246772632E-4,1.2884738680440933E-4,-5.179831641726196E-4,2.2331061363220215,30.917587280273438,-38.04132080078125,0.011838087812066078,0.265150249004364,0.040352821350097656,0.019701332,-0.15889153,9.76202,0
13,989.79443359375,2.06546246772632E-4,1.2884738680440933E-4,-5.179831641726196E-4,2.2331061363220215,30.917587280273438,-38.04132080078125,0.007052898406982422,0.2264765501022339,0.03088855743408203,0.014950693,-0.13267615,9.773858,0
13,989.7994995117188,3.394230443518609E-4,-0.001202686340548098,-3.8494571344926953E-4,1.7052645683288574,30.949905395507812,-37.653934478759766,0.0025404319167137146,0.2250533401966095,0.05457115173339844,0.0125899315,-0.13506013,9.76676,0
13,989.8068237304688,7.282613660208881E-5,-2.7053512167185545E-4,6.801972631365061E-4,1.955625057220459,31.026405334472656,-37.85095977783203,0.02162799797952175,0.23323825001716614,0.045113563537597656,0.0054494143,-0.13744414,9.773864,0
13,989.8147583007812,-6.061317981220782E-5,-6.699632504023612E-4,1.4287070371210575E-5,1.8336901664733887,30.753997802734375,-37.50829315185547,0.002759210765361786,0.25049930810928345,0.04986095428466797,0.0174281,-0.15174451,9.759664,0
13,989.80712890625,-4.6036826097406447E-4,-4.0360179264098406E-4,-1.1899141827598214E-4,1.879075527191162,30.58635711669922,-38.429290771484375,0.01234188862144947,0.24445194005966187,0.040401458740234375,0.012677491,-0.15412852,9.757299,0
13,989.8095703125,-7.2724639903754E-4,2.622792380861938E-4,-3.8554827915504575E-4,1.8086371421813965,30.57250213623047,-37.493812561035156,0.021745828911662102,0.21860037744045258,0.030948638916015625,7.571578E-4,-0.13744625,9.778605,0
13,989.8020629882812,2.045778965111822E-4,-2.7030688943341374E-4,8.127526380121708E-4,1.354576587677002,31.253761291503906,-37.771644592285156,0.016929686069488525,0.2179231345653534,0.04042243957519531,0.012735844,-0.13506368,9.766772,0
13,989.8020629882812,-3.283351252321154E-4,3.955284773837775E-4,-3.857892588712275E-4,2.3986258506774902,30.809043884277344,-37.82952117919922,0.002443132922053337,0.2448928952217102,0.049902915954589844,0.007985234,-0.15174738,9.766776,0
13,989.799560546875,0.0023345425724983215,-0.0014686371432617307,-3.859098651446402E-4,2.3600096702575684,30.72020721435547,-37.81837463378906,0.002810657024383545,0.2357090413570404,0.0309600830078125,0.01996392,-0.14698151,9.769146,0
14,989.8706665039062,-5.952132632955909E-4,0.001061409362591803,1.4660140732303262E-4,1.979020595550537,31.100513458251953,-37.08905792236328,0.0034238584339618683,0.23741330206394196,0.03580188751220703,0.016682565,-0.14219314,9.771432,0
14,989.8553466796875,-8.562926668673754E-4,-4.0417799027636647E-4,4.151615721639246E-4,2.028289318084717,31.199661254882812,-37.64134216308594,0.0035520419478416443,0.22722984850406647,0.040541648864746094,0.021454751,-0.1421929,9.766696,0
14,989.7592163085938,-4.5350080472417176E-4,1.2791517656296492E-4,4.165834980085492E-4,2.2937331199645996,31.184974670410156,-37.9123420715332,0.017538296058773994,0.23533427715301514,0.06422805786132812,0.01188755,-0.14219281,9.766696,0
14,989.7871704101562,0.004872890189290047,-0.002668413333594799,-7.818065932951868E-4,2.126552104949951,31.18613052368164,-37.347755432128906,0.0039290934801101685,0.20689967274665833,0.045289039611816406,0.016659707,-0.13265947,9.76196,0
14,989.9216918945312,-0.0036491448991000652,0.002657892182469368,6.829622434452176E-4,2.1467432975769043,30.73107147216797,-37.55519485473633,0.01280476339161396,0.23777376115322113,0.035841941833496094,0.0070925057,-0.15887532,9.773796,0
14,989.7973022460938,-9.85912629403174E-4,-1.384364877594635E-4,9.493096149526536E-4,2.252479076385498,30.61898422241211,-36.949058532714844,0.003093123435974121,0.22203952074050903,0.050057411193847656,0.016644508,-0.13980892,9.766694,0
14,989.7416381835938,-1.8689167336560786E-4,5.273413262329996E-4,2.835512568708509E-4,2.2163634300231934,30.901382446289062,-37.19096755981445,0.0030196886509656906,0.22543379664421082,0.031133651733398438,0.021416724,-0.14457521,9.776162,0
14,989.792236328125,-8.526080055162311E-4,-2.7161819161847234E-4,2.835827472154051E-4,1.7275748252868652,31.76059341430664,-37.08893585205078,0.012983670458197594,0.23329658806324005,0.054818153381347656,0.011849463,-0.14695838,9.761958,0
14,989.8330078125,-4.5306075480766594E-4,-0.001336893648840487,1.7298298189416528E-5,1.8645596504211426,30.72955322265625,-36.433841705322266,0.022887924686074257,0.2131662666797638,0.04062366485595703,0.0070620775,-0.15172473,9.771426,0
14,989.8228759765625,3.459602303337306E-4,-2.716419694479555E-4,-6.484599434770644E-4,1.7492871284484863,31.3070068359375,-37.373680114746094,-0.0056301020085811615,0.22105813026428223,0.02643299102783203,0.01661408,-0.14457476,9.771425,0
14,989.8228759765625,-5.860719829797745E-4,-1.3849601964466274E-4,-9.14744392503053E-4,2.170276165008545,30.911094665527344,-37.49237060546875,-0.010687485337257385,0.215215265750885,0.026442527770996094,0.035725683,-0.15172437,9.778526,0
14,989.8128662109375,6.124228239059448E-4,5.27281838003546E-4,1.5055056428536773E-4,2.0363059043884277,30.732818603515625,-37.23033905029297,-0.001279415562748909,0.19964173436164856,0.050124168395996094,0.030938208,-0.1350412,9.764322,0
14,989.7852172851562,-7.173994090408087E-4,-1.974912447622046E-4,-5.560684949159622E-4,2.3524012565612793,30.71283721923828,-37.431846618652344,-0.005993770435452461,0.20293352007865906,0.05487060546875,0.018981129,-0.13980761,9.743016,1
14,989.7852172851562,-7.173994090408087E-4,-1.974912447622046E-4,-5.560684949159622E-4,2.3524012565612793,30.71283721923828,-37.431846618652344,0.0034949854016304016,0.21175168454647064,0.05487537384033203,0.016583622,-0.13980737,9.761953,1
14,989.7930908203125,-5.84094668738544E-4,0.0016666961601004004,-1.5653172158636153E-4,2.509768009185791,30.965221405029297,-36.931976318359375,0.021748563274741173,0.20544734597206116,0.054889678955078125,0.009406328,-0.14219055,9.761952,1
14,989.7930908203125,-5.84094668738544E-4,0.0016666961601004004,-1.5653172158636153E-4,2.509768009185791,30.965221405029297,-36.931976318359375,0.007379896938800812,0.19535231590270996,0.04069042205810547,0.01895833,-0.13265717,9.766686,1
14,989.7877197265625,-1.8454750534147024E-4,2.01946881134063E-4,2.429734740871936E-4,1.981086254119873,30.73369598388672,-37.06791687011719,-0.006900859996676445,0.22277909517288208,0.045433998107910156,0.03329009,-0.14219019,9.7714205,1
14,989.7877197265625,-1.8454750534147024E-4,2.01946881134063E-4,2.429734740871936E-4,1.7827935218811035,31.759719848632812,-37.251365661621094,0.007974406704306602,0.20257468521595,0.040706634521484375,0.026112795,-0.14218995,9.769052,1
14,989.8007202148438,-1.8440070562064648E-4,-0.0015291300369426608,7.756680715829134E-4,2.150491237640381,30.891948699951172,-36.487403869628906,-0.0205665472894907,0.2108946144580841,0.05018329620361328,0.028495073,-0.14218977,9.7619505,1
14,989.8007202148438,-1.8440070562064648E-4,-0.0015291300369426608,7.756680715829134E-4,2.108426570892334,31.274368286132812,-37.119171142578125,-0.039264194667339325,0.23332947492599487,0.012317657470703125,0.03326729,-0.16840568,9.785621,1
14,989.8057250976562,6.146200466901064E-4,-1.975626655621454E-4,-0.0010885116644203663,2.275468349456787,31.16729736328125,-36.98468017578125,0.050998687744140625,0.2203086018562317,0.036040306091308594,0.1097365,-0.3376182,10.069685,1
14,989.8158569335938,-0.004178992006927729,0.0040634796023368835,-0.06673534959554672,1.7105345726013184,31.112258911132812,-36.6634521484375,-0.42642951011657715,0.44196417927742004,-0.8870248794555664,0.19337547,-0.4281827,10.083888,1
14,989.7523803710938,-0.10444684326648712,-0.03575075790286064,-0.14423322677612305,1.7823576927185059,31.02166748046875,-36.97715759277344,0.12254466116428375,0.05618240684270859,1.2800893783569336,-0.15316793,-0.032558188,8.860044,1
14,989.7119750976562,-0.1437283754348755,0.33283042907714844,0.23167167603969574,3.113860607147217,30.740814208984375,-37.1659049987793,0.008568599820137024,-1.3439408540725708,-2.086456298828125,0.04757625,0.46793047,11.153861,1
14,989.732177734375,-0.420563668012619,-0.17703135311603546,0.3132975101470947,2.5084376335144043,32.702232360839844,-36.802459716796875,-0.6463257670402527,-0.6261543035507202,-0.061041831970214844,0.6546037,-0.5378128,9.757211,1
15,989.75244140625,-0.8144447803497314,-0.17343609035015106,-0.007879409939050674,1.8227086067199707,33.27075958251953,-35.19036865234375,0.15065956115722656,0.10334968566894531,0.046573638916015625,-0.32287377,-1.7127689,9.629382,1
15,989.795654296875,-1.2619885206222534,0.035222377628088,-0.3329178988933563,1.221437931060791,34.918846130371094,-32.96160888671875,-0.026372762396931648,0.830623984336853,-0.2584371566772461,-0.016973972,-2.09171,10.663849,1
15,989.782958984375,-1.2771685123443604,0.050136055797338486,-0.26047995686531067,1.0368671417236328,36.37843322753906,-32.01777648925781,-0.8302394151687622,0.8214707374572754,1.214217185974121,0.22678846,-3.076004,7.2361383,1
15,989.805908203125,-1.0535961389541626,0.36878296732902527,-0.002819314831867814,1.2375760078430176,37.25028991699219,-30.63701629638672,-0.5827690362930298,0.8351986408233643,3.8543620109558105,-0.02415888,-2.4396684,9.690927,1
15,989.8692626953125,-1.2484062910079956,-1.6309829950332642,0.8063815236091614,1.1351218223571777,39.94441223144531,-27.699501037597656,2.247365951538086,-0.4433596134185791,-1.8705863952636719,-1.3888005,-3.381063,9.66252,1
15,989.9252319335938,-0.6519916653633118,0.1329602599143982,0.07068396359682083,1.0009055137634277,40.766563415527344,-27.11104965209961,0.06682996451854706,0.253629207611084,-0.028276443481445312,0.24349493,-3.2047002,9.655417,1
15,989.9149780273438,-0.6397410035133362,0.0999370738863945,-0.30255770683288574,0.571326732635498,40.78535461425781,-26.430078506469727,-0.5830947160720825,0.49284815788269043,0.3202362060546875,0.40122086,-3.9387498,8.706168,1
15,989.8719482421875,-0.9514636397361755,-0.04214246943593025,0.12021876871585846,0.6213216781616211,41.46273422241211,-23.936935424804688,0.268415629863739,-0.24041318893432617,0.08242988586425781,-0.35160586,-3.4597108,9.293234,1
15,989.8591918945312,-0.758384644985199,-0.07157038897275925,0.17015303671360016,0.7255892753601074,42.98173904418945,-22.502201080322266,0.35685938596725464,0.008102893829345703,-0.6961088180541992,-0.35400343,-4.1603947,9.17014,1
15,989.8566284179688,-1.2868883609771729,0.12896546721458435,-0.26167812943458557,0.29562807083129883,43.89503479003906,-20.795730590820312,0.4550098776817322,-0.37403011322021484,0.703425407409668,-0.13652994,-4.382039,8.045718,1
15,989.8087158203125,-1.0349535942077637,0.267183393239975,-0.5000308752059937,0.04749345779418945,43.97793960571289,-19.453611373901367,-0.6055347323417664,0.2902412414550781,0.4238138198852539,0.5732633,-4.9373426,7.9297233,1
15,989.8211669921875,-0.4968622326850891,-0.10126464068889618,0.17854207754135132,0.19670724868774414,44.59124755859375,-18.665664672851562,-0.37007105350494385,0.2199234962463379,0.4386329650878906,0.542187,-4.949259,7.9912696,1
15,989.7908935546875,0.19729021191596985,-0.4647858738899231,0.7920007109642029,1.1859731674194336,44.88545608520508,-18.835323333740234,0.33928969502449036,-0.9865739345550537,-0.2530040740966797,0.08570811,-3.5788736,8.897908,1
15,989.85693359375,0.57186359167099,-0.45173636078834534,0.8078465461730957,2.090238094329834,44.46840286254883,-19.72010612487793,-0.45417529344558716,0.9459280967712402,-0.11455154418945312,0.38682818,-5.883504,8.706164,1
15,989.9175415039062,0.6733300089836121,-0.08435361832380295,0.5272827744483948,2.7896876335144043,44.33343505859375,-20.204912185668945,-0.45194363594055176,0.8373541831970215,1.6459813117980957,0.02116555,-4.5512505,7.195887,1
15,989.8668212890625,0.5665374398231506,-0.13854891061782837,0.4914633333683014,3.1162772178649902,43.79753875732422,-22.07150650024414,0.5422298312187195,-0.7740068435668945,-1.1062202453613281,0.04266706,-3.3596117,11.362164,1
15,989.8645629882812,0.5962316989898682,-1.1842381954193115,0.3545770049095154,3.075435161590576,43.54930114746094,-23.20545196533203,-0.10230419039726257,0.6699273586273193,-3.0590744018554688,0.047439218,-4.1723094,10.862683,1
15,990.044677734375,0.9811913371086121,-0.01591048762202263,-0.25741681456565857,2.0825610160827637,43.200130462646484,-24.802661895751953,1.1511162519454956,-1.2712817192077637,0.5702581405639648,-0.38514066,-2.0178256,8.999694,1
15,989.96826171875,0.7425724267959595,-0.1393478959798813,0.04178910329937935,2.127890110015869,41.39992141723633,-26.474946975708008,-0.37136679887771606,-0.15693211555480957,-0.7984523773193359,0.9890454,-2.649394,9.376079,1
15,989.9632568359375,1.3867905139923096,-1.0416260957717896,-0.06140827015042305,-0.022814273834228516,40.86213684082031,-27.959688186645508,0.380959153175354,-0.8077731132507324,-1.4702396392822266,1.0607347,-1.6793995,11.849805,1
15,989.897216796875,0.9831889867782593,-1.177979826927185,-0.15381984412670135,-2.303088665008545,39.62428283691406,-30.53826141357422,-0.29599833488464355,-0.6663364171981812,-1.3773279190063477,0.99858975,-1.5721519,10.666203,1
15,989.8768920898438,0.48118364810943604,0.3883569836616516,-0.1450313925743103,-3.178053855895996,39.17481231689453,-32.14777374267578,1.0636714696884155,0.6545178890228271,-1.1084966659545898,0.119098246,-2.4944801,10.479193,1
15,989.884521484375,0.9349859356880188,-0.11511319875717163,-0.12039713561534882,-3.738337993621826,37.5975341796875,-33.508827209472656,0.24142539501190186,-0.7052040100097656,-0.9332180023193359,1.3355507,-0.8857672,10.545474,1
15,989.9454956054688,1.1280649900436401,-0.5091275572776794,-0.0367739237844944,-4.4138946533203125,36.59771728515625,-35.809722900390625,-0.10763692855834961,0.48989617824554443,-2.320075035095215,1.5941507,-1.6794109,12.330389,1
15,989.8845825195312,1.116612195968628,-0.0634477436542511,-0.3317192494869232,-5.6818037033081055,35.096046447753906,-38.220924377441406,-0.4090230464935303,0.5095396637916565,-1.5914573669433594,1.7738992,-0.7332618,10.768083,1
16,989.882080078125,1.239112377166748,0.5257754921913147,-0.31574562191963196,-5.806750774383545,31.661483764648438,-39.92530822753906,-0.31047964096069336,0.6895238161087036,-0.5676040649414062,1.2481337,-1.0478549,10.846202,1
16,989.882080078125,1.239112377166748,0.5257754921913147,-0.31574562191963196,-6.387279510498047,28.90670394897461,-41.830223083496094,0.42397284507751465,2.0314924716949463,-2.014704704284668,0.51444656,-1.0407054,11.601339,1
16,989.7753295898438,1.477864384651184,-0.0679757222533226,-0.642515242099762,-6.732094764709473,27.05767059326172,-44.132389068603516,0.6472519636154175,0.878447413444519,-1.727712631225586,-0.24552935,-0.0373455,10.820165,1
16,989.8743286132812,0.8172678351402283,1.0553447008132935,-0.6142858266830444,-4.641846179962158,24.274765014648438,-45.6773681640625,0.4423651695251465,0.7795539498329163,0.3745098114013672,-0.22878718,0.15093319,9.9135275,1
16,989.821044921875,0.9138071537017822,1.1518841981887817,-0.33718422055244446,-3.1886534690856934,20.89527130126953,-47.01228332519531,0.4925444424152374,1.6384466886520386,-0.9928226470947266,-0.4677645,0.44407615,9.892223,1
16,989.7880249023438,1.2155429124832153,0.21192234754562378,-0.3988363742828369,-2.7847273349761963,19.43071746826172,-48.52851867675781,0.5281083583831787,0.7874933481216431,1.8421282768249512,-0.6254852,1.156676,8.043439,1
16,989.7651977539062,0.7514874339103699,0.9127326011657715,-0.21174952387809753,-1.7926077842712402,17.989391326904297,-48.904998779296875,0.34959691762924194,0.7505269050598145,-0.9597082138061523,0.11061746,1.5475335,10.91249,1
16,989.6485595703125,1.0221973657608032,-0.27450358867645264,-0.1024269089102745,-3.2469708919525146,14.889168739318848,-48.57646942138672,0.29844212532043457,0.9091978073120117,-1.0689096450805664,0.26597393,2.0361052,9.927735,1
16,989.72216796875,1.311549425125122,-1.3874375820159912,-0.05395747348666191,-4.587170124053955,11.5277681350708,-49.32802200317383,0.1710498332977295,0.929560661315918,0.6036596298217773,0.3329041,2.3054154,8.540555,1
16,989.7930908203125,1.0291212797164917,-0.28342512249946594,-0.02719278074800968,-4.8508453369140625,10.543501853942871,-49.460750579833984,0.40403538942337036,1.3948670625686646,-1.2081480026245117,0.12260556,1.5117834,11.246268,1
16,989.6867065429688,0.593561589717865,-0.03868081793189049,-0.03957652300596237,-5.328767776489258,9.200337409973145,-49.154541015625,1.2263940572738647,1.8469959497451782,-1.0660591125488281,0.007903159,2.2410662,9.089748,1
16,989.9044189453125,1.3973027467727661,-0.13269028067588806,0.08119762688875198,-5.651793479919434,4.579115867614746,-50.29705810546875,1.1059441566467285,1.0714364051818848,1.0280165672302246,-0.21912472,2.884551,7.759382,1
16,989.9044189453125,1.3973027467727661,-0.13269028067588806,0.08119762688875198,-5.651793479919434,4.579115867614746,-50.29705810546875,1.261997938156128,1.1057584285736084,-0.31757545471191406,-0.66841346,3.230126,8.635249,1
16,989.764892578125,0.4695911407470703,0.6694531440734863,0.22607341408729553,-4.998461723327637,3.241593360900879,-50.01153564453125,1.7213194370269775,1.6048707962036133,1.6649084091186523,-0.584754,3.3492897,6.994777,1
16,989.70361328125,1.1835838556289673,-0.5944819450378418,0.4512433707714081,-6.409131050109863,-1.345919132232666,-48.755882263183594,0.8583325147628784,0.7375259399414062,0.8556537628173828,0.47398543,4.347883,7.581845,1
16,989.7418212890625,0.946296215057373,-1.0117988586425781,0.4397917687892914,-8.325109481811523,-2.139683723449707,-47.567359924316406,1.1367509365081787,1.3984317779541016,-0.6438264846801758,0.67714,3.9117427,8.942988,1
16,989.6763916015625,1.0743939876556396,-1.1915621757507324,0.426609069108963,-10.738245010375977,-3.8720946311950684,-47.863975524902344,0.37614285945892334,1.0106534957885742,-0.5197510719299316,1.6163841,4.517095,8.502689,1
16,989.7702026367188,1.0526891946792603,-0.6337634921073914,0.5781428217887878,-11.943035125732422,-5.527100563049316,-47.50450134277344,0.35132932662963867,0.9012165069580078,0.7906970977783203,2.1039371,5.1176805,6.521342,1
16,989.7572631835938,0.9347110986709595,-0.6948829889297485,0.518887460231781,-13.146440505981445,-7.286556243896484,-46.52324676513672,0.4720916748046875,1.1982488632202148,-0.06798219680786133,2.2664633,4.8173876,7.1107764,1
16,989.7467651367188,0.7616056203842163,-0.6783713698387146,0.48453259468078613,-14.547052383422852,-8.756561279296875,-45.52854919433594,0.693291425704956,1.460303783416748,0.24796247482299805,2.515026,4.8865023,6.5166097,1
16,989.7088012695312,0.5643986463546753,-0.3906170129776001,0.6806742548942566,-15.294111251831055,-8.613347053527832,-45.26783752441406,0.5133512020111084,0.5555205345153809,1.1708660125732422,2.6895018,5.6348515,5.5602612,1
16,989.6934814453125,0.424049973487854,-0.22110697627067566,0.782539963722229,-15.76784896850586,-9.05757999420166,-44.16804504394531,1.1712627410888672,0.7695684432983398,1.0651006698608398,2.3573184,5.444189,5.269097,1
16,989.74658203125,0.41446247696876526,-0.24574115872383118,0.9159641861915588,-16.65012550354004,-8.882284164428711,-44.966156005859375,2.1271724700927734,1.385206699371338,1.4767861366271973,2.209157,4.8698187,4.9968696,1
16,989.7213134765625,0.029236458241939545,-0.31285274028778076,1.376557469367981,-17.697357177734375,-8.546425819396973,-44.05459213256836,0.796175479888916,0.7527222633361816,0.9129695892333984,3.5144625,4.8817244,5.2573,1
17,989.746826171875,0.7184598445892334,-1.3951600790023804,1.5231634378433228,-20.163976669311523,-8.117700576782227,-42.39085388183594,1.7111692428588867,1.7103767395019531,1.7325949668884277,3.8227887,4.0976253,3.997951,1
17,989.6806640625,0.7281824350357056,-1.3707945346832275,1.7391424179077148,-23.295312881469727,-7.73196268081665,-40.622154235839844,1.0793519020080566,1.6625759601593018,1.4330077171325684,5.5913453,4.1667395,4.2417755,1
17,989.67041015625,0.5311083793640137,-1.271458625793457,1.9041249752044678,-25.754430770874023,-6.1895318031311035,-39.71759796142578,-0.1921548843383789,1.0289273262023926,-0.08560514450073242,6.7552567,3.7758813,5.0679317,1
17,989.7059326171875,0.6815765500068665,-1.2441611289978027,1.6857458353042603,-27.953105926513672,-5.404259204864502,-38.577911376953125,0.5946178436279297,1.9836218357086182,-0.3041505813598633,7.0110054,3.1538448,4.3056955,1
17,989.6904296875,0.9948969483375549,-1.1325746774673462,1.7588493824005127,-29.788755416870117,-4.384842872619629,-36.81501007080078,-0.0481719970703125,1.13901948928833,0.5100908279418945,7.7280054,3.04183,3.2002144,1
17,989.7110595703125,0.9924997687339783,-0.8054057955741882,1.7438023090362549,-31.774301528930664,-3.7163543701171875,-35.23942565917969,-0.02295970916748047,1.4608044624328613,1.38930344581604,8.318339,2.6914873,2.1184056,1
17,989.7284545898438,0.8505531549453735,-0.3715771436691284,1.7917391061782837,-32.99186325073242,-2.2759485244750977,-33.9813232421875,0.49400901794433594,1.3026201725006104,1.437355875968933,7.876237,1.9216876,1.5834208,1
17,989.7437133789062,0.9181970953941345,-0.3846265971660614,1.726891040802002,-33.34986114501953,-1.3473234176635742,-33.287635803222656,-0.10854434967041016,1.563958764076233,1.4335074424743652,9.532469,1.7286415,1.9811132,1
17,989.774169921875,0.5458871722221375,0.1859552562236786,1.8497956991195679,-33.555030822753906,1.0415258407592773,-32.93389129638672,-1.1172351837158203,0.9942305088043213,0.9243848323822021,9.403443,1.087539,2.3930092,1
17,989.761474609375,-0.010446918196976185,1.0209888219833374,1.6702988147735596,-31.7652530670166,2.1906042098999023,-33.122955322265625,0.2540321350097656,1.3901352882385254,2.017333507537842,9.276807,0.63948184,1.6710151,1
17,989.7713623046875,0.12484126538038254,0.6996787190437317,1.694133996963501,-30.88345718383789,4.808110237121582,-34.56676483154297,-1.0751285552978516,0.6086856126785278,2.0739002227783203,9.532557,0.31535527,1.9124725,1
17,989.7713623046875,0.12484126538038254,0.6996787190437317,1.694133996963501,-28.92150115966797,6.698508262634277,-35.8265380859375,-0.938690185546875,0.9198756217956543,1.5629229545593262,10.610432,-0.068353266,3.4487894,1
17,989.7816772460938,-0.28062519431114197,0.274105966091156,1.4034500122070312,-25.538715362548828,10.02415943145752,-36.46542739868164,-1.7515487670898438,0.4933914542198181,-0.6876120567321777,10.916368,-0.23995,5.333085,1
17,989.7816772460938,-0.28062519431114197,0.274105966091156,1.4034500122070312,-25.538715362548828,10.02415943145752,-36.46542739868164,-1.4976282119750977,0.7103922367095947,0.7865262031555176,10.180308,-0.95493424,3.4132867,1
17,989.776611328125,-0.7057988047599792,1.1983553171157837,1.1163612604141235,-23.11448860168457,12.504931449890137,-36.984153747558594,-1.820037841796875,0.14655178785324097,1.3750107288360596,9.85292,-1.305277,4.2323413,1
17,989.8018188476562,-0.509257972240448,1.154280185699463,0.9573705792427063,-22.53938865661621,14.571141242980957,-37.19367218017578,-0.5144624710083008,1.0338451862335205,-0.6787014007568359,9.8959675,-1.6317866,5.2407727,1
17,989.79931640625,-0.2686418294906616,-0.6935526728630066,0.8005103468894958,-23.047422409057617,15.042912483215332,-35.98822784423828,-2.9341211318969727,-1.007393479347229,-1.2260146141052246,11.038369,-0.61412764,5.5887537,1
17,989.7813110351562,-0.530697226524353,0.3444136083126068,0.6220784187316895,-21.577571868896484,17.577743530273438,-35.593204498291016,-0.23560142517089844,0.306766152381897,1.229320764541626,8.882707,-1.8486667,4.1637006,1
17,989.7813110351562,-0.530697226524353,0.3444136083126068,0.6220784187316895,-21.577571868896484,17.577743530273438,-35.593204498291016,0.2629413604736328,0.27771711349487305,1.7899792194366455,7.6328173,-2.2848072,3.3399167,1
17,989.814208984375,-0.6662523746490479,1.2269845008850098,0.2673456072807312,-19.901033401489258,17.72519302368164,-35.62923049926758,1.0924887657165527,0.5862305164337158,1.6755411624908447,7.444044,-2.63515,3.614515,1
17,989.7964477539062,-0.5971435904502869,0.712329089641571,0.2693428695201874,-18.650455474853516,18.738353729248047,-36.11217498779297,-0.9133853912353516,-0.37917590141296387,0.10498809814453125,9.198262,-1.9511497,5.2975984,1
17,989.7966918945312,-0.42297324538230896,-0.10938850790262222,0.5309981107711792,-18.001605987548828,20.24123764038086,-35.91517639160156,-1.2539420127868652,-0.6347391605377197,-0.8423252105712891,8.889995,-2.4158897,5.633744,1
17,989.8012084960938,-0.9963518977165222,0.826711893081665,0.36668094992637634,-16.001934051513672,23.90357208251953,-34.43602752685547,-0.4413108825683594,-0.22496414184570312,0.48929929733276367,8.120475,-2.8281977,4.4525123,1
17,989.7962036132812,-0.6516063213348389,0.649878203868866,0.1993013173341751,-14.341156005859375,24.404586791992188,-33.797454833984375,0.10158491134643555,-0.027019977569580078,1.2224082946777344,7.2888174,-3.4526176,4.1542478,1
17,989.7885131835938,-0.7967488169670105,0.4946160912513733,0.16920748353004456,-13.440861701965332,25.247390747070312,-33.60057830810547,0.08313751220703125,-0.2220005989074707,0.4930853843688965,7.8467693,-3.2237911,5.264348,1
18,989.8136596679688,-1.0618587732315063,0.43269798159599304,0.30463549494743347,-12.018077850341797,27.42217254638672,-33.331199645996094,-1.1684627532958984,-0.36525893211364746,-1.2642569541931152,8.272149,-3.7576447,6.620753,1
18,989.8264770507812,-1.2028712034225464,0.5986124277114868,0.13392777740955353,-11.418634414672852,28.719989776611328,-31.88284683227539,-0.3416571617126465,0.4270486831665039,-1.118544578552246,7.4523897,-4.4916935,6.204123,1
18,989.8289794921875,-0.6133809685707092,0.33762288093566895,0.08718942105770111,-10.511845588684082,29.094478607177734,-31.197662353515625,-0.3194293975830078,0.012805461883544922,-0.23938798904418945,7.297023,-4.308181,5.330623,1
18,989.8136596679688,-0.6593201756477356,0.6208498477935791,0.160160094499588,-9.38814926147461,30.725318908691406,-30.08053207397461,0.09840583801269531,0.027301311492919922,0.5149450302124023,6.7138643,-4.5655746,4.9187284,1
18,989.8009643554688,-0.8571926951408386,0.7480156421661377,0.1488417536020279,-8.233905792236328,31.279281616210938,-30.1368408203125,0.5416164398193359,0.22055339813232422,0.12845325469970703,6.128315,-4.9778814,5.4182057,1
18,989.806396484375,-0.7808929085731506,0.5927534103393555,0.1400534212589264,-7.024580955505371,31.726444244384766,-29.65650177001953,0.33699941635131836,0.3749852180480957,0.030889511108398438,6.2692966,-5.251958,5.5270953,1
18,989.8264770507812,-0.5907431840896606,0.459062784910202,0.18812352418899536,-6.071268081665039,32.82926940917969,-28.944122314453125,0.596743106842041,0.4006080627441406,0.4232311248779297,5.798463,-5.42117,4.8666434,1
18,989.8361206054688,-0.4771592319011688,0.31565168499946594,0.2049015313386917,-5.493997097015381,33.42232131958008,-28.759841918945312,0.7308659553527832,0.4387640953063965,0.3327903747558594,5.5570602,-5.6642637,5.018142,1
18,989.8238525390625,-0.49353745579719543,0.28302791714668274,0.28146740794181824,-4.65087890625,33.52647399902344,-28.049030303955078,0.784733772277832,0.1759510040283203,0.979219913482666,5.416033,-5.673796,4.1044,1
18,989.828857421875,-0.507119357585907,0.3924837112426758,0.31302595138549805,-3.3719334602355957,34.143951416015625,-27.2044620513916,0.8645358085632324,0.6810908317565918,1.9579505920410156,5.1387815,-6.2624655,3.3634634,1
18,989.7908325195312,-0.7962050437927246,0.2663831114768982,0.3023734390735626,-2.25364351272583,35.506526947021484,-26.378734588623047,1.167921543121338,1.2142395973205566,0.6113314628601074,4.916498,-7.137128,3.9789343,1
18,989.8158569335938,-1.1393526792526245,-0.14880336821079254,0.39571723341941833,-1.2470698356628418,35.86895751953125,-25.477272033691406,1.1001338958740234,1.437767505645752,0.06618547439575195,4.9164753,-7.873561,4.7364364,1
18,989.7852172851562,-1.117914080619812,-0.6613283157348633,0.6151615381240845,-0.23563194274902344,36.86793518066406,-24.382850646972656,0.7377324104309082,1.6161365509033203,-1.2427735328674316,5.0622363,-8.312083,5.257219,1
18,989.8257446289062,-0.8860859274864197,-0.9388294816017151,0.8537807464599609,0.672457218170166,38.66462707519531,-21.625526428222656,0.9277896881103516,1.6856598854064941,-0.44671082496643066,4.8590717,-8.714856,3.7090669,1
18,989.7953491210938,-0.5973992943763733,-0.9601348042488098,1.1693650484085083,1.6498456001281738,39.579193115234375,-20.751873016357422,0.05619096755981445,1.075185775756836,0.3645596504211426,5.762432,-8.204835,3.2474601,1
18,989.80810546875,-0.5794227123260498,-1.449357271194458,1.5238316059112549,3.7348170280456543,40.21345520019531,-19.262649536132812,-1.049149990081787,-0.08841896057128906,-1.4445829391479492,6.2403893,-7.706729,4.5470524,1
18,989.8385620117188,-0.314171701669693,-1.745633602142334,1.4559212923049927,6.7113566398620605,41.207481384277344,-16.31519317626953,-2.0975961685180664,-1.345254898071289,-3.5748953819274902,6.577343,-7.277738,5.3282266,1
18,989.8382568359375,0.2638671100139618,-1.3508203029632568,0.896258533000946,7.801494121551514,40.75304412841797,-16.071666717529297,-2.681715965270996,-1.37870454788208,-3.9211771488189697,7.277561,-6.9083295,6.111769,1
18,989.8382568359375,0.2638671100139618,-1.3508203029632568,0.896258533000946,7.801494121551514,40.75304412841797,-16.071666717529297,-2.653313159942627,-1.1442852020263672,-3.3157200813293457,7.1030755,-7.237221,5.0110173,1
18,989.8382568359375,0.2638671100139618,-1.3508203029632568,0.896258533000946,8.060007095336914,40.46862030029297,-16.556766510009766,-2.1277284622192383,-1.16563081741333,-1.7666246891021729,6.369353,-7.530364,3.706687,1
18,989.8382568359375,0.3550805151462555,-0.1425452083349228,0.2863953113555908,8.696626663208008,40.32716369628906,-16.49262237548828,-0.9602236747741699,-0.16265010833740234,-0.9815101623535156,5.320163,-8.295396,3.3468704,1
18,989.8206176757812,0.13031014800071716,0.8205861449241638,-0.28431951999664307,7.905684947967529,40.21918487548828,-17.21125030517578,-0.05755901336669922,0.5387096405029297,-0.19246792793273926,4.5649314,-8.848315,2.560957,1
18,989.8204956054688,0.04721981659531593,1.0337719917297363,-0.5423795580863953,7.481790065765381,40.71807098388672,-17.637025833129883,0.3944377899169922,0.565190315246582,0.641754150390625,4.4239044,-8.595689,2.269789,1
18,989.8154907226562,0.27239012718200684,0.7508113384246826,-0.5197426080703735,7.106587886810303,40.472137451171875,-17.641803741455078,0.14911937713623047,0.7204065322875977,0.52632737159729,4.667525,-8.652883,2.5206988,1
19,989.7979125976562,0.34935563802719116,0.1717073619365692,-0.3343866169452667,6.552850246429443,40.059112548828125,-17.763259887695312,-0.135955810546875,-0.008005142211914062,0.5125923156738281,5.188367,-7.4707727,2.1040568,1
19,989.7748413085938,0.21326903998851776,0.09527457505464554,-0.247567281126976,6.3493971824646,39.816444396972656,-18.564537048339844,0.07344532012939453,0.18122100830078125,0.5311417579650879,4.815509,-8.133323,2.8757617,1
19,989.904052734375,-0.24759294092655182,-0.05985180661082268,-0.2885763347148895,5.461872577667236,40.249698638916016,-18.530107498168945,0.014246463775634766,-0.09561920166015625,-1.763443946838379,5.0472965,-7.8902283,4.492558,1
19,989.904052734375,-0.24759294092655182,-0.05985180661082268,-0.2885763347148895,5.461872577667236,40.249698638916016,-18.530107498168945,0.8569908142089844,0.09097003936767578,-0.7072117328643799,4.275325,-8.0785055,3.5267363,1
19,989.911376953125,-0.13400889933109283,-0.027228163555264473,-0.11680245399475098,5.259664058685303,39.796669006347656,-18.01053237915039,0.007801055908203125,-0.15892744064331055,-0.6353898048400879,5.1284876,-7.6137667,3.557507,1
19,989.7188110351562,0.3090078830718994,-0.04347348213195801,-0.025455961003899574,4.7651686668396,39.7554817199707,-18.62478256225586,-0.19060754776000977,0.018583297729492188,0.4020884037017822,5.274238,-7.802045,2.681639,1
19,989.8276977539062,0.3159327805042267,0.31099286675453186,-0.10721466690301895,5.198877811431885,39.00305938720703,-19.26346206665039,0.45122337341308594,0.2959284782409668,0.6072394847869873,4.8822613,-7.8783083,2.7124095,1
19,989.8276977539062,0.04548928141593933,0.36292439699172974,-0.33091989159584045,4.666745662689209,39.242794036865234,-20.04231834411621,0.7441291809082031,0.5792884826660156,0.7002849578857422,4.3851285,-8.235799,2.7431803,1
19,989.8175659179688,-0.23920206725597382,0.4538712203502655,-0.29882872104644775,4.468559741973877,39.1624755859375,-19.85310935974121,0.39841413497924805,0.18391656875610352,0.3645284175872803,4.8081083,-7.768676,3.2071488,1
19,989.8350219726562,-0.24226440489292145,0.2039337009191513,-0.16327376663684845,4.148196697235107,39.81017303466797,-18.994815826416016,0.25731658935546875,-0.08031463623046875,0.03502225875854492,4.8917217,-7.580396,3.2355523,1
19,989.8402099609375,-0.08061033487319946,0.022306228056550026,-0.15275414288043976,4.05102014541626,39.087127685546875,-19.091501235961914,-0.04295921325683594,-0.2412567138671875,0.03841900825500488,5.419857,-7.353984,3.4012535,1
19,989.8170776367188,-0.1413300484418869,0.1129867285490036,-0.15541715919971466,3.6806845664978027,39.477752685546875,-18.9033203125,-0.23628664016723633,-0.12902164459228516,-0.004113674163818359,5.326618,-7.632827,3.2142415,1
19,989.8096313476562,-0.11576338857412338,0.22017881274223328,-0.3164049983024597,3.4182848930358887,39.495384216308594,-18.78693389892578,0.37125158309936523,0.39514827728271484,0.2425520420074463,4.9489803,-7.9307356,3.2237072,1
19,989.8145141601562,-0.15278099477291107,0.1457434743642807,-0.3190680146217346,2.6720681190490723,39.902442932128906,-18.002904891967773,0.3248457908630371,0.24229764938354492,0.06181812286376953,5.066053,-7.8044214,3.361002,1
19,989.8272094726562,-0.15384593605995178,0.19953925907611847,-0.2514236569404602,2.4322237968444824,39.73033905029297,-17.647937774658203,0.3488898277282715,0.22295379638671875,0.2893824577331543,5.0731897,-7.637591,3.0485282,1
19,989.811767578125,-0.1615687757730484,0.18915288150310516,-0.21400611102581024,1.9997382164001465,39.85209655761719,-17.511432647705078,0.11669683456420898,0.004657745361328125,-0.010724544525146484,5.4053535,-7.48506,3.2734094,1
19,989.80712890625,-0.12268634140491486,0.08728699386119843,-0.190703347325325,1.6163859367370605,39.96708679199219,-17.22813606262207,0.12583017349243164,0.20540761947631836,0.2889699935913086,5.2929945,-7.6566553,3.0248504,1
19,989.8572998046875,-0.13147445023059845,0.11192115396261215,-0.18377898633480072,1.0754199028015137,40.83012390136719,-17.118289947509766,0.09762001037597656,0.005093097686767578,-0.04704451560974121,5.3383694,-7.468376,3.2497315,1
19,989.844970703125,-0.13427044451236725,0.07570214569568634,-0.10974304378032684,0.9479413032531738,40.18353271484375,-16.367952346801758,0.11293458938598633,0.02402782440185547,0.08289623260498047,5.4363227,-7.4135594,3.0745554,1
19,989.8246459960938,-0.11469590663909912,0.09234683215618134,-0.09456288814544678,0.808753490447998,41.4754753112793,-16.345115661621094,-0.038143157958984375,-0.0366063117980957,0.18476057052612305,5.6131425,-7.3253775,3.1053257,1
19,989.8369750976562,-0.09898295253515244,0.05785888433456421,-0.06220538169145584,0.8662829399108887,40.107357025146484,-16.81281852722168,-0.17303037643432617,-0.32846784591674805,0.061417579650878906,5.7087054,-7.1180315,3.1763391,1
19,989.8418579101562,-0.10950210690498352,0.08994989842176437,-0.09815788269042969,0.12365293502807617,40.149070739746094,-16.08494758605957,0.27651071548461914,-0.0027971267700195312,-0.022384166717529297,5.3191185,-7.442157,3.2402506,1
19,989.82666015625,-0.09884916245937347,0.12097564339637756,-0.08870353549718857,0.41317129135131836,39.94612121582031,-16.194671630859375,0.04500722885131836,-0.0599980354309082,0.028621912002563477,5.687131,-7.165695,3.1053169,1
19,989.8164672851562,-0.030272504314780235,0.06877768039703369,-0.00800968799740076,0.6358685493469238,40.57622528076172,-16.496810913085938,-0.25135183334350586,-0.41222143173217773,0.07038593292236328,5.6679783,-7.120412,3.2047367,1
19,989.8340454101562,-0.06875482946634293,0.12430448830127716,-0.09589378535747528,0.5536365509033203,39.65607452392578,-15.968391418457031,0.09940242767333984,0.062329769134521484,-0.2367706298828125,5.5463467,-7.4183283,3.5835123,1
20,989.8038940429688,-0.04758722335100174,0.34721308946609497,-0.0783158466219902,0.31618547439575195,40.96155548095703,-16.2391414642334,-0.20932388305664062,-0.03309440612792969,0.3732116222381592,5.649091,-7.177617,2.2555094,1
20,989.8390502929688,0.19875413179397583,0.33349794149398804,-0.06899514049291611,0.7939167022705078,40.56623077392578,-16.597564697265625,0.7516398429870605,0.2491774559020996,0.5379548072814941,5.3144827,-7.4040275,3.4107022,1
20,989.9637451171875,-0.324290007352829,0.09634362161159515,0.07987552881240845,0.32129526138305664,40.597679138183594,-16.37260627746582,-0.7515110969543457,-0.0686807632446289,-1.4031305313110352,6.1652665,-7.4254766,4.5493245,1
20,989.864501953125,-0.002313908888027072,0.01871250383555889,0.11862457543611526,0.7982077598571777,40.35881805419922,-15.431324005126953,-0.1285877227783203,-0.35028696060180664,0.7391042709350586,5.4458847,-7.084667,2.423575,1
20,989.864501953125,-0.002313908888027072,0.01871250383555889,0.11862457543611526,0.8404088020324707,40.082313537597656,-15.498632431030273,-0.4123234748840332,-0.44778871536254883,0.5105531215667725,5.8210773,-7.1013494,3.278133,1
20,989.7276000976562,0.15294846892356873,0.08395986258983612,0.13433730602264404,1.3660483360290527,40.310890197753906,-15.208084106445312,-0.17990446090698242,-0.0706777572631836,-0.3357868194580078,5.3693647,-7.547022,3.3302095,1
20,989.7832641601562,-0.4413352608680725,0.3703825771808624,0.08307158946990967,1.7387480735778809,40.18559265136719,-14.950246810913086,0.41153907775878906,0.18387651443481445,0.6927273273468018,4.9558897,-7.620903,2.823626,1
20,989.8187255859375,-0.03613540530204773,0.12310823053121567,-0.05900784954428673,1.6348328590393066,40.93128967285156,-15.208820343017578,0.03902292251586914,0.07476139068603516,-0.19820237159729004,5.328693,-7.606603,3.5503554,1
20,989.8212280273438,-0.0366678312420845,-0.02150133065879345,0.004774891771376133,1.9703011512756348,40.612701416015625,-14.318061828613281,-0.04270792007446289,-0.07055854797363281,0.019596576690673828,5.421878,-7.4779053,3.3609772,1
20,989.8338623046875,-0.16609713435173035,0.0654507726430893,0.08240606635808945,1.7817912101745605,40.172935485839844,-14.494232177734375,-0.012385845184326172,-0.1424083709716797,-0.13120460510253906,5.33104,-7.475521,3.3444047,1
20,989.8186645507812,-0.07208742201328278,0.037088099867105484,0.08480299264192581,1.7977147102355957,40.34558868408203,-14.044883728027344,-0.10034322738647461,-0.0196075439453125,0.04259777069091797,5.3596973,-7.5398693,3.2118397,1
20,989.8336181640625,-0.04492299258708954,0.038819119334220886,0.04179306700825691,2.0761733055114746,40.606536865234375,-14.410999298095703,-0.17333173751831055,-0.06412839889526367,0.1057133674621582,5.3453364,-7.563702,3.2733848,1
20,989.8338623046875,-0.02454962581396103,0.005263281986117363,0.022218935191631317,2.17055082321167,40.326202392578125,-14.486125946044922,0.056148529052734375,-0.0031375885009765625,-0.05440092086791992,5.276007,-7.6137505,3.2733827,1
20,989.8260498046875,-0.06476311385631561,0.010722722858190536,-0.010138353332877159,1.8767647743225098,41.15687561035156,-13.719615936279297,0.03947925567626953,-0.015655517578125,0.0706796646118164,5.2807655,-7.5732336,3.228404,1
20,989.8359985351562,-0.03240552917122841,0.009657426737248898,-0.012135632336139679,2.4404215812683105,40.21002197265625,-14.289958953857422,-0.11903572082519531,-0.0052547454833984375,-0.206620454788208,5.338102,-7.5398674,3.3799028,1
20,989.815673828125,-0.033869847655296326,0.04574316367506981,-0.0310438834130764,1.3844947814941406,41.27509307861328,-13.188770294189453,-0.056656837463378906,-0.14649105072021484,0.250258207321167,5.3404703,-7.4802847,3.0106175,0
20,989.8206787109375,-4.752377935801633E-5,-7.289918139576912E-4,-0.04848748445510864,1.5266203880310059,41.092445373535156,-13.738872528076172,-0.2064676284790039,-0.09670591354370117,0.009578466415405273,5.481453,-7.468368,3.181054,0
20,989.8534545898438,0.005279002245515585,-0.07023747265338898,-0.06526529043912888,2.025681972503662,41.13804626464844,-13.35654067993164,-0.0946645736694336,-0.17221879959106445,0.0779111385345459,5.4670916,-7.389719,3.1384425,0
