Timestamp,P,Gx,Gy,Gz,Mx,My,Mz,LiAx,LiAy,LiAz,Ax,Ay,Az,earthAx,earthAy,earthAz,Value,Type
0,987.9663696289062,-0.0015542469918727875,-5.411015590652823E-4,-7.012633141130209E-4,1.274637222290039,21.072458267211914,-37.71703338623047,-0.7811082601547241,-0.12530092895030975,0.030511856079101562,0.061233252,-0.13936593,9.7634,0.7359308,-0.28454977,9.732657,0
0,987.9663696289062,-0.0015542469918727875,-5.411015590652823E-4,-7.012633141130209E-4,-11.335532188415527,24.80625343322754,-38.91773986816406,-0.7890151739120483,-0.1296619325876236,-0.00249481201171875,0.07071176,-0.13936393,9.768127,0.74514693,-0.28305393,9.736806,0
0,987.8861694335938,6.143611972220242E-4,-8.8764019892551E-5,3.948744561057538E-4,-11.078679084777832,24.414438247680664,-38.62644958496094,-0.7969341278076172,-0.13376320898532867,-0.011824607849121094,0.077800274,-0.1369787,9.79416,0.7510492,-0.2892335,9.762308,0
0,987.9241333007812,3.48827859852463E-4,1.774248667061329E-4,7.946835830807686E-4,-11.852420806884766,25.481019973754883,-38.64661407470703,-0.7764846086502075,-0.13341577351093292,0.01669025421142578,0.07054937,-0.13697667,9.777582,0.74116063,-0.287957,9.746416,0
0,987.9164428710938,3.4961017081514E-4,7.099296199157834E-4,-2.7024472365155816E-4,-11.765653610229492,25.193326950073242,-38.33521270751953,-0.7887153625488281,-0.1137416809797287,0.007395744323730469,0.072858095,-0.14889105,9.7681055,0.7338272,-0.29982555,9.737299,0
0,987.9238891601562,6.167084793560207E-4,3.1032873084768653E-4,-2.6990933110937476E-4,-11.49966812133789,24.81035041809082,-38.50776290893555,-0.7974621057510376,-0.1330108493566513,0.01218414306640625,0.082336545,-0.14173926,9.784668,0.7465172,-0.29774445,9.752984,0
0,987.93603515625,-7.140886154957116E-4,4.4335966231301427E-4,-8.022057008929551E-4,-11.493281364440918,25.448381423950195,-38.392112731933594,-0.7814466953277588,-0.13728760182857513,-0.020819664001464844,0.06313616,-0.13220413,9.78466,0.736805,-0.27020115,9.754238,0
0,987.9083251953125,0.0011509049218147993,-6.220308132469654E-4,-4.0239666122943163E-4,-11.739076614379883,25.376298904418945,-38.427001953125,-0.7751132249832153,-0.12718991935253143,0.012452125549316406,0.06305498,-0.14411856,9.772818,0.7258282,-0.2863155,9.742889,0
0,987.9408569335938,2.1958159049972892E-4,0.001774685108102858,-5.352192674763501E-4,-11.092781066894531,24.875383377075195,-38.728233337402344,-0.7691306471824646,-0.12187521159648895,0.007821083068847656,0.06775361,-0.15364964,9.770443,0.7265199,-0.28943676,9.740543,0
0,987.938232421875,0.0010193116031587124,-8.965311280917376E-5,-8.011998725123703E-4,-11.319311141967773,25.611047744750977,-38.043514251708984,-0.7769031524658203,-0.13570834696292877,0.02690410614013672,0.074842125,-0.14411451,9.763333,0.7374948,-0.27814612,9.73282,0
0,987.9353637695312,6.206200341694057E-4,4.428516258485615E-4,-9.340225369669497E-4,-11.557633399963379,25.44041633605957,-37.76585388183594,-0.7754204273223877,-0.12563078105449677,0.0033540725708007812,0.060421586,-0.1441126,9.775163,0.721878,-0.27765864,9.7457695,0
0,987.9353637695312,-4.4387124944478273E-5,3.0956673435866833E-4,1.3157635112293065E-4,-11.262325286865234,24.61121940612793,-38.60967254638672,-0.7690746188163757,-0.11612017452716827,-0.029671669006347656,0.065404534,-0.14650081,9.789384,0.7224628,-0.28752565,9.759772,0
0,987.9175415039062,-3.112807753495872E-4,7.091343286447227E-4,-1.8291757442057133E-6,-11.509343147277832,25.169801712036133,-38.14237976074219,-0.7632806301116943,-0.13950686156749725,0.003543853759765625,0.063234895,-0.13458987,9.775201,0.72522235,-0.27262062,9.745584,0
0,987.914794921875,2.1225615637376904E-4,4.824112693313509E-5,-1.3234710786491632E-4,-11.381619453430176,24.81596565246582,-39.219139099121094,-0.766471266746521,-0.13900817930698395,-0.0010614395141601562,0.06317654,-0.13220514,9.782297,0.7239236,-0.27407962,9.752724,0
0,987.9244384765625,8.786082617007196E-4,1.813077979022637E-4,7.999995141290128E-4,-11.341757774353027,24.694440841674805,-37.90943908691406,-0.7550041675567627,-0.13839583098888397,0.013296127319335938,0.058338404,-0.13220371,9.77519,0.7181179,-0.26905257,9.746134,0
0,987.9345703125,3.4653901821002364E-4,1.8121647008229047E-4,1.292908564209938E-6,-11.474207878112793,24.517641067504883,-37.72471618652344,-0.7628858685493469,-0.13351450860500336,0.003951072692871094,0.065449715,-0.14173542,9.765717,0.71530575,-0.28484297,9.736569,0
0,987.9445190429688,-5.237251752987504E-5,8.469148306176066E-4,-2.6478199288249016E-4,-11.554153442382812,26.18141746520996,-38.194671630859375,-0.7754052877426147,-0.1138857752084732,-0.00537109375,0.0773409,-0.15126707,9.77518,0.7270796,-0.2798112,9.745567,0
0,987.934326171875,0.001146611524745822,-0.0011505455477163196,-2.645408967509866E-4,-11.170011520385742,24.697710037231445,-38.70594024658203,-0.763956606388092,-0.11797656118869781,0.013719558715820312,0.07250273,-0.14411585,9.768072,0.7196373,-0.28207892,9.738779,0
0,987.9344482421875,8.191046072170138E-5,5.804164102301002E-4,2.016080543398857E-6,-11.060797691345215,25.326623916625977,-38.52861785888672,-0.7672951817512512,-0.13661055266857147,0.03277397155761719,0.07005447,-0.12981476,9.758598,0.7267049,-0.25688368,9.729229,0
0,987.9641723632812,3.4878874430432916E-4,0.0015124306082725525,-6.63532642647624E-4,-10.997562408447266,24.858903884887695,-38.28003692626953,-0.751837432384491,-0.12205527722835541,0.02812671661376953,0.05804661,-0.14887954,9.76096,0.7045393,-0.27119917,9.733032,0
0,987.9362182617188,7.488249684683979E-4,0.001645497279241681,-6.632916629314423E-4,-11.454421997070312,24.53679084777832,-38.729679107666016,-0.7406483292579651,-0.1314227432012558,-1.6021728515625E-4,0.060378194,-0.13934489,9.777525,0.7129651,-0.25854048,9.74925,0
0,987.938720703125,-4.9560272600501776E-5,0.001112774247303605,2.7391361072659492E-6,-11.283601760864258,25.802858352661133,-38.5991325378418,-0.7531000375747681,-0.11150075495243073,-0.014204978942871094,0.067489535,-0.14887656,9.782253,0.7095427,-0.27867615,9.753876,0
0,987.9436645507812,8.831077138893306E-4,-8.573854574933648E-5,0.001068243756890297,-11.491621971130371,25.55577278137207,-39.168495178222656,-0.7467448115348816,-0.12999261915683746,1.25885009765625E-4,0.060261488,-0.1369588,9.7751465,0.70480716,-0.27061537,9.747098,0
0,987.92333984375,4.8419629456475377E-4,8.462757105007768E-4,3.2212119549512863E-6,-11.736032485961914,25.379243850708008,-38.58161163330078,-0.7498704195022583,-0.10554291307926178,0.02393054962158203,0.072152615,-0.14649044,9.772776,0.71084124,-0.2781472,9.744289,0
0,987.92333984375,4.8419629456475377E-4,8.462757105007768E-4,3.2212119549512863E-6,-11.62779712677002,25.638399124145508,-38.22853088378906,-0.7478659152984619,-0.13394160568714142,0.014609336853027344,0.06492457,-0.13933922,9.770402,0.7047048,-0.27152964,9.742385,0
1,987.94091796875,8.842325187288225E-4,-8.59211286297068E-5,-5.291695706546307E-4,-11.561380386352539,25.279539108276367,-38.833641052246094,-0.7460260391235352,-0.11909829080104828,0.03369140625,0.06008643,-0.1369545,9.765663,0.70339185,-0.2563639,9.738071,0
1,987.9431762695312,8.584727765992284E-5,4.7145484131760895E-5,2.7001911075785756E-4,-11.236833572387695,25.530771255493164,-38.898353576660156,-0.7534914016723633,-0.1091536432504654,0.014911651611328125,0.062417984,-0.14648618,9.7751255,0.69800985,-0.26899606,9.747763,0
1,987.9683837890625,4.8588350182399154E-4,4.465280217118561E-4,-3.955294960178435E-4,-11.381321907043457,25.44809913635254,-38.79426574707031,-0.7424030900001526,-0.12291736900806427,0.0055637359619140625,0.059969723,-0.14886804,9.777489,0.68862236,-0.28144085,9.750468,0
1,987.9428100585938,1.6541802324354649E-4,-6.781512638553977E-5,-8.7860191706568E-4,-11.536761283874512,24.722986221313477,-38.573917388916016,-0.7399592995643616,-0.11356030404567719,0.010464668273925781,0.05991131,-0.1417168,9.77985,0.68904597,-0.2774799,9.752812,0
1,987.95263671875,-7.661250419914722E-4,-2.01064336579293E-4,5.863764090463519E-4,-11.95788860321045,25.012983322143555,-37.75614929199219,-0.742585301399231,-0.12758107483386993,0.020090103149414062,0.07180253,-0.14171536,9.779844,0.7027416,-0.26886794,9.752152,0
1,987.9298095703125,-2.3293087724596262E-4,-6.00629486143589E-4,-4.7864613588899374E-4,-11.484149932861328,25.457216262817383,-38.85594177246094,-0.7351553440093994,-0.1273944228887558,-0.0033941268920898438,0.06696439,-0.12979753,9.7727375,0.69955295,-0.26071313,9.7452755,0
1,987.94482421875,-9.921030141413212E-5,-6.007208721712232E-4,-3.452469827607274E-4,-11.52830982208252,24.99419593811035,-38.4371223449707,-0.7523845434188843,-0.1271248608827591,0.01094818115234375,0.07646561,-0.13456269,9.770365,0.70499384,-0.26475057,9.742529,0
1,987.957763671875,-3.649638965725899E-4,-8.671279065310955E-4,5.870995810255408E-4,-11.658802032470703,25.55692481994629,-38.603912353515625,-0.731071949005127,-0.12194247543811798,-0.0078277587890625,0.062067866,-0.13217796,9.784563,0.69362515,-0.25254303,9.757772,0
1,987.949951171875,-2.3124355357140303E-4,9.969919919967651E-4,4.541826492641121E-4,-11.073271751403809,24.682703018188477,-38.335044860839844,-0.7289766669273376,-0.11243616044521332,0.006519317626953125,0.06439942,-0.13932641,9.770354,0.69177806,-0.25200456,9.743783,0
1,987.9319458007812,-9.7523326985538E-5,-4.6783676953054965E-4,-2.113660448230803E-4,-11.247488021850586,25.520463943481445,-38.35721969604492,-0.7316446304321289,-0.12180645763874054,0.02087116241455078,0.069120854,-0.14409144,9.7679825,0.690111,-0.26130357,9.741381,0
1,987.9244995117188,-8.95908335223794E-4,-0.0014000337105244398,3.215067845303565E-4,-11.252894401550293,25.2521915435791,-38.64862823486328,-0.715510368347168,-0.12151224911212921,0.011532783508300781,0.0595029,-0.13694014,9.779813,0.6858354,-0.24624068,9.753769,0
1,987.9241333007812,1.704801106825471E-4,8.634687983430922E-4,3.219889185857028E-4,-11.419095993041992,25.623109817504883,-38.259796142578125,-0.7273609638214111,-0.11180074512958527,0.002246856689453125,0.07343334,-0.14408003,9.767939,0.69105935,-0.25997007,9.741337,0
1,987.9317016601562,-3.6881736014038324E-4,-4.598837695084512E-4,-6.015012040734291E-4,-11.494803428649902,25.4469051361084,-38.31480407714844,-0.7486658096313477,-0.11607764661312103,0.0024366378784179688,0.08292058,-0.14407827,9.777401,0.6961496,-0.2675674,9.750333,0
1,987.9436645507812,1.6574712935835123E-4,-8.596713887527585E-4,-4.675147356465459E-4,-11.69230842590332,25.104211807250977,-38.72622299194336,-0.7318605780601501,-0.13022758066654205,0.0073413848876953125,0.07567859,-0.13692664,9.786863,0.6885969,-0.26573,9.760245,0
1,987.94873046875,-3.661871887743473E-4,-3.271528403274715E-4,6.541586481034756E-5,-11.457710266113281,25.534273147583008,-38.24864959716797,-0.7245056629180908,-0.12986324727535248,0.016992568969726562,0.07321632,-0.14407466,9.770287,0.6836707,-0.25830805,9.744255,0
1,987.9461669921875,1.6714190132915974E-4,-5.935818771831691E-4,-6.744335405528545E-5,-11.409558296203613,25.157739639282227,-37.92609786987305,-0.7272759079933167,-0.11037106812000275,0.021874427795410156,0.077923775,-0.13692309,9.77028,0.6883513,-0.25666928,9.743895,0
1,987.9511108398438,7.004707586020231E-4,7.209467003121972E-5,4.6548733371309936E-4,-11.582550048828125,25.364831924438477,-38.45044708251953,-0.7201097011566162,-0.11458997428417206,-0.0016231536865234375,0.07068172,-0.1393046,9.777374,0.67846024,-0.25631034,9.75169,0
1,987.9481811523438,1.685360912233591E-4,-1.9433445413596928E-4,-3.3316167537122965E-4,-11.519966125488281,26.37175178527832,-38.67298126220703,-0.7226448059082031,-0.11414311826229095,0.0032739639282226562,0.077779114,-0.14406936,9.779736,0.6851458,-0.25034818,9.753867,0
1,987.9561157226562,-3.6339834332466125E-4,-5.939214606769383E-4,-7.323365425691009E-4,-11.278087615966797,24.96477699279785,-37.93506622314453,-0.70113205909729,-0.1140650063753128,0.031841278076171875,0.06336734,-0.13930102,9.767893,0.6683843,-0.247987,9.743046,0
1,987.9303588867188,-9.638501796871424E-5,-5.940346163697541E-4,3.332257329020649E-4,-11.67668342590332,24.64473533630371,-38.701744079589844,-0.7032658457756042,-0.11827124655246735,0.013093948364257812,0.06329498,-0.13929923,9.782089,0.66176695,-0.26049298,9.757401,0
1,987.9227294921875,3.037858987227082E-4,-8.604637114331126E-4,8.661564206704497E-4,-11.470590591430664,25.36455726623535,-38.85260772705078,-0.7057459354400635,-0.1179126650094986,-9.479522705078125E-4,0.06322268,-0.14168073,9.779716,0.66317296,-0.24883515,9.755265,0
1,987.947998046875,-9.499071165919304E-5,-1.9478716421872377E-4,-9.977560257539153E-4,-11.460617065429688,25.637243270874023,-38.79311752319336,-0.7081677913665771,-0.10348360240459442,0.008679389953613281,0.065540224,-0.1464455,9.765506,0.66117054,-0.24931425,9.74123,0
1,987.9448852539062,-4.937674384564161E-4,4.7088926658034325E-4,4.672802169807255E-4,-11.432272911071777,24.821260452270508,-39.28862762451172,-0.706173300743103,-0.1124332994222641,0.0040912628173828125,0.075027525,-0.14406045,9.786804,0.66633964,-0.26145768,9.761944,0
1,987.9600219726562,-9.359617251902819E-5,-1.9501353381201625E-4,-6.505276542156935E-5,-11.391730308532715,24.437360763549805,-38.579551696777344,-0.6942223310470581,-0.12169782817363739,0.032662391662597656,0.063005626,-0.13214226,9.760757,0.6571823,-0.24635744,9.736591,0
2,987.9371337890625,4.025909584015608E-5,2.0434707403182983E-4,6.840401329100132E-5,-11.692009925842285,25.736352920532227,-38.301353454589844,-0.7017646431922913,-0.1026725023984909,0.018589019775390625,0.06771314,-0.15359004,9.77022,0.6532483,-0.2565007,9.746427,0
2,987.9395751953125,-2.253596903756261E-4,2.0423386013135314E-4,3.35018674377352E-4,-11.339118957519531,25.171594619750977,-38.861576080322266,-0.6996231079101562,-0.10224305093288422,-0.004932403564453125,0.06764078,-0.14643843,9.782049,0.65549386,-0.2498274,9.758197,0
2,987.9468994140625,4.165328573435545E-5,-3.285110869910568E-4,-6.415625102818012E-5,-11.937261581420898,25.295976638793945,-38.23779296875,-0.6921790838241577,-0.12080816924571991,-0.009481430053710938,0.06995833,-0.13452028,9.78441,0.65757936,-0.24923664,9.760286,0
2,987.9389038085938,-9.080709423869848E-5,-1.9546638941392303E-4,-1.970153534784913E-4,-11.292350769042969,24.899511337280273,-39.160797119140625,-0.6947429180145264,-0.10627888143062592,-0.004597663879394531,0.07227588,-0.14643492,9.78677,0.6546406,-0.25235394,9.762956,0
2,987.9287109375,4.304817412048578E-5,4.702100995928049E-4,3.3591515966691077E-4,-11.437381744384766,25.185129165649414,-39.15516662597656,-0.6831815838813782,-0.0963975042104721,0.028680801391601562,0.062643915,-0.15119965,9.774929,0.6408297,-0.2521035,9.752015,0
2,987.9465942382812,-2.2257049567997456E-4,-7.283245213329792E-4,4.6937205479480326E-4,-11.621027946472168,25.381914138793945,-39.13838195800781,-0.670901894569397,-0.10086186230182648,0.014659881591796875,0.05779177,-0.1488146,9.770187,0.63817894,-0.23836315,9.747717,0
2,987.9338989257812,4.444259684532881E-5,-3.289638552814722E-4,-7.287508342415094E-4,-11.136367797851562,25.25633430480957,-39.28269958496094,-0.6828597187995911,-0.1245141476392746,0.014817237854003906,0.06966895,-0.12736334,9.77018,0.65652853,-0.2255821,9.746567,0
2,987.9490966796875,-4.8749183770269156E-4,-6.276112981140614E-5,2.0365382079035044E-4,-11.672905921936035,26.01786994934082,-38.705692291259766,-0.6946195363998413,-0.11936603486537933,0.005523681640625,0.074376404,-0.13689466,9.779642,0.65188926,-0.2417625,9.756139,0
2,987.9462890625,-2.2047862876206636E-4,-4.6234819456003606E-4,8.69742245413363E-4,-11.486650466918945,25.085981369018555,-38.602882385253906,-0.6812920570373535,-0.09023873507976532,0.0152435302734375,0.06952423,-0.15119256,9.777268,0.6382232,-0.250735,9.754614,0
2,987.9462890625,-2.2047862876206636E-4,-4.6234819456003606E-4,8.69742245413363E-4,-11.486650466918945,25.085981369018555,-38.602882385253906,-0.6799193024635315,-0.1044938713312149,0.03426933288574219,0.071841836,-0.15119077,9.770161,0.6385058,-0.2478253,9.7475605,0
2,987.9486694335938,1.7969252075999975E-4,-7.287773187272251E-4,-1.9522244110703468E-4,-11.325559616088867,25.07893943786621,-38.858245849609375,-0.677390456199646,-0.10898943245410919,0.0012941360473632812,0.06937957,-0.14642246,9.791458,0.63650054,-0.24528572,9.7690115,0
2,987.9357299804688,-7.517158519476652E-4,-8.620484150014818E-4,7.139227818697691E-5,-11.606082916259766,25.1848087310791,-38.51327133178711,-0.6793088912963867,-0.09921480715274811,-0.0032558441162109375,0.067075014,-0.1559576,9.784366,0.6263517,-0.25213194,9.762518,0
2,987.9457397460938,-8.52290540933609E-5,-5.958456895314157E-4,3.380070556886494E-4,-11.722472190856934,25.286584854125977,-38.578277587890625,-0.6629493236541748,-0.12259669601917267,0.011075019836425781,0.06000024,-0.1368938,9.770171,0.62943983,-0.22359627,9.748456,0
2,987.9354248046875,4.477221518754959E-4,-5.958974943496287E-4,-8.602775633335114E-4,-11.161561012268066,24.96891975402832,-38.56913757324219,-0.6655466556549072,-0.0935235470533371,0.030160903930664062,0.07428008,-0.14880867,9.7748995,0.63359034,-0.24211405,9.752758,0
2,987.9201049804688,-4.9154635053128E-4,-5.816342309117317E-5,4.745578917209059E-4,-11.267433166503906,24.9750919342041,-38.47620391845703,-0.6678242683410645,-0.11672602593898773,0.020864486694335938,0.07422048,-0.13450752,9.784363,0.6376307,-0.2322386,9.762012,0
2,987.9529418945312,-9.09238588064909E-5,-7.241395651362836E-4,2.087343018501997E-4,-11.665731430053711,25.28718376159668,-38.81800842285156,-0.6691688299179077,-0.11621598899364471,0.025821685791015625,0.06938112,-0.13688941,9.770155,0.62885374,-0.23228358,9.748338,0
2,987.9529418945312,-9.09238588064909E-5,-7.241395651362836E-4,2.087343018501997E-4,-11.665731430053711,25.28718376159668,-38.81800842285156,-0.658282458782196,-0.11141623556613922,0.00696563720703125,0.06215179,-0.1440378,9.772516,0.61618066,-0.23577079,9.751485,0
2,987.9151000976562,4.059813800267875E-4,3.2167648896574974E-4,-2.647200017236173E-4,-11.763994216918945,25.300722122192383,-39.111595153808594,-0.665819525718689,-0.10179637372493744,-0.002376556396484375,0.07882151,-0.14641954,9.784347,0.6319685,-0.23604485,9.762479,0
2,987.9351196289062,-1.260759891010821E-4,-3.4420654992572963E-4,1.842097844928503E-6,-11.444012641906738,25.54752540588379,-38.94438934326172,-0.654411792755127,-0.10128869116306305,0.01668834686279297,0.06442255,-0.14641811,9.772505,0.6165033,-0.22947446,9.751652,0
2,987.945068359375,-0.0010576071217656136,0.0013867535162717104,-7.968593272380531E-4,-11.074655532836914,24.787145614624023,-38.956817626953125,-0.6519032716751099,-0.10093943774700165,0.026317596435546875,0.06675282,-0.14879997,9.767765,0.6129798,-0.23643395,9.747009,0
2,987.929443359375,4.0770432678982615E-4,7.208704482764006E-4,-1.3082352234050632E-4,-11.334010124206543,24.80772590637207,-38.99504089355469,-0.6595075726509094,-0.11957411468029022,0.02644634246826172,0.069083154,-0.13449876,9.760658,0.6225421,-0.21682715,9.739546,0
2,987.9295043945312,4.0885311318561435E-4,4.543681861832738E-4,-3.9664696669206023E-4,-11.276565551757812,24.966249465942383,-38.01237106323242,-0.6523160934448242,-0.10477887094020844,0.012400627136230469,0.07141346,-0.14403047,9.767755,0.6169947,-0.22866748,9.746892,0
2,987.9572143554688,-1.2320425594225526E-4,-2.1151477994862944E-4,6.688624853268266E-4,-11.005716323852539,25.21982765197754,-37.991966247558594,-0.6691824197769165,-0.09482155740261078,-0.00165557861328125,0.07613367,-0.14641227,9.777218,0.6214737,-0.22413984,9.756268,0
2,987.9566040039062,-3.8894597673788667E-4,-2.1160804317332804E-4,-6.624708767049015E-4,-11.203059196472168,25.403352737426758,-37.27943420410156,-0.6384122371673584,-0.10868322849273682,0.0032148361206054688,0.064124614,-0.13926093,9.779579,0.61229885,-0.212239,9.75929,0
2,987.9491577148438,9.432078222744167E-4,4.540886147879064E-4,3.5651028156280518E-6,-11.563039779663086,25.172151565551758,-38.05725860595703,-0.6403961777687073,-0.09845276176929474,0.027070999145507812,0.0712347,-0.14402606,9.770105,0.60916907,-0.22927247,9.749724,0
3,987.918701171875,6.774663343094289E-4,-7.44426273740828E-4,5.364429671317339E-4,-11.465619087219238,24.8947696685791,-38.28699493408203,-0.6330224871635437,-0.11736561357975006,0.027228355407714844,0.061615527,-0.13210823,9.762999,0.60354674,-0.21426952,9.743059,0
3,987.9691772460938,-0.0010530126746743917,1.8758606165647507E-4,1.3721536379307508E-4,-11.780055046081543,25.02214241027832,-38.86186981201172,-0.6354913711547852,-0.1076236367225647,0.008434295654296875,0.059166044,-0.15355618,9.772461,0.5873468,-0.23582143,9.753332,0
3,987.964111328125,-3.8664875319227576E-4,-7.882300997152925E-5,9.364091092720628E-4,-11.798723220825195,25.478670120239258,-38.73173522949219,-0.6379629373550415,-0.08818598091602325,0.008579254150390625,0.07105595,-0.14163835,9.765354,0.60288584,-0.2257503,9.745399,0
3,987.9461669921875,5.460312240757048E-4,7.200314430519938E-4,4.040234780404717E-4,-11.410942077636719,25.26218605041504,-38.547874450683594,-0.6357200145721436,-0.1207771897315979,0.008730888366699219,0.0781661,-0.13925366,9.789021,0.61143625,-0.22151354,9.7687,0
3,987.9205932617188,1.4713191194459796E-4,4.536223132163286E-4,1.3795372797176242E-4,-11.234768867492676,25.163949966430664,-38.87720489501953,-0.6383265256881714,-0.09689563512802124,0.023061752319335938,0.06854689,-0.14640202,9.772446,0.5974119,-0.21996683,9.753027,0
3,987.9639282226562,1.4770583948120475E-4,4.535291809588671E-4,5.376737099140882E-4,-11.785707473754883,25.754304885864258,-38.82685470581055,-0.6262238025665283,-0.12480399012565613,0.02322673797607422,0.06609738,-0.13686742,9.767705,0.5957701,-0.21360272,9.7483635,0
3,987.930908203125,2.814382896758616E-4,-6.118277087807655E-4,-6.60501595120877E-4,-11.828642845153809,24.660619735717773,-38.91020965576172,-0.6140198707580566,-0.09575080871582031,0.023390769958496094,0.06125799,-0.14639916,9.770067,0.5799169,-0.23071575,9.751403,0
3,987.9658813476562,2.820127992890775E-4,-0.0016771845985203981,5.534267984330654E-6,-11.195908546447754,24.252363204956055,-39.21477508544922,-0.6256943941116333,-0.10007356107234955,0.004618644714355469,0.0755378,-0.13209791,9.777163,0.6001217,-0.21752226,9.757489,0
3,987.9583129882812,-3.832028596661985E-4,7.19565199688077E-4,5.384120158851147E-4,-11.492057800292969,24.817716598510742,-38.894287109375,-0.6185463666915894,-0.08066006004810333,0.018965721130371094,0.06830853,-0.15592928,9.770056,0.57984614,-0.23253155,9.751549,0
3,987.930419921875,4.1631917702034116E-4,-7.947563426569104E-5,8.049741736613214E-4,-11.556134223937988,25.02158546447754,-39.66618347167969,-0.616249680519104,-0.1184736043214798,0.028573036193847656,0.06585905,-0.1392449,9.791356,0.58527774,-0.21599625,9.772676,0
3,987.9152221679688,-5.152118974365294E-4,3.199049970135093E-4,-1.2688542483374476E-4,-11.606082916259766,25.1848087310791,-38.513275146484375,-0.6323515176773071,-0.08508029580116272,0.024011611938476562,0.025171101,-0.14877649,9.770045,0.5422991,-0.20016213,9.754096,0
3,987.9303588867188,-0.00171305937692523,-0.0019438732415437698,6.518734153360128E-6,-11.623529434204102,25.01067543029785,-38.885318756103516,-0.6294119358062744,-0.13283205032348633,0.014706611633300781,0.082469225,-0.12970884,9.784243,0.5989672,-0.21291359,9.764781,0
3,987.9404296875,-3.8090551970526576E-4,-0.002210282487794757,6.764836143702269E-6,-11.741875648498535,24.372926712036133,-38.59880828857422,-0.635964035987854,-0.07058776915073395,0.019616127014160156,0.08479953,-0.16069002,9.767667,0.57841015,-0.24797677,9.749065,0
3,987.9404296875,-7.798049482516944E-4,-7.456382736563683E-4,1.4016893692314625E-4,-11.698258399963379,25.204233169555664,-39.11608123779297,-0.5895524621009827,-0.11334045231342316,0.010341644287109375,0.051281333,-0.122556075,9.784231,0.5689173,-0.19129814,9.766707,0
3,987.9298706054688,-5.129149067215621E-4,-0.0016778371063992381,0.0013388365041464567,-11.83831787109375,25.020071029663086,-38.544830322265625,-0.5918816328048706,-0.08938570320606232,0.02468395233154297,0.077510655,-0.14400412,9.767656,0.57772934,-0.22176862,9.749406,0
3,987.9398803710938,-7.786566275171936E-4,-0.0012784565333276987,-2.5881273904815316E-4,-12.110254287719727,25.503076553344727,-38.76214599609375,-0.6177969574928284,-0.0849219262599945,0.024829864501953125,0.08701065,-0.14876921,9.765284,0.5840938,-0.22162014,9.746803,0
3,987.9576416015625,-0.0011775561142712831,-7.459180196747184E-4,-1.254086964763701E-4,-11.691191673278809,25.57988929748535,-39.60105895996094,-0.58632493019104,-0.09426939487457275,0.02025318145751953,0.06066215,-0.14638449,9.774747,0.5584356,-0.21088587,9.75779,0
3,987.9576416015625,-0.0011775561142712831,-7.459180196747184E-4,-1.254086964763701E-4,-11.790571212768555,25.117746353149414,-39.01980972290039,-0.6024971008300781,-0.08913439512252808,0.025159835815429688,0.0773319,-0.14876626,9.77474,0.56743264,-0.22413827,9.757123,0
3,987.93212890625,-0.0010438237804919481,-6.128532695583999E-4,1.4115340309217572E-4,-11.64043140411377,24.468252182006836,-39.15890884399414,-0.5950725078582764,-0.11233337223529816,0.01111602783203125,0.07249254,-0.13684846,9.7889385,0.56821114,-0.2089771,9.771427,0
3,987.9270629882812,6.878035492263734E-4,-3.466305788606405E-4,-5.243901978246868E-4,-11.670595169067383,24.6506290435791,-39.010963439941406,-0.606583833694458,-0.08829915523529053,0.02547740936279297,0.084382445,-0.1535299,9.779465,0.5672769,-0.22758208,9.761917,0
3,987.9370727539062,-2.4315336486324668E-4,-0.0015452385414391756,-3.907401696778834E-4,-11.987234115600586,25.038904190063477,-38.90790557861328,-0.5879471302032471,-0.07374526560306549,0.01624584197998047,0.07476324,-0.15829499,9.777092,0.55334175,-0.22676739,9.760356,0
3,987.9370727539062,-2.4315336486324668E-4,-0.0015452385414391756,-3.907401696778834E-4,-11.987234115600586,25.038904190063477,-38.90790557861328,-0.5626269578933716,-0.06408248841762543,0.0352630615234375,0.060364246,-0.15591033,9.74868,0.5373609,-0.21790363,9.732856,0
3,987.9295043945312,-3.757367958314717E-4,-2.1375231153797358E-4,8.979986887425184E-6,-12.093107223510742,25.045068740844727,-38.814971923828125,-0.6077914237976074,-0.10212475061416626,0.011734962463378906,0.09376332,-0.13922589,9.7723465,0.57503426,-0.21569386,9.754473,0
3,987.9240112304688,-2.420050441287458E-4,-3.47003573551774E-4,-3.9024773286655545E-4,-12.29998779296875,25.6939640045166,-38.43614196777344,-0.571582019329071,-0.09229545295238495,0.030824661254882812,0.06502488,-0.14160769,9.76524,0.5482172,-0.19653177,9.7491045,0
4,987.9266357421875,-5.077462992630899E-4,-0.0011460443492978811,-5.231596878729761E-4,-11.791252136230469,25.3801212310791,-38.419185638427734,-0.5789527893066406,-0.09187765419483185,0.03095245361328125,0.07213503,-0.15590592,9.774704,0.5464725,-0.21028247,9.758664,0
4,987.9465942382812,2.5459739845246077E-5,-2.1403198479674757E-4,2.7603417402133346E-4,-11.677769660949707,25.381319046020508,-38.898651123046875,-0.5810920000076294,-0.09629358351230621,0.026366233825683594,0.07685524,-0.14398806,9.765228,0.552147,-0.20475073,9.748821,0
4,987.9589233398438,1.5976623399183154E-4,-4.805343342013657E-4,-6.555790896527469E-4,-11.637929916381836,24.839494705200195,-39.41197204589844,-0.5730271935462952,-0.09555009007453918,0.02655792236328125,0.079185516,-0.13922001,9.76759,0.5530824,-0.20206085,9.751141,0
4,987.9589233398438,1.5976623399183154E-4,-4.805343342013657E-4,-6.555790896527469E-4,-11.637929916381836,24.839494705200195,-39.41197204589844,-0.5861362814903259,-0.07637478411197662,0.021889686584472656,0.07673609,-0.15828477,9.777054,0.5399932,-0.219304,9.761252,0
4,987.906005859375,2.7182686608284712E-5,7.17794056981802E-4,9.425622411072254E-4,-12.072480201721191,25.328065872192383,-39.29661560058594,-0.5504590272903442,-0.09969192743301392,0.031487464904785156,0.057557255,-0.14398368,9.758111,0.5306866,-0.18748884,9.743099,0
4,987.950927734375,4.734084941446781E-4,0.0011285038199275732,-1.238583354279399E-5,-11.971609115600586,24.579423904418945,-38.88343048095703,-0.5675050616264343,-0.07549718022346497,0.03633880615234375,0.07661688,-0.1535153,9.76284,0.5354866,-0.2185717,9.747204,0
4,987.9309692382812,8.734568255022168E-4,7.28936749510467E-4,-6.779294344596565E-4,-11.907938957214355,24.849760055541992,-38.9090576171875,-0.565445601940155,-0.09853732585906982,0.022260665893554688,0.06221789,-0.13683094,9.769936,0.5312553,-0.19277094,9.754735,0
4,987.9258422851562,0.00100718904286623,7.288434426300228E-4,2.5442236801609397E-4,-11.837637901306152,24.757699966430664,-39.14546203613281,-0.5676974058151245,-0.09775727987289429,0.0034732818603515625,0.076497704,-0.13921271,9.777033,0.54035306,-0.20124398,9.761308,0
4,987.948486328125,3.419735003262758E-4,-8.691449766047299E-4,1.2151064584031701E-4,-12.123676300048828,25.7016544342041,-39.46455383300781,-0.5462982654571533,-0.07824552059173584,0.0035991668701171875,0.069268405,-0.15589412,9.788863,0.52586347,-0.20738262,9.774017,0
4,987.96337890625,3.425478935241699E-4,0.0011281309416517615,2.5491457199677825E-4,-12.311346054077148,25.525724411010742,-39.117401123046875,-0.5583207011222839,-0.09198883175849915,0.02740478515625,0.073988676,-0.15112619,9.769919,0.5274229,-0.20899194,9.754888,0
4,987.930419921875,7.680640555918217E-5,-7.038379408186302E-5,1.2200284982100129E-4,-12.233572006225586,25.335115432739258,-39.04125213623047,-0.555905818939209,-0.07723528146743774,0.02753925323486328,0.061979532,-0.15112476,9.769914,0.51468676,-0.20245819,9.755614,0
4,987.9406127929688,0.001275802031159401,-7.047705730656162E-5,-1.0909046977758408E-5,-11.605701446533203,24.290300369262695,-39.53877258300781,-0.5537129640579224,-0.12403026223182678,0.008733749389648438,0.069565296,-0.12253557,9.77232,0.5334333,-0.18124083,9.757084,0
4,987.9356689453125,3.4312764182686806E-4,7.285628817044199E-4,5.214790580794215E-4,-11.994163513183594,24.7691593170166,-39.12200927734375,-0.5571088790893555,-0.09486041963100433,0.022979736328125,0.0723857,-0.14399572,9.769992,0.52227235,-0.20173572,9.755266,0
4,987.9635009765625,0.0012655672617256641,7.45776982512325E-4,-1.4380895299836993E-4,-12.223896980285645,24.97566032409668,-39.40663146972656,-0.5503835678100586,-0.08447402715682983,0.02309703826904297,0.06995559,-0.14637794,9.77709,0.51655704,-0.20425195,9.762647,0
4,987.9378662109375,4.670069902203977E-4,3.462403255980462E-4,-1.436428865417838E-4,-11.529013633728027,24.836267471313477,-39.659523010253906,-0.5480703711509705,-0.07916998863220215,0.01849079132080078,0.069915354,-0.15829332,9.779453,0.5123693,-0.204099,9.765422,0
4,987.932861328125,2.0107877207919955E-4,8.788090199232101E-4,-8.092664065770805E-4,-11.593769073486328,25.302507400512695,-39.83079147338867,-0.5510563254356384,-0.07413196563720703,0.00911712646484375,0.077044874,-0.15114255,9.7865505,0.5220165,-0.19759382,9.772093,0
4,987.93505859375,-6.484932964667678E-5,6.124302162788808E-4,3.893211833201349E-4,-11.215961456298828,24.81334114074707,-39.7064208984375,-0.5486190319061279,-0.09282173216342926,0.03291797637939453,0.07461476,-0.14637499,9.760508,0.5192926,-0.18927574,9.74623,0
4,987.9404907226562,4.681699792854488E-4,0.0015444728778675199,2.5632933829911053E-4,-11.646082878112793,25.20041847229004,-39.123897552490234,-0.5459035634994507,-0.09213210642337799,0.03306865692138672,0.07218462,-0.1368409,9.777075,0.5200247,-0.18232135,9.76276,0
4,987.9655151367188,-6.407412001863122E-5,0.0010117782512679696,-9.820389095693827E-6,-11.523606300354004,25.10453224182129,-39.36811447143555,-0.5398909449577332,-0.09675715863704681,0.01892852783203125,0.06736457,-0.13445665,9.777071,0.51519483,-0.17603344,9.76306,0
4,987.9220581054688,-1.968446304090321E-4,4.79083537356928E-4,-4.0912808617576957E-4,-11.761248588562012,24.671525955200195,-39.691078186035156,-0.5426251888275146,-0.10092371702194214,0.03798103332519531,0.072104156,-0.12968908,9.765231,0.51620954,-0.18174328,9.751013,0
4,987.9248657226562,0.001135122263804078,0.0011448103468865156,-1.426461967639625E-4,-11.406238555908203,25.37251853942871,-39.47886657714844,-0.5456686019897461,-0.10483656823635101,0.028615951538085938,0.07684374,-0.13922118,9.777063,0.51881874,-0.17976609,9.762929,0
4,987.9574584960938,6.028785719536245E-4,0.0012779053067788482,3.9015180664137006E-4,-11.416349411010742,24.99391746520996,-38.83927917480469,-0.5433406829833984,-0.0947357714176178,0.024005889892578125,0.06963384,-0.14875336,9.762857,0.50187737,-0.19223282,9.749438,0
4,987.9574584960938,7.364241755567491E-4,-5.373702879296616E-5,7.897917530499399E-4,-11.99082088470459,25.40424156188965,-38.85174560546875,-0.5364341139793396,-0.07041618227958679,0.01938629150390625,0.06720376,-0.1535189,9.772322,0.49509737,-0.19658473,9.759232,0
4,987.927001953125,2.045673900283873E-4,0.0011445586569607258,3.9065018063411117E-4,-11.92592716217041,25.043916702270508,-39.379554748535156,-0.5237373113632202,-0.09823836386203766,0.03375816345214844,0.059993804,-0.13206841,9.772318,0.4972391,-0.17429762,9.759181,0
4,987.927001953125,2.045673900283873E-4,0.0011445586569607258,3.9065018063411117E-4,-11.92592716217041,25.043916702270508,-39.379554748535156,-0.5369285345077515,-0.05973683297634125,0.024352073669433594,0.08146274,-0.14875038,9.777049,0.5073881,-0.19451259,9.763411,0
5,987.9471435546875,0.0012702185194939375,0.0010113377356901765,-4.081314546056092E-4,-11.674182891845703,25.01597023010254,-38.954803466796875,-0.5161426663398743,-0.09223274886608124,0.02445220947265625,0.06469315,-0.14159955,9.767576,0.49549043,-0.17569152,9.754661,0
5,987.9323120117188,0.0010042903013527393,0.0015439066337421536,-2.748072729445994E-4,-11.489557266235352,25.18895149230957,-39.14734649658203,-0.5331617593765259,-0.06778737902641296,0.019830703735351562,0.07421255,-0.15113164,9.777042,0.49666864,-0.19076344,9.764008,0
5,987.9323120117188,0.0010042903013527393,0.0015439066337421536,-2.748072729445994E-4,-11.284197807312012,24.538583755493164,-39.448875427246094,-0.5312821865081787,-0.07227833569049835,0.015192985534667969,0.07417232,-0.1487474,9.786507,0.4996945,-0.17948005,9.773506,0
5,987.9520263671875,-6.058538565412164E-5,8.780539501458406E-4,1.2483267346397042E-4,-11.057072639465332,25.06719398498535,-39.283851623535156,-0.5198074579238892,-0.07618924975395203,0.010567665100097656,0.07174224,-0.1487465,9.777034,0.4933838,-0.18266505,9.764264,0
5,987.9345703125,0.0010050656273961067,0.001410622731782496,7.90788559243083E-4,-11.51211166381836,25.378686904907227,-39.385929107666016,-0.5273635387420654,-0.07572817802429199,0.034343719482421875,0.071702,-0.15112866,9.777031,0.4891483,-0.18717174,9.764425,0
5,987.9220581054688,3.3966352930292487E-4,8.779281051829457E-4,-8.069405448623002E-4,-11.656737327575684,25.19010353088379,-38.582763671875,-0.5108127593994141,-0.07501310110092163,0.029729843139648438,0.06449211,-0.14636119,9.774658,0.48384878,-0.17619866,9.762395,0
5,987.9367065429688,4.732091329060495E-4,8.778651244938374E-4,-7.826893124729395E-6,-11.296916961669922,24.895090103149414,-38.92888259887695,-0.5278432965278625,-0.0886450856924057,0.02510547637939453,0.07640141,-0.14397694,9.772289,0.49167746,-0.18354134,9.759548,0
5,987.9395751953125,0.0012725447304546833,7.446443196386099E-4,-6.73450471367687E-4,-11.405153274536133,24.63593864440918,-39.28196716308594,-0.5066232681274414,-0.07372428476810455,0.02048206329345703,0.06680155,-0.14635916,9.7746525,0.47899723,-0.18358858,9.762507,0
5,987.9291381835938,8.734582806937397E-4,2.119495766237378E-4,1.2566341320052743E-4,-11.752935409545898,24.836824417114258,-38.855201721191406,-0.519196629524231,-0.06881524622440338,0.02530193328857422,0.078710824,-0.14159162,9.772282,0.49189365,-0.17947632,9.759588,0
5,987.9168701171875,-5.825987318530679E-5,8.77676357049495E-4,-1.404864597134292E-4,-11.652033805847168,25.300439834594727,-39.513755798339844,-0.502471923828125,-0.06794700026512146,0.015961647033691406,0.064331174,-0.15350707,9.767544,0.4718724,-0.18001136,9.7558975,0
5,987.9594116210938,-1.910300343297422E-4,0.0012770872563123703,1.259956043213606E-4,-11.5061616897583,25.27866554260254,-38.996070861816406,-0.4863947331905365,-0.06751468777656555,0.02552032470703125,0.057121277,-0.16065584,9.772274,0.45905617,-0.18648462,9.761195,0
5,987.9494018554688,0.001407253323122859,6.112346309237182E-4,-4.0646997513249516E-4,-11.75195598602295,25.20658302307129,-39.03096008300781,-0.5141105651855469,-0.0765337198972702,0.016053199768066406,0.065413594,-0.14638378,9.774744,0.4700261,-0.18077901,9.76308,0
5,987.9163818359375,2.092192298732698E-4,7.443296490237117E-4,1.2632791185751557E-4,-11.386483192443848,24.179407119750977,-39.41209411621094,-0.4837797284126282,-0.08552345633506775,0.0398101806640625,0.053470433,-0.13685085,9.753439,0.46158013,-0.16615064,9.742203,0
5,987.9417114257812,-6.78377109579742E-5,0.0010123890824615955,-1.1433439794927835E-5,-11.38107681274414,24.44767189025879,-39.120689392089844,-0.4916001856327057,-0.08507232367992401,0.02569293975830078,0.06542629,-0.14638413,9.77001,0.46745214,-0.17712474,9.75853,0
5,987.8960571289062,-2.0105665316805243E-4,0.0022108207922428846,-1.1459516827017069E-5,-11.743803024291992,24.845659255981445,-39.31903839111328,-0.4949183166027069,-0.08001172542572021,0.04470062255859375,0.058262885,-0.14161773,9.76291,0.46095312,-0.17115375,9.751723,0
5,987.9390258789062,1.9835593411698937E-4,0.0012787248706445098,-1.1485768482089043E-5,-11.739917755126953,25.112451553344727,-38.950321197509766,-0.4975857436656952,-0.07006371021270752,0.04480266571044922,0.067828864,-0.15115096,9.755809,0.46328264,-0.18079042,9.7445345,0
5,987.9390869140625,3.31452873069793E-4,-4.523183743003756E-4,-1.4466984430328012E-4,-12.071639060974121,25.5919132232666,-38.773292541503906,-0.4798341691493988,-0.08375956118106842,0.030760765075683594,0.053495765,-0.141618,9.770012,0.45360947,-0.16542241,9.759249,0
5,987.9264526367188,1.9823381444439292E-4,2.1348122390918434E-4,-5.44169859495014E-4,-11.840788841247559,25.861093521118164,-39.36350631713867,-0.48286598920822144,-0.05987714231014252,0.007164955139160156,0.06545162,-0.1463847,9.786583,0.46184015,-0.16914913,9.775533,0
5,987.9390869140625,-6.947651272639632E-4,-0.002550541190430522,4.148675943724811E-4,-11.296916961669922,24.895090103149414,-38.92888641357422,-0.47037774324417114,-0.07884418964385986,0.01676177978515625,0.058288246,-0.13685174,9.781849,0.45751768,-0.15521562,9.771044,0
5,987.9340209960938,-6.948261288926005E-4,-0.001485267886891961,-5.172641831450164E-4,-11.59640884399414,24.82535743713379,-38.87865447998047,-0.4821951985359192,-0.0788550078868866,0.02160167694091797,0.06307441,-0.13685192,9.777117,0.45763218,-0.16105413,9.766236,0
5,987.918701171875,-9.612032445147634E-4,-9.526261710561812E-4,-2.5097449542954564E-4,-11.054709434509277,25.3325138092041,-38.83783721923828,-0.4795311689376831,-0.07865582406520844,0.02645397186279297,0.067860544,-0.1368521,9.767649,0.46307606,-0.15003318,9.756708,0
5,987.9390258789062,3.703151596710086E-4,-6.863003363832831E-4,1.484732492826879E-4,-11.452899932861328,24.53826332092285,-38.806983947753906,-0.4766984283924103,-0.08779920637607574,0.04078388214111328,0.063087076,-0.13446893,9.760548,0.4529799,-0.15664564,9.749904,0
5,987.9491577148438,-9.613253641873598E-4,-0.0014852380845695734,-1.1786894174292684E-4,-11.551407814025879,25.55222511291504,-38.77415466308594,-0.4693889915943146,-0.06888164579868317,0.02668285369873047,0.063093424,-0.1463855,9.777118,0.44827595,-0.15913256,9.76684,0
5,987.9390869140625,-6.950706010684371E-4,-8.194384863600135E-4,-5.173688405193388E-4,-11.613555908203125,25.28336524963379,-38.825828552246094,-0.462192565202713,-0.07337227463722229,0.031524658203125,0.06309977,-0.132086,9.765282,0.4512626,-0.14846615,9.754818,0
5,987.9417114257812,-4.2881572153419256E-4,-6.862705340608954E-4,1.483945525251329E-4,-11.634044647216797,25.106279373168945,-39.04325866699219,-0.44997161626815796,-0.08751469850540161,0.04584026336669922,0.06071621,-0.13923599,9.760548,0.44256687,-0.15414052,9.750475,0
6,987.9266967773438,-5.620348965749145E-4,-0.0012188924010843039,2.815264160744846E-4,-11.47697639465332,24.726526260375977,-38.96825408935547,-0.4713071286678314,-0.06343856453895569,0.027013778686523438,0.065502346,-0.15353577,9.767651,0.43769175,-0.1684757,9.757813,0
6,987.9364624023438,-5.620958982035518E-4,-2.867769217118621E-4,-3.8428959669545293E-4,-11.939624786376953,25.030656814575195,-38.683807373046875,-0.4787408709526062,-0.07304145395755768,0.03183269500732422,0.0774582,-0.14400287,9.762917,0.4492551,-0.16865961,9.752489,0
6,987.9417114257812,-5.621570162475109E-4,1.1270679533481598E-4,-1.1799979256466031E-4,-12.210474967956543,24.777082443237305,-38.704219818115234,-0.462019145488739,-0.09173369407653809,0.012999534606933594,0.06551501,-0.13685317,9.772387,0.43848556,-0.16136155,9.762391,0
6,987.9315185546875,-1.6274431254714727E-4,-2.867571311071515E-4,-1.1802604421973228E-4,-11.595429420471191,25.19512367248535,-39.05440902709961,-0.4599323570728302,-0.06289063394069672,0.055698394775390625,0.06313145,-0.1559195,9.760551,0.42895278,-0.16455604,9.7511835,0
6,987.9617919921875,-4.2912119533866644E-4,1.1272664414718747E-4,1.5105761121958494E-5,-11.647903442382812,24.566804885864258,-39.471466064453125,-0.4671364724636078,-0.06768584251403809,0.027385711669921875,0.058358014,-0.15591975,9.7652855,0.42077368,-0.16666858,9.756213,0
6,987.9465942382812,-1.6286654863506556E-4,1.1273659765720367E-4,4.145533894188702E-4,-11.247105598449707,24.625947952270508,-39.382713317871094,-0.4694373607635498,-0.08633235096931458,0.03222846984863281,0.07987344,-0.13685365,9.7794895,0.4493771,-0.15315902,9.769242,0
6,987.9338989257812,-2.960854908451438E-4,-0.0017514647915959358,-2.512625069357455E-4,-11.371103286743164,24.720361709594727,-39.061195373535156,-0.46211037039756775,-0.07207302749156952,0.01812458038330078,0.075100005,-0.1416203,9.772388,0.43947154,-0.15641998,9.762565,0
6,987.9591064453125,-0.0010950942523777485,-4.19875344960019E-4,1.4818517956882715E-4,-11.675704956054688,25.014497756958008,-38.87750244140625,-0.45952826738357544,-0.09106996655464172,0.03243064880371094,0.07032651,-0.12732078,9.765287,0.43943268,-0.14070758,9.7554655,0
6,987.92138671875,-5.625236080959439E-4,-0.0010856551816686988,1.4815892791375518E-4,-11.378032684326172,24.450620651245117,-39.275299072265625,-0.44787201285362244,-0.06243281066417694,0.037247657775878906,0.055993438,-0.14877047,9.76292,0.4145287,-0.15191348,9.754228,0
6,987.9339599609375,-0.0014946901937946677,-1.535396440885961E-4,8.139224955812097E-4,-11.796659469604492,25.11185646057129,-38.710594177246094,-0.440732479095459,-0.07670965790748596,0.02787017822265625,0.0703392,-0.14400406,9.77239,0.4279862,-0.15280156,9.763133,0
6,987.9213256835938,-1.6317202243953943E-4,-2.037180820479989E-5,1.4948600437492132E-5,-11.816307067871094,25.198625564575195,-38.404701232910156,-0.45250174403190613,-0.07193629443645477,0.013766288757324219,0.072220385,-0.1439916,9.786547,0.42794523,-0.15264682,9.77732,0
6,987.9213256835938,-1.6317202243953943E-4,-2.037180820479989E-5,1.4948600437492132E-5,-11.737011909484863,25.009485244750977,-38.40585708618164,-0.4393244683742523,-0.08637198805809021,0.018693923950195312,0.064510524,-0.13444526,9.77466,0.4218867,-0.14271483,9.765646,0
6,987.9163208007812,-0.0010953386081382632,-0.001751414965838194,1.4922523405402899E-5,-11.770380020141602,24.662691116333008,-39.22724914550781,-0.4129888117313385,-0.052571043372154236,0.018797874450683594,0.05252552,-0.15112732,9.774658,0.40069684,-0.15149535,9.766577,0
6,987.9288940429688,-6.932359538041055E-4,-0.0013533493038266897,-6.44381158053875E-4,-11.950982093811035,24.8624210357666,-39.365074157714844,-0.4582049250602722,-0.06663873791694641,0.0236358642578125,0.07877892,-0.14159332,9.774654,0.42582557,-0.15519911,9.765486,0
6,987.9111938476562,2.3921177489683032E-4,-2.881414256989956E-4,-3.779185935854912E-4,-12.077887535095215,25.05980110168457,-39.58802032470703,-0.4221396744251251,-0.07584831118583679,0.02374267578125,0.05484438,-0.14397578,9.76755,0.39990574,-0.14788787,9.759456,0
6,987.9491577148438,-2.9307749355211854E-4,-0.0014866184210404754,2.880179672501981E-4,-12.33890151977539,24.972993850708008,-38.84986114501953,-0.44833478331565857,-0.05655641853809357,0.05698394775390625,0.07392806,-0.15827452,9.760446,0.4078161,-0.16636598,9.7520685,0
6,987.9415893554688,-1.5957705909386277E-4,-6.877264240756631E-4,4.213225038256496E-4,-12.263193130493164,25.149194717407227,-38.79484939575195,-0.4409118592739105,-0.07547399401664734,0.03341484069824219,0.07628244,-0.13682415,9.765177,0.41678935,-0.15180494,9.756354,0
6,987.956787109375,-2.9239285504445434E-4,-4.214660730212927E-4,-5.106362514197826E-4,-12.144059181213379,24.418230056762695,-39.309329986572266,-0.43385979533195496,-0.07531577348709106,0.0050983428955078125,0.066687316,-0.13444005,9.779377,0.4096973,-0.1398648,9.770943,0
6,987.92138671875,-2.920503611676395E-4,-0.0016199431847780943,2.8845807537436485E-4,-11.837095260620117,24.389406204223633,-39.0470085144043,-0.43105003237724304,-0.07059922814369202,0.03360748291015625,0.073821545,-0.13920571,9.78174,0.41229022,-0.14325044,9.773269,0
6,987.9387817382812,-0.0012238137423992157,-6.878931890241802E-4,8.212365792132914E-4,-11.634481430053711,24.368227005004883,-38.76905059814453,-0.4141163229942322,-0.07061780989170074,0.028969764709472656,0.06422639,-0.14635469,9.777002,0.39918762,-0.14032248,9.76915,0
6,987.9288940429688,-5.576816038228571E-4,-0.0016200542449951172,-5.101959686726332E-4,-11.579805374145508,24.73564338684082,-39.029930114746094,-0.4306086003780365,-0.07976701855659485,0.02907562255859375,0.076140344,-0.13920392,9.7722645,0.40941542,-0.14174645,9.763946,0
6,987.9439697265625,-9.568129316903651E-4,-8.211622480303049E-4,-1.1057558003813028E-4,-11.701601028442383,24.569154739379883,-39.38634490966797,-0.4092830717563629,-0.06531009078025818,0.019689559936523438,0.06415534,-0.1463529,9.77463,0.39382267,-0.14069262,9.766987,0
6,987.918701171875,-5.566544714383781E-4,-6.881154258735478E-4,2.8919169562868774E-4,-11.946554183959961,24.76091957092285,-38.897911071777344,-0.4064600467681885,-0.05569814145565033,0.019794464111328125,0.061729908,-0.15111859,9.776993,0.38637745,-0.14417806,9.769655,0
6,987.9188232421875,-8.226277423091233E-4,-9.54486895352602E-4,-2.4329329608008265E-4,-12.11123275756836,25.133310317993164,-38.586387634277344,-0.42814138531684875,-0.07943259179592133,0.024610519409179688,0.07603383,-0.14158462,9.774623,0.401748,-0.14100778,9.766667,0
7,987.9163208007812,-6.891277735121548E-4,-0.001354016363620758,1.5632726717740297E-4,-12.348575592041016,25.33243751525879,-38.48448181152344,-0.41563525795936584,-0.06995585560798645,0.04365348815917969,0.0736084,-0.13443388,9.769884,0.3999307,-0.13351485,9.761985,0
7,987.9847412109375,-9.551010443829E-4,-0.0013540718937292695,-5.093158688396215E-4,-12.175446510314941,25.231264114379883,-38.659210205078125,-0.4133230745792389,-0.07005675137042999,0.015325546264648438,0.07118294,-0.14634944,9.784084,0.39117202,-0.14007646,9.776613,0
7,987.9390258789062,-0.0013542324304580688,-9.546536603011191E-4,-1.0969507275149226E-4,-11.842065811157227,24.859193801879883,-39.61262130737305,-0.425391286611557,-0.08458027243614197,0.024870872497558594,0.07353735,-0.13681544,9.769878,0.3958081,-0.1304887,9.762222,0
7,987.9365844726562,-9.544165222905576E-4,1.1055427603423595E-4,-5.09022269397974E-4,-12.040250778198242,24.77887535095215,-39.42341232299805,-0.4125208258628845,-0.07034353911876678,0.034455299377441406,0.07111192,-0.15111421,9.767508,0.38289005,-0.14293547,9.760383,0
7,987.9314575195312,-0.0012203897349536419,-8.216068963520229E-4,2.9007214470766485E-4,-12.154276847839355,25.145967483520508,-39.04240036010742,-0.4207702577114105,-0.08908876776695251,0.02977275848388672,0.08302587,-0.13204716,9.769872,0.40187088,-0.13031334,9.76198,0
7,987.9418334960938,-2.1626183297485113E-5,-8.216624264605343E-4,-2.4241278879344463E-4,-11.937965393066406,25.13804817199707,-39.4601936340332,-0.3948184847831726,-0.06027194857597351,0.03458404541015625,0.063871145,-0.14872922,9.769869,0.37603483,-0.13243188,9.763073,0
7,987.9111328125,3.7819024873897433E-4,6.430193898268044E-4,4.235235683154315E-4,-11.605701446533203,24.290300369262695,-39.53877258300781,-0.4027610719203949,-0.0932101309299469,0.02991485595703125,0.071005344,-0.1320454,9.769865,0.38819107,-0.122455955,9.762532,0
7,987.9291381835938,-2.460255636833608E-4,0.0013462579809129238,-6.084388587623835E-4,-11.489855766296387,24.55681037902832,-39.57221984863281,-0.3965972661972046,-0.06417357921600342,0.025238037109375,0.07096982,-0.15349405,9.767495,0.37753335,-0.13767594,9.760692,0
7,987.9288940429688,6.864223978482187E-4,9.467286872677505E-4,-3.4197629429399967E-4,-11.883862495422363,24.6614933013916,-38.74778366088867,-0.4042716920375824,-0.06349997222423553,0.039521217346191406,0.070934296,-0.160643,9.772226,0.37098402,-0.1471431,9.765652,0
7,987.91650390625,5.536068347282708E-4,5.471992189995944E-4,1.908022677525878E-4,-11.662443161010742,24.289705276489258,-39.299041748046875,-0.4121587872505188,-0.06762674450874329,0.034859657287597656,0.08045837,-0.1391926,9.7627535,0.38757044,-0.13279305,9.755478,0
7,987.931396484375,0.0012197389733046293,0.001079775276593864,-7.536681368947029E-5,-11.700759887695312,24.8330020904541,-38.86302185058594,-0.3961624801158905,-0.08100219070911407,0.04913902282714844,0.07564306,-0.13204195,9.760384,0.3860062,-0.12065092,9.753187,0
7,987.9317016601562,0.0012200812343508005,0.001878667389973998,-7.522001396864653E-5,-11.769103050231934,25.66459083557129,-38.97813034057617,-0.39488109946250916,-0.07573123276233673,0.0491943359375,0.080990136,-0.14158894,9.765169,0.38657156,-0.12680608,9.758054,0
7,987.9291381835938,-1.1546997120603919E-4,8.14048747997731E-4,4.557094653137028E-4,-11.755542755126953,25.571928024291992,-38.97480010986328,-0.3895522356033325,-0.05612684786319733,0.020746231079101562,0.07203406,-0.15352012,9.769959,0.37140405,-0.13313965,9.763463,0
7,987.9367065429688,0.0010757842101156712,0.001481001963838935,-2.1315203048288822E-4,-11.898807525634766,24.858598709106445,-39.37289047241211,-0.37874794006347656,-0.07000656425952911,0.025528907775878906,0.07204676,-0.14160408,9.779429,0.37387732,-0.12877299,9.772723,0
7,987.9166870117188,-1.227601314894855E-4,9.483901085332036E-4,-3.4636270720511675E-4,-12.027371406555176,24.94858741760254,-38.81945037841797,-0.39141780138015747,-0.05994640290737152,0.02559375762939453,0.069669545,-0.14160444,9.767594,0.36942506,-0.12787125,9.7610445,0
7,987.95458984375,9.423812734894454E-4,8.152520167641342E-4,3.193747252225876E-4,-11.900328636169434,24.857126235961914,-39.29558563232422,-0.3849850594997406,-0.054533109068870544,0.058800697326660156,0.06729233,-0.15828757,9.760494,0.35695553,-0.1419097,9.75445,0
7,987.9266967773438,5.427852156572044E-4,0.0013479035114869475,5.3006457164883614E-5,-11.787962913513184,24.382638931274414,-38.90021514892578,-0.4077018201351166,-0.05444200336933136,0.054106712341308594,0.08642417,-0.14875482,9.753393,0.37847328,-0.1382323,9.746585,0
7,987.9520263671875,-2.562845475040376E-4,0.0025463448837399483,-4.796776920557022E-4,-11.264007568359375,24.083524703979492,-39.65631103515625,-0.3872511088848114,-0.06815074384212494,0.02575397491455078,0.06970757,-0.14160533,9.777067,0.36533642,-0.12750934,9.770682,0
7,987.9113159179688,6.756988004781306E-4,0.0013479432091116905,-4.7973019536584616E-4,-11.723750114440918,24.284685134887695,-38.827396392822266,-0.39555904269218445,-0.05333608388900757,0.0258026123046875,0.084059656,-0.15352194,9.769966,0.37106264,-0.14332163,9.763435,0
7,987.91943359375,6.755765643902123E-4,8.153313538059592E-4,5.854811752215028E-4,-11.764430046081543,24.56266212463379,-38.83738708496094,-0.37491998076438904,-0.06712391972541809,0.0447998046875,0.07212281,-0.14160599,9.762866,0.36538047,-0.124215454,9.75653,0
7,987.9291381835938,8.086123852990568E-4,0.0010816669091582298,-7.461505010724068E-4,-11.84579086303711,25.118619918823242,-38.857383728027344,-0.3827974498271942,-0.061883941292762756,0.044861793518066406,0.076915324,-0.14637281,9.762867,0.36461213,-0.1331283,9.75655,0
7,987.9291381835938,8.086123852990568E-4,0.0010816669091582298,-7.461505010724068E-4,-12.10210132598877,25.14214515686035,-39.05021667480469,-0.3999272882938385,-0.05233737826347351,0.025986671447753906,0.08409774,-0.14875637,9.777071,0.3711736,-0.1304109,9.770647,0
7,987.9189453125,-6.562474300153553E-4,8.153711096383631E-4,5.274452269077301E-5,-11.766058921813965,25.66753578186035,-39.13274383544922,-0.38343870639801025,-0.061774641275405884,0.0071163177490234375,0.08411044,-0.13922365,9.774706,0.37271142,-0.12364425,9.768169,0
7,987.9595947265625,-3.900542506016791E-4,-5.161884473636746E-4,-8.046592120081186E-5,-11.39311408996582,24.541810989379883,-39.201324462890625,-0.3767116367816925,-0.05646853148937225,0.054531097412109375,0.07934332,-0.1463737,9.760503,0.36475533,-0.121167354,9.7543545,0
7,987.9520263671875,-2.570184296928346E-4,-2.4985280469991267E-4,-6.131499540060759E-4,-11.307975769042969,25.35898780822754,-39.18527603149414,-0.3656677305698395,-0.0894017368555069,0.03564739227294922,0.06979635,-0.124924555,9.769974,0.3635868,-0.10189823,9.763722,0
8,987.9015502929688,8.081228588707745E-4,-1.1667498620226979E-4,1.8574524438008666E-4,-11.372625350952148,24.718889236450195,-38.983890533447266,-0.38333675265312195,-0.06976896524429321,0.030968666076660156,0.08414847,-0.13922451,9.777076,0.366596,-0.12620996,9.77074,0
8,987.9317016601562,5.416847416199744E-4,0.0016143980901688337,-2.1378090605139732E-4,-11.981146812438965,25.0447940826416,-39.21712875366211,-0.3675675690174103,-0.03610284626483917,0.012079238891601562,0.07699144,-0.16067429,9.78418,0.34973818,-0.1391539,9.778562,0
8,987.9520263671875,-1.242270809598267E-4,0.0010817861184477806,-6.13307231105864E-4,-11.690105438232422,24.84330940246582,-39.40415954589844,-0.3569274842739105,-0.05478870868682861,0.031057357788085938,0.065054595,-0.14637502,9.774712,0.34479085,-0.119921766,9.769206,0
8,987.9166870117188,1.4196656411513686E-4,0.0017475956119596958,-8.072773925960064E-5,-11.715703964233398,25.03010368347168,-39.488128662109375,-0.37432074546813965,-0.03986126184463501,0.0216522216796875,0.07940674,-0.15590842,9.774713,0.35203797,-0.13246438,9.76904,0
8,987.9061889648438,4.0816032560542226E-4,0.0013481416972354054,7.181675173342228E-4,-11.871932029724121,25.673707962036133,-39.03980255126953,-0.3635173738002777,-0.048705339431762695,0.03590679168701172,0.067469895,-0.15114214,9.7699795,0.34146136,-0.12447882,9.764621,0
8,987.9569702148438,0.001206985441967845,8.155298419296741E-4,-8.083251304924488E-5,-12.086583137512207,25.78901481628418,-39.398399353027344,-0.37211155891418457,-0.062496379017829895,0.02647686004638672,0.074652314,-0.13922612,9.779449,0.35320026,-0.11554709,9.7736635,0
8,987.9447631835938,9.405471500940621E-4,0.002280286978930235,-2.1404307335615158E-4,-11.433794975280762,24.819787979125977,-39.21132278442383,-0.37123990058898926,-0.06191617250442505,0.04071617126464844,0.07466501,-0.14160962,9.760513,0.3500067,-0.11893931,9.754825,0
8,987.9323120117188,5.408288561739028E-4,0.002147168852388859,-6.136216688901186E-4,-11.554749488830566,24.917146682739258,-39.044410705566406,-0.36057373881340027,-0.04734945297241211,0.017083168029785156,0.074677646,-0.15114309,9.777084,0.34522384,-0.12653619,9.771622,0
8,987.9168701171875,-3.913988475687802E-4,0.0021471886429935694,1.8527358770370483E-4,-11.491079330444336,25.18747901916504,-39.07004165649414,-0.33100321888923645,-0.03763526678085327,0.026580810546875,0.06513074,-0.1487601,9.774718,0.3377266,-0.11745457,9.769526,0
8,987.9395751953125,4.074265598319471E-4,0.0013482607901096344,5.2063376642763615E-5,-11.268817901611328,25.07953453063965,-39.09797668457031,-0.34894827008247375,-0.06081882119178772,0.03136253356933594,0.06036359,-0.15114368,9.774719,0.33170214,-0.115558594,9.769762,0
8,987.9371337890625,9.399362024851143E-4,0.0026798599865287542,-3.474628319963813E-4,-11.294852256774902,24.52827262878418,-38.907737731933594,-0.376712828874588,-0.06976638734340668,0.04086780548095703,0.06993592,-0.14637746,9.769987,0.33998016,-0.1191387,9.764691,0
8,987.9697265625,9.398139663971961E-4,0.002413563895970583,-8.119927952066064E-5,-11.566245079040527,24.64298439025879,-39.02659606933594,-0.34652402997016907,-0.08799311518669128,0.031497955322265625,0.07651174,-0.13444649,9.769932,0.34934407,-0.11436341,9.764239,0
8,987.9501342773438,9.44571802392602E-4,0.0013523976085707545,5.470105679705739E-5,-11.829729080200195,25.397199630737305,-39.107112884521484,-0.34511852264404297,-0.025531888008117676,0.05522346496582031,0.054991215,-0.1511292,9.75336,0.32101372,-0.117374465,9.748696,0
8,987.9345703125,4.1347171645611525E-4,8.195169502869248E-4,3.216734330635518E-4,-11.634044647216797,25.106279373168945,-39.04325866699219,-0.35808172821998596,-0.07746708393096924,0.04106903076171875,0.050199986,-0.12491281,9.760462,0.3279617,-0.09118086,9.755454,0
8,987.9498901367188,6.798976100981236E-4,4.20025346102193E-4,7.211944321170449E-4,-11.165010452270508,25.440183639526367,-39.212059020996094,-0.36094972491264343,-0.06288221478462219,0.0648040771484375,0.07647747,-0.14397879,9.746256,0.34246886,-0.112632066,9.74095,0
8,987.9295654296875,-7.847296074032784E-4,-0.00144420366268605,1.8860993441194296E-4,-11.014464378356934,24.31648063659668,-38.55363464355469,-0.35760247707366943,-0.07253417372703552,0.07436561584472656,0.05734682,-0.11299588,9.739155,0.33505535,-0.07903184,9.733894,0
8,987.9348754882812,-0.0014504091814160347,-0.005572117865085602,-3.4397479612380266E-4,-11.561136245727539,24.279115676879883,-39.160064697265625,-0.32973137497901917,-0.02990107238292694,0.012926101684570312,0.06450513,-0.17257752,9.795965,0.31013912,-0.1389166,9.791801,0
8,987.9476318359375,-7.845094660297036E-4,-0.003841082565486431,-0.0011428751749917865,-11.720407485961914,24.919771194458008,-38.55713653564453,-0.3317749798297882,-0.06310221552848816,0.027208328247070312,0.0692735,-0.13206156,9.767559,0.33083975,-0.10215372,9.762559,0
8,987.9476928710938,-1.1860963422805071E-4,-0.0014442572137340903,-2.107224427163601E-4,-11.508662223815918,24.907426834106445,-38.74300765991211,-0.33771976828575134,-0.04404690861701965,0.03204536437988281,0.07643181,-0.16066058,9.781761,0.32304707,-0.12753676,9.777212,0
8,987.9071044921875,-7.842892082408071E-4,-0.0017105910228565335,-0.0011427808785811067,-11.709455490112305,25.56221580505371,-38.67339324951172,-0.35534387826919556,-0.06781356036663055,0.04629039764404297,0.08597994,-0.15827705,9.762821,0.33016786,-0.1270116,9.758073,0
8,987.96533203125,-2.515474334359169E-4,-0.001710608834400773,-7.432597922161222E-4,-11.901009559631348,25.11949348449707,-38.69496154785156,-0.34369465708732605,-0.020123422145843506,0.04161262512207031,0.07640892,-0.15112697,9.762821,0.32152477,-0.11962834,9.758262,0
8,987.93994140625,1.4878693036735058E-5,-3.790474438574165E-4,5.573499947786331E-5,-11.770081520080566,25.294824600219727,-38.80237579345703,-0.3274962902069092,-0.05316092073917389,0.013264656066894531,0.081177354,-0.1439768,9.786491,0.32892245,-0.112468764,9.781713,0
8,987.9325561523438,2.813047030940652E-4,-2.45907373027876E-4,-7.431654958054423E-4,-10.938618659973145,24.598604202270508,-39.19770050048828,-0.35906386375427246,-0.0667169839143753,0.02753448486328125,0.085945725,-0.13444342,9.779389,0.33690882,-0.10089755,9.774367,0
8,987.9629516601562,9.472043020650744E-4,5.530224298126996E-4,3.2214526436291635E-4,-11.702823638916016,25.199819564819336,-38.88416290283203,-0.33377382159233093,-0.04246363043785095,0.04178333282470703,0.071594894,-0.14635958,9.767552,0.3153972,-0.10946374,9.763205,0
9,987.9223022460938,-2.511070342734456E-4,0.0010856363223865628,-2.10439320653677E-4,-11.695756912231445,25.575471878051758,-39.369144439697266,-0.32784518599510193,-0.042309194803237915,0.03708457946777344,0.076363266,-0.15589233,9.762816,0.3133284,-0.1214772,9.7585745,0
9,987.9456176757812,2.816348569467664E-4,0.0012187764514237642,-3.43550113029778E-4,-11.99995231628418,25.395402908325195,-38.38792037963867,-0.34551721811294556,-0.042104557156562805,0.03239154815673828,0.07635182,-0.15112554,9.7675495,0.31412953,-0.117307834,9.763261,0
9,987.93505859375,2.8174498584121466E-4,4.198109090793878E-4,-3.4350284840911627E-4,-11.890356063842773,25.12980842590332,-39.2360954284668,-0.32008618116378784,-0.03241175413131714,0.05137348175048828,0.06917071,-0.15589179,9.743876,0.30516136,-0.113005936,9.739934,0
9,987.942626953125,-6.502504693344235E-4,5.529509508050978E-4,3.223340318072587E-4,-11.657279968261719,25.55839729309082,-38.68121337890625,-0.33267468214035034,-0.04176488518714905,0.03722095489501953,0.07871887,-0.1415918,9.769915,0.3186057,-0.10618761,9.765486,0
9,987.9356079101562,-1.1750857811421156E-4,-2.460145915392786E-4,-7.70926708355546E-5,-11.705867767333984,25.196870803833008,-38.72955322265625,-0.31614208221435547,-0.04628731310367584,0.032547950744628906,0.07392767,-0.15112473,9.772282,0.30777267,-0.11224324,9.768238,0
9,987.9603881835938,1.5759491361677647E-5,-6.455063121393323E-4,-4.7651922795921564E-4,-11.674182891845703,25.01597023010254,-38.954803466796875,-0.33337724208831787,-0.046011269092559814,0.04207038879394531,0.09303546,-0.14635788,9.762812,0.3269842,-0.110088214,9.758255,0
9,987.9603881835938,1.5759491361677647E-5,-6.455063121393323E-4,-4.7651922795921564E-4,-11.55042839050293,25.921987533569336,-38.94990539550781,-0.31239113211631775,-0.05526217818260193,0.05159473419189453,0.07390481,-0.13682444,9.753341,0.3120293,-0.09257617,9.74915,0
9,987.9531860351562,2.821855014190078E-4,-7.786821224726737E-4,-4.764719633385539E-4,-11.4711332321167,25.732847213745117,-38.95105743408203,-0.3108507990837097,-0.0453367680311203,0.04217243194580078,0.066723704,-0.14635734,9.769911,0.30106765,-0.095178515,9.76613,0
9,987.9406127929688,1.5979516319930553E-5,8.19195294752717E-4,3.2252277014777064E-4,-10.908156394958496,25.048364639282227,-38.9207763671875,-0.3328722417354584,-0.04481400549411774,0.023293495178222656,0.08583146,-0.14874028,9.758074,0.31320924,-0.11039524,9.753932,0
9,987.942626953125,4.155634669587016E-4,2.0229768779245205E-5,3.225698892492801E-4,-11.211533546447754,24.711843490600586,-39.2392578125,-0.32609128952026367,-0.049063652753829956,0.056494712829589844,0.078650355,-0.14635675,9.762808,0.30509597,-0.10727693,9.758865,0
9,987.932861328125,9.483054745942354E-4,-0.0010450516128912568,-4.763305187225342E-4,-11.603880882263184,24.923913955688477,-39.19120788574219,-0.31919944286346436,-0.048970386385917664,0.01867389678955078,0.08102882,-0.14397325,9.786478,0.30766267,-0.10368884,9.782487,0
9,987.9557495117188,4.1578372474759817E-4,-7.787536014802754E-4,7.22138152923435E-4,-11.293192863464355,24.635663986206055,-39.684120178222656,-0.31267279386520386,-0.04416690766811371,0.04712390899658203,0.08342314,-0.15588968,9.779377,0.3009862,-0.118761644,9.775621,0
9,987.9404296875,-7.825276115909219E-4,-9.119294700212777E-4,5.639565642923117E-5,-11.634344100952148,24.474145889282227,-39.46813201904297,-0.32995909452438354,-0.02035360038280487,0.03769874572753906,0.090598166,-0.15350656,9.750971,0.30725592,-0.11589855,9.747071,0
9,987.9404907226562,-6.492976099252701E-4,1.5332239854615182E-4,7.222162093967199E-4,-11.84481143951416,25.48838233947754,-39.03314208984375,-0.29056400060653687,-0.05314929783344269,0.0330047607421875,0.07385868,-0.14158995,9.781744,0.29856548,-0.09418175,9.778037,0
9,987.9329223632812,4.161277902312577E-4,6.889136275276542E-4,3.2324300264008343E-4,-11.539231300354004,25.56401252746582,-39.39259338378906,-0.33230048418045044,-0.03380750119686127,0.03777503967285156,0.08340818,-0.16303904,9.753336,0.2936449,-0.12165713,9.749875,0
9,987.9658813476562,1.67516409419477E-5,2.310811214556452E-5,3.2328491215594113E-4,-12.014897346496582,25.59250831604004,-39.013023376464844,-0.32143959403038025,-0.047973111271858215,0.052013397216796875,0.07622832,-0.14873917,9.762804,0.2934392,-0.10382411,9.759272,0
9,987.9431762695312,-1.1621060548350215E-4,8.220239542424679E-4,-3.4242100082337856E-4,-11.784919738769531,24.385583877563477,-39.05482482910156,-0.33462339639663696,-0.04309150576591492,0.01890277862548828,0.090557575,-0.14397241,9.777006,0.30583507,-0.11096546,9.773071,0
9,987.9329223632812,-2.4927075719460845E-4,0.0010883240029215813,-2.0922103431075811E-4,-11.543254852294922,25.191301345825195,-39.062225341796875,-0.3184937536716461,-0.047751277685165405,0.033150672912597656,0.09054741,-0.15112199,9.774639,0.3032363,-0.10990916,9.7709055,0
9,987.9180297851562,-5.154888494871557E-4,-1.1011338938260451E-4,-7.602118421345949E-5,-11.764972686767578,24.93095588684082,-38.93584060668945,-0.32695263624191284,-0.0189560204744339,0.042649269104003906,0.09053725,-0.16542138,9.767536,0.2940663,-0.12569235,9.76412,0
9,987.9354248046875,-2.4907494662329555E-4,0.0016209239838644862,5.898104282096028E-4,-11.622007369995117,25.012147903442383,-38.962623596191406,-0.306451678276062,-0.05202697217464447,0.033219337463378906,0.07618773,-0.13682185,9.760433,0.29365596,-0.09155815,9.756843,0
9,987.9180297851562,8.162862504832447E-4,0.001088276389054954,0.001388799981214106,-11.85394287109375,25.47954750061035,-38.569313049316406,-0.30525800585746765,-0.032764628529548645,0.06165790557861328,0.078567475,-0.14873798,9.760433,0.28925782,-0.10261419,9.757056,0
9,987.9356689453125,-6.483531906269491E-4,8.21944500785321E-4,-7.58954556658864E-5,-11.997314453125,25.872560501098633,-39.340057373046875,-0.3136865794658661,-0.041835516691207886,0.03328704833984375,0.08333713,-0.15350433,9.767533,0.290453,-0.10852906,9.764174,0
9,987.9635009765625,0.0012159557081758976,0.001487718429416418,-7.416433654725552E-4,-11.871931076049805,25.673707962036133,-39.03980255126953,-0.29397350549697876,-0.06059597432613373,0.04277610778808594,0.06420776,-0.13682114,9.760431,0.2803008,-0.08467825,9.757209,0
9,987.9357299804688,2.839480875991285E-4,0.0012213867157697678,0.0011226099450141191,-11.849782943725586,25.958173751831055,-39.5987548828125,-0.3260640501976013,-0.04107666015625,-0.0045261383056640625,0.09765625,-0.15588711,9.7935705,0.30149022,-0.11498236,9.789982,0
9,987.9205932617188,0.0013493092264980078,0.0025529502891004086,5.900200339965522E-4,-11.203083038330078,24.98305320739746,-39.10245895385742,-0.3067156672477722,-0.04478678107261658,0.042842864990234375,0.06896728,-0.14397039,9.769897,0.28044602,-0.09080476,9.766753,0
10,987.9534912109375,0.0010830913670361042,0.0030855657532811165,8.563778828829527E-4,-11.745026588439941,25.476327896118164,-38.816856384277344,-0.28692999482154846,-0.04892459511756897,0.047606468200683594,0.073736936,-0.1392036,9.7675295,0.28508508,-0.09155517,9.76421,0
10,987.9639282226562,0.0012163470964878798,0.0017539707478135824,3.2378797186538577E-4,-12.169358253479004,25.237154006958008,-38.96842956542969,-0.290477454662323,-0.04348298907279968,0.03344440460205078,0.061777234,-0.1463532,9.767529,0.2681391,-0.09723121,9.764657,0
10,987.950927734375,0.0016159187071025372,5.555333336815238E-4,1.9067199900746346E-4,-11.502138137817383,25.6513729095459,-39.326438903808594,-0.3038989305496216,-0.02851717174053192,0.042946815490722656,0.08327627,-0.1487362,9.760426,0.28762442,-0.101651184,9.757148,0
10,987.9534912109375,8.170687942765653E-4,0.0014876230852678418,1.9071390852332115E-4,-11.712797164916992,24.927133560180664,-38.94365692138672,-0.31201621890068054,-0.0372854620218277,0.04299449920654297,0.088045895,-0.14873599,9.76516,0.28848666,-0.109029375,9.761819,0
10,987.9461669921875,0.0010834825225174427,6.88659492880106E-4,0.0011228614021092653,-11.484448432922363,24.825082778930664,-39.28081512451172,-0.29183030128479004,-0.027519017457962036,0.05249214172363281,0.07847613,-0.15588553,9.75569,0.2760017,-0.10920836,9.752735,0
10,987.9487915039062,1.831672852858901E-5,0.0013544333633035421,1.9079772755503654E-4,-11.83831787109375,25.020071029663086,-38.544830322265625,-0.3044336438179016,-0.027405694127082825,0.05253410339355469,0.06890637,-0.14635222,9.753322,0.26949632,-0.097644694,9.750451,0
10,987.9537963867188,-3.810591879300773E-4,-3.766357258427888E-4,3.239976067561656E-4,-11.309796333312988,24.725374221801758,-39.53284454345703,-0.29786837100982666,-0.0510115921497345,0.043109893798828125,0.08562553,-0.14873524,9.765157,0.28308567,-0.103541315,9.762012,0
10,987.931396484375,5.511441850103438E-4,-2.4349363229703158E-4,1.9088154658675194E-4,-11.46632194519043,24.736841201782227,-39.50939178466797,-0.2727935314178467,-0.02693033218383789,0.019468307495117188,0.052156746,-0.14635174,9.767523,0.25283945,-0.08714735,9.765097,0
10,987.93603515625,-1.1454761261120439E-4,0.001221227808855474,3.24081425787881E-4,-11.845247268676758,24.750329971313477,-38.758934020996094,-0.26701486110687256,-0.036072179675102234,0.052639007568359375,0.07126582,-0.15111805,9.762788,0.2658869,-0.1015817,9.760069,0
10,987.946533203125,2.850238815881312E-4,2.2790502043790184E-5,-3.4166639670729637E-4,-11.76192855834961,24.933900833129883,-39.0904541015625,-0.2985365688800812,-0.026169151067733765,0.03375053405761719,0.0760355,-0.1487344,9.772256,0.27044672,-0.098782524,9.769442,0
10,987.9491577148438,2.8512178687378764E-4,-2.435413043713197E-4,1.9100727513432503E-4,-11.354499816894531,24.630647659301758,-39.21247482299805,-0.2734243869781494,-0.04519592225551605,0.047982215881347656,0.07124552,-0.13920109,9.765153,0.2690233,-0.08829797,9.762299,0
10,987.9213256835938,-2.4741218658164144E-4,-1.1039926175726578E-4,1.9104924285784364E-4,-11.846471786499023,25.380998611450195,-38.25675582885742,-0.2818518280982971,-0.021113485097885132,0.029018402099609375,0.07919699,-0.15351994,9.7699585,0.26841778,-0.10261413,9.767259,0
10,987.9338989257812,1.467245165258646E-4,4.167543083894998E-4,-7.847050437703729E-5,-11.82736587524414,25.662519454956055,-38.66109848022461,-0.2666739225387573,-0.03984901309013367,0.03377342224121094,0.048149854,-0.13445427,9.765226,0.24759875,-0.07394934,9.762852,0
10,987.9417724609375,1.0568182915449142E-5,0.0013493465958163142,7.191921467892826E-4,-11.545074462890625,24.557687759399414,-39.4097900390625,-0.28942808508872986,-0.02077651023864746,0.043265342712402344,0.08640987,-0.15590431,9.765228,0.27010828,-0.11134251,9.762484,0
10,987.9417724609375,1.0568182915449142E-5,0.0013493465958163142,7.191921467892826E-4,-11.848154067993164,24.853303909301758,-39.30340576171875,-0.274269700050354,-0.034722909331321716,0.03381824493408203,0.06970212,-0.15590484,9.772333,0.2540489,-0.10481763,9.769961,0
10,987.92626953125,-6.554293213412166E-4,0.001482538296841085,1.8647132674232125E-4,-11.925384521484375,24.675630569458008,-39.281105041503906,-0.25459200143814087,-0.04846620559692383,0.03383922576904297,0.045824647,-0.13683917,9.772335,0.24164557,-0.07546213,9.770122,0
10,987.9164428710938,6.75942050293088E-4,0.0014825721736997366,5.322427023202181E-5,-11.92592716217041,25.043916702270508,-39.379554748535156,-0.30114901065826416,-0.014571517705917358,0.038608551025390625,0.08647454,-0.16782229,9.772336,0.26328987,-0.11861305,9.769893,0
10,987.9288940429688,0.0014746818924322724,0.0013494479935616255,1.8629309488460422E-4,-11.86141586303711,25.578100204467773,-38.881858825683594,-0.2762518525123596,-0.03329719603061676,0.024430274963378906,0.06976676,-0.14160673,9.767603,0.26022777,-0.08419863,9.76505,0
10,987.9515991210938,5.423685070127249E-4,9.500078158453107E-4,-2.13269900996238E-4,-11.578390121459961,25.843461990356445,-39.47989273071289,-0.2515038847923279,-0.061442166566848755,0.06233024597167969,0.05305904,-0.122541085,9.75577,0.2518522,-0.062051848,9.753236,0
10,987.89892578125,1.4268688391894102E-4,0.0013495153980329633,5.295703886076808E-5,-11.680675506591797,25.484285354614258,-39.443115234375,-0.2744651734828949,-0.023041129112243652,0.033946990966796875,0.067420036,-0.14875759,9.772341,0.25200224,-0.09251749,9.770019,0
10,987.954833984375,4.087949637323618E-4,0.0014827072154730558,-7.460796623490751E-4,-11.873591423034668,25.566312789916992,-38.26342010498047,-0.25439536571502686,-0.046531856060028076,0.024501800537109375,0.06027183,-0.13207527,9.772344,0.25227016,-0.07397127,9.769885,0
10,987.9417724609375,6.749029271304607E-4,8.169509819708765E-4,-2.135370159521699E-4,-11.435317039489746,24.81831169128418,-39.13401794433594,-0.2815130949020386,-0.036231741309165955,0.03874969482421875,0.08180255,-0.14637543,9.7628765,0.26220843,-0.09861815,9.760296,0
10,987.9244384765625,0.0010741689475253224,2.8435306739993393E-4,-7.462576613761485E-4,-11.551162719726562,24.55179786682129,-39.10057067871094,-0.28023838996887207,-0.04085424542427063,0.04351043701171875,0.0746544,-0.14399274,9.758144,0.25635138,-0.09074919,9.755701,0
10,987.9468994140625,8.697505109012127E-6,2.8438676963560283E-4,-2.137150731869042E-4,-11.649127006530762,25.19746971130371,-38.96928405761719,-0.27890437841415405,-0.031097307801246643,0.038804054260253906,0.077065885,-0.15114303,9.77235,0.25366282,-0.099423125,9.770025,0
10,987.9144287109375,1.416477607563138E-4,1.5126256039366126E-4,1.8566957442089915E-4,-11.917475700378418,25.315126419067383,-39.242759704589844,-0.2534143328666687,-0.04039172828197479,0.019901275634765625,0.0579682,-0.14161046,9.779453,0.24097219,-0.07782977,9.777371,0
11,987.9520263671875,0.0010733375092968345,1.513300376245752E-4,5.849653389304876E-4,-11.383386611938477,25.81492042541504,-38.81541442871094,-0.28084349632263184,-0.035055696964263916,0.05780982971191406,0.08427864,-0.1511441,9.75815,0.25935808,-0.09551017,9.755771,0
11,987.9473266601562,6.736558862030506E-4,0.001083469484001398,3.1856034183874726E-4,-11.716384887695312,25.292478561401367,-38.88749694824219,-0.27957504987716675,-0.02038627862930298,0.03890228271484375,0.079520464,-0.15829445,9.758152,0.24871042,-0.10438927,9.756031,0
11,987.9498291015625,2.7397426310926676E-4,-1.149184099631384E-4,-6.13634183537215E-4,-11.347570419311523,24.9003849029541,-38.998374938964844,-0.2639907896518707,-0.03459152579307556,0.03419208526611328,0.07237232,-0.14161207,9.765256,0.2493799,-0.08432634,9.763002,0
11,987.911865234375,-2.5886541698127985E-4,8.172209491021931E-4,4.5154010877013206E-4,-11.146341323852539,24.983652114868164,-39.342193603515625,-0.243637353181839,-0.02963341772556305,0.05315589904785156,0.06522417,-0.14876245,9.758156,0.23908928,-0.08530294,9.756206,0
11,987.9473266601562,6.730324821546674E-4,-9.1379857622087E-4,-8.118065306916833E-5,-11.974217414855957,25.31452751159668,-39.003028869628906,-0.261035293340683,-0.024509593844413757,0.038990020751953125,0.07241541,-0.15352948,9.769995,0.24003808,-0.09727691,9.768036,0
11,987.9448852539062,7.034861482679844E-6,1.514987088739872E-4,-3.475855919532478E-4,-11.67874813079834,25.011552810668945,-38.72289276123047,-0.2454090714454651,-0.019409358501434326,0.04848766326904297,0.06048748,-0.15352999,9.762894,0.2284086,-0.09041521,9.761199,0
11,987.927001953125,0.0010720905847847462,8.173221140168607E-4,7.175888167694211E-4,-11.767038345336914,25.297773361206055,-38.95698547363281,-0.2542688846588135,-0.03792096674442291,0.03904151916503906,0.072458565,-0.1439975,9.76763,0.24278365,-0.08706654,9.765554,0
11,987.9498291015625,9.387248428538442E-4,1.8408321921015158E-5,-4.8092176439240575E-4,-11.313520431518555,24.984804153442383,-38.77760314941406,-0.25739794969558716,-0.032672539353370667,0.02960968017578125,0.07248014,-0.15353103,9.77,0.23779151,-0.092832595,9.768141,0
11,987.9423828125,1.395692816004157E-4,-0.0011799794156104326,1.8477888079360127E-4,-11.404854774475098,25.268075942993164,-38.857093811035156,-0.2506875991821289,-0.022933736443519592,0.034381866455078125,0.07967144,-0.14638181,9.774736,0.24584933,-0.0884619,9.772665,0
11,987.9347534179688,-1.2695440091192722E-4,-0.0010467877145856619,-8.162599988281727E-5,-11.523063659667969,24.736238479614258,-39.26966094970703,-0.2585153579711914,-0.01785355806350708,0.029682159423828125,0.07730302,-0.1535321,9.772371,0.23758951,-0.09639353,9.77052,0
11,987.9297485351562,0.0012044170871376991,-1.146484719356522E-4,5.144282476976514E-5,-11.6023588180542,24.925386428833008,-39.26850891113281,-0.266676664352417,-0.022380724549293518,0.043913841247558594,0.08661878,-0.15114291,9.76288,0.24544844,-0.09795066,9.760858,0
11,987.9322509765625,5.384195828810334E-4,8.17490799818188E-4,4.5082755968905985E-4,-11.945277214050293,25.762819290161133,-38.64879608154297,-0.2555062472820282,-0.022258654236793518,0.04871845245361328,0.079189,-0.14636995,9.765224,0.24031386,-0.08914314,9.763278,0
11,987.9400634765625,1.4394614845514297E-4,1.7731512343743816E-5,-6.122930790297687E-4,-12.444337844848633,25.717214584350586,-39.0311279296875,-0.24950292706489563,-0.021574169397354126,0.044017791748046875,0.08157894,-0.14160337,9.7652235,0.24173504,-0.09005346,9.763184,0
11,987.9501342773438,8.097358513623476E-4,0.0010829952079802752,5.349662387743592E-5,-11.678312301635742,25.749608993530273,-38.99709701538086,-0.24365894496440887,-0.035330548882484436,0.04878044128417969,0.06723952,-0.13683684,9.767591,0.23203357,-0.07335414,9.76575,0
11,987.9398803710938,-1.2236973270773888E-4,8.166792104020715E-4,-2.1281937370076776E-4,-11.49966812133789,24.81035041809082,-38.50775909423828,-0.24752990901470184,-0.025726541876792908,0.039330482482910156,0.076799124,-0.15828635,9.7628565,0.22928661,-0.09856458,9.761251,0
11,987.9374389648438,5.434199701994658E-4,6.835212698206306E-4,-4.791351384483278E-4,-11.899892807006836,25.595178604125977,-39.56978988647461,-0.2417210042476654,-0.030336439609527588,0.04408550262451172,0.076799124,-0.14636995,9.774693,0.23387313,-0.08771983,9.7729,0
11,987.9424438476562,6.765779107809067E-4,0.001482469029724598,7.192862103693187E-4,-11.740460395812988,25.480741500854492,-39.04877471923828,-0.25513917207717896,-0.03018347918987274,0.02516651153564453,0.09113854,-0.13922013,9.779427,0.24944952,-0.08654346,9.777278,0
11,987.9323120117188,-3.8868561387062073E-4,0.0012161530321463943,-3.4597719786688685E-4,-11.550321578979492,24.815645217895508,-38.57725524902344,-0.23940874636173248,-0.030043408274650574,0.053600311279296875,0.06723952,-0.14636995,9.7604885,0.22224715,-0.08427606,9.758924,0
11,987.9201049804688,-2.555276732891798E-4,-0.0014470056630671024,-4.791352548636496E-4,-11.61094856262207,24.548250198364258,-38.70623016357422,-0.25681042671203613,-0.015686392784118652,0.03942680358886719,0.086358726,-0.14875324,9.7628565,0.23633918,-0.09520174,9.761046,0
11,987.9330444335938,-2.555276732891798E-4,1.7731541447574273E-5,-3.459773142822087E-4,-12.077183723449707,25.217729568481445,-38.365623474121094,-0.2603946924209595,-0.03467215597629547,0.05365180969238281,0.088748634,-0.14636995,9.7604885,0.23827204,-0.094078355,9.758629,0
11,987.9679565429688,-3.8868561387062073E-4,-3.817422839347273E-4,-2.1281925728544593E-4,-11.964542388916016,24.955080032348633,-39.368404388427734,-0.2587316632270813,-0.020685940980911255,0.02053356170654297,0.086358726,-0.15351976,9.779427,0.23282626,-0.09606316,9.777771,0
11,987.9253540039062,-4.170021857134998E-4,1.4790944987908006E-5,-0.0010956281330436468,-11.859350204467773,25.21128273010254,-38.8607177734375,-0.2614247798919678,-0.01120901107788086,0.05844402313232422,0.09591836,-0.15351976,9.7604885,0.23938987,-0.09985994,9.75872,0
11,987.9253540039062,-4.170021857134998E-4,1.4790944987908006E-5,-0.0010956281330436468,-11.859350204467773,25.21128273010254,-38.8607177734375,-0.24656663835048676,-0.01588478684425354,0.030046463012695312,0.08396882,-0.15351976,9.77706,0.22899261,-0.0921799,9.775509,0
11,987.9253540039062,-4.170021857134998E-4,1.4790944987908006E-5,-0.0010956281330436468,-11.807718276977539,25.575754165649414,-38.96698760986328,-0.25041377544403076,-0.011075645685195923,0.039531707763671875,0.07918903,-0.16543616,9.7604885,0.21702108,-0.102897786,9.759258,0
12,987.95263671875,2.4878751719370484E-4,8.137384429574013E-4,3.6910915514454246E-4,-11.730242729187012,24.753000259399414,-39.31570053100586,-0.23490189015865326,-0.030263751745224,0.034813880920410156,0.07201934,-0.14398669,9.77706,0.21999815,-0.07936687,9.775588,0
12,987.9424438476562,-5.501601262949407E-4,8.137385593727231E-4,5.022670957259834E-4,-11.826142311096191,25.0318546295166,-39.163272857666016,-0.24337276816368103,-0.021077409386634827,0.03482532501220703,0.086358726,-0.15828632,9.7628565,0.22485882,-0.09852546,9.7614355,0
12,987.9479370117188,-8.164760074578226E-4,5.474226782098413E-4,-2.9668054776266217E-4,-12.012832641601562,25.225690841674805,-38.991878509521484,-0.24176180362701416,-0.03008359670639038,0.04906463623046875,0.076799124,-0.13445355,9.75102,0.22587085,-0.07116445,9.7493725,0
12,987.9456176757812,-2.8384424513205886E-4,-6.509989034384489E-4,-2.9668054776266217E-4,-11.742961883544922,25.109506607055664,-38.795711517333984,-0.2355004996061325,-0.03431032598018646,0.025426864624023438,0.09113854,-0.14160343,9.781794,0.23370685,-0.08592356,9.780073,0
12,987.9404296875,0.0010477351024746895,1.4794882736168802E-4,6.354250363074243E-4,-11.967586517333984,24.95213508605957,-39.21379852294922,-0.25299960374832153,-0.02944299578666687,0.02071857452392578,0.09113854,-0.14636995,9.781794,0.22983132,-0.0900106,9.780199,0
12,987.95068359375,-2.8384424513205886E-4,-9.173147846013308E-4,1.027932739816606E-4,-11.803045272827148,24.47382926940918,-38.82624053955078,-0.2279776930809021,-0.024709239602088928,0.039673805236816406,0.06723952,-0.14875324,9.7652235,0.20813066,-0.075543955,9.764077,0
12,987.9481811523438,6.482613389380276E-4,1.479487691540271E-4,2.3595121456310153E-4,-11.60053825378418,25.558992385864258,-38.92094421386719,-0.23651123046875,-0.034037575125694275,0.030223846435546875,0.09113854,-0.15590306,9.7699585,0.22569957,-0.091758594,9.768589,0
12,987.9481811523438,-6.833180668763816E-4,5.474226782098413E-4,-3.036466659978032E-5,-11.029409408569336,24.513582229614258,-39.178733825683594,-0.23580996692180634,-0.024603411555290222,0.03496742248535156,0.08157891,-0.14398669,9.765224,0.22137564,-0.07730908,9.763811,0
12,987.9481811523438,2.4878751719370484E-4,6.805806187912822E-4,2.3595121456310153E-4,-11.431431770324707,25.085107803344727,-38.76530456542969,-0.22075556218624115,-0.020070761442184448,0.03497505187988281,0.076799124,-0.14636995,9.7699585,0.21436143,-0.08016709,9.768676,0
12,987.940673828125,-4.170021857134998E-4,0.0013463703216984868,-2.9668043134734035E-4,-12.290313720703125,25.33451271057129,-38.801517486572266,-0.23385503888130188,-0.015179187059402466,0.044465065002441406,0.08157891,-0.14636995,9.774693,0.21692447,-0.083525576,9.773364,0
12,987.92041015625,3.8194545777514577E-4,-9.173147846013308E-4,1.027932739816606E-4,-12.087699890136719,25.313337326049805,-38.52356719970703,-0.23242369294166565,-0.010023847222328186,0.03975963592529297,0.088748634,-0.16305287,9.7604885,0.21446082,-0.10003317,9.759385,0
12,987.9635009765625,1.1562957661226392E-4,2.8110676794312894E-4,3.6910921335220337E-4,-11.673639297485352,24.647680282592773,-38.856353759765625,-0.2311815768480301,-0.02428506314754486,0.039778709411621094,0.08403227,-0.15113802,9.758127,0.21474561,-0.08628416,9.756916,0
12,987.9483032226562,-1.798250013962388E-5,0.0013464438961818814,2.3575668456032872E-4,-11.744781494140625,24.47589683532715,-39.143280029296875,-0.23549291491508484,-0.0292433500289917,0.044506072998046875,0.0840995,-0.15113969,9.765236,0.21404484,-0.0869764,9.764035,0
12,987.95849609375,-8.177207200787961E-4,4.144666891079396E-4,5.01733913552016E-4,-11.722770690917969,24.654451370239258,-39.003150939941406,-0.21521680057048798,-0.019730716943740845,0.03505516052246094,0.06976515,-0.14875655,9.762869,0.20166266,-0.076918334,9.761865,0
12,987.94091796875,-2.8513773577287793E-4,0.001080264220945537,3.6855501821264625E-4,-11.727879524230957,25.018320083618164,-38.86968231201172,-0.22394557297229767,-0.029109641909599304,0.03506946563720703,0.07932985,-0.1463734,9.777073,0.21122919,-0.07749927,9.775903,0
12,987.946044921875,-4.1834457078948617E-4,5.476404912769794E-4,5.016920622438192E-4,-11.742961883544922,25.10951042175293,-38.79571533203125,-0.21826763451099396,-0.024484381079673767,0.025610923767089844,0.07455516,-0.15352334,9.769971,0.20295021,-0.0810186,9.769018,0
12,987.9432983398438,-1.5207770047709346E-4,0.0012134381104260683,-8.29908240120858E-4,-11.294713973999023,24.634187698364258,-39.606815338134766,-0.22257676720619202,-0.02908875048160553,0.04929161071777344,0.06978041,-0.13922383,9.765238,0.20494667,-0.06476345,9.764114,0
12,987.9711303710938,2.47347226832062E-4,0.0021455518435686827,1.0217621456831694E-4,-11.352434158325195,24.263826370239258,-39.19132995605469,-0.21224860846996307,-0.009790629148483276,0.025634765625,0.07456529,-0.1606734,9.769972,0.198338,-0.087460466,9.769174,0
12,987.9510498046875,3.8045638939365745E-4,0.0016129278810694814,9.011029032990336E-4,-11.881361961364746,25.032732009887695,-39.00084686279297,-0.22658273577690125,-0.018970191478729248,0.044577598571777344,0.088909775,-0.1487572,9.751036,0.21557781,-0.084735885,9.749825,0
12,987.9459228515625,0.001046197023242712,0.002278725616633892,5.016081850044429E-4,-11.50645923614502,24.646528244018555,-39.42094039916992,-0.2165202647447586,-0.032688021659851074,0.06353282928466797,0.0674057,-0.15352388,9.753403,0.19404963,-0.07835191,9.752599,0
12,987.9383544921875,9.129902464337647E-4,0.0016129439463838935,7.679031114093959E-4,-11.209033012390137,25.083078384399414,-39.49231719970703,-0.21098068356513977,-0.037029609084129333,0.03987884521484375,0.079360306,-0.14637415,9.772341,0.20875563,-0.07364808,9.771252,0
12,987.9412841796875,-1.916411565616727E-5,5.476881051436067E-4,5.015662754885852E-4,-11.61591911315918,25.01804542541504,-39.27184295654297,-0.23355118930339813,-0.0038915276527404785,0.044628143310546875,0.07936537,-0.14875756,9.760506,0.2052989,-0.07804529,9.759489,0
12,987.9765014648438,-1.523709506727755E-4,-7.838833262212574E-4,3.68387351045385E-4,-12.014652252197266,24.59208106994629,-39.33944320678711,-0.21312245726585388,-0.04180330038070679,0.049384117126464844,0.07698056,-0.13684131,9.755772,0.20576431,-0.07013162,9.754614,0
12,987.9031982421875,-1.5242007793858647E-4,-2.512436476536095E-4,-1.642653369344771E-4,-11.794456481933594,24.850954055786133,-39.38852310180664,-0.2167581468820572,-0.013315334916114807,0.03992938995361328,0.08415532,-0.15352435,9.755772,0.20440361,-0.0852146,9.754829,0
12,987.92333984375,-8.182585588656366E-4,5.477118538692594E-4,1.0202958947047591E-4,-12.215445518493652,25.24686622619629,-39.26983642578125,-0.215331569314003,-0.018348947167396545,0.04941272735595703,0.08416039,-0.15352444,9.765242,0.20287777,-0.08562201,9.764329,0
13,987.9158935546875,-0.001084623159840703,-7.838596357032657E-4,5.014825146645308E-4,-11.944052696228027,25.132158279418945,-39.150970458984375,-0.247701495885849,-0.013503342866897583,0.04942893981933594,0.09133518,-0.16544096,9.753405,0.20320511,-0.09774407,9.75263,0
13,987.9234619140625,-4.1888252599164844E-4,8.140435675159097E-4,6.34619384072721E-4,-11.619942665100098,24.645334243774414,-38.94147491455078,-0.2130952626466751,-0.03286087512969971,0.05890846252441406,0.07461095,-0.1344585,9.76761,0.20196804,-0.06106937,9.766542,0
13,987.9234619140625,-4.189315368421376E-4,-6.506857462227345E-4,0.001034072251059115,-11.89850902557373,25.490732192993164,-38.948020935058594,-0.21179872751235962,-0.028010040521621704,0.03525543212890625,0.086565495,-0.14160843,9.758141,0.20872033,-0.070365965,9.757066,0
13,987.93115234375,-2.8582237428054214E-4,6.809014594182372E-4,-4.30686108302325E-4,-11.735895156860352,25.48516273498535,-39.28069305419922,-0.22499904036521912,-0.023311525583267212,0.04000282287597656,0.09613022,-0.15352495,9.772345,0.21095753,-0.08543374,9.771373,0
13,987.9285888671875,-9.516608552075922E-4,-7.838278543204069E-4,7.677145185880363E-4,-11.677088737487793,25.11894416809082,-39.49927520751953,-0.22337736189365387,-0.009171009063720703,0.035286903381347656,0.08657569,-0.15352513,9.769978,0.20010555,-0.08249012,9.76917,0
13,987.93115234375,1.1350464774295688E-4,2.814515901263803E-4,1.0188284795731306E-4,-11.332488059997559,24.8091983795166,-39.07234573364258,-0.19799600541591644,-0.018498197197914124,0.035309791564941406,0.074631244,-0.1463754,9.7628765,0.19262055,-0.066934176,9.762128,0
13,987.93115234375,1.1350464774295688E-4,2.814515901263803E-4,1.0188284795731306E-4,-11.332488059997559,24.8091983795166,-39.07234573364258,-0.21635785698890686,-0.00894591212272644,0.035320281982421875,0.08419591,-0.15114208,9.7628765,0.19833335,-0.074681856,9.76211,0
13,987.94384765625,-5.523339495994151E-4,1.5143683413043618E-5,3.681777452584356E-4,-11.426865577697754,25.08952522277832,-38.99721908569336,-0.20603643357753754,-0.037726327776908875,0.02112293243408203,0.08420098,-0.13684256,9.78655,0.20337188,-0.06466032,9.785542,0
13,987.94384765625,-5.523339495994151E-4,1.5143683413043618E-5,3.681777452584356E-4,-11.936580657958984,25.033605575561523,-38.838417053222656,-0.2010648399591446,-0.018629983067512512,0.0305938720703125,0.07703635,-0.14875902,9.765245,0.1920987,-0.06909576,9.764548,0
13,987.9338989257812,-8.186986087821424E-4,0.0016130468575283885,9.007885819301009E-4,-11.472952842712402,25.0992374420166,-39.29862594604492,-0.20007647573947906,-0.009050309658050537,0.05901336669921875,0.079431355,-0.15829225,9.765245,0.18940914,-0.07766269,9.764706,0
13,987.948974609375,2.465160214342177E-4,0.0020125287119299173,2.3497798247262836E-4,-11.74100399017334,25.849035263061523,-39.14722442626953,-0.2130918800830841,-0.027873843908309937,0.03536224365234375,0.08421621,-0.14875926,9.7841835,0.19647166,-0.07193941,9.783441,0
13,987.9390258789062,2.6421737857162952E-5,-6.418533157557249E-4,1.677736290730536E-4,-11.731466293334961,25.3836612701416,-38.81352233886719,-0.21748608350753784,-0.017965421080589294,0.02590179443359375,0.08903298,-0.15352671,9.784187,0.19783208,-0.0792474,9.783477,0
13,987.9593505859375,1.5953066758811474E-4,2.9026030097156763E-4,-6.311950273811817E-4,-12.045061111450195,25.774885177612305,-38.865074157714844,-0.1845388114452362,-0.04088355600833893,0.02117633819580078,0.06514037,-0.12969412,9.774719,0.18639839,-0.050546937,9.7738905,0
13,987.9463500976562,0.0013576747151091695,0.003352937987074256,5.671075196005404E-4,-12.173786163330078,25.338647842407227,-39.43559265136719,-0.1802096664905548,-0.011603385210037231,0.006978034973144531,0.0699265,-0.14399396,9.79129,0.18490115,-0.065023474,9.790637,0
13,987.9339599609375,0.001623854273930192,0.004018750041723251,-6.31372444331646E-4,-11.891878128051758,25.12833595275879,-39.158790588378906,-0.20911753177642822,-0.02497027814388275,0.02592945098876953,0.062763155,-0.14161082,9.765251,0.17960128,-0.058641493,9.764652,0
13,987.9619140625,0.001890108804218471,0.00335297011770308,-4.982406971976161E-4,-11.315884590148926,24.719484329223633,-39.22362518310547,-0.24764876067638397,-0.023858249187469482,-0.011931419372558594,0.09144831,-0.1511441,9.760517,0.2006523,-0.08141947,9.759713,0
13,987.9514770507812,0.0022895215079188347,0.004018769599497318,3.4364929888397455E-5,-11.145255088806152,24.247072219848633,-39.14529037475586,-0.19466125965118408,-0.02323228120803833,0.0212249755859375,0.05082631,-0.15352757,9.777088,0.16258782,-0.06641898,9.776849,0
13,987.9415893554688,0.0025557763874530792,0.0024208843242377043,3.433867823332548E-5,-11.457327842712402,24.639760971069336,-39.274147033691406,-0.20789018273353577,-0.03260420262813568,0.025976181030273438,0.08190137,-0.1296949,9.765253,0.19990946,-0.058135845,9.764238,0
13,987.9465942382812,2.5653396733105183E-5,2.4061126168817282E-5,3.428629133850336E-5,-11.43683910369873,24.81683921813965,-39.05671310424805,-0.21650901436805725,-0.003760784864425659,0.03545951843261719,0.0842976,-0.15352787,9.769988,0.19070733,-0.08010047,9.769367,0
13,987.94677734375,4.25065984018147E-4,4.235450178384781E-4,3.426021430641413E-5,-11.299280166625977,24.629770278930664,-39.374900817871094,-0.18682312965393066,-0.03674285113811493,0.054416656494140625,0.06996453,-0.1368451,9.758153,0.184033,-0.058538884,9.757452,0
13,987.9440307617188,4.250049823895097E-4,-2.4223478976637125E-4,3.005497856065631E-4,-11.390070915222168,24.54475212097168,-39.355934143066406,-0.18534713983535767,-0.00789344310760498,0.04970359802246094,0.06519106,-0.1463783,9.767622,0.17401081,-0.06520029,9.767168,0
13,987.9369506835938,8.244176860898733E-4,-0.0017069622408598661,-3.6526599433273077E-4,-11.595429420471191,25.19512367248535,-39.05440902709961,-0.17452964186668396,-0.0315442830324173,0.026048660278320312,0.06519741,-0.14637847,9.765255,0.17303886,-0.06409374,9.764826,0
13,987.9264526367188,1.5856686513870955E-4,2.4100940208882093E-5,-4.984502447769046E-4,-11.514069557189941,24.639162063598633,-39.03441619873047,-0.19252952933311462,-0.0029115676879882812,0.040266990661621094,0.06520373,-0.15114523,9.765257,0.16949202,-0.06897132,9.764931,0
13,987.9544067382812,-6.404417799785733E-4,-1.0904716327786446E-4,-2.3216044064611197E-4,-11.154494285583496,25.344575881958008,-39.054115295410156,-0.1867564618587494,-0.03128993511199951,0.04028129577636719,0.062820196,-0.13684566,9.769991,0.17408851,-0.050748236,9.769466,0
14,987.951904296875,2.5286688469350338E-5,4.2359461076557636E-4,4.336030106060207E-4,-11.424938201904297,24.616792678833008,-38.277000427246094,-0.17147403955459595,-0.02631339430809021,0.059233665466308594,0.060436606,-0.14637889,9.753422,0.16542828,-0.061645508,9.753109,0
14,987.9520874023438,8.241733303293586E-4,-1.0902731446549296E-4,5.667348159477115E-4,-11.160038948059082,24.97039222717285,-38.646446228027344,-0.18864363431930542,-0.0069113075733184814,0.040322303771972656,0.081952065,-0.15591218,9.760523,0.18045008,-0.07678719,9.760142,0
14,987.9520263671875,2.9148044995963573E-4,-0.001041123061440885,3.0039274133741856E-4,-11.620622634887695,24.907705307006836,-38.340850830078125,-0.17864415049552917,-0.025822460651397705,0.04979896545410156,0.07000893,-0.13684614,9.758157,0.17588367,-0.05693239,9.757617,0
14,987.9520263671875,4.245772724971175E-4,4.2362441308796406E-4,3.4050666727125645E-5,-11.59945297241211,24.822412490844727,-38.72404479980469,-0.17297375202178955,-0.03970727324485779,0.040348052978515625,0.065235436,-0.12969644,9.767626,0.17393893,-0.048424877,9.7670355,0
14,987.95458984375,4.245162708684802E-4,-5.08471333887428E-4,3.003403835464269E-4,-11.174440383911133,24.799203872680664,-39.173099517822266,-0.18587669730186462,-0.010824993252754211,0.04036712646484375,0.07241154,-0.15114613,9.76526,0.17029485,-0.06812596,9.7649765,0
14,987.9323120117188,4.244548035785556E-4,1.5732832252979279E-4,-3.6547554191201925E-4,-11.325858116149902,24.446802139282227,-39.283111572265625,-0.18036192655563354,-0.029707178473472595,0.05458259582519531,0.07002801,-0.1416132,9.767628,0.17093396,-0.060183175,9.767223,0
14,987.9393310546875,-2.4139636661857367E-4,-5.084514268673956E-4,3.397191176190972E-5,-11.217185020446777,25.444002151489258,-39.20424270629883,-0.1793166995048523,-0.010667756199836731,0.04985809326171875,0.07720402,-0.14876314,9.75816,0.1744493,-0.06592509,9.757816,0
14,987.962158203125,5.574900424107909E-4,-1.0896770982071757E-4,-6.318440428003669E-4,-11.070770263671875,25.05393409729004,-38.58810806274414,-0.18776042759418488,-0.043696120381355286,0.04987525939941406,0.07004064,-0.124930516,9.760527,0.17696582,-0.041235253,9.759886,0
14,987.959716796875,4.242711002007127E-4,1.5735800843685865E-4,-6.318701198324561E-4,-11.068567276000977,24.79303550720215,-39.26603698730469,-0.17719689011573792,-0.024298399686813354,0.007282257080078125,0.07004699,-0.13446383,9.777098,0.17192408,-0.050308153,9.776632,0
14,987.9345092773438,-1.0842178016901016E-4,1.5736802015453577E-4,1.6705121379345655E-4,-11.665432929992676,25.919321060180664,-38.39313888549805,-0.1810375452041626,-0.014625579118728638,0.03570079803466797,0.062883645,-0.14876364,9.774731,0.15828156,-0.06008368,9.774599,0
14,987.9500732421875,-3.7479877937585115E-4,1.5737791545689106E-4,-0.001031396328471601,-11.918700218200684,25.945791244506836,-38.74058532714844,-0.18010303378105164,-0.024152293801307678,0.05938243865966797,0.072449565,-0.14876379,9.755795,0.16523896,-0.065299116,9.755581,0
14,987.9320068359375,5.57245803065598E-4,4.237036919221282E-4,-2.3247499484568834E-4,-11.327080726623535,25.077463150024414,-38.78093719482422,-0.17435427010059357,-0.024014130234718323,0.040457725524902344,0.06762892,-0.13446312,9.765259,0.16631356,-0.05022058,9.7648735,0
14,987.9297485351562,2.9098184313625097E-4,-2.420945093035698E-4,-4.987685242667794E-4,-11.610649108886719,25.180391311645508,-38.28135681152344,-0.1587965190410614,-0.019152402877807617,0.04994773864746094,0.06519532,-0.14161189,9.760521,0.1595573,-0.056063205,9.760302,0
14,987.9323120117188,-9.06687811948359E-4,-0.00130747992079705,-2.3213063832372427E-4,-11.970332145690918,25.581323623657227,-38.634315490722656,-0.1767202913761139,-0.023672252893447876,0.026291847229003906,0.07475746,-0.13922866,9.76999,0.16992915,-0.052347936,9.76965,0
14,987.91455078125,5.580248543992639E-4,6.89893146045506E-4,-9.898300049826503E-5,-10.913265228271484,25.412233352661133,-38.78731155395508,-0.19014972448349,2.337247133255005E-4,0.04523944854736328,0.08431959,-0.1535284,9.765256,0.17036985,-0.07240406,9.765072,0
14,987.9348754882812,5.58000523597002E-4,1.5726534184068441E-4,-9.899353608489037E-5,-11.391294479370117,25.175416946411133,-38.853759765625,-0.17016106843948364,-0.027858063578605652,0.035788536071777344,0.062813014,-0.1439953,9.772358,0.15366814,-0.056072295,9.772252,0
14,987.9323120117188,4.248182522132993E-4,-6.41678343527019E-4,-4.984778352081776E-4,-11.625051498413086,25.00920295715332,-38.808013916015625,-0.15464003384113312,-0.008844554424285889,0.04053306579589844,0.06281555,-0.15114523,9.774725,0.15063415,-0.05910608,9.774756,0
14,987.9323120117188,4.248182522132993E-4,-6.41678343527019E-4,-4.984778352081776E-4,-11.273926734924316,25.443403244018555,-38.964508056640625,-0.16814972460269928,-0.02784012258052826,0.016870498657226562,0.07476759,-0.1368456,9.77946,0.16630843,-0.05259821,9.779148,0
14,987.9398803710938,-2.4099613074213266E-4,-1.090426230803132E-4,-4.98488312587142E-4,-11.603720664978027,25.45012855529785,-38.06725311279297,-0.1622655689716339,-0.008943691849708557,0.04055023193359375,0.058040857,-0.14399548,9.758155,0.14723319,-0.050320774,9.758151,0
14,987.9119873046875,-3.741782857105136E-4,5.567511543631554E-4,3.413297235965729E-5,-11.829974174499512,26.397626876831055,-38.78069305419922,-0.16119834780693054,8.85009765625E-4,0.02162933349609375,0.074772656,-0.15114541,9.779459,0.15795952,-0.06495683,9.779422,0
14,987.9500732421875,-2.4104479234665632E-4,-0.0011742982314899564,-2.3219326976686716E-4,-11.486651420593262,25.085981369018555,-38.60287857055664,-0.14557865262031555,-0.0039099156856536865,0.0689840316772461,0.067605495,-0.14876218,9.758156,0.15185991,-0.05728919,9.758175,0
14,987.9348754882812,2.9156228993088007E-4,-5.085045122541487E-4,-9.904586477205157E-5,-11.296619415283203,25.527223587036133,-38.50401306152344,-0.16311322152614594,-0.0276983380317688,0.02639007568359375,0.072387874,-0.14399566,9.779461,0.15603293,-0.05713492,9.779377,0
14,987.927490234375,2.5222310796380043E-5,-0.0010411323746666312,3.4101540222764015E-5,-11.768559455871582,25.296297073364258,-38.87968063354492,-0.15255534648895264,-0.008790090680122375,0.035866737365722656,0.055661023,-0.14637907,9.767625,0.13925444,-0.0506348,9.7677555,0
14,987.924560546875,-6.405921885743737E-4,-9.079703595489264E-4,-2.3222476011142135E-4,-11.54477596282959,25.189828872680664,-38.984920501708984,-0.1420479714870453,-0.03710739314556122,0.031145095825195312,0.055663645,-0.13446273,9.777094,0.14381956,-0.0389686,9.777042,0
14,987.9297485351562,1.5833100769668818E-4,-7.748085190542042E-4,-7.648670580238104E-4,-11.537847518920898,25.459566116333008,-38.77082061767578,-0.15542562305927277,-0.02263607084751129,0.04535865783691406,0.060445964,-0.14876248,9.769993,0.14147973,-0.05220131,9.770148,0
15,987.9198608398438,1.5830679330974817E-4,2.4143140763044357E-5,-2.322457730770111E-4,-10.930167198181152,24.869813919067383,-39.06090545654297,-0.16401523351669312,-0.017435073852539062,0.040640830993652344,0.0700081,-0.13922937,9.767626,0.15214705,-0.050499707,9.767553,0
15,987.9398803710938,5.577559350058436E-4,-2.421688404865563E-4,-6.317300722002983E-4,-11.429367065429688,24.718286514282227,-38.744163513183594,-0.15804174542427063,-0.036109402775764465,0.054862022399902344,0.067620754,-0.13446297,9.755789,0.1508891,-0.04440338,9.755681,0
15,987.9221801757812,2.9141572304069996E-4,-2.4216482415795326E-4,-0.0012975302524864674,-11.562902450561523,25.27806282043457,-38.7563362121582,-0.15696746110916138,-0.016677632927894592,0.040673255920410156,0.06762326,-0.1487626,9.762892,0.1440968,-0.055933475,9.763037,0
15,987.940185546875,4.2452465277165174E-4,-5.084727890789509E-4,-3.6544568138197064E-4,-11.552791595458984,25.65667152404785,-39.39592742919922,-0.14631348848342896,-0.011905044317245483,0.04068183898925781,0.06523591,-0.13922961,9.767627,0.14502831,-0.04601518,9.767651,0
15,987.945068359375,2.913424978032708E-4,-0.0011742585338652134,5.666494835168123E-4,-11.466567039489746,25.737268447875977,-39.18297576904297,-0.149714857339859,-0.006708577275276184,0.050169944763183594,0.06284857,-0.14876272,9.760525,0.13748002,-0.052869886,9.760749,0
15,987.9475708007812,1.5815987717360258E-4,-0.0010410966351628304,-6.317824590951204E-4,-11.30300521850586,24.88920021057129,-38.61966323852539,-0.15832561254501343,-0.011444777250289917,0.05491447448730469,0.07241064,-0.1463796,9.767626,0.14597046,-0.055422634,9.767744,0
15,987.9172973632812,-2.4133850820362568E-4,2.417090581730008E-5,1.6715464880689979E-4,-11.13538932800293,25.626096725463867,-39.458457946777344,-0.15280425548553467,-0.020970836281776428,0.04545021057128906,0.072413206,-0.1368465,9.760525,0.15007772,-0.04408779,9.7605,0
15,987.9100952148438,1.581110991537571E-4,4.236487438902259E-4,6.997759337536991E-4,-10.909135818481445,24.67860221862793,-38.74502182006836,-0.14728474617004395,-0.011432453989982605,0.03598785400390625,0.06763595,-0.14876299,9.762893,0.13977304,-0.05352348,9.763113,0
15,987.9326171875,2.9124447610229254E-4,4.236525855958462E-4,3.002916637342423E-4,-10.92918872833252,25.23957633972168,-39.23666000366211,-0.14635314047336578,-0.02044375240802765,0.031269073486328125,0.06524855,-0.14399649,9.765261,0.13898088,-0.047134846,9.765439,0
15,987.9176025390625,1.5806208830326796E-4,-6.416068645194173E-4,3.0028115725144744E-4,-11.615621566772461,25.650178909301758,-38.84697341918945,-0.14051075279712677,-0.024997606873512268,0.05495452880859375,0.060471296,-0.13208015,9.765261,0.13797843,-0.036276348,9.7653,0
15,987.917724609375,2.9119569808244705E-4,-7.74760905187577E-4,-0.0010313085513189435,-11.77464771270752,25.290407180786133,-38.570465087890625,-0.1583399921655655,-0.024607732892036438,0.050235748291015625,0.07242334,-0.13923003,9.760527,0.14440271,-0.04921647,9.760595,0
15,987.9376220703125,8.238028967753053E-4,1.573486952111125E-4,3.394432133063674E-5,-11.523307800292969,25.736665725708008,-38.94324493408203,-0.14299136400222778,-7.523298263549805E-4,0.03606891632080078,0.057738304,-0.1535212,9.762862,0.12455332,-0.05344531,9.7633,0
15,987.9227905273438,4.2597856372594833E-4,-6.41866703517735E-4,-4.979805089533329E-4,-11.120445251464844,25.42899513244629,-38.833351135253906,-0.16589666903018951,-0.03398787975311279,0.04554939270019531,0.08401579,-0.13207142,9.758126,0.15684585,-0.043638036,9.758023,0
15,987.930419921875,1.614127540960908E-4,-7.753088138997555E-4,3.540131729096174E-5,-11.60676383972168,25.44718360900879,-37.91264343261719,-0.1505800485610962,-5.59881329536438E-4,0.02188587188720703,0.07205486,-0.1511374,9.772329,0.13644725,-0.05751387,9.772644,0
15,987.927490234375,-2.379509387537837E-4,-3.758528036996722E-4,-4.971834132447839E-4,-11.343141555786133,24.79888343811035,-38.531211853027344,-0.15895964205265045,-0.01952272653579712,0.055039405822753906,0.07204348,-0.14398728,9.76996,0.13831095,-0.050919704,9.770175,0
15,987.9351196289062,-5.041568074375391E-4,1.5676114708185196E-4,3.0181152396835387E-4,-11.574832916259766,24.26585578918457,-38.464317321777344,-0.13917435705661774,-0.02904185652732849,0.05031108856201172,0.06486231,-0.14398696,9.772327,0.13047826,-0.049667634,9.772607,0
15,987.9202880859375,4.2805890552699566E-4,2.8990115970373154E-4,3.554282011464238E-5,-11.175801277160645,25.32395362854004,-37.97184753417969,-0.13844060897827148,-0.014480635523796082,0.045586585998535156,0.06485093,-0.14160348,9.758122,0.13198635,-0.04354523,9.758375,0
15,987.9273071289062,-2.3762078490108252E-4,-1.0959059000015259E-4,-9.756803046911955E-5,-11.053868293762207,25.59636116027832,-38.31451416015625,-0.1474570631980896,-0.014642193913459778,0.021918296813964844,0.074399084,-0.13921984,9.774692,0.14182124,-0.043695077,9.77484,0
15,987.9025268554688,4.282790469005704E-4,2.8986530378460884E-4,-9.752076584845781E-5,-11.130960464477539,25.524599075317383,-38.99128723144531,-0.1466238796710968,-0.018909230828285217,0.03613567352294922,0.07199776,-0.15113597,9.772324,0.133519,-0.05420637,9.772695,0
15,987.9151000976562,2.952311187982559E-4,-1.0962621308863163E-4,-9.74736176431179E-5,-11.629616737365723,25.004785537719727,-38.57609558105469,-0.12642870843410492,-0.009566590189933777,0.03140735626220703,0.064816654,-0.15351902,9.777057,0.123856276,-0.0557411,9.7775345,0
15,987.9354248046875,-1.0413257405161858E-4,-0.0011749076656997204,3.0204738141037524E-4,-11.298981666564941,25.261903762817383,-38.95003128051758,-0.14425329864025116,-0.014177635312080383,0.021951675415039062,0.06480521,-0.14636885,9.779423,0.1265196,-0.046964422,9.7798,0
15,987.9354248046875,6.949250819161534E-4,-1.0966201080009341E-4,3.577867755666375E-5,-11.313222885131836,25.6169376373291,-38.35273742675781,-0.11986937373876572,-0.004600301384925842,0.05983257293701172,0.0576241,-0.14875187,9.760484,0.1181559,-0.04651861,9.760962,0
15,987.93798828125,-5.033863708376884E-4,2.3477943614125252E-5,-9.733217302709818E-5,-11.18052864074707,24.79331398010254,-38.86387634277344,-0.1284208595752716,-0.02841039001941681,0.02196502685546875,0.062392473,-0.1368352,9.774687,0.12695447,-0.03686799,9.774949,0
15,987.9202880859375,-0.0011690659448504448,-1.0969775030389428E-4,-2.3044290719553828E-4,-11.366238594055176,25.35691261291504,-38.86824035644531,-0.1372169852256775,-0.005045264959335327,0.045635223388671875,0.07194066,-0.14398469,9.769951,0.13299179,-0.04383681,9.770274,0
15,987.917724609375,-9.026400512084365E-4,-5.091894418001175E-4,3.592018038034439E-5,-10.903154373168945,25.790834426879883,-39.42689514160156,-0.11726217716932297,-0.005094856023788452,0.03143787384033203,0.05758983,-0.15590085,9.774685,0.113238625,-0.051051237,9.7753105,0
16,987.917724609375,-9.026400512084365E-4,-5.091894418001175E-4,3.592018038034439E-5,-11.491621971130371,25.55577278137207,-39.168495178222656,-0.12622135877609253,-0.014563381671905518,0.045647621154785156,0.057578444,-0.1463675,9.765215,0.11638139,-0.042980805,9.765695,0
16,987.9202880859375,3.320183604955673E-4,8.032622281461954E-5,4.5757845509797335E-4,-11.350614547729492,24.89743995666504,-38.84376525878906,-0.13518574833869934,-0.009665533900260925,0.04092121124267578,0.074296355,-0.15113373,9.760479,0.12871769,-0.054522336,9.760931,0
16,987.9125366210938,-6.734533235430717E-5,8.03083530627191E-5,-3.4132192377001047E-4,-11.559858322143555,25.281015396118164,-38.91094970703125,-0.1345253437757492,-0.014566302299499512,0.045658111572265625,0.062335372,-0.13683383,9.769947,0.12367821,-0.036068156,9.770256,0
16,987.9273071289062,-3.335513174533844E-4,8.792381267994642E-4,7.23988632671535E-4,-11.547820091247559,25.186880111694336,-38.83030700683594,-0.1243496835231781,-0.00956234335899353,0.04566669464111328,0.064713895,-0.14636661,9.765211,0.12125687,-0.04497268,9.765668,0
16,987.9278564453125,1.9919045735150576E-4,-5.28853852301836E-5,1.9140407675877213E-4,-11.316427230834961,25.087778091430664,-39.32207489013672,-0.13333576917648315,-0.009524449706077576,0.040938377380371094,0.06470245,-0.14874963,9.772312,0.119781226,-0.046870008,9.772812,0
16,987.9247436523438,-2.001731190830469E-4,2.1341262618079782E-4,3.246092237532139E-4,-11.5574951171875,25.546335220336914,-38.46493148803711,-0.11817233264446259,-0.009237334132194519,0.04094982147216797,0.05991125,-0.1487494,9.77231,0.114440665,-0.04513,9.772852,0
16,987.945068359375,7.32042477466166E-4,7.460265187546611E-4,4.578143125399947E-4,-11.581028938293457,25.36631202697754,-38.52775573730469,-0.14662867784500122,-0.018508896231651306,0.04568958282470703,0.074239254,-0.13444938,9.767575,0.132912,-0.03949295,9.767798,0
16,987.9406127929688,6.636278703808784E-5,3.465348854660988E-4,-2.0792830036953092E-4,-11.930194854736328,25.671632766723633,-38.72277069091797,-0.11266566812992096,-0.008903488516807556,0.03622627258300781,0.055108607,-0.14398225,9.772308,0.11132596,-0.03893148,9.772814,0
16,987.93798828125,5.991046782582998E-4,0.001012306660413742,-2.078810939565301E-4,-11.634725570678711,25.368661880493164,-38.44263458251953,-0.1167917251586914,-0.01825757324695587,0.059906959533691406,0.05987698,-0.1392154,9.760471,0.11696951,-0.03644616,9.7608795,0
16,987.9202880859375,1.9974075257778168E-4,-5.856064381077886E-4,-7.467600516974926E-5,-11.51833724975586,25.266881942749023,-38.37763214111328,-0.13953182101249695,6.674826145172119E-4,0.045708656311035156,0.069425166,-0.15351476,9.762838,0.11870939,-0.05232054,9.763431,0
16,987.9406127929688,-4.659389378502965E-4,2.1332339383661747E-4,-7.462879875674844E-5,-11.122403144836426,24.689470291137695,-38.481842041015625,-0.12468095123767853,-0.013122498989105225,0.03625297546386719,0.064946055,-0.1487556,9.7676,0.11543459,-0.047887094,9.768148,0
16,987.9227905273438,7.327027851715684E-4,8.012959733605385E-5,3.249393485020846E-4,-11.49176025390625,25.449853897094727,-38.46941375732422,-0.11965682357549667,-0.017790690064430237,0.036202430725097656,0.05809608,-0.13684703,9.774731,0.11423503,-0.03223753,9.775141,0
16,987.9227905273438,6.089964881539345E-5,-7.17841787263751E-4,8.549939375370741E-4,-11.311158180236816,25.250123977661133,-38.33158874511719,-0.12333425879478455,-0.007936805486679077,0.03147697448730469,0.05811006,-0.14399727,9.772365,0.110143185,-0.038209535,9.7729025,0
16,987.9354248046875,5.933967186138034E-4,-3.1834610854275525E-4,-7.716927211731672E-5,-11.617142677307129,25.648706436157227,-38.76966857910156,-0.12272525578737259,-0.02680326998233795,0.026749610900878906,0.060513914,-0.13923104,9.769999,0.11352597,-0.035313047,9.770454,0
16,987.93798828125,7.26420315913856E-4,-1.8516631098464131E-4,3.2224683673121035E-4,-11.307433128356934,24.990694046020508,-39.08682632446289,-0.12189307808876038,-0.015961721539497375,0.012570381164550781,0.07008749,-0.14876445,9.791305,0.11703764,-0.048590235,9.791866,0
16,987.9862060546875,0.0012589171528816223,-8.509341860190034E-4,-8.762322831898928E-4,-11.151044845581055,24.873315811157227,-38.411197662353516,-0.1354680359363556,-0.012156382203102112,0.03623008728027344,0.06771147,-0.15591462,9.777103,0.11156852,-0.052588,9.777803,0
16,987.9780883789062,-0.0015375338261947036,2.1435110829770565E-4,-2.1050020586699247E-4,-11.083489418029785,25.41044044494629,-38.068115234375,-0.12952369451522827,-0.026285946369171143,0.036238670349121094,0.06772545,-0.12969892,9.765268,0.121735424,-0.02732826,9.765568,0
16,987.8948364257812,4.5970105566084385E-4,-3.1825879705138505E-4,-2.105578314512968E-4,-11.22797679901123,25.327775955200195,-37.964027404785156,-0.1338527947664261,-0.007000431418418884,0.05044746398925781,0.06773943,-0.14876552,9.753433,0.11292876,-0.04550898,9.754044,0
16,987.9197387695312,0.002456935355439782,-9.840267011895776E-4,-2.1061551524326205E-4,-11.696576118469238,25.731931686401367,-38.06943893432617,-0.12802034616470337,-0.024738222360610962,0.026800155639648438,0.06058368,-0.13208286,9.784208,0.112020984,-0.028760344,9.784605,0
16,988.0059814453125,-4.726735642179847E-4,2.144165337085724E-4,1.888007391244173E-4,-11.506842613220215,25.541040420532227,-38.395442962646484,-0.11805060505867004,0.00725226104259491,0.059920310974121094,0.07254714,-0.15591599,9.770006,0.11283878,-0.053820036,9.77072,0
16,987.9937744140625,-0.0023370194248855114,2.1443853620439768E-4,-2.107307082042098E-4,-11.50005054473877,25.704862594604492,-37.482261657714844,-0.10828299820423126,-0.02156221866607666,0.04571342468261719,0.058221698,-0.13685013,9.767641,0.10793857,-0.02987542,9.76813,0
16,987.841552734375,-3.397847758606076E-4,0.0016791976522654295,3.218433994334191E-4,-11.65048885345459,25.722219467163086,-37.76803207397461,-0.09351031482219696,-0.002367764711380005,0.0267791748046875,0.055845678,-0.1440003,9.774742,0.102222934,-0.035673514,9.775362,0
16,987.9119873046875,4.5902852434664965E-4,-5.18338056281209E-5,-6.103198975324631E-4,-11.143816947937012,25.775190353393555,-37.77222442626953,-0.12646545469760895,-0.016435086727142334,0.031517982482910156,0.07019907,-0.14161737,9.774745,0.11633077,-0.037603647,9.775259,0
16,987.9049682617188,1.9257806707173586E-4,3.4766190219670534E-4,1.8857017857953906E-4,-11.452303886413574,25.80253791809082,-37.95724105834961,-0.11195163428783417,-0.006722778081893921,0.045723915100097656,0.06065339,-0.14638425,9.774746,0.10504858,-0.039140604,9.775387,0
17,987.907470703125,5.928578320890665E-5,0.0010134732583537698,-7.780332816764712E-5,-11.280152320861816,25.331594467163086,-37.956214904785156,-0.12094969302415848,-0.0018452703952789307,0.050461769104003906,0.072616875,-0.15591766,9.762911,0.11112965,-0.052977756,9.76365,0
17,987.9049682617188,5.9151207096874714E-5,7.47179496102035E-4,-2.110189525410533E-4,-11.53105640411377,25.623388290405273,-37.85763931274414,-0.12067106366157532,-0.02105109393596649,0.03625679016113281,0.06546113,-0.13923515,9.774749,0.111461,-0.034855977,9.775263,0
17,987.92529296875,4.5849045272916555E-4,3.4772721119225025E-4,7.210290641523898E-4,-11.268795013427734,25.499834060668945,-37.27494812011719,-0.11545460671186447,-0.010957345366477966,0.050469398498535156,0.067865014,-0.14161877,9.755812,0.11203874,-0.03778684,9.756358,0
17,987.917724609375,9.90987871773541E-4,7.472231518477201E-4,-3.442921442911029E-4,-11.23476791381836,25.16395378112793,-38.87721252441406,-0.11006968468427658,-0.01102079451084137,0.022064208984375,0.053539574,-0.14876889,9.772385,0.09551367,-0.03821832,9.773122,0
17,987.9249877929688,-8.733578724786639E-4,-5.170272197574377E-5,3.2143996213562787E-4,-11.224932670593262,25.330720901489258,-38.11863708496094,-0.10476922988891602,-0.010753542184829712,0.036273956298828125,0.058333278,-0.14400269,9.770018,0.10136784,-0.035631746,9.770662,1
17,987.9024658203125,0.0011238768929615617,7.472666911780834E-4,-7.80915142968297E-5,-11.199335098266602,25.143930435180664,-38.03466796875,-0.11421816796064377,-0.024826988577842712,0.05521392822265625,0.060737133,-0.12970339,9.76055,0.10944861,-0.022907414,9.760959,1
17,987.9354248046875,-3.4099514596164227E-4,7.472884608432651E-4,9.871143847703934E-4,-10.980660438537598,25.40132713317871,-38.00644302368164,-0.09929941594600677,-0.03432926535606384,0.031543731689453125,0.055971265,-0.14162011,9.772388,0.099588975,-0.03208171,9.773015,1
17,987.9323120117188,1.9150227308273315E-4,-4.511111183091998E-4,1.8810911569744349E-4,-11.048896789550781,25.12657356262207,-37.748897552490234,-0.12221993505954742,-0.019818007946014404,0.02681732177734375,0.063154966,-0.13685389,9.770021,0.106764406,-0.03167475,9.770551,1
17,987.9323120117188,1.9136792980134487E-4,-3.179313207510859E-4,5.489354953169823E-5,-11.423118591308594,25.250402450561523,-37.92943572998047,-0.10745291411876678,-0.014893174171447754,0.045757293701171875,0.058389097,-0.13447095,9.760554,0.1031854,-0.026464775,9.761075,1
17,987.9373779296875,5.8075180277228355E-5,6.141960620880127E-4,8.537835674360394E-4,-11.357084274291992,25.78605842590332,-37.50904083251953,-0.10251237452030182,-0.010061517357826233,0.04575824737548828,0.060792953,-0.14638771,9.765289,0.099295504,-0.040709116,9.765986,1
17,987.9398803710938,-7.521698717027903E-5,3.479020670056343E-4,4.542520910035819E-4,-11.733967781066895,25.012426376342773,-38.560462951660156,-0.11614646017551422,-0.009785681962966919,0.02682781219482422,0.06080687,-0.13923822,9.770025,0.102017276,-0.033309303,9.770617,1
17,987.9398803710938,-7.521698717027903E-5,3.479020670056343E-4,4.542520910035819E-4,-11.474613189697266,24.991846084594727,-38.52224349975586,-0.1055789664387703,-0.019402489066123962,0.04103279113769531,0.06311563,-0.136853,9.765284,0.10463547,-0.030210488,9.765841,1
17,987.9476318359375,5.904380232095718E-4,-3.1786580802872777E-4,5.4720614571124315E-5,-11.302706718444824,25.521333694458008,-38.194793701171875,-0.10877175629138947,-0.024371594190597534,0.026848793029785156,0.13472581,-0.22264881,9.788947,0.13191822,-0.13792908,9.790545,1
17,987.9172973632812,-8.737529860809445E-4,-5.842703394591808E-4,-0.001143466797657311,-11.3421630859375,25.168649673461914,-38.706966400146484,0.1258835345506668,0.042419880628585815,-0.0018367767333984375,-0.13293687,-0.42284435,9.862331,-0.19668749,-0.18188529,9.868651,1
17,987.9323120117188,-0.0044570681639015675,-0.0021442309953272343,-0.12487100809812546,-11.350751876831055,24.791521072387695,-38.144683837890625,-0.13311782479286194,0.27652692794799805,-0.6993865966796875,0.42869633,-0.3823288,10.828152,0.35695162,-0.2953924,10.833473,1
17,987.8486328125,-0.12057086825370789,-0.05341002717614174,-0.39744535088539124,-12.109413146972656,25.766923904418945,-38.23882293701172,-0.7205628156661987,0.8508225679397583,2.5596208572387695,0.58165646,-0.5420086,9.14507,0.5651634,-0.42085016,9.15248,1
17,987.83837890625,-0.30486151576042175,0.1798827052116394,-0.17240844666957855,-11.733370780944824,26.276700973510742,-37.710723876953125,1.0122640132904053,-1.3198301792144775,-0.7179059982299805,-0.46033442,-0.22026612,10.020936,-0.10973713,0.83036005,9.998902,1
17,987.8329467773438,-0.8742449879646301,-0.20640850067138672,0.22733165323734283,-12.048327445983887,27.19266700744629,-36.56101989746094,-0.7847517728805542,-0.1121751070022583,0.2549629211425781,0.6868248,-1.1020794,9.7132,0.7220677,-0.100667715,9.772463,1
17,987.8281860351562,-1.1287097930908203,-0.004940506536513567,-0.13871954381465912,-11.654106140136719,29.246774673461914,-35.510215759277344,0.6157678365707397,-0.19510793685913086,-0.13094329833984375,-0.73038065,-1.7121987,9.597208,-0.6191268,0.36666155,9.74955,1
17,987.894287109375,-1.0545408725738525,0.07082636654376984,-0.4039701819419861,-12.415106773376465,30.377153396606445,-34.22734069824219,0.019582530483603477,0.026226520538330078,0.42415332794189453,-0.0014542341,-2.1793213,9.594841,0.02553022,0.0075000525,9.839193,1
17,987.9476318359375,-1.1771793365478516,0.08853638172149658,-0.3801349699497223,-12.73767375946045,31.285757064819336,-32.69111633300781,-0.12334433943033218,-0.2986319065093994,-0.3279695510864258,-0.12094298,-2.2269871,9.7155695,0.14958203,0.32227266,9.961936,1
17,987.9498901367188,-0.848013162612915,0.42635810375213623,-0.2776033878326416,-12.491419792175293,32.51618957519531,-31.10740852355957,0.2430780827999115,-0.9246252775192261,-0.7692098617553711,-0.4411835,-2.2126875,9.786586,0.24069381,0.689384,10.016722,1
17,987.954833984375,-0.7069989442825317,0.870306670665741,-0.640192449092865,-12.455007553100586,32.865928649902344,-30.440622329711914,-0.5602189898490906,0.8097364902496338,2.6251726150512695,-0.09225151,-3.8952823,6.3683467,-0.6944823,-1.5401384,7.272087,1
17,988.0028076171875,-0.9251116514205933,0.07162532955408096,-0.5617625117301941,-13.702733039855957,34.48870849609375,-29.034570693969727,0.6499753594398499,-0.5326497554779053,2.047046184539795,-0.3407949,-3.5282576,9.729774,-0.20863473,0.37297988,10.346526,1
17,987.9729614257812,-0.5353584885597229,-1.1542267799377441,-0.6656256914138794,-16.187339782714844,35.11158752441406,-27.841325759887695,-1.1793304681777954,-0.15000057220458984,-1.233078956604004,1.1720194,-3.7332196,9.57354,1.0454443,-0.5910702,10.272337,1
