Timestamp,P,Gx,Gy,Gz,Mx,My,Mz,LiAx,LiAy,LiAz,Ax,Ay,Az,earthAx,earthAy,earthAz,Value,Type
0,988.0254516601562,2.3765320656821132E-4,0.001085583702661097,-4.4135667849332094E-5,-13.905345916748047,25.999677658081055,-39.95841979980469,-0.0071006715297698975,-0.0018932372331619263,0.061470985412597656,0.07503712,-0.15574251,9.762259,-0.005897767,-0.013192117,9.763779,0
0,988.0254516601562,2.3765320656821132E-4,0.001085583702661097,-4.4135667849332094E-5,-10.891436576843262,27.292898178100586,-38.34296417236328,1.0284032821655273,1.2353465557098389,-0.08028030395507812,0.0702104,-0.1366752,9.788292,-1.2635949,-0.97968066,9.658046,0
0,987.9795532226562,8.951274212449789E-4,-1.5181401977315545E-4,6.290978053584695E-4,-10.997308731079102,27.299070358276367,-38.250030517578125,1.0310306549072266,1.2331900596618652,-0.08925437927246094,0.07733321,-0.14144064,9.764616,-1.2556597,-0.977359,9.635444,0
0,987.9776000976562,3.629481652751565E-4,2.4758634390309453E-4,-3.0281394720077515E-4,-10.546698570251465,27.08907127380371,-38.6151123046875,1.019399881362915,1.2210274934768677,-0.10291862487792969,0.07967621,-0.14620598,9.771713,-1.2464393,-0.98892105,9.642745,0
0,988.0076904296875,9.708432480692863E-5,3.806709428317845E-4,2.300116466358304E-4,-10.80453109741211,27.11112403869629,-38.73064422607422,1.0074007511138916,1.2230943441390991,-0.1118001937866211,0.08440906,-0.14382155,9.7835455,-1.256904,-0.96479356,9.655825,0
0,988.042724609375,-3.0193699058145285E-4,0.0013127028942108154,-4.3558416655287147E-4,-11.403216361999512,27.60379981994629,-38.20531463623047,1.0242819786071777,1.2302836179733276,-0.07813453674316406,0.07958233,-0.148587,9.771706,-1.2486234,-0.97803414,9.6436,0
0,988.0684814453125,3.6430475302040577E-4,-4.1842355858534575E-4,9.724139817990363E-5,-11.175410270690918,27.87003517150879,-38.64091491699219,1.0171860456466675,1.2375553846359253,-0.07287788391113281,0.07714552,-0.15811892,9.771701,-1.2348682,-1.0041852,9.642811,0
0,988.0405883789062,7.642310811206698E-4,6.46766449790448E-4,-1.6888062236830592E-4,-10.60757064819336,27.822111129760742,-38.41767120361328,1.0101845264434814,1.2300044298171997,-0.07230949401855469,0.081878364,-0.14858462,9.762228,-1.2155983,-1.0035857,9.6356125,0
0,988.02783203125,-3.42644052579999E-5,2.472192863933742E-4,2.3078700178302824E-4,-10.327045440673828,27.716230392456055,-38.76264190673828,1.0177202224731445,1.2034555673599243,-0.11435699462890625,0.07453349,-0.13666399,9.788252,-1.2276691,-0.9826312,9.662369,0
0,988.0071411132812,-1.6666483134031296E-4,-1.5237746993079782E-4,-3.520422615110874E-5,-10.608953475952148,27.92655372619629,-39.039451599121094,1.020322561264038,1.2293281555175781,-0.09012794494628906,0.07448143,-0.16049542,9.778777,-1.2287811,-1.0022032,9.650984,0
0,988.0249633789062,-2.031142357736826E-4,-3.893935354426503E-5,1.1142549919895828E-4,-10.553191184997559,27.55738639831543,-39.103424072265625,1.0130858421325684,1.207619309425354,-0.08481788635253906,0.0768193,-0.13904472,9.781139,-1.2349824,-0.9606426,9.656495,0
0,988.0220947265625,3.300192765891552E-4,8.930847398005426E-4,-1.5467539196833968E-4,-10.970051765441895,27.219663619995117,-38.94244384765625,1.0060944557189941,1.2047672271728516,-0.0795125961303711,0.07437733,-0.14381005,9.771666,-1.2360922,-0.9593426,9.646936,0
0,987.99169921875,-4.684267332777381E-4,-4.385760403238237E-4,-2.1302548702806234E-5,-10.945133209228516,27.29524803161621,-38.257843017578125,1.0043628215789795,1.1972863674163818,-0.08848094940185547,0.07432529,-0.14380874,9.785864,-1.2230139,-0.974359,9.661483,0
0,988.0071411132812,1.978646032512188E-4,-0.001104447292163968,-6.868771160952747E-4,-10.630422592163086,27.37970542907715,-39.08112335205078,1.0021883249282837,1.1948027610778809,-0.08322429656982422,0.07188335,-0.14619069,9.76929,-1.2324755,-0.9582862,9.645116,0
0,988.0217895507812,8.641560561954975E-4,-3.9265083614736795E-5,9.112331317737699E-4,-10.937524795532227,27.302610397338867,-38.644371032714844,1.0139957666397095,1.2107551097869873,-0.0873260498046875,0.062271684,-0.1485727,9.774018,-1.2366959,-0.9603573,9.649128,0
0,988.02197265625,-8.663956541568041E-4,6.26443128567189E-4,-5.532892537303269E-4,-10.83165168762207,27.296445846557617,-38.73731231689453,0.9926265478134155,1.1982455253601074,-0.09147834777832031,0.08133882,-0.15095468,9.788218,-1.2158562,-0.9677247,9.6656,0
0,988.0115356445312,-7.327361963689327E-4,-8.383755921386182E-4,-9.525481727905571E-4,-10.743062973022461,27.642358779907227,-38.078338623046875,1.0097408294677734,1.185333013534546,-0.06721019744873047,0.06455749,-0.13903706,9.781111,-1.227134,-0.9478656,9.65864,0
0,988.0440063476562,-9.985504439100623E-4,-4.389832029119134E-4,1.1293040006421506E-4,-10.660181045532227,27.08787727355957,-38.135650634765625,0.983471691608429,1.1918777227401733,-0.0902872085571289,0.08362466,-0.15095212,9.783474,-1.2102592,-0.95886594,9.662401,0
0,988.0336303710938,-6.594310980290174E-5,2.267250674776733E-4,5.126192700117826E-4,-10.81809139251709,27.20378303527832,-38.733978271484375,0.9956902861595154,1.1985201835632324,-0.08026409149169922,0.07162315,-0.15810071,9.781101,-1.2162246,-0.9659009,9.658566,0
0,987.9932250976562,3.3453397918492556E-4,-4.392275004647672E-4,-1.9582570530474186E-5,-10.823200225830078,27.567655563354492,-38.60050964355469,0.9933500289916992,1.1814519166946411,-0.07969856262207031,0.07157108,-0.1414165,9.766893,-1.2113826,-0.9422545,9.646866,0
0,988.0081787109375,-6.443820893764496E-5,-5.724668735638261E-4,-4.188413149677217E-4,-10.853364944458008,27.750028610229492,-38.45256042480469,0.9803407192230225,1.1864147186279297,-0.0740823745727539,0.07868877,-0.14856507,9.781092,-1.205558,-0.9486434,9.661507,0
0,988.0081787109375,-6.443820893764496E-5,-5.724668735638261E-4,-4.188413149677217E-4,-10.98537826538086,28.311277389526367,-38.54204559326172,0.9891247153282166,1.170722484588623,-0.0643758773803711,0.07385689,-0.13664736,9.776353,-1.2049567,-0.93267095,9.658127,0
0,988.008544921875,-6.393669173121452E-5,-0.0012383379507809877,-5.517843528650701E-4,-10.997714042663574,27.77327537536621,-39.04755401611328,0.9913405179977417,1.1772388219833374,-0.12531089782714844,0.07619473,-0.14141263,9.826059,-1.2087892,-0.9368466,9.707647,0
0,988.0361938476562,3.360387636348605E-4,-1.7315588775090873E-4,-1.8937629647552967E-5,-11.065515518188477,28.2365779876709,-39.06421661376953,0.9890846610069275,1.188690423965454,-0.08214473724365234,0.0665831,-0.14379464,9.76214,-1.2070293,-0.93046665,9.643745,0
0,988.0009155273438,2.0338245667517185E-4,2.2623647237196565E-4,-1.5188060933724046E-4,-10.68618392944336,27.748876571655273,-39.01715087890625,0.9770293831825256,1.190487265586853,-0.10522174835205078,0.07848054,-0.15094323,9.783441,-1.1892415,-0.9485566,9.66595,0
1,988.0361328125,3.370422637090087E-4,-4.3963472126051784E-4,2.478082024026662E-4,-10.801051139831543,27.85212516784668,-39.159461975097656,0.9793704748153687,1.1589096784591675,-0.07149314880371094,0.07125875,-0.13664229,9.766865,-1.1907475,-0.92628425,9.650882,0
1,988.0238037109375,-1.9508798141032457E-4,-1.73400214407593E-4,-2.846085117198527E-4,-10.834694862365723,27.293493270874023,-38.58269500732422,0.9765121340751648,1.1508591175079346,-0.0897665023803711,0.06881684,-0.13664098,9.778696,-1.1977292,-0.91550565,9.663002,0
1,988.0238037109375,-4.60902345366776E-4,7.586238789372146E-4,-2.8439349262043834E-4,-10.411341667175293,27.162900924682617,-38.25537109375,0.9645363688468933,1.1667650938034058,-0.07022666931152344,0.080714285,-0.1580892,9.769222,-1.1765064,-0.9480109,9.653306,0
1,988.031005859375,7.22311669960618E-5,-5.730369593948126E-4,5.147691117599607E-4,-10.655072212219238,26.7240047454834,-38.26911926269531,0.9673091769218445,1.1495920419692993,-0.07916927337646484,0.08066228,-0.14140506,9.771585,-1.1807569,-0.91710037,9.657906,0
1,988.0057373046875,8.716804441064596E-4,-0.0011057502124458551,1.1551025090739131E-4,-10.913310050964355,27.22026252746582,-39.18217468261719,0.9553877115249634,1.1513676643371582,-0.0833282470703125,0.07822034,-0.15093683,9.788151,-1.185482,-0.9230852,9.673642,0
1,988.0335693359375,2.0639225840568542E-4,-3.068838850595057E-4,6.483569741249084E-4,-11.024834632873535,27.95859718322754,-39.054222106933594,0.9479789733886719,1.1483131647109985,-0.06851768493652344,0.085338,-0.14616902,9.773943,-1.1720654,-0.91711426,9.66146,0
1,988.0282592773438,4.7320988960564137E-4,9.250844595953822E-5,-4.166915896348655E-4,-11.12834358215332,28.230085372924805,-38.51526641845703,0.9647903442382812,1.1262813806533813,-0.044281959533691406,0.06855664,-0.14140119,9.77157,-1.187504,-0.901832,9.658406,0
1,988.005615234375,2.073957584798336E-4,-7.065206300467253E-4,-4.1647645412012935E-4,-11.027174949645996,28.113576889038086,-37.677207946777344,0.9661935567855835,1.1516072750091553,-0.07671546936035156,0.071490526,-0.1437978,9.769254,-1.1821178,-0.90051997,9.656902,0
1,988.02783203125,4.742132732644677E-4,0.0018233989831060171,0.0011816337937489152,-10.721893310546875,27.557065963745117,-38.46153259277344,0.9716609716415405,1.148599624633789,-0.06673049926757812,0.074460596,-0.15096186,9.766939,-1.169528,-0.9152492,9.65484,0
1,988.0130004882812,4.674611845985055E-4,4.929155693389475E-4,-2.8599740471690893E-4,-10.649090766906738,27.836240768432617,-38.95099639892578,0.940319299697876,1.1457258462905884,-0.06141853332519531,0.081626534,-0.15811156,9.759836,-1.1549263,-0.9272759,9.64844,0
1,988.048095703125,7.295481627807021E-4,-1.7218769062310457E-4,1.116641506087035E-4,-10.135246276855469,27.15852165222168,-39.0675048828125,0.9374637603759766,1.132663607597351,-0.07495880126953125,0.076842904,-0.1414286,9.785876,-1.14536,-0.92247236,9.676078,0
1,988.020263671875,-4.6883628237992525E-4,9.41222533583641E-5,-1.5463592717424035E-4,-10.575883865356445,27.641202926635742,-38.642921447753906,0.9541032314300537,1.1244148015975952,-0.055405616760253906,0.07444918,-0.1390452,9.77404,-1.1540672,-0.90145373,9.665001,0
1,988.0126953125,-7.034459849819541E-4,-5.982173606753349E-4,-4.979176446795464E-4,-11.028857231140137,27.58588218688965,-38.723854064941406,0.9562600255012512,1.1208354234695435,-0.059500694274902344,0.06966561,-0.14381166,9.762203,-1.1767378,-0.8725749,9.652982,0
1,988.0380249023438,-7.034094305709004E-4,-3.3190741669386625E-4,4.342036263551563E-4,-11.243945121765137,26.9631404876709,-38.80824279785156,0.9440551996231079,1.1174521446228027,-0.04941272735595703,0.06488198,-0.13427846,9.759836,-1.1715847,-0.8648257,9.651741,0
1,987.9948120117188,-1.7074088100343943E-4,6.756046786904335E-5,-2.3157038958743215E-4,-11.10097885131836,27.044336318969727,-38.83502197265625,0.941104531288147,1.1329096555709839,-0.0771474838256836,0.07204789,-0.15572788,9.774038,-1.1636957,-0.89042294,9.665104,0
1,988.0049438476562,-3.750971518456936E-5,-4.650832270272076E-4,-8.973286021500826E-4,-11.348838806152344,27.339075088500977,-38.89105987548828,0.9370357394218445,1.1232340335845947,-0.07149505615234375,0.06965417,-0.14857794,9.762202,-1.1685977,-0.8673581,9.654512,0
1,988.0049438476562,-3.750971518456936E-5,-4.650832270272076E-4,-8.973286021500826E-4,-11.348838806152344,27.339075088500977,-38.89105987548828,0.930642306804657,1.1118892431259155,-0.042740821838378906,0.07443017,-0.14619456,9.762202,-1.1492934,-0.87764275,9.655898,0
1,988.01513671875,-1.706309849396348E-4,2.0070053869858384E-4,-6.309971213340759E-4,-10.946517944335938,27.399690628051758,-38.879615783691406,0.93739914894104,1.1133358478546143,-0.06579303741455078,0.0696466,-0.15334432,9.769304,-1.1524284,-0.88201994,9.662382,0
1,988.0303344726562,2.288796240463853E-4,-3.319371899124235E-4,1.6796629643067718E-4,-11.163778305053711,28.250112533569336,-39.35780334472656,0.9202556014060974,1.1051329374313354,-0.06516075134277344,0.079202354,-0.14381109,9.766936,-1.1445966,-0.86248004,9.662609,0
1,988.0301513671875,-1.7055764328688383E-4,6.001625442877412E-4,1.6798198339529335E-4,-11.174186706542969,27.239370346069336,-39.143089294433594,0.9221401214599609,1.0871913433074951,-0.07397079467773438,0.07680869,-0.13189466,9.77167,-1.1352657,-0.8557757,9.668901,0
1,988.0049438476562,-3.0367891304194927E-4,-1.987911236938089E-4,-6.309498567134142E-4,-10.957715034484863,27.757673263549805,-38.436927795410156,0.9096524119377136,1.117214322090149,-0.044933319091796875,0.088754356,-0.15572728,9.769302,-1.1215506,-0.8831823,9.666101,0
1,988.0176391601562,-3.7289573810994625E-5,-3.319609386380762E-4,-2.3144471924751997E-4,-10.760807037353516,26.836091995239258,-38.87525939941406,0.9198328852653503,1.1120589971542358,-0.0676727294921875,0.072021276,-0.15811042,9.776403,-1.1385558,-0.87589186,9.671855,0
1,987.9948120117188,2.2906286176294088E-4,-1.988090225495398E-4,3.0120284645818174E-4,-11.129621505737305,27.228185653686523,-38.764381408691406,0.9215272665023804,1.0941486358642578,-0.057537078857421875,0.06962752,-0.15096058,9.771669,-1.1434906,-0.8545502,9.668264,0
1,987.9948120117188,2.2906286176294088E-4,-1.988090225495398E-4,3.0120284645818174E-4,-11.129621505737305,27.228185653686523,-38.764381408691406,0.9006680250167847,1.092274785041809,-0.06664562225341797,0.08157325,-0.1485772,9.776402,-1.1180055,-0.8652222,9.675134,0
1,988.0023803710938,-7.030059350654483E-4,0.0012659223284572363,-3.645711112767458E-4,-10.908445358276367,27.856821060180664,-38.989219665527344,0.8933534622192383,1.0745394229888916,-0.0660552978515625,0.08634925,-0.13666071,9.7740345,-1.1056578,-0.8539243,9.67503,0
2,988.0020751953125,-3.714312333613634E-5,-3.3198477467522025E-4,7.00723787304014E-4,-11.441694259643555,27.620878219604492,-38.89324188232422,0.9033709764480591,1.0883457660675049,-0.07457923889160156,0.08156562,-0.1557268,9.776402,-1.1289351,-0.84560186,9.675713,0
2,988.0020751953125,-3.714312333613634E-5,-3.3198477467522025E-4,7.00723787304014E-4,-11.441694259643555,27.620878219604492,-38.89324188232422,0.9064391851425171,1.0770691633224487,-0.06476879119873047,0.07200226,-0.14857687,9.783503,-1.1205025,-0.8514091,9.683169,0
2,988.01220703125,-0.0011023330735042691,9.995826985687017E-4,-9.819248225539923E-5,-10.928935050964355,27.67974281311035,-39.20664978027344,0.9080814123153687,1.0587722063064575,-0.040398597717285156,0.06721863,-0.13189389,9.762198,-1.114427,-0.83030754,9.663907,0
2,988.0274047851562,-3.0334899201989174E-4,-6.568676326423883E-5,-2.3133476497605443E-4,-11.07646656036377,27.594125747680664,-38.94795227050781,0.9145605564117432,1.0788683891296387,-0.06340312957763672,0.07677442,-0.15572657,9.774033,-1.1133611,-0.8463445,9.675019,0
2,988.0274047851562,-3.0334899201989174E-4,-6.568676326423883E-5,-2.3133476497605443E-4,-10.837059020996094,27.02817726135254,-39.028717041015625,0.901637852191925,1.0801223516464233,-0.048529624938964844,0.064821094,-0.14619334,9.776401,-1.1163793,-0.83541036,9.677776,0
2,988.0194702148438,9.616196621209383E-5,0.0013990446459501982,3.0131288804113865E-4,-10.558055877685547,26.92083168029785,-39.29637908935547,0.9029667973518372,1.0623801946640015,-0.06679821014404297,0.07198703,-0.1509598,9.776401,-1.0992838,-0.84835285,9.67873,0
2,987.9741821289062,9.619828779250383E-5,6.000910652801394E-4,3.0132854590192437E-4,-10.375389099121094,26.354284286499023,-39.137413024902344,0.8664536476135254,1.072898268699646,-0.051934242248535156,0.09110242,-0.15572627,9.771666,-1.0767063,-0.85471666,9.676166,0
2,988.0169067382812,-3.0323886312544346E-4,7.332429522648454E-4,-9.812950156629086E-5,-10.454385757446289,27.175561904907227,-38.711387634277344,0.9019757509231567,1.0356690883636475,-0.051219940185546875,0.057198822,-0.1342658,9.7645235,-1.0995595,-0.82395446,9.668468,0
2,988.02978515625,-7.021497003734112E-4,4.668356850743294E-4,5.679014138877392E-4,-10.807437896728516,27.214094161987305,-39.275108337402344,0.8747469186782837,1.0510873794555664,-0.055281639099121094,0.07390657,-0.14856501,9.778725,-1.0914671,-0.82984686,9.683545,0
2,988.0143432617188,-3.0595174757763743E-4,8.703029016032815E-4,3.82463913410902E-5,-11.031220436096191,27.320566177368164,-39.16987609863281,0.8721082210540771,1.0473618507385254,-0.06414031982421875,0.071495116,-0.1414146,9.776356,-1.0941875,-0.8116362,9.682263,0
2,988.0169067382812,-1.7258612206205726E-4,-9.939419105648994E-4,-9.482260793447495E-5,-11.34731674194336,27.340547561645508,-38.968360900878906,0.8836045861244202,1.0482043027877808,-0.03035259246826172,0.07386345,-0.15571378,9.771619,-1.099591,-0.81092733,9.677166,0
2,987.9940185546875,-9.713258477859199E-4,-1.9502805662341416E-4,1.7158236005343497E-4,-10.890755653381348,27.0305233001709,-38.94359588623047,0.8932293057441711,1.0523927211761475,-0.04833221435546875,0.0642823,-0.15332998,9.776352,-1.0959104,-0.8161128,9.68182,0
2,988.0119018554688,9.414536179974675E-5,7.125418051145971E-5,4.3798726983368397E-4,-10.933937072753906,26.93726921081543,-38.700531005859375,0.8914706707000732,1.0553594827651978,-0.05272865295410156,0.059480965,-0.14856286,9.76688,-1.0970362,-0.80339336,9.673088,0
2,988.0244750976562,2.275108709000051E-4,0.0010033261496573687,-4.940292565152049E-4,-10.596809387207031,26.726076126098633,-38.586151123046875,0.8690750598907471,1.0373927354812622,-0.05207061767578125,0.07140887,-0.15809543,9.778715,-1.078394,-0.8221651,9.685789,0
2,988.0194702148438,3.6087684566155076E-4,8.701344486325979E-4,-2.2762425942346454E-4,-10.822519302368164,27.305280685424805,-39.201141357421875,0.8707821369171143,1.057449460029602,-0.05615997314453125,0.06421763,-0.16047819,9.773978,-1.0824356,-0.81831676,9.680869,0
2,988.0369262695312,-5.710210534743965E-4,-4.6147877583280206E-4,-3.606933169066906E-4,-10.59569263458252,27.201749801635742,-39.46098327636719,0.8726043701171875,1.0299187898635864,-0.031864166259765625,0.068975896,-0.1533279,9.766875,-1.0662448,-0.8162856,9.675584,0
2,987.9965209960938,9.497633436694741E-5,-1.9519662600941956E-4,-7.600780809298158E-4,-10.7640962600708,27.83357048034668,-38.39422607421875,0.8649141192436218,1.0214182138442993,-0.04544639587402344,0.06417453,-0.14617749,9.776342,-1.0708292,-0.8005085,9.685808,0
2,987.9917602539062,-4.374476266093552E-4,-1.9523032824508846E-4,1.7211661906912923E-4,-10.877738952636719,27.3061580657959,-39.03871154785156,0.8478443622589111,1.0369617938995361,-0.04012870788574219,0.07132265,-0.15332682,9.762136,-1.0646515,-0.79974365,9.672376,0
2,988.0369262695312,7.611816399730742E-4,-8.610538206994534E-4,-8.930580224841833E-4,-10.865700721740723,27.212018966674805,-38.95807647705078,0.8542762398719788,1.0333384275436401,-0.07264328002929688,0.06652135,-0.15094294,9.781073,-1.0678566,-0.7936175,9.691565,0
2,988.0015869140625,9.559962200000882E-5,2.041760308202356E-4,5.717684980481863E-4,-10.608410835266113,27.558259963989258,-38.94099426269531,0.8654994964599609,1.000969409942627,-0.03413105010986328,0.06410986,-0.13425954,9.769234,-1.0535779,-0.7835194,9.681742,0
2,988.0469970703125,-5.699822795577347E-4,-6.21735816821456E-5,5.718575557693839E-4,-10.688685417175293,27.37763786315918,-38.76409149169922,0.848268985748291,1.0117107629776,-0.028802871704101562,0.06647819,-0.14617534,9.764498,-1.053487,-0.78750587,9.676839,0
2,988.0194702148438,3.62330989446491E-4,-4.616811638697982E-4,-4.933170275762677E-4,-11.025270462036133,27.22054100036621,-38.78001403808594,0.8500121831893921,1.0126336812973022,-0.023436546325683594,0.06406677,-0.15094139,9.750292,-1.0517347,-0.78729,9.66277,0
2,988.0166015625,-7.027248502708972E-4,-1.953990140464157E-4,-7.595437346026301E-4,-10.555150032043457,26.817861557006836,-38.751914978027344,0.82773756980896,1.0090821981430054,-0.07490348815917969,0.071214914,-0.14855759,9.785799,-1.0477974,-0.78153414,9.699502,0
2,988.0267944335938,3.62746708560735E-4,3.371990460436791E-4,-3.599809715524316E-4,-10.840645790100098,27.393522262573242,-38.972557067871094,0.8243921995162964,1.0051316022872925,-0.03636360168457031,0.073583245,-0.14855705,9.762125,-1.0413305,-0.7740358,9.676935,0
3,988.0117797851562,-3.0283554224297404E-4,4.703231679741293E-4,7.053716108202934E-4,-11.077010154724121,27.96241569519043,-39.04640197753906,0.8452478647232056,0.9777820110321045,-0.04523754119873047,0.05922228,-0.14378996,9.773959,-1.0530822,-0.7620951,9.68838,0
3,987.9765014648438,4.1894533205777407E-4,-4.2627216316759586E-5,9.768182644620538E-5,-10.831108093261719,26.928152084350586,-38.63885498046875,0.8324075937271118,0.997752845287323,-0.01618480682373047,0.07593006,-0.15093927,9.764487,-1.0433615,-0.75594866,9.680584,0
3,988.0343627929688,-5.129524506628513E-4,0.0010226026643067598,4.972448805347085E-4,-11.171578407287598,26.504262924194336,-39.02349090576172,0.8244704008102417,0.9797188639640808,-0.02503490447998047,0.071128696,-0.14617218,9.764486,-1.0420375,-0.7484485,9.681199,0
3,988.0115966796875,2.8620287775993347E-4,-4.4216850074008107E-4,-3.529788227751851E-5,-11.164649963378906,26.774003982543945,-38.80939483642578,0.816840410232544,0.980871856212616,-0.033924102783203125,0.075886905,-0.14855494,9.755015,-1.0351439,-0.74608934,9.672641,0
3,988.0117797851562,2.00947979465127E-5,-5.7536008534953E-4,-3.520894097164273E-5,-11.353404998779297,27.334653854370117,-38.659149169921875,0.8281598687171936,0.9868115186691284,-0.028600692749023438,0.06630579,-0.14378788,9.7644825,-1.039792,-0.7378241,9.68218,0
3,987.9937133789062,5.529343616217375E-4,9.039579890668392E-5,9.803811553865671E-5,-11.047718048095703,26.303937911987305,-38.64593505859375,0.8159803152084351,0.9780446290969849,-0.02801513671875,0.0734539,-0.1485539,9.762114,-1.0199735,-0.75500333,9.680701,0
3,987.9888916015625,-6.452794186770916E-4,-0.0011080593103542924,0.0014297065790742636,-10.729801177978516,26.91756248474121,-38.4998779296875,0.822409987449646,0.9837165474891663,-0.017925262451171875,0.06865257,-0.15331994,9.764478,-1.031296,-0.7429225,9.682858,0
3,987.9942626953125,-3.7875573616474867E-4,-1.7598739941604435E-4,-9.670473518781364E-4,-11.126875877380371,26.5989933013916,-39.34386444091797,0.8190678954124451,0.9707539677619934,-0.0410003662109375,0.066241115,-0.14855282,9.769211,-1.0281268,-0.7365816,9.688362,0
3,987.9992065429688,2.874494530260563E-4,9.026098996400833E-5,3.6471011117100716E-4,-11.865620613098145,26.907503128051758,-38.247283935546875,0.8190229535102844,0.95072340965271,-0.02587127685546875,0.068609476,-0.1390192,9.766842,-1.037997,-0.6979979,9.687652,0
3,987.9992065429688,2.874494530260563E-4,9.026098996400833E-5,3.6471011117100716E-4,-11.865620613098145,26.907503128051758,-38.247283935546875,0.8030507564544678,0.9726376533508301,-0.02556133270263672,0.073367715,-0.15093501,9.76684,-1.0207547,-0.7245282,9.687746,0
3,987.9887084960938,-5.112903891131282E-4,4.897010512650013E-4,-4.341484163887799E-4,-11.38538932800293,26.883420944213867,-38.8587646484375,0.8190097808837891,0.9641759395599365,-0.024964332580566406,0.06139663,-0.14616795,9.776306,-1.0157039,-0.7321273,9.697095,0
3,987.9992065429688,2.1549174562096596E-5,-4.296435508877039E-5,4.980461671948433E-4,-10.991083145141602,27.410879135131836,-39.258323669433594,0.8068186640739441,0.9557884931564331,-0.010219573974609375,0.06376499,-0.14616747,9.757366,-1.0101575,-0.725698,9.679079,0
3,988.0166015625,-2.443512203171849E-4,-0.0025730328634381294,-3.44074796885252E-5,-11.16464900970459,26.774003982543945,-38.80939483642578,0.7712022066116333,0.9422742128372192,-0.057037353515625,0.08764246,-0.14378364,9.783403,-0.9931857,-0.71791553,9.707807,0
3,988.0166015625,-2.443512203171849E-4,-0.0025730328634381294,-3.44074796885252E-5,-11.148588180541992,27.052579879760742,-39.059120178222656,0.8114755749702454,0.9531852006912231,-0.032837867736816406,0.061331958,-0.14139982,9.773933,-1.0112015,-0.70898163,9.696822,0
3,987.9993286132812,9.542779298499227E-4,-7.088553393259645E-4,2.319974300917238E-4,-11.502618789672852,26.721349716186523,-39.44709014892578,0.8033028841018677,0.9403748512268066,-0.032263755798339844,0.07325989,-0.14616586,9.764462,-1.0048397,-0.70089465,9.68868,0
3,987.9965209960938,0.0013539596693590283,6.226901896297932E-4,9.892851812765002E-5,-10.922304153442383,27.31734275817871,-39.41741943359375,0.7951263189315796,0.9510651230812073,-0.02219676971435547,0.06606865,-0.14854856,9.769196,-0.99300206,-0.72102326,9.693178,0
3,987.9863891601562,2.2587948478758335E-5,8.88972426764667E-4,-3.4140481147915125E-5,-11.294300079345703,27.600576400756836,-38.452857971191406,0.806541919708252,0.9282258152961731,-0.03582954406738281,0.061267316,-0.14854802,9.776295,-1.0037913,-0.70445526,9.700408,0
3,988.009033203125,-2.4352013133466244E-4,-8.421145030297339E-4,-9.66157007496804E-4,-11.099456787109375,27.045812606811523,-38.912330627441406,0.7798137068748474,0.933885395526886,-0.02579498291015625,0.07558513,-0.14616431,9.76919,-0.9830441,-0.7050507,9.695394,0
3,987.9788208007812,-1.1015438940376043E-4,-7.0899014826864E-4,-1.67120189871639E-4,-10.98803997039795,27.4138240814209,-39.412933349609375,0.7773609161376953,0.9255471229553223,-0.03475761413574219,0.0731737,-0.14854698,9.766821,-0.97709554,-0.7111815,9.693178,0
3,987.976318359375,6.890010554343462E-4,-0.0016411296091973782,9.928474901244044E-5,-11.561126708984375,27.719709396362305,-38.80363464355469,0.7698464393615723,0.9219207167625427,-0.0342254638671875,0.07554203,-0.13901342,9.764452,-0.9808561,-0.6825007,9.692351,0
3,987.9838256835938,1.5657697804272175E-4,-0.0011085314908996224,-3.0010001501068473E-4,-11.434626579284668,27.99652671813965,-39.378211975097656,0.7623393535614014,0.9037472605705261,-0.03840923309326172,0.07074064,-0.13424625,9.783388,-0.97755265,-0.68192804,9.711698,0
3,987.9965209960938,-6.421627476811409E-4,-8.422493701800704E-4,-4.3316889787092805E-4,-11.479628562927246,27.269662857055664,-39.48271179199219,0.7597920894622803,0.914452850818634,-0.04736804962158203,0.08505851,-0.14616217,9.785753,-0.9685473,-0.6874349,9.714882,0
3,987.996826171875,1.5699246432632208E-4,-0.0016412307741120458,-2.9992201598361135E-4,-11.288211822509766,27.60646629333496,-38.76207733154297,0.7525895237922668,0.9153801202774048,-0.013710975646972656,0.07786727,-0.15331145,9.76918,-0.96823686,-0.6941019,9.697795,0
3,987.9918212890625,-2.422734396532178E-4,-0.0015081064775586128,-5.661488394252956E-4,-11.069293022155762,26.863439559936523,-39.060272216796875,0.7548920512199402,0.9067173004150391,-0.022655487060546875,0.087405264,-0.14377783,9.762077,-0.95159906,-0.6851726,9.692857,0
3,987.981689453125,-1.0890769772231579E-4,-0.0019076141761615872,-2.9974390054121614E-4,-10.75167465209961,26.84493064880371,-39.339088439941406,0.7721028327941895,0.8982193470001221,-0.05060291290283203,0.07065445,-0.13901074,9.7833805,-0.95888686,-0.68433,9.7134495,0
4,987.9942626953125,-3.750158939510584E-4,-0.002972911112010479,-6.991286645643413E-4,-10.865157127380371,26.843732833862305,-38.859619140625,0.7602300047874451,0.913284420967102,-0.031152725219726562,0.06585312,-0.15092658,9.764441,-0.9650414,-0.6850132,9.693858,0
4,987.98388671875,-5.079660331830382E-4,-0.0017745235236361623,-1.6640778630971909E-4,-10.976139068603516,27.213773727416992,-38.63322448730469,0.7383102178573608,0.8811172246932983,-0.0211639404296875,0.09451032,-0.13900967,9.771541,-0.9327875,-0.67666847,9.704807,0
4,987.9992065429688,4.243473522365093E-4,-9.756096405908465E-4,-4.3263478437438607E-4,-11.355224609375,26.701047897338867,-39.00670623779297,0.7450076937675476,0.8963693976402283,-0.03009033203125,0.08014941,-0.1533088,9.771538,-0.95671505,-0.6694317,9.703064,0
4,988.0067749023438,-2.4123466573655605E-4,-4.4301158050075173E-4,7.658757967874408E-4,-10.725778579711914,27.290273666381836,-38.83024597167969,0.7420516014099121,0.8975322246551514,-0.03433704376220703,0.08037394,-0.15093102,9.773926,-0.9367846,-0.686623,9.706175,0
4,988.0166015625,4.174677305854857E-4,-8.375612087547779E-4,-3.0270603019744158E-5,-11.285604476928711,26.87135887145996,-38.642486572265625,0.748659610748291,0.8844340443611145,-0.029079437255859375,0.073188126,-0.13901426,9.769191,-0.9487227,-0.6532295,9.702319,0
4,987.9688720703125,6.827772012911737E-4,-4.3792411452159286E-4,1.0245601879432797E-4,-11.359354019165039,27.434682846069336,-39.04900360107422,0.7408771514892578,0.895064115524292,-0.014341354370117188,0.082731605,-0.15808006,9.771556,-0.9374015,-0.6761983,9.704596,0
4,987.9736938476562,-2.4917261907830834E-4,2.2784032626077533E-4,-1.6379315638914704E-4,-11.095571517944336,27.312604904174805,-38.543617248535156,0.7186708450317383,0.8911892175674438,-0.0043182373046875,0.08032563,-0.15092985,9.757351,-0.9301414,-0.6683705,9.6914015,0
4,987.9866943359375,-1.1585972970351577E-4,-7.042904035188258E-4,1.0258919792249799E-4,-10.956491470336914,27.127004623413086,-38.939109802246094,0.7302078008651733,0.8731887340545654,-0.02274036407470703,0.08986908,-0.15092944,9.769186,-0.91592705,-0.6720189,9.704499,0
4,988.0020751953125,1.7453625332564116E-5,-3.048417856916785E-4,1.0265590390190482E-4,-10.818090438842773,27.203779220581055,-38.733978271484375,0.7463853359222412,0.8740680813789368,-0.026935577392578125,0.06595397,-0.14854582,9.766817,-0.9495091,-0.6386926,9.70091,0
4,987.9992065429688,-3.818647819571197E-4,-8.374987519346178E-4,9.016700205393136E-4,-11.550067901611328,27.25581169128418,-38.5472412109375,0.7438107132911682,0.8798230886459351,-0.02643871307373047,0.07549745,-0.15331192,9.773917,-0.9298398,-0.65621495,9.708937,0
4,988.0120849609375,-1.1539383558556437E-4,-0.001103839953429997,-6.961587932892144E-4,-11.094890594482422,27.050230026245117,-39.14424133300781,0.721413791179657,0.8664260506629944,-0.016409873962402344,0.07787126,-0.14616169,9.762079,-0.92813975,-0.6353471,9.69848,0
4,987.9940185546875,-5.147120100446045E-4,3.608721890486777E-4,-1.6346044139936566E-4,-11.355224609375,26.701047897338867,-39.0067138671875,0.7326448559761047,0.852730393409729,0.01729583740234375,0.06829557,-0.14139481,9.762078,-0.9239296,-0.63684964,9.698639,0
4,987.9940185546875,-0.0010471886489540339,-3.0494265956804156E-4,5.023957928642631E-4,-11.177774429321289,27.604719161987305,-39.08692932128906,0.7156985998153687,0.8635979890823364,-0.02484607696533203,0.08261877,-0.1485442,9.766811,-0.91487265,-0.63667935,9.704491,0
4,988.0042114257812,0.001083493698388338,-0.0012370734475553036,-5.628012004308403E-4,-11.398651123046875,27.608217239379883,-38.437225341796875,0.7177863717079163,0.8552943468093872,-0.014896392822265625,0.087382525,-0.14139397,9.75734,-0.89635426,-0.6387675,9.696487,0
4,988.0169067382812,4.083648673258722E-4,-7.302535232156515E-4,-1.5902623999863863E-5,-10.950403213500977,27.132898330688477,-39.248329162597656,0.7141642570495605,0.8372138738632202,-0.028528213500976562,0.08019668,-0.13901033,9.771543,-0.9016063,-0.6297559,9.710783,0
4,988.0169067382812,-3.902720636688173E-4,2.018016530200839E-4,-4.152432084083557E-4,-10.968528747558594,27.221139907836914,-39.019744873046875,0.7188642621040344,0.8313663601875305,-0.04664897918701172,0.068231076,-0.1413932,9.78101,-0.90950644,-0.62798977,9.719633,0
4,988.0169067382812,-3.902720636688173E-4,2.018016530200839E-4,-4.152432084083557E-4,-10.968528747558594,27.221139907836914,-39.019744873046875,0.7220441699028015,0.8438660502433777,-0.022716522216796875,0.07538468,-0.15330915,9.769173,-0.9087443,-0.6259965,9.708152,0
4,987.9715576171875,-1.2380111729726195E-4,3.3493441878817976E-4,3.83770908229053E-4,-11.309679985046387,27.05962562561035,-38.80375671386719,0.7091178894042969,0.8451333045959473,0.0014791488647460938,0.07536852,-0.1413924,9.759702,-0.8980114,-0.6153361,9.700124,0
4,987.9715576171875,5.421438836492598E-4,6.012250669300556E-4,-2.8195232152938843E-4,-11.107908248901367,26.774599075317383,-39.04912567138672,0.7108203172683716,0.8465643525123596,-0.040645599365234375,0.082522154,-0.16045819,9.783373,-0.8976551,-0.6298281,9.723399,0
4,987.991943359375,5.422995309345424E-4,-6.458983261836693E-5,-2.818856155499816E-4,-11.399492263793945,27.344369888305664,-38.960548400878906,0.6690905690193176,0.8382120132446289,-0.006970405578613281,0.099235356,-0.15807451,9.766801,-0.8705577,-0.63501465,9.708971,0
4,988.0096435546875,-9.221273357979953E-4,6.851761281723157E-5,9.166690288111567E-4,-10.904858589172363,27.49147605895996,-39.045379638671875,0.6884512305259705,0.8370674252510071,-0.025130271911621094,0.08248991,-0.15569086,9.769166,-0.8751467,-0.6312257,9.710991,0
4,988.0196533203125,1.0133546311408281E-5,0.0010005980730056763,-9.474757825955749E-4,-11.138072967529297,26.956968307495117,-38.90117645263672,0.6912764310836792,0.8257794380187988,-0.0011796951293945312,0.082473814,-0.1461574,9.766798,-0.87786096,-0.60986954,9.70958,0
4,988.0196533203125,1.0133546311408281E-5,0.0010005980730056763,-9.474757825955749E-4,-11.183616638183594,26.5983943939209,-39.10413360595703,0.6783740520477295,0.798390805721283,-0.01486968994140625,0.080067754,-0.13662384,9.771531,-0.876605,-0.5938603,9.715287,0
4,988.0020751953125,4.0976254967972636E-4,0.0010005728108808398,3.841702709905803E-4,-11.061140060424805,26.50251579284668,-39.348350524902344,0.6894181966781616,0.8235225677490234,-0.00963592529296875,0.08244157,-0.14615656,9.771529,-0.87078315,-0.60408187,9.715337,0
5,987.9996337890625,5.430761375464499E-4,6.010737852193415E-4,5.173948593437672E-4,-11.348295211791992,26.97078514099121,-38.79261016845703,0.6858702898025513,0.8199082612991333,-0.02331066131591797,0.07764566,-0.14615615,9.76916,-0.87509906,-0.5938703,9.713157,0
5,988.0020751953125,1.0599324014037848E-5,0.0013999961083754897,6.506192730739713E-4,-10.833035469055176,27.4008846282959,-39.35907745361328,0.6851145029067993,0.8144440054893494,-0.013036727905273438,0.07045981,-0.15330558,9.75969,-0.86587954,-0.61407125,9.703257,0
5,988.0022583007812,1.4391291188076138E-4,0.001799444667994976,-1.5103723853826523E-5,-11.263455390930176,27.15582847595215,-39.20143127441406,0.6913502216339111,0.8063422441482544,-0.01728534698486328,0.06805384,-0.14615543,9.76679,-0.87273765,-0.5900264,9.711149,0
5,988.0049438476562,2.772260340861976E-4,4.6784020378254354E-4,-1.4819519128650427E-4,-11.470634460449219,27.17258644104004,-39.247467041015625,0.6798502802848816,0.8000958561897278,-0.017035484313964844,0.07764009,-0.15092255,9.762058,-0.8639339,-0.5892259,9.707369,0
5,987.9973754882812,0.0010763290338218212,0.0020657102577388287,-5.476026562973857E-4,-11.252939224243164,27.06022071838379,-39.043487548828125,0.666837751865387,0.8110700249671936,-0.02602863311767578,0.07766938,-0.15330662,9.776264,-0.8589568,-0.5938789,9.72185,0
5,988.0224609375,0.0010705795139074326,4.8080121632665396E-4,7.866841042414308E-4,-11.295141220092773,27.336729049682617,-38.97618103027344,0.6584554314613342,0.8027162551879883,0.00762939453125,0.08721626,-0.14615639,9.754959,-0.8413293,-0.586485,9.702391,0
5,988.004638671875,5.336652975529432E-6,0.0016792190726846457,-1.2254691682755947E-5,-10.947497367858887,27.02992820739746,-38.70386505126953,0.6437470316886902,0.7968509793281555,-0.015260696411132812,0.094373286,-0.14615615,9.762058,-0.82675797,-0.5917749,9.710526,0
5,988.0049438476562,-6.603303481824696E-4,0.0014128834009170532,1.2095586862415075E-4,-11.041736602783203,27.416173934936523,-39.32781219482422,0.6611034870147705,0.7905568480491638,-8.230209350585938E-4,0.077631295,-0.14615585,9.759691,-0.8374034,-0.58597267,9.707437,0
5,987.9949951171875,5.581474397331476E-6,0.0011465478455647826,-5.447815638035536E-4,-11.388976097106934,27.248762130737305,-38.80260467529297,0.6576679348945618,0.7823148965835571,-0.005068778991699219,0.08478832,-0.13662241,9.77626,-0.83344764,-0.56513774,9.725592,0
5,988.0225219726562,2.720195916481316E-4,0.0010133699979633093,1.2106058420613408E-4,-11.104022979736328,27.041391372680664,-38.68041229248047,0.6448497772216797,0.7783427834510803,-0.037703514099121094,0.087165534,-0.14615525,9.7809925,-0.8264191,-0.5773539,9.730388,0
5,988.0301513671875,-9.262797539122403E-4,0.0011465080315247178,2.5427088257856667E-4,-11.078968048095703,27.222890853881836,-38.69489288330078,0.6414875984191895,0.7843685746192932,-0.018286705017089844,0.08476296,-0.15092142,9.7691555,-0.8236821,-0.57987213,9.718627,0
5,988.0003051757812,4.0542188799008727E-4,0.0010133303003385663,2.5432324036955833E-4,-11.024429321289062,27.48438835144043,-38.256690979003906,0.6478326320648193,0.77620929479599,-0.022562026977539062,0.07758057,-0.15568767,9.788093,-0.82824284,-0.58273095,9.737118,0
5,988.0377197265625,6.0703023336827755E-6,7.46994570363313E-4,-9.440458379685879E-4,-11.358811378479004,27.066389083862305,-38.95055389404297,0.6302105188369751,0.7677105665206909,0.011063575744628906,0.08234772,-0.14853753,9.759685,-0.82227606,-0.5629283,9.710162,0
5,988.0101318359375,6.19242200627923E-6,7.469747215509415E-4,-4.113618051633239E-4,-11.338322639465332,27.243467330932617,-38.733116149902344,0.641399621963501,0.7738238573074341,0.0020465850830078125,0.07755518,-0.15092053,9.757317,-0.8227304,-0.5622893,9.707779,0
5,987.9898681640625,6.314658094197512E-6,7.4695487273857E-4,-2.78151361271739E-4,-11.177666664123535,26.49837303161621,-38.71427917480469,0.6190347671508789,0.755787193775177,-0.01168060302734375,0.087102085,-0.14377041,9.773886,-0.813187,-0.5498381,9.72592,0
5,988.0178833007812,-1.2672069715335965E-4,6.137770251370966E-4,-4.11256798543036E-4,-11.594633102416992,27.266996383666992,-38.92594909667969,0.625373363494873,0.7615330219268799,-0.006470680236816406,0.08469951,-0.14853664,9.773884,-0.812951,-0.55059206,9.7259445,0
5,988.0099487304688,-9.255459881387651E-4,7.469151169061661E-4,-8.106783498078585E-4,-11.262614250183105,27.419675827026367,-38.67810821533203,0.6127626895904541,0.7530258893966675,0.0034551620483398438,0.096636355,-0.14138646,9.771516,-0.7859559,-0.5578273,9.725377,0
5,987.9667358398438,-3.9279210614040494E-4,7.468953263014555E-4,3.877956769429147E-4,-11.037308692932129,27.31467628479004,-38.86065673828125,0.6189185976982117,0.759041428565979,0.008656501770019531,0.08467418,-0.1556858,9.766781,-0.801798,-0.55834067,9.719403,0
5,988.005126953125,-2.5951192947104573E-4,0.001013191300444305,-2.779416972771287E-4,-11.329191207885742,27.252309799194336,-39.19694519042969,0.6204128265380859,0.7411207556724548,-0.014553070068359375,0.07510185,-0.14138584,9.769146,-0.8029747,-0.5396668,9.722441,0
5,988.005615234375,6.9261877797544E-6,0.0011463294504210353,-1.1573429219424725E-5,-11.175166130065918,26.86960792541504,-38.96733856201172,0.6076594591140747,0.7613856196403503,0.014303207397460938,0.087038696,-0.15330191,9.754942,-0.7950205,-0.54342264,9.708893,0
5,987.9902954101562,-1.2610963312909007E-4,8.79993720445782E-4,-8.1046880222857E-4,-11.406719207763672,26.442495346069336,-39.599517822265625,0.6141566634178162,0.7438691854476929,0.0052509307861328125,0.082246214,-0.1461518,9.766777,-0.79540753,-0.53245354,9.721208,0
5,988.04345703125,8.061181870289147E-4,2.1418418327812105E-4,-2.7778465300798416E-4,-11.534305572509766,26.902250289916992,-39.221839904785156,0.6113278865814209,0.7451342940330505,-0.013271331787109375,0.0846234,-0.16045113,9.785713,-0.79402137,-0.54659206,9.739807,0
5,988.0280151367188,-2.5902310153469443E-4,8.100639388430864E-5,2.548996126279235E-4,-11.466205596923828,27.071088790893555,-38.780311584472656,0.5989246964454651,0.7366759777069092,0.006092071533203125,0.091780424,-0.15330102,9.771509,-0.7820876,-0.53578454,9.727056,0
5,987.9827880859375,-5.252162809483707E-4,8.098650141619146E-5,1.2179417535662651E-4,-11.542594909667969,27.157255172729492,-38.23468780517578,0.6147865056991577,0.7378474473953247,-0.007664680480957031,0.072648525,-0.14615084,9.757305,-0.78858376,-0.5269754,9.712471,0
5,988.018310546875,1.406955416314304E-4,0.0010130723239853978,-8.102590218186378E-4,-11.234109878540039,27.129911422729492,-38.04967498779297,0.597095251083374,0.7202346920967102,0.0069732666015625,0.08697528,-0.13661744,9.766772,-0.7624313,-0.52941597,9.723914,0
6,987.9904174804688,1.4081777771934867E-4,0.0011462103575468063,-1.1258991435170174E-5,-10.982769966125488,27.576173782348633,-38.422447204589844,0.5988801717758179,0.7217926979064941,-0.0068302154541015625,0.07262316,-0.14376698,9.776241,-0.7791142,-0.5246739,9.732346,0
6,988.0330810546875,5.404138355515897E-4,6.135587464086711E-4,2.551092766225338E-4,-10.9930419921875,26.671354293823242,-38.90681457519531,0.6006260514259338,0.7135021090507507,-0.001674652099609375,0.075000405,-0.14138336,9.778606,-0.7716055,-0.5219116,9.735451,0
6,988.0286254882812,-1.2525374768301845E-4,4.803809570148587E-4,-1.1154217645525932E-5,-11.012552261352539,26.86403465270996,-39.30000305175781,0.59316486120224,0.7194637060165405,-0.001277923583984375,0.08215743,-0.1556827,9.7762375,-0.7682587,-0.52999836,9.733175,0
6,987.9881591796875,-6.917208665981889E-4,-4.4905045069754124E-4,9.238177444785833E-4,-11.115518569946289,26.76723289489746,-38.66259765625,0.5846602320671082,0.7207076549530029,-9.851455688476562E-4,0.08083713,-0.14617585,9.769234,-0.76159346,-0.519324,9.727081,0
6,988.0209350585938,1.0349566582590342E-4,8.418707875534892E-5,1.2327107833698392E-4,-10.982525825500488,26.575746536254883,-38.748870849609375,0.5963613986968994,0.7075565457344055,-6.008148193359375E-4,0.07608771,-0.14855982,9.769237,-0.76286113,-0.5181971,9.727043,0
6,988.0056762695312,-6.979878526180983E-4,-7.149073644541204E-4,1.1674396228045225E-4,-11.09793472290039,27.047285079956055,-38.98963165283203,0.5796818733215332,0.713289201259613,-0.019164085388183594,0.08806765,-0.14141078,9.7810755,-0.75089586,-0.5065535,9.740469,0
6,987.992919921875,4.998474614694715E-4,-5.81654254347086E-4,9.154401486739516E-4,-11.344953536987305,27.605863571166992,-38.52234649658203,0.5722668170928955,0.700744092464447,0.02379322052001953,0.09526777,-0.15332796,9.757406,-0.740712,-0.51907766,9.717071,0
6,987.992919921875,4.998474614694715E-4,-5.81654254347086E-4,9.154401486739516E-4,-11.597677230834961,27.26405143737793,-38.771339416503906,0.5696434378623962,0.6972070932388306,0.019431114196777344,0.08095881,-0.14856209,9.762144,-0.7553936,-0.49988204,9.7215,0
6,987.9857788085938,-3.3078016713261604E-5,-3.1529073021374643E-4,-1.6791163943707943E-5,-11.383867263793945,26.8848934173584,-38.936065673828125,0.5810989737510681,0.6985189914703369,0.005612373352050781,0.07381958,-0.14617957,9.76688,-0.7566616,-0.4955225,9.726288,0
6,988.0162353515625,-3.33710340783E-5,8.423079270869493E-5,-1.6916892491281033E-5,-11.262614250183105,27.4196720123291,-38.67810821533203,0.5641261339187622,0.6905567049980164,-0.00823974609375,0.085799485,-0.1461804,9.773985,-0.73857194,-0.50262415,9.734548,0
6,988.0110473632812,9.94937727227807E-5,-3.1519547337666154E-4,-4.1651620995253325E-4,-11.04423713684082,27.04493522644043,-39.07475280761719,0.5791760683059692,0.6997793912887573,0.03965282440185547,0.06671071,-0.15094765,9.745581,-0.75019705,-0.5013324,9.705124,0
6,988.0162353515625,9.920017328113317E-5,-4.883197834715247E-5,5.154635291546583E-4,-11.459277153015137,27.3408260345459,-38.56620788574219,0.5589617490768433,0.6788946986198425,0.011415481567382812,0.09780985,-0.15333162,9.764523,-0.72554576,-0.50164187,9.726301,0
6,988.0288696289062,-8.331986609846354E-4,-0.0013803639449179173,-1.504519023001194E-4,-11.173345565795898,27.503217697143555,-38.61976623535156,0.5802819728851318,0.66114342212677,0.007039070129394531,0.054822028,-0.12711634,9.7668915,-0.7510913,-0.46917552,9.727643,0
6,988.0084838867188,3.6492967046797276E-4,-5.813685129396617E-4,1.1573830852285028E-4,-11.07081413269043,26.861967086791992,-38.98297119140625,0.5493787527084351,0.6817737221717834,0.007355690002441406,0.10265052,-0.15094991,9.766895,-0.7100101,-0.50156593,9.729846,0
6,988.01611328125,-3.4837634302675724E-5,-0.0012471105437725782,2.48770578764379E-4,-11.166171073913574,26.77252769470215,-38.732086181640625,0.5330010652542114,0.6784906983375549,-0.006539344787597656,0.09073144,-0.14618404,9.776366,-0.7203638,-0.4878543,9.739098,0
6,988.0263061523438,2.3118499666452408E-4,-0.0016465367516502738,-2.8398691210895777E-4,-11.55851936340332,26.984601974487305,-38.68403625488281,0.568770706653595,0.6606423258781433,0.02695178985595703,0.07642245,-0.1318851,9.759798,-0.7303568,-0.45889658,9.722801,0
6,987.9987182617188,-9.675296023488045E-4,-8.475415525026619E-4,1.1536118108779192E-4,-10.999672889709473,27.033750534057617,-38.696044921875,0.5477304458618164,0.6668659448623657,-0.005890846252441406,0.08840242,-0.14856885,9.783473,-0.7143954,-0.48928946,9.7466135,0
6,988.0014038085938,-1.6887555830180645E-4,-0.002045915462076664,3.815513919107616E-4,-10.984452247619629,27.04848289489746,-39.46910095214844,0.5501226186752319,0.6583799719810486,0.02286529541015625,0.08604288,-0.1461863,9.752702,-0.7092752,-0.48397326,9.716309,0
6,988.0165405273438,-9.681163355708122E-4,-4.4797250302508473E-4,1.151099568232894E-4,-10.653955459594727,27.199682235717773,-39.143951416015625,0.5382401347160339,0.6692772507667542,0.004253387451171875,0.102802694,-0.15572007,9.766909,-0.6885344,-0.5029712,9.731406,0
6,988.0419921875,-1.694618258625269E-4,-0.001246872590854764,-6.839636480435729E-4,-10.946954727172852,26.66164207458496,-38.60540771484375,0.5501035451889038,0.6518914699554443,0.02350902557373047,0.08132398,-0.13665475,9.7621765,-0.7080936,-0.46510136,9.726647,0
6,988.0014038085938,3.628763370215893E-4,-7.141932146623731E-4,3.8117438089102507E-4,-11.115518569946289,26.76723289489746,-38.66259765625,0.5623893737792969,0.6437050104141235,0.009613037109375,0.07657462,-0.13903873,9.769281,-0.7130799,-0.46028906,9.733637,0
6,988.0390014648438,-7.026803214102983E-4,-0.0016462511848658323,7.805224740877748E-4,-10.920919418334961,27.2128963470459,-38.79564666748047,0.5316982269287109,0.6639354228973389,-0.00428009033203125,0.08616465,-0.15810563,9.78112,-0.7023994,-0.48605016,9.745418,0
6,988.01416015625,-7.029733387753367E-4,-0.001513045746833086,3.8092295289970934E-4,-11.311202049255371,27.058149337768555,-38.72644805908203,0.5390658378601074,0.6462968587875366,0.019700050354003906,0.093364775,-0.15333988,9.76692,-0.69690806,-0.47053894,9.732311,0
6,988.0090942382812,-5.70109230466187E-4,-0.001646155957132578,-8.176241535693407E-4,-10.983749389648438,27.206411361694336,-38.24669647216797,0.5180202722549438,0.6335596442222595,0.010514259338378906,0.1005649,-0.14142425,9.769289,-0.6803882,-0.46420974,9.736051,0
6,988.0369262695312,-3.777048550546169E-5,-0.0021787399891763926,-0.0012172238202765584,-11.108450889587402,27.142892837524414,-39.14757537841797,0.5394792556762695,0.6731081008911133,0.00136566162109375,0.088645816,-0.17002429,9.766926,-0.69446963,-0.4884329,9.731844,0
7,988.036865234375,3.6141020245850086E-4,2.181504969485104E-4,2.473879139870405E-4,-11.136114120483398,27.696500778198242,-39.25269317626953,0.5176575183868408,0.6509283781051636,-0.012513160705566406,0.098235875,-0.1581086,9.781132,-0.67363906,-0.48628193,9.74756,0
7,988.0322265625,9.480083826929331E-5,2.181980526074767E-4,-1.5221151988953352E-4,-10.825126647949219,28.040388107299805,-39.32073211669922,0.5342916250228882,0.618949294090271,0.03515338897705078,0.07197738,-0.14142649,9.7598295,-0.6940819,-0.45307195,9.725864,0
7,988.0296630859375,-5.712822312489152E-4,-7.138599175959826E-4,-2.8549518901854753E-4,-10.91399097442627,27.482637405395508,-38.58154296875,0.5082152485847473,0.6300595998764038,-0.0071659088134765625,0.10501155,-0.14379938,9.773994,-0.66149634,-0.4621194,9.742256,0
7,988.0269165039062,-3.894348628818989E-5,-0.0011132860090583563,-1.9305036403238773E-5,-10.990242004394531,27.674726486206055,-38.735008239746094,0.5212412476539612,0.612436830997467,0.03582763671875,0.08783013,-0.1342551,9.755014,-0.67391604,-0.44043782,9.723062,0
7,988.0068359375,-5.652420222759247E-4,-0.0013806300703436136,7.823569467291236E-4,-11.059319496154785,27.13612174987793,-39.00077819824219,0.5291387438774109,0.6425808072090149,-0.015985488891601562,0.08782381,-0.1509379,9.778687,-0.6767792,-0.4561601,9.746133,0
7,988.0194702148438,1.0277354158461094E-4,-0.0019136234186589718,-4.1511061135679483E-4,-11.032742500305176,27.319093704223633,-39.092567443847656,0.5225838422775269,0.6249960064888,0.02689647674560547,0.094987184,-0.15808763,9.762115,-0.6684135,-0.46146685,9.730014,0
7,988.0145874023438,-5.629551596939564E-4,-0.002446264959871769,-1.4876853674650192E-4,-11.067472457885742,27.497045516967773,-38.71270751953125,0.5205230712890625,0.6454219222068787,0.0035161972045898438,0.085421205,-0.1533209,9.7668495,-0.67265224,-0.45310587,9.7347,0
7,988.02978515625,-3.0262279324233532E-5,-9.81537508778274E-4,1.1757353786379099E-4,-11.025814056396484,27.588834762573242,-38.87846374511719,0.503996729850769,0.6089536547660828,-0.005664825439453125,0.10214421,-0.15093742,9.783419,-0.65238625,-0.45629746,9.752675,0
7,988.017333984375,-4.2967498302459717E-4,-5.820735823363066E-4,-9.476639097556472E-4,-10.920621871948242,27.84503746032715,-38.37077331542969,0.5107414722442627,0.620389997959137,0.04199028015136719,0.08779845,-0.15093733,9.745543,-0.66253155,-0.44537592,9.71436,0
7,988.0146484375,7.688074838370085E-4,3.5002216463908553E-4,3.8394180592149496E-4,-11.048505783081055,27.67265510559082,-38.41796875,0.5036954879760742,0.6079122424125671,-3.3855438232421875E-4,0.09974158,-0.14855386,9.773949,-0.64766544,-0.4477608,9.743826,0
7,988.0177001953125,3.6939489655196667E-4,-5.820934311486781E-4,2.5080994237214327E-4,-10.994670867919922,27.77622413635254,-39.20216369628906,0.5062557458877563,0.6237174272537231,0.018888473510742188,0.09973523,-0.15570353,9.771581,-0.6503028,-0.44649655,9.741444,0
7,988.0354614257812,-4.2949127964675426E-4,-0.001114735146984458,6.503101903945208E-4,-10.983068466186523,26.94403648376465,-38.847320556640625,0.49944034218788147,0.6346986293792725,0.004965782165527344,0.097338974,-0.16761978,9.778682,-0.651077,-0.45844394,9.748136,0
7,988.0374145507812,-2.962718717753887E-4,-4.4895539758726954E-4,-1.4861125964671373E-4,-10.687599182128906,26.64105796813965,-38.56718444824219,0.4969613254070282,0.6026890873908997,0.010010719299316406,0.087773025,-0.14140357,9.764479,-0.65167296,-0.42284688,9.734951,0
7,988.0099487304688,-9.62000573053956E-4,-4.4896535109728575E-4,1.17730931378901E-4,-11.11369800567627,27.400846481323242,-38.315032958984375,0.47976991534233093,0.5949143171310425,-0.008614540100097656,0.102106094,-0.14140339,9.773947,-0.6317148,-0.43017954,9.745581,0
7,988.022705078125,-1.6299181152135134E-4,0.001282077981159091,-1.5400932170450687E-5,-10.728280067443848,26.919034957885742,-38.577186584472656,0.47752752900123596,0.5873388648033142,0.0011205673217773438,0.10687959,-0.14378656,9.783415,-0.6250069,-0.432789,9.755479,0
7,988.0401000976562,-2.3073155898600817E-4,0.001712026889435947,6.018108106218278E-4,-10.742382049560547,27.379987716674805,-38.67897033691406,0.48402535915374756,0.6033049821853638,-0.00328826904296875,0.09731364,-0.15570273,9.783413,-0.63282895,-0.44065696,9.754703,0
7,988.0401000976562,-2.3073155898600817E-4,0.001712026889435947,6.018108106218278E-4,-11.072336196899414,26.86049461364746,-38.905662536621094,0.48561495542526245,0.5810807347297668,0.025450706481933594,0.097307265,-0.15093602,9.766844,-0.63301224,-0.4238245,9.738745,0
7,988.0252685546875,-2.306703245267272E-4,0.0023778066970407963,6.92052417434752E-5,-10.798986434936523,27.48530387878418,-39.13831329345703,0.4872633218765259,0.5828319787979126,0.025773048400878906,0.09252116,-0.1390195,9.762108,-0.62386477,-0.41810852,9.734608,0
7,988.0076904296875,1.688644988462329E-4,0.0018451649229973555,3.355473163537681E-4,-10.714581489562988,26.932294845581055,-39.272926330566406,0.47942206263542175,0.5800002813339233,0.016613006591796875,0.09968448,-0.14378591,9.762107,-0.6157156,-0.42122662,9.735131,0
7,988.0177612304688,1.6892561689019203E-4,0.0011793654412031174,3.3557350980117917E-4,-10.709717750549316,27.568849563598633,-39.07997131347656,0.48154178261756897,0.5912500023841858,0.016904830932617188,0.08772862,-0.15570207,9.773943,-0.62570786,-0.4306367,9.746023,0
7,988.0100708007812,-2.3048673756420612E-4,5.135657265782356E-4,6.019157590344548E-4,-10.8799409866333,27.567052841186523,-38.36077880859375,0.483598530292511,0.593170166015625,0.012454986572265625,0.085332364,-0.16523506,9.773943,-0.6304566,-0.43249696,9.7457695,0
7,988.01025390625,7.016801973804832E-4,7.798716542311013E-4,2.0246818894520402E-4,-11.19742202758789,27.69148063659668,-38.781044006347656,0.4806211292743683,0.575772225856781,-0.02511119842529297,0.09010583,-0.1509353,9.797613,-0.6231675,-0.4134938,9.770609,0
7,988.0177612304688,-4.966802662238479E-4,9.13019641302526E-4,-6.382149877026677E-5,-10.835238456726074,27.661787033081055,-38.68115234375,0.4776722192764282,0.5867847800254822,0.022546768188476562,0.08053988,-0.15570168,9.764473,-0.62337524,-0.41861606,9.737135,0
7,988.0305786132812,-6.297770887613297E-4,0.0014456415083259344,-4.632691270671785E-4,-10.842305183410645,27.286130905151367,-38.19617462158203,0.46520909667015076,0.5693599581718445,0.008646011352539062,0.10443255,-0.16285135,9.766839,-0.6012688,-0.42696938,9.740881,0
8,988.0354614257812,-3.6340008955448866E-4,0.0013124736724421382,6.938882870599627E-5,-10.83165168762207,27.296445846557617,-38.7373046875,0.4529504179954529,0.5809407234191895,0.04679298400878906,0.104426205,-0.14616825,9.750268,-0.5915489,-0.40948537,9.7253475,0
8,988.0126953125,7.019244367256761E-4,0.001179305836558342,7.35204666852951E-4,-10.532159805297852,27.36617088317871,-38.78753662109375,0.4738598167896271,0.5735005140304565,0.0044689178466796875,0.085300684,-0.16285102,9.776306,-0.60857177,-0.42489326,9.7498255,0
8,988.0177612304688,8.35143611766398E-4,0.0015787696465849876,6.020729779265821E-4,-11.037010192871094,27.946805953979492,-38.43578338623047,0.45623454451560974,0.5752725005149841,0.0331878662109375,0.09246403,-0.15331776,9.757368,-0.5986958,-0.40828735,9.732069,0
8,988.032958984375,-2.3005891125649214E-4,0.002244549570605159,0.001134730875492096,-10.757762908935547,26.83903694152832,-39.029869079589844,0.4579685926437378,0.5628840327262878,0.02406024932861328,0.08255094,-0.16045891,9.759704,-0.60670304,-0.41001296,9.73387,0
8,988.0054931640625,4.3620599899441004E-4,0.003043420147150755,0.0010017766617238522,-10.704203605651855,26.730772018432617,-38.41590881347656,0.4494881331920624,0.5652630925178528,0.03383922576904297,0.09448022,-0.1509253,9.764437,-0.5891391,-0.40252692,9.73996,0
8,988.0355834960938,0.0012363241985440254,0.003451517317444086,0.001272191759198904,-11.003802299499512,27.767385482788086,-38.73833465576172,0.4748696982860565,0.5622208118438721,0.010478973388671875,0.068170965,-0.15330808,9.764435,-0.6106796,-0.39558375,9.738734,0
8,988.0106201171875,-2.2821774473413825E-4,0.002253063954412937,8.728016400709748E-4,-10.943473815917969,27.40263557434082,-39.03422546386719,0.45218345522880554,0.545665979385376,0.015504837036132812,0.084879994,-0.14377452,9.769167,-0.58877695,-0.3894478,9.745059,0
8,988.0054931640625,0.001636188942939043,0.002918821992352605,3.4025366767309606E-4,-10.752899169921875,27.4755916595459,-38.8369140625,0.44474828243255615,0.571796715259552,0.006285667419433594,0.08485973,-0.1652235,9.776266,-0.58979666,-0.41200513,9.751527,0
8,988.0128784179688,7.042788784019649E-4,7.882631616666913E-4,3.4033748670481145E-4,-10.426286697387695,27.36000633239746,-38.88047790527344,0.4416053593158722,0.5402098298072815,0.011316299438476562,0.08483946,-0.1461568,9.766796,-0.5821816,-0.38820186,9.743164,0
8,988.031005859375,-2.2763124434277415E-4,0.0022529687266796827,-5.905254511162639E-5,-10.85434341430664,27.380266189575195,-38.27680969238281,0.4527297616004944,0.5425873398780823,0.011590003967285156,0.08242929,-0.15092279,9.766794,-0.58808976,-0.3816304,9.743118,0
8,988.0157470703125,0.001237301854416728,0.0023860950022935867,7.41890980862081E-5,-11.259026527404785,27.0543270111084,-38.73426818847656,0.4207885265350342,0.54020094871521,0.026065826416015625,0.09913826,-0.14615579,9.759691,-0.5593805,-0.39114073,9.737396,0
8,988.0233154296875,9.711812599562109E-4,0.0025192212779074907,-1.9204296404495835E-4,-10.861678123474121,27.584733963012695,-39.28843688964844,0.4416087567806244,0.551782488822937,0.04528045654296875,0.08477861,-0.15807165,9.752586,-0.57232624,-0.3965746,9.729353,0
8,987.988037109375,4.3894065311178565E-4,0.0019865259528160095,4.739143478218466E-4,-10.75442123413086,27.474119186401367,-38.759605407714844,0.4418778121471405,0.5382379293441772,0.012541770935058594,0.079978496,-0.15807118,9.7715225,-0.57431406,-0.39412308,9.748276,0
8,987.988037109375,4.3894065311178565E-4,0.0019865259528160095,4.739143478218466E-4,-10.75442123413086,27.474119186401367,-38.759605407714844,0.4451969861984253,0.5319502949714661,0.022149085998535156,0.07756832,-0.14615436,9.762053,-0.5661397,-0.38411647,9.739454,0
8,988.0584716796875,3.966217627748847E-5,0.0013207043521106243,0.0010066299000754952,-10.6762113571167,28.02155876159668,-38.95765686035156,0.433151513338089,0.5246589779853821,0.008177757263183594,0.08232784,-0.14615376,9.77862,-0.5610126,-0.3818969,9.756483,0
8,988.0308837890625,4.393315757624805E-4,0.0013206726871430874,7.460813503712416E-5,-10.675668716430664,27.653268814086914,-38.85920715332031,0.4205614924430847,0.5363948941230774,0.03211021423339844,0.08708733,-0.15091981,9.759682,-0.54956305,-0.3907195,9.737919,0
8,988.0308837890625,5.726850940845907E-4,0.0015869567869231105,7.469189586117864E-5,-10.488679885864258,28.09156608581543,-38.60572814941406,0.43221160769462585,0.5244045853614807,0.013410568237304688,0.07272768,-0.14615281,9.766781,-0.5648851,-0.3722257,9.744691,0
8,987.9956665039062,5.728804389946163E-4,0.0015869251219555736,-5.8382225688546896E-5,-10.909967422485352,27.855344772338867,-38.91191101074219,0.4197040796279907,0.5314046144485474,0.018396377563476562,0.084656894,-0.16521852,9.771513,-0.5567962,-0.39097407,9.749566,0
8,988.0157470703125,5.730761331506073E-4,0.0014537355164065957,3.411753859836608E-4,-10.875375747680664,27.57147789001465,-38.592689514160156,0.43619242310523987,0.5190883874893188,0.018639564514160156,0.07268709,-0.1413853,9.766777,-0.55712736,-0.36349308,9.745394,0
8,988.0033569335938,-9.251810843124986E-5,9.210719726979733E-4,6.075750570744276E-4,-10.730344772338867,27.285852432250977,-38.59832763671875,0.4098241627216339,0.5163193345069885,0.018873214721679688,0.07983655,-0.14853455,9.773877,-0.5488419,-0.37181827,9.752828,0
8,988.02587890625,-2.2548047127202153E-4,0.0011873561888933182,-5.8130885008722544E-5,-10.580747604370117,27.00465202331543,-38.83588409423828,0.41666534543037415,0.518487811088562,0.023847579956054688,0.07981622,-0.14853404,9.764406,-0.543935,-0.37140286,9.743626,0
8,988.0236206054688,4.4050480937585235E-4,9.210084099322557E-4,7.511087460443377E-5,-10.625856399536133,27.384130477905273,-39.31304168701172,0.4190801978111267,0.5157910585403442,0.033537864685058594,0.07740599,-0.1461503,9.766771,-0.54500777,-0.36307794,9.746195,0
8,988.0260620117188,-9.193149162456393E-5,7.878188043832779E-4,6.078264559619129E-4,-10.84811782836914,27.4920711517334,-39.28510284423828,0.41696566343307495,0.5131517648696899,0.01954174041748047,0.07738575,-0.15091638,9.766769,-0.5430164,-0.3666324,9.746244,0
8,988.0311889648438,4.142191028222442E-5,-1.11605622805655E-5,-5.905111902393401E-4,-10.952169418334961,28.13184928894043,-38.8446044921875,0.4097285568714142,0.5202116370201111,0.02449321746826172,0.07736546,-0.16283228,9.771502,-0.5403248,-0.38130897,9.750766,0
8,988.0286254882812,1.7497088992968202E-4,0.0011871973983943462,-3.2402778742834926E-4,-10.83553695678711,27.02964973449707,-39.10601806640625,0.4105892777442932,0.497211754322052,0.024835586547851562,0.07256538,-0.15091531,9.762032,-0.54207915,-0.356808,9.741877,0
9,988.0286254882812,1.7497088992968202E-4,0.0011871973983943462,-3.2402778742834926E-4,-10.67026138305664,27.921537399291992,-38.56780242919922,0.414448082447052,0.4864279627799988,-0.008213043212890625,0.07493499,-0.13899846,9.780968,-0.5316912,-0.35236916,9.761425,0
9,988.0060424804688,7.07798229996115E-4,2.5506000383757055E-4,3.418457054067403E-4,-10.804232597351074,27.743261337280273,-38.30577087402344,0.3975459635257721,0.498379111289978,0.05354785919189453,0.07969451,-0.15329765,9.766762,-0.5297412,-0.36205935,9.747193,0
9,988.0361938476562,1.753619289956987E-4,0.0010539758950471878,-5.7544384617358446E-5,-10.999672889709473,27.033750534057617,-38.696044921875,0.4047200083732605,0.5052037835121155,0.02535724639892578,0.08206412,-0.15568043,9.769127,-0.52985984,-0.35641885,9.749823,0
9,988.0464477539062,4.239944973960519E-5,9.2078628949821E-4,-4.5693438732996583E-4,-11.014073371887207,26.86256217956543,-39.222694396972656,0.391897052526474,0.493013858795166,0.015993118286132812,0.08552402,-0.15570666,9.776327,-0.5246477,-0.35493165,9.7574005,0
9,988.0233154296875,3.74316587112844E-5,5.221189931035042E-4,0.0010056740138679743,-10.879122734069824,27.410600662231445,-39.660484313964844,0.39898720383644104,0.49481630325317383,0.020949363708496094,0.07359731,-0.14140756,9.752657,-0.52357733,-0.34053522,9.733942,0
9,988.0034790039062,-8.981142309494317E-4,9.134576539508998E-4,2.0170316565781832E-4,-11.11744499206543,27.239965438842773,-39.38282012939453,0.40145885944366455,0.48774194717407227,0.030605316162109375,0.080789864,-0.14855798,9.762129,-0.52002853,-0.34290612,9.743704,0
9,988.0263671875,4.332448006607592E-4,-1.8612146959640086E-5,-3.310229512862861E-4,-10.620746612548828,27.0202579498291,-39.446502685546875,0.38978683948516846,0.48480790853500366,0.030805587768554688,0.0832026,-0.14855851,9.769232,-0.510645,-0.34849614,9.751138,0
9,988.0439453125,-0.0010317126289010048,2.477394591551274E-4,-3.3111724769696593E-4,-10.827085494995117,27.300859451293945,-38.96922302246094,0.38222476840019226,0.48198336362838745,0.0357666015625,0.08083552,-0.15570892,9.762133,-0.5129676,-0.3499756,9.743941,0
9,988.0037841796875,-2.329848357476294E-4,0.0018456705147400498,4.677360993809998E-4,-10.844667434692383,27.020811080932617,-38.642189025878906,0.3943023085594177,0.47027134895324707,0.035945892333984375,0.073688686,-0.14379312,9.750298,-0.514244,-0.332617,9.732387,0
9,988.0084228515625,8.320584311150014E-4,6.472846725955606E-4,-1.9814801635220647E-4,-11.023204803466797,26.853723526000977,-38.758872985839844,0.39210429787635803,0.46792811155319214,0.0266571044921875,0.073711514,-0.14379366,9.7692375,-0.51500237,-0.3274948,9.751494,0
9,988.0365600585938,5.655225249938667E-4,2.478466194588691E-4,-5.977160180918872E-4,-11.056818962097168,27.507360458374023,-39.25384521484375,0.3709006607532501,0.47003328800201416,0.026841163635253906,0.083293915,-0.14856072,9.764505,-0.5022799,-0.33615595,9.747271,0
9,988.0210571289062,-3.668029676191509E-4,2.478823880665004E-4,-6.517866859212518E-5,-10.983473777770996,27.418241500854492,-39.64485168457031,0.3873783349990845,0.4773366451263428,0.03177070617675781,0.07614705,-0.14379479,9.766875,-0.50403833,-0.32901937,9.749668,0
9,988.0361938476562,6.982404156588018E-4,0.0011800237698480487,4.6735882642678916E-4,-11.076329231262207,27.700040817260742,-39.64703369140625,0.3660041391849518,0.47961294651031494,0.0035486221313476562,0.08572948,-0.16286151,9.785814,-0.49900907,-0.34848964,9.768603,0
9,988.0341186523438,-1.009273692034185E-4,5.142696900293231E-4,-6.536726141348481E-5,-11.053773880004883,27.510305404663086,-39.40845489501953,0.37333545088768005,0.4725721478462219,0.03213024139404297,0.08097252,-0.15094574,9.764511,-0.49665388,-0.33285373,9.747694,0
9,988.0086669921875,0.0010972742456942797,7.806212524883449E-4,-4.649353795684874E-4,-11.310628890991211,27.90212059020996,-39.699737548828125,0.36619359254837036,0.4750034213066101,0.02757740020751953,0.08338526,-0.15332957,9.769249,-0.49372715,-0.33249557,9.752658,0
9,988.038818359375,-1.0136730270460248E-4,9.138149325735867E-4,-5.981876165606081E-4,-11.053232192993164,27.14201545715332,-39.30999755859375,0.37810438871383667,0.4676421880722046,0.03250408172607422,0.076238364,-0.14618029,9.773985,-0.49573553,-0.32146192,9.7575035,0
9,988.0238037109375,-2.347456174902618E-4,6.475347909145057E-4,4.66981582576409E-4,-11.286689758300781,27.607938766479492,-38.839385986328125,0.37096187472343445,0.45997679233551025,0.01849842071533203,0.07626122,-0.15333067,9.762151,-0.4927035,-0.32828504,9.745686,0
9,988.04150390625,-0.0010339131113141775,0.001180202467367053,-5.98376092966646E-4,-10.856706619262695,27.11494255065918,-38.72283172607422,0.3448747396469116,0.43849045038223267,0.03761005401611328,0.09062344,-0.13664828,9.771622,-0.46834987,-0.320235,9.7565155,0
9,988.0365600585938,3.11304465867579E-5,6.476062699221075E-4,2.0047713769599795E-4,-10.736837387084961,27.75417137145996,-39.086639404296875,0.35704442858695984,0.450303316116333,0.03304862976074219,0.071527064,-0.14618202,9.762156,-0.49192286,-0.3128366,9.746092,0
9,988.0263671875,3.091018879786134E-5,1.150102325482294E-4,-8.648805669508874E-4,-10.998991966247559,26.771379470825195,-39.296669006347656,0.36940237879753113,0.46247512102127075,0.014263153076171875,0.0739398,-0.1533324,9.7739935,-0.48612267,-0.3250006,9.75797,0
9,988.0187377929688,8.296380401588976E-4,1.1504594294819981E-4,-3.323433338664472E-4,-10.939451217651367,27.77535057067871,-39.364593505859375,0.3571060597896576,0.4506857991218567,0.033390045166015625,0.078742445,-0.1557162,9.766893,-0.48111114,-0.32364452,9.751226,0
9,988.0338134765625,3.047025529667735E-5,0.0017129770712926984,-1.992796896956861E-4,-11.061385154724121,27.502939224243164,-39.02192687988281,0.36020517349243164,0.447873592376709,0.04301738739013672,0.08115518,-0.14856692,9.769262,-0.4709129,-0.32051617,9.754109,0
9,988.0266723632812,-7.686975295655429E-4,-2.8435647254809737E-4,4.664157168008387E-4,-10.699201583862305,27.47324562072754,-38.922035217285156,0.34399622678756714,0.4503374695777893,0.03369903564453125,0.0883477,-0.15095077,9.762163,-0.45972604,-0.32636794,9.7474375,0
9,988.0191040039062,5.626619677059352E-4,-6.837945547886193E-4,4.6632144949398935E-4,-10.445934295654297,27.446775436401367,-38.57459259033203,0.3472701609134674,0.4432934522628784,0.01962757110595703,0.09076044,-0.15095131,9.766901,-0.45925945,-0.3202135,9.752432,0
9,988.0244140625,2.9810064006596804E-5,-1.5112698019947857E-4,3.330691542942077E-4,-10.773387908935547,27.298513412475586,-39.054344177246094,0.35930335521698,0.44091111421585083,0.010329246520996094,0.083613545,-0.13903554,9.771637,-0.4584509,-0.30723667,9.757389,0
10,988.021240234375,2.959058037959039E-4,0.0011804881505668163,6.665900582447648E-5,-10.634987831115723,27.375288009643555,-38.849212646484375,0.35165947675704956,0.4479546546936035,0.029462814331054688,0.07168692,-0.15810226,9.76217,-0.47549778,-0.31435373,9.747061,0
10,988.04150390625,-5.032617482356727E-4,0.0022457872983068228,6.656470941379666E-5,-10.875673294067383,26.9393367767334,-39.01756286621094,0.33060982823371887,0.4315173029899597,0.039076805114746094,0.09799862,-0.15095304,9.774008,-0.4440555,-0.31782782,9.760399,0
10,988.0238037109375,-2.373860334046185E-4,-1.5098416770342737E-4,5.990078207105398E-4,-10.947604179382324,28.136274337768555,-39.076515197753906,0.3421836495399475,0.42795658111572266,0.029793739318847656,0.08380881,-0.15095665,9.76692,-0.454319,-0.31242165,9.752873,0
10,988.0594482421875,2.955323434434831E-4,-1.6358811990357935E-4,-2.0494265481829643E-4,-11.250139236450195,28.063589096069336,-38.871681213378906,0.33554980158805847,0.4256242513656616,0.03466987609863281,0.08157617,-0.15096055,9.771668,-0.45768058,-0.30522698,9.75768,0
10,988.0594482421875,2.955323434434831E-4,-1.6358811990357935E-4,-2.0494265481829643E-4,-11.250139236450195,28.063589096069336,-38.871681213378906,0.34919875860214233,0.41479653120040894,0.03473472595214844,0.07921928,-0.14142825,9.769304,-0.4533938,-0.29540002,9.755652,0
10,988.033935546875,-5.040341638959944E-4,-8.292773272842169E-4,6.110797403380275E-5,-10.952468872070312,27.49971580505371,-39.26947021484375,0.3325193226337433,0.4459075331687927,0.020691871643066406,0.0959816,-0.15096219,9.783511,-0.44132626,-0.30394775,9.770463,0
10,988.0394287109375,2.827955177053809E-5,0.0014344592345878482,3.272874455433339E-4,-11.190791130065918,27.329084396362305,-38.99181365966797,0.32519686222076416,0.41984856128692627,0.020859718322753906,0.09123477,-0.14381312,9.781147,-0.43793377,-0.297916,9.768281,0
10,988.0110473632812,4.274354432709515E-4,0.0019671425689011812,-7.381122559309006E-4,-11.054455757141113,27.772680282592773,-38.807823181152344,0.32777220010757446,0.43206775188446045,0.021005630493164062,0.0840981,-0.15573029,9.774048,-0.44350967,-0.30829695,9.760716,0
10,988.0288696289062,4.2711751302704215E-4,7.68772850278765E-4,-7.24589335732162E-5,-10.626835823059082,27.01436424255371,-39.13728332519531,0.3209396004676819,0.4252781867980957,0.03061389923095703,0.09369069,-0.16049768,9.766949,-0.4348326,-0.31175387,9.754052,0
10,988.0139770507812,6.93115231115371E-4,7.688244222663343E-4,-7.259543053805828E-5,-10.619905471801758,27.284101486206055,-38.923187255859375,0.3284263610839844,0.42775362730026245,0.016556739807128906,0.08416408,-0.1533487,9.76932,-0.43674502,-0.30397022,9.756384,0
10,988.033935546875,2.7007597964257002E-5,0.0011683498742058873,1.9358412828296423E-4,-10.81102466583252,27.579435348510742,-39.21894836425781,0.3258553147315979,0.4112745523452759,0.011984825134277344,0.07941729,-0.15334947,9.781158,-0.4396731,-0.30006272,9.768189,0
10,988.033935546875,1.598472590558231E-4,0.0017010333249345422,-7.286795880645514E-5,-11.269542694091797,27.149934768676758,-38.8922119140625,0.3188180923461914,0.41836750507354736,0.0358123779296875,0.08900988,-0.15573354,9.778794,-0.43427175,-0.295,9.766339,0
10,988.0292358398438,-3.7310266634449363E-4,0.0010352953104302287,-7.387939840555191E-4,-10.703767776489258,27.46882438659668,-38.69011688232422,0.31666556000709534,0.4162648916244507,0.021749496459960938,0.08426309,-0.15096779,9.766962,-0.42794615,-0.29640836,9.754611,0
10,988.031982421875,4.255266976542771E-4,0.0015679786447435617,6.001733709126711E-5,-11.122011184692383,27.23554801940918,-39.150909423828125,0.3046565651893616,0.4137634038925171,0.03611564636230469,0.09385574,-0.14381881,9.764597,-0.41791132,-0.28445816,9.753015,0
10,988.0117797851562,-2.4058116832748055E-4,0.0011685562785714865,5.925127188675106E-4,-11.145406723022461,27.161439895629883,-39.912811279296875,0.3122430443763733,0.40720850229263306,0.02677154541015625,0.0843291,-0.14143635,9.766968,-0.42406538,-0.27783582,9.755191,0
10,988.0516967773438,9.575222502462566E-4,9.022922604344785E-4,-6.060450104996562E-4,-10.684524536132812,27.856264114379883,-39.79353332519531,0.31020376086235046,0.41487735509872437,0.03636741638183594,0.086752,-0.15335353,9.771706,-0.4170907,-0.29775152,9.75985,0
10,988.0244140625,2.914146170951426E-4,5.02870068885386E-4,-2.0670751109719276E-4,-10.874396324157715,27.94123649597168,-38.76844787597656,0.3084142208099365,0.4031824469566345,0.03649139404296875,0.0820052,-0.14858781,9.7669735,-0.41967058,-0.2872693,9.755199,0
10,988.0291748046875,1.9655091455206275E-4,3.5181682324036956E-4,-1.219497062265873E-5,-10.68205451965332,27.015241622924805,-38.97486114501953,0.3059273958206177,0.4002918601036072,0.027192115783691406,0.091597795,-0.1509719,9.769344,-0.41019297,-0.28954166,9.75803,0
10,988.0316772460938,3.293908084742725E-4,-3.139212494716048E-4,0.0010529322316870093,-10.41218376159668,26.8990535736084,-38.77869415283203,0.3144936263561249,0.38965529203414917,0.031991004943847656,0.082071215,-0.13667299,9.766979,-0.410538,-0.27466318,9.755784,0
10,988.0092163085938,5.95388759393245E-4,2.1876225946471095E-4,-2.7878349646925926E-4,-10.798442840576172,27.117013931274414,-39.03986358642578,0.2983444631099701,0.386285662651062,0.022672653198242188,0.09166378,-0.13667382,9.774084,-0.4026562,-0.2719978,9.763386,0
10,988.0421752929688,-7.071899017319083E-5,-0.0011127656325697899,-1.2603937648236752E-5,-10.837738990783691,27.29054832458496,-38.42809295654297,0.3072476089000702,0.3900529444217682,0.02272319793701172,0.072577596,-0.14144124,9.781189,-0.42095244,-0.26860785,9.769727,0
10,988.0218505859375,-2.0419497741386294E-4,-0.0015121877659112215,-2.7905625756829977E-4,-10.945134162902832,27.29524803161621,-38.257843017578125,0.30142512917518616,0.392530620098114,0.02281665802001953,0.086950004,-0.13905872,9.764622,-0.40518022,-0.26725495,9.75393,0
10,988.0422973632812,-6.039868458174169E-4,-0.0015121360775083303,-9.449822828173637E-4,-10.830809593200684,27.56028938293457,-38.2139892578125,0.29914572834968567,0.3894583582878113,0.02297687530517578,0.098932534,-0.15335919,9.764625,-0.39453122,-0.28548634,9.754182,0
10,988.0397338867188,6.148457759991288E-5,3.5212666261941195E-4,-6.788027239963412E-4,-11.102065086364746,27.780916213989258,-39.03192138671875,0.2931655943393707,0.3883516788482666,0.018314361572265625,0.089405894,-0.15097667,9.7693615,-0.40209278,-0.27681115,9.758737,0
11,988.0346069335938,3.274821792729199E-4,2.1902035223320127E-4,5.194825353100896E-4,-10.854748725891113,27.85447120666504,-39.0743408203125,0.30605846643447876,0.3814423084259033,0.01842021942138672,0.077489436,-0.14621098,9.778833,-0.40806356,-0.2704421,9.767974,0
11,988.00927734375,-3.386258031241596E-4,-3.1355980900116265E-4,-1.4644348993897438E-4,-10.902358055114746,27.86271095275879,-39.298439025878906,0.29463452100753784,0.3885701596736908,0.03748321533203125,0.089471936,-0.1533616,9.767001,-0.3989425,-0.27469,9.756598,0
11,988.031982421875,-3.3894384978339076E-4,4.8543961020186543E-4,-1.4657981228083372E-4,-11.122554779052734,27.60384178161621,-39.249359130859375,0.2882724702358246,0.367767870426178,0.05178546905517578,0.08711502,-0.13429625,9.757534,-0.39279675,-0.2544369,9.74762,0
11,988.0296020507812,-4.68202808406204E-4,2.1849077893421054E-4,-1.17509625852108E-5,-10.893661499023438,27.13349723815918,-39.488059997558594,0.29181969165802,0.39329397678375244,0.03312873840332031,0.08348435,-0.14856549,9.764523,-0.3981299,-0.2663959,9.754255,0
11,988.0296020507812,-4.68202808406204E-4,2.1849077893421054E-4,-1.17509625852108E-5,-10.893661499023438,27.13349723815918,-39.488059997558594,0.28137844800949097,0.3777602016925812,0.028459548950195312,0.088246435,-0.1414152,9.762154,-0.39057595,-0.2572589,9.752371,0
11,988.0596313476562,-6.115209544077516E-5,3.5041867522522807E-4,1.2465415056794882E-4,-11.094050407409668,27.314077377319336,-38.62091827392578,0.2848767042160034,0.3758699297904968,0.033288002014160156,0.09061861,-0.15571438,9.773989,-0.39161006,-0.27032968,9.76406,0
11,988.017333984375,3.3849262399598956E-4,-0.0011143465526401997,-4.0790450293570757E-4,-11.241987228393555,27.702669143676758,-39.159751892089844,0.2882935404777527,0.38800549507141113,0.03812694549560547,0.08582103,-0.15809728,9.766886,-0.3942811,-0.26985243,9.756851,0
11,988.0448608398438,-4.602840053848922E-4,-4.9110676627606153E-5,3.911166568286717E-4,-11.07883071899414,27.32880973815918,-39.39397430419922,0.29125696420669556,0.3761780858039856,0.033516883850097656,0.08341336,-0.15094699,9.771618,-0.39040893,-0.26316255,9.761792,0
11,988.0427856445312,-4.5994174433872104E-4,-1.8232417642138898E-4,0.0010570528684183955,-11.026655197143555,27.324987411499023,-39.40178680419922,0.28930410742759705,0.358817458152771,0.03839683532714844,0.08100572,-0.13664685,9.766883,-0.3870703,-0.24518792,9.757423,0
11,988.0427856445312,-4.5994174433872104E-4,-1.8232417642138898E-4,0.0010570528684183955,-11.026655197143555,27.324987411499023,-39.40178680419922,0.27902668714523315,0.3579535484313965,0.033710479736328125,0.09054759,-0.14379628,9.759779,-0.37739837,-0.2552144,9.750621,0
11,988.014404296875,7.386506185866892E-4,-7.149837329052389E-4,2.5817862479016185E-4,-10.76523494720459,26.937589645385742,-39.34241485595703,0.2680586278438568,0.365403950214386,0.029077529907226562,0.09769952,-0.14141257,9.769246,-0.37010938,-0.25109744,9.760516,0
11,988.0326538085938,-6.01257779635489E-5,-4.922179505228996E-5,-4.0753756184130907E-4,-10.902251243591309,26.75636863708496,-38.92578125,0.28097134828567505,0.3494264483451843,0.024435997009277344,0.08573228,-0.1414121,9.785814,-0.37545118,-0.25346988,9.776723,0
11,988.0498657226562,8.72151053044945E-4,-3.1556544126942754E-4,-2.7430651243776083E-4,-10.245983123779297,26.52814292907715,-39.16752624511719,0.26549071073532104,0.36186859011650085,0.029254913330078125,0.09527415,-0.15094478,9.77161,-0.3701257,-0.25954014,9.76278,0
11,988.017333984375,-1.9294145749881864E-4,-5.81909145694226E-4,1.2524065095931292E-4,-10.982632637023926,27.682092666625977,-39.12152862548828,0.273276686668396,0.3641654849052429,0.029376983642578125,0.09047657,-0.16286077,9.766874,-0.37638095,-0.26665437,9.757755,0
11,988.0071411132812,-7.254023221321404E-4,7.496425532735884E-4,7.911037537269294E-4,-10.83249282836914,27.0325984954834,-39.26062774658203,0.2524375021457672,0.36716192960739136,0.03421592712402344,0.10001844,-0.15094389,9.764505,-0.36391273,-0.25348592,9.756111,0
11,988.0372314453125,6.063483306206763E-4,4.8329884884878993E-4,-7.770722731947899E-6,-10.921356201171875,26.4748477935791,-38.52143859863281,0.2657162845134735,0.3508974313735962,0.020096778869628906,0.092830986,-0.14379366,9.77634,-0.36481175,-0.24651653,9.76792,0
11,988.01220703125,-5.9270241763442755E-5,-8.48308322019875E-4,3.9177649887278676E-4,-10.684555053710938,26.644006729125977,-38.72179412841797,0.2739233076572418,0.3535504639148712,0.0485992431640625,0.090423346,-0.14379324,9.771604,-0.36510703,-0.24388155,9.763212,0
11,988.0327758789062,7.422984344884753E-5,-5.820479709655046E-4,-5.401824600994587E-4,-11.072879791259766,27.22878074645996,-39.004112243652344,0.272959440946579,0.34697091579437256,0.02500152587890625,0.08323586,-0.14617606,9.77397,-0.37257856,-0.2404351,9.765355,0
11,988.0276489257812,-3.250730806030333E-4,0.001148977316915989,-4.069511778652668E-4,-10.895589828491211,27.606229782104492,-40.208282470703125,0.2710631787776947,0.3590315580368042,0.04405689239501953,0.08321813,-0.15332545,9.759764,-0.36908224,-0.24967054,9.751147,0
11,988.0377807617188,-4.5806000707671046E-4,-4.9471796955913305E-5,-2.737198956310749E-4,-11.790860176086426,27.926198959350586,-39.08824920654297,0.2646251320838928,0.3570095896720886,0.0252227783203125,0.083200395,-0.15094174,9.759764,-0.37247637,-0.23630595,9.751315,0
11,988.0377807617188,-4.5806000707671046E-4,-4.9471796955913305E-5,-2.737198956310749E-4,-11.249053955078125,27.327016830444336,-38.674774169921875,0.2774182856082916,0.35496097803115845,0.04426002502441406,0.07840282,-0.15570782,9.76923,-0.3745768,-0.24136919,9.760619,0
11,988.0427856445312,-1.915728789754212E-4,-1.8265744438394904E-4,-4.068046109750867E-4,-11.07440185546875,27.22730827331543,-38.92681121826172,0.2479306161403656,0.32474005222320557,0.053793907165527344,0.09750426,-0.13664122,9.755024,-0.34731784,-0.22996208,9.747572,0
11,988.0350952148438,2.0807230612263083E-4,-9.816328529268503E-4,3.922164032701403E-4,-11.105950355529785,27.514127731323242,-39.400634765625,0.26076528429985046,0.35146263241767883,0.05388832092285156,0.08553702,-0.15570699,9.75739,-0.36228696,-0.24372421,9.749234,0
11,988.0302124023438,3.4140091156587005E-4,-4.955515032634139E-5,-2.734999870881438E-4,-11.202285766601562,27.054929733276367,-38.9739990234375,0.28778448700904846,0.3398572504520416,0.053989410400390625,0.06640011,-0.14855672,9.745553,-0.37739128,-0.22587018,9.736982,0
11,988.0377807617188,-5.905335419811308E-4,0.0010156806092709303,-2.7342664543539286E-4,-11.18386173248291,27.59882164001465,-38.7777099609375,0.22844120860099792,0.32854974269866943,0.006752967834472656,0.0878914,-0.15332283,9.773957,-0.35596153,-0.23884974,9.766151,0
12,988.012451171875,6.080592866055667E-4,0.00114881107583642,0.0010582259856164455,-10.871650695800781,27.312047958374023,-39.347930908203125,0.24601155519485474,0.33625784516334534,0.021048545837402344,0.08309388,-0.13902278,9.766853,-0.35184038,-0.22507964,9.759264,0
12,988.0276489257812,7.559830555692315E-5,-1.8279641517437994E-4,-0.0010722276056185365,-11.040895462036133,27.680021286010742,-38.80449676513672,0.2635681629180908,0.3486398458480835,0.054282188415527344,0.09263569,-0.15332194,9.757383,-0.34548518,-0.23948303,9.7499695,0
12,988.0327758789062,-4.5686232624575496E-4,3.498076112009585E-4,-6.890739314258099E-6,-10.800508499145508,27.48383140563965,-39.061012268066406,0.271443635225296,0.33263838291168213,0.02123546600341797,0.07878047,-0.14618401,9.781099,-0.35379848,-0.22932935,9.773419,0
12,988.0531005859375,2.090986235998571E-4,0.0011487274896353483,7.921300712041557E-4,-10.90235710144043,27.86271095275879,-39.298439025878906,0.2685345411300659,0.33102867007255554,0.044910430908203125,0.06973541,-0.13904686,9.748007,-0.35633639,-0.2188069,9.740277,0
12,988.0151977539062,6.04670203756541E-4,7.474865997210145E-4,1.1948216706514359E-4,-10.728141784667969,27.024953842163086,-39.27626037597656,0.262493759393692,0.32435905933380127,0.03551769256591797,0.07692796,-0.15096377,9.771681,-0.35328242,-0.22984053,9.764059,0
12,988.0151977539062,-6.372778443619609E-5,-4.5051140477880836E-4,5.178381688892841E-4,-10.980567932128906,27.315275192260742,-39.10038757324219,0.27066758275032043,0.3316943645477295,0.0308685302734375,0.07695079,-0.15573083,9.776417,-0.35423824,-0.23083411,9.768815,0
12,988.0253295898438,-0.001251117093488574,-3.808201872743666E-4,2.3431488079950213E-4,-11.130706787109375,27.964765548706055,-38.961280822753906,0.2642207145690918,0.3248702585697174,0.02622699737548828,0.08414331,-0.14619835,9.778786,-0.34181502,-0.22338672,9.771713,0
12,988.0482788085938,-5.855474737472832E-4,6.844790186733007E-4,-1.6525323735550046E-4,-11.179295539855957,27.603242874145508,-39.00962829589844,0.2485542595386505,0.3325241208076477,0.03577232360839844,0.076996475,-0.14619885,9.776422,-0.34787494,-0.21776019,9.7692,0
12,988.0355224609375,2.1317991195246577E-4,-3.807487082667649E-4,-1.653476501815021E-4,-11.114401817321777,27.242910385131836,-39.537437438964844,0.25705698132514954,0.32112258672714233,0.012165069580078125,0.077019334,-0.150966,9.774057,-0.3480666,-0.22032763,9.766844,0
12,988.0280151367188,-4.5282981591299176E-4,-7.801868487149477E-4,-1.654418301768601E-4,-11.029155731201172,26.95374870300293,-39.14872741699219,0.2608577609062195,0.32400548458099365,0.03116607666015625,0.07226229,-0.1533498,9.759855,-0.35155192,-0.21904713,9.752536,0
12,988.0279541015625,-3.1989190028980374E-4,-0.0011796249309554696,6.334114586934447E-4,-10.83455753326416,27.399415969848633,-39.281776428222656,0.249857097864151,0.3126351237297058,0.04071331024169922,0.07467508,-0.14143403,9.766959,-0.34134635,-0.21117541,9.760018,0
12,988.0100708007812,-1.8695410108193755E-4,1.883227378129959E-5,-1.6563053941354156E-4,-11.15203857421875,27.523839950561523,-39.70204162597656,0.24332976341247559,0.32029399275779724,0.04553699493408203,0.09142724,-0.15096767,9.771695,-0.32475787,-0.22689798,9.765256,0
12,988.0206909179688,-1.8717400962486863E-4,8.17815656773746E-4,2.337489859201014E-4,-10.612977027893066,27.5538387298584,-38.709083557128906,0.2417709231376648,0.3088006377220154,0.03141593933105469,0.08667022,-0.13905184,9.762229,-0.3262717,-0.20780452,9.755939,0
12,988.0253295898438,-9.863418526947498E-4,2.8521951753646135E-4,-2.9897718923166394E-4,-11.044780731201172,27.41322898864746,-39.17320251464844,0.23564878106117249,0.30666011571884155,0.026758193969726562,0.079523355,-0.1509688,9.774067,-0.3330745,-0.21880652,9.767431,0
12,988.0127563476562,-5.870881141163409E-4,4.1841325582936406E-4,0.0015651397407054901,-10.589741706848145,27.101728439331055,-39.071128845214844,0.253059446811676,0.3191520571708679,0.012639999389648438,0.077156276,-0.1533527,9.774069,-0.33644444,-0.21522784,9.767413,0
12,988.0355224609375,-1.87834317330271E-4,6.847648182883859E-4,2.3346603848040104E-4,-11.142202377319336,27.690610885620117,-38.94347381591797,0.24694740772247314,0.3123690187931061,0.055324554443359375,0.07000941,-0.15096994,9.7575,-0.3391189,-0.21036875,9.750755,0
12,988.0534057617188,-8.538441616110504E-4,-2.4730502627789974E-4,2.3337156744673848E-4,-10.918556213378906,27.47821617126465,-38.349632263183594,0.24546197056770325,0.310470849275589,0.026994705200195312,0.07959187,-0.14858718,9.77644,-0.32616493,-0.2128196,9.770132,0
12,988.0355224609375,-5.877483054064214E-4,1.522045349702239E-4,2.332773874513805E-4,-10.799529075622559,27.85359764099121,-39.23676300048828,0.2250799536705017,0.3040473461151123,0.05073070526123047,0.084394515,-0.14620455,9.757505,-0.32063028,-0.20753258,9.75149,0
12,987.9924926757812,3.4413725370541215E-4,-2.47233547270298E-4,4.994989139959216E-4,-10.908744812011719,27.22468376159668,-39.414085388183594,0.2378825545310974,0.3024037778377533,0.041335105895996094,0.082027465,-0.14858834,9.757507,-0.32382888,-0.20460726,9.751463,0
12,988.023193359375,4.7707505291327834E-4,5.517497193068266E-4,-2.9954308411106467E-4,-11.22484016418457,27.244665145874023,-39.21257781982422,0.24135777354240417,0.30588117241859436,0.017724037170410156,0.0748806,-0.15812199,9.776446,-0.33167922,-0.21224242,9.770078,0
12,988.0459594726562,4.768549115397036E-4,1.915375469252467E-5,2.3299444001168013E-4,-10.797220230102539,26.486352920532227,-39.54204559326172,0.23532357811927795,0.294673889875412,0.04619407653808594,0.08685291,-0.14620619,9.774081,-0.31325546,-0.20592776,9.76837,0
12,988.0082397460938,-5.5996875744313E-5,-3.802842984441668E-4,4.992159083485603E-4,-10.981110572814941,27.683561325073242,-39.198829650878906,0.2579568922519684,0.2975454330444336,0.022588729858398438,0.07014641,-0.14144023,9.781185,-0.32643324,-0.19385377,9.775089,0
12,988.028564453125,-4.556907224468887E-4,-5.134065286256373E-4,-2.9982608975842595E-4,-10.905699729919434,27.227628707885742,-39.568702697753906,0.23257100582122803,0.29565390944480896,0.046334266662597656,0.086898565,-0.14382403,9.771719,-0.30811226,-0.20170403,9.766223,0
12,988.0209350585938,7.650075713172555E-5,-5.133350496180356E-4,-3.3698801416903734E-5,-10.718168258666992,27.297639846801758,-39.216773986816406,0.23548418283462524,0.30760371685028076,0.07009696960449219,0.08214161,-0.15097438,9.740947,-0.31214485,-0.2059878,9.735282,0
13,988.0209350585938,7.650075713172555E-5,-5.133350496180356E-4,-3.3698801416903734E-5,-10.718168258666992,27.297639846801758,-39.216773986816406,0.24405965209007263,0.3020610213279724,0.032263755798339844,0.072604835,-0.14859171,9.771723,-0.32058755,-0.19784042,9.76586,0
13,988.040771484375,4.7575467033311725E-4,0.0010845959186553955,-1.6695103840902448E-4,-10.923826217651367,27.31587028503418,-39.340110778808594,0.21400010585784912,0.2862066328525543,0.05126476287841797,0.082187265,-0.14859222,9.759888,-0.31207573,-0.19562979,9.754414,0
13,988.0209350585938,7.606059079989791E-5,6.851578364148736E-4,2.3242848692461848E-4,-11.079266548156738,26.590757369995117,-39.11976623535156,0.23124727606773376,0.27991122007369995,0.04187297821044922,0.0750404,-0.13667645,9.76936,-0.3112773,-0.18383977,9.763915,0
13,988.026123046875,6.091183167882264E-4,1.9298982806503773E-5,-3.3704855013638735E-5,-10.94140911102295,27.035818099975586,-39.013084411621094,0.23540553450584412,0.27373403310775757,0.04199790954589844,0.08150697,-0.14619227,9.750359,-0.30589378,-0.19419903,9.745062,0
13,988.0235595703125,8.248555241152644E-5,6.841147551313043E-4,-5.637657013721764E-4,-11.028177261352539,27.323514938354492,-39.32447814941406,0.22901546955108643,0.2818470597267151,0.02786731719970703,0.07194102,-0.14142556,9.774029,-0.31204715,-0.18596967,9.768563,0
13,988.0235595703125,8.248555241152644E-5,6.841147551313043E-4,-5.637657013721764E-4,-10.980567932128906,27.315275192260742,-39.10038757324219,0.21834540367126465,0.2941606044769287,0.04213237762451172,0.08388418,-0.15572508,9.757458,-0.3030696,-0.20216338,9.752258,0
13,988.0388793945312,-7.1640097303316E-4,1.5147315571084619E-4,5.01524074934423E-4,-10.953447341918945,27.12994956970215,-39.093719482421875,0.2170182466506958,0.2878633737564087,0.00905609130859375,0.0838778,-0.1533416,9.788231,-0.30186066,-0.19855663,9.783122,0
13,988.0213012695312,8.260837057605386E-5,-1.1485270806588233E-4,3.683924733195454E-4,-10.909424781799316,27.487058639526367,-38.81346130371094,0.2346595823764801,0.29536789655685425,0.04700469970703125,0.06953207,-0.1604913,9.764559,-0.31393552,-0.20056766,9.759019,0
13,988.028564453125,-9.825942106544971E-4,6.840849528089166E-4,5.015766946598887E-4,-11.089484214782715,27.31849479675293,-38.85283660888672,0.2286066710948944,0.27469706535339355,0.04233074188232422,0.07908529,-0.14857478,9.762192,-0.30069214,-0.18900028,9.757181,0
13,988.0313720703125,3.4904637141153216E-4,-3.8118843804113567E-4,5.016028298996389E-4,-11.018203735351562,27.5961971282959,-39.264991760253906,0.20804837346076965,0.2828355133533478,0.04712963104248047,0.076689065,-0.16287424,9.764557,-0.30486706,-0.20255816,9.759355,0
13,988.0416259765625,3.491074894554913E-4,8.172229863703251E-4,-3.100273897871375E-5,-11.165192604064941,27.14229393005371,-38.90784454345703,0.21639996767044067,0.28588640689849854,0.023517608642578125,0.08385241,-0.15334101,9.771658,-0.29551283,-0.19164969,9.766872,0
13,988.0390014648438,-4.4977915240451694E-4,1.51423504576087E-4,2.3533933563157916E-4,-10.647867202758789,27.205575942993164,-39.45317077636719,0.20567670464515686,0.25557494163513184,0.0567169189453125,0.07906631,-0.13427468,9.757454,-0.28832465,-0.17599618,9.75285,0
13,988.0238647460938,-5.828758585266769E-4,1.5141349285840988E-4,-6.967399385757744E-4,-10.777273178100586,27.031721115112305,-39.423057556152344,0.23259463906288147,0.2918033003807068,0.03312206268310547,0.06950036,-0.16049053,9.769289,-0.3052088,-0.19454958,9.764149,0
13,988.0263061523438,-8.491307380609214E-4,0.0012166672386229038,0.0013006553053855896,-10.970051765441895,27.219663619995117,-38.94244384765625,0.21248891949653625,0.2667977809906006,0.056839942932128906,0.08144352,-0.14619072,9.771656,-0.28887376,-0.18281943,9.767108,0
13,988.0440063476562,0.0011482995469123125,-5.143959424458444E-4,-1.6405590577051044E-4,-10.72219181060791,26.924928665161133,-38.88640594482422,0.20166906714439392,0.2749417722225189,0.02375507354736328,0.076657414,-0.14857383,9.757452,-0.29126772,-0.18383697,9.752805,0
13,988.0213012695312,4.825709038414061E-4,4.1769968811422586E-4,3.6860202089883387E-4,-10.781838417053223,27.02730369567871,-39.191139221191406,0.22393405437469482,0.27330222725868225,0.04749584197998047,0.07665104,-0.150957,9.766922,-0.29041794,-0.18488985,9.7623205,0
13,988.029052734375,-7.157895597629249E-4,5.508477333933115E-4,-3.0845694709569216E-5,-11.422588348388672,27.90239906311035,-39.297576904296875,0.22258135676383972,0.25735896825790405,0.019150733947753906,0.06708509,-0.13904046,9.769287,-0.29554793,-0.16626777,9.764622,0
13,988.0390014648438,-4.494124441407621E-4,2.845220151357353E-4,-2.971352660097182E-4,-10.910701751708984,26.485158920288086,-39.06257629394531,0.2023296356201172,0.2607647478580475,0.04287242889404297,0.083808064,-0.15095665,9.76692,-0.28236756,-0.18213047,9.762668,0
13,988.0191040039062,8.328031981363893E-5,1.8196122255176306E-5,-5.634250701405108E-4,-11.04464340209961,27.519140243530273,-39.872283935546875,0.2157520353794098,0.25899142026901245,0.03818798065185547,0.074242115,-0.14857323,9.771654,-0.2877683,-0.17767939,9.767214,0
13,988.0319213867188,-3.161323838867247E-4,-7.807614165358245E-4,-2.9708287911489606E-4,-11.20337200164795,27.7915096282959,-39.1708984375,0.20561447739601135,0.26268088817596436,0.03821849822998047,0.0742358,-0.14857309,9.769285,-0.2872928,-0.17604499,9.764886,0
13,988.0162963867188,0.0010660444386303425,-0.0011954604415223002,3.7720712134614587E-4,-11.093070983886719,27.683839797973633,-38.79667663574219,0.20480754971504211,0.26628175377845764,0.028786659240722656,0.08617896,-0.1557227,9.769285,-0.27697062,-0.1864425,9.7652,0
13,988.04150390625,6.66631618514657E-4,-9.291544556617737E-4,3.7723337300121784E-4,-11.036627769470215,27.05230140686035,-39.461280822753906,0.2039133906364441,0.25062236189842224,0.04303169250488281,0.0742231,-0.14380623,9.771652,-0.28263983,-0.17090186,9.767409,0
13,988.0191650390625,2.672190312296152E-4,-5.296905292198062E-4,5.104174488224089E-4,-10.766757011413574,26.93611717224121,-39.265113830566406,0.20740631222724915,0.25875169038772583,0.02414989471435547,0.07421678,-0.15095587,9.781119,-0.28575137,-0.17331275,9.7768545,0
13,988.0267944335938,1.341220922768116E-4,2.9313378036022186E-6,2.4412773200310767E-4,-11.039128303527832,26.681062698364258,-39.208213806152344,0.20614001154899597,0.2670063376426697,0.028934478759765625,0.07660025,-0.14618914,9.77165,-0.27954218,-0.16957298,9.767572,0
13,988.0319213867188,7.99973146058619E-4,6.687112036161125E-4,1.1099607218056917E-4,-11.208916664123535,27.417325973510742,-38.76322937011719,0.19048744440078735,0.26626649498939514,0.024247169494628906,0.08137375,-0.15333886,9.766916,-0.27409023,-0.18038994,9.762946,0
14,988.0140380859375,0.0015989821404218674,4.023851943202317E-4,3.773383505176753E-4,-10.912468910217285,27.484113693237305,-38.658851623535156,0.21771490573883057,0.2744135856628418,0.02430438995361328,0.06463808,-0.14857213,9.769282,-0.2873969,-0.16807036,9.764953,0
14,988.0137329101562,2.674639690667391E-4,6.686912965960801E-4,-2.2109306883066893E-5,-10.973094940185547,27.216718673706055,-38.78783416748047,0.21217525005340576,0.2589959502220154,0.05274677276611328,0.08375096,-0.14857192,9.766914,-0.26722598,-0.17525834,9.763174,0
14,988.0092163085938,6.669987924396992E-4,-0.001195529941469431,-5.547149921767414E-4,-10.750833511352539,27.108774185180664,-38.815765380859375,0.21612140536308289,0.2530350089073181,0.01964282989501953,0.06462544,-0.14857186,9.778749,-0.28272706,-0.17096645,9.774509,0
14,988.024169921875,2.6758608873933554E-4,-6.629080744460225E-4,-2.2056919988244772E-5,-10.582674980163574,27.477384567260742,-39.55610656738281,0.2006807029247284,0.23720663785934448,0.0480499267578125,0.07695335,-0.14619781,9.764582,-0.27164605,-0.16672276,9.7607765,0
14,988.03173828125,1.3266690075397491E-4,-9.289380395784974E-4,-2.2811756934970617E-5,-11.115081787109375,27.50528907775879,-38.936805725097656,0.18488049507141113,0.26000627875328064,0.02916431427001953,0.07696223,-0.16764756,9.76695,-0.27542844,-0.18910241,9.762978,0
14,988.0116577148438,6.634274031966925E-4,6.692611495964229E-4,-2.899296232499182E-4,-10.780860900878906,27.397062301635742,-39.36689758300781,0.2123062014579773,0.23948082327842712,0.02447986602783203,0.065021634,-0.13904844,9.778786,-0.2769562,-0.15554462,9.774831,0
14,988.0243530273438,1.3071007560938597E-4,3.4852419048547745E-6,1.0950752766802907E-4,-10.756240844726562,26.840505599975586,-39.10717010498047,0.20185601711273193,0.24310609698295593,0.03398323059082031,0.08175981,-0.14619853,9.764585,-0.2623778,-0.16641667,9.761079,0
14,988.0396728515625,5.30098332092166E-4,-2.628167567308992E-4,-2.368708373978734E-5,-10.967007637023926,27.22260856628418,-39.09705352783203,0.1910303831100464,0.25635838508605957,0.05770111083984375,0.074599,-0.15334858,9.75985,-0.27061445,-0.16896653,9.7561245,0
14,988.0324096679688,6.631707074120641E-4,2.6982882991433144E-4,-2.3723754566162825E-5,-11.041193962097168,27.047880172729492,-39.22936248779297,0.18535920977592468,0.2410084754228592,0.04826545715332031,0.08177757,-0.14858215,9.752749,-0.2603222,-0.16708192,9.749318,0
14,988.01708984375,7.96243199147284E-4,-3.9594690315425396E-4,-1.5691836597397923E-4,-10.956491470336914,27.127004623413086,-38.939109802246094,0.18921160697937012,0.24422992765903473,0.04830455780029297,0.07461676,-0.14858241,9.755117,-0.2664609,-0.16236421,9.751544,0
14,988.03466796875,-2.7901260182261467E-6,-2.6277510914951563E-4,-5.564288585446775E-4,-11.201306343078613,27.424692153930664,-39.149757385253906,0.19742602109909058,0.25765180587768555,0.02467823028564453,0.07701549,-0.15334918,9.776423,-0.26429525,-0.16826136,9.772908,0
14,988.0196533203125,9.292298927903175E-4,2.698705648072064E-4,-4.2330758878961205E-4,-11.110516548156738,27.50971031188965,-39.168724060058594,0.19623786211013794,0.22287502884864807,0.053130149841308594,0.07941431,-0.1342832,9.776424,-0.25208077,-0.15341604,9.773214,0
14,988.0022583007812,7.959009381011128E-4,1.367404474876821E-4,6.418825360015035E-4,-10.802573204040527,27.85065269470215,-39.0821533203125,0.19983446598052979,0.25021833181381226,0.038969993591308594,0.07703331,-0.15334965,9.757486,-0.25842708,-0.16995996,9.754093,0
14,988.0022583007812,7.959009381011128E-4,1.367404474876821E-4,6.418825360015035E-4,-11.0910062789917,27.3170223236084,-38.77552795410156,0.19373080134391785,0.24900135397911072,0.0390167236328125,0.07943204,-0.14858331,9.764589,-0.25574383,-0.16152635,9.761356,0
14,988.0301513671875,1.300255535170436E-4,0.001068859826773405,-1.5710160369053483E-4,-10.86638069152832,27.474393844604492,-38.357444763183594,0.19802984595298767,0.252560555934906,0.020101547241210938,0.07944095,-0.15335001,9.774059,-0.25537542,-0.16719925,9.770819,0
14,988.0225219726562,5.294138099998236E-4,-0.0015942850150167942,7.749672513455153E-4,-10.86113452911377,27.21644401550293,-39.18998718261719,0.18744754791259766,0.25103914737701416,0.024875640869140625,0.07944983,-0.14381711,9.766958,-0.25087202,-0.15658456,9.763863,0
14,988.057861328125,-5.359351634979248E-4,-1.295337569899857E-4,-2.903331187553704E-4,-11.073423385620117,27.597070693969727,-39.102561950683594,0.16744521260261536,0.24033422768115997,0.034377098083496094,0.0842385,-0.15811701,9.764592,-0.25033167,-0.17018409,9.761544,0
14,988.0301513671875,2.629267983138561E-4,-1.295199617743492E-4,2.4226217647083104E-4,-11.140137672424316,27.323789596557617,-38.922325134277344,0.17125394940376282,0.22960789501667023,0.04388141632080078,0.08663726,-0.15096743,9.764593,-0.24527293,-0.16209523,9.761719,0
14,988.0171508789062,1.296832924708724E-4,1.3680983101949096E-4,1.0906753595918417E-4,-10.986655235290527,27.309377670288086,-38.791168212890625,0.16539263725280762,0.21369144320487976,0.04392433166503906,0.08425629,-0.14143457,9.769328,-0.24215129,-0.15224038,9.766527,0
14,988.0175170898438,-5.36191975697875E-4,1.368238008581102E-4,9.079783922061324E-4,-11.40003490447998,27.71265983581543,-39.058998107910156,0.19776701927185059,0.221319779753685,0.048702239990234375,0.069925725,-0.14620136,9.769329,-0.2571359,-0.14885762,9.766155,0
14,988.0252685546875,-3.6458950489759445E-6,-5.289519904181361E-4,-2.4163804482668638E-5,-10.894342422485352,27.395872116088867,-38.88743591308594,0.17814341187477112,0.23490101099014282,0.025049209594726562,0.0771043,-0.15096803,9.776432,-0.24936105,-0.15778033,9.773448,0
14,988.0280151367188,1.29426596686244E-4,-0.0010615700157359242,-2.4200533516705036E-5,-11.183318138122559,27.230531692504883,-38.67926025390625,0.17747855186462402,0.2383025884628296,0.04874992370605469,0.081893,-0.15811808,9.762229,-0.24766414,-0.1622392,9.759363,0
14,988.0301513671875,-4.032907309010625E-4,-0.001194713986478746,-9.563427302055061E-4,-11.19383430480957,27.326139450073242,-38.83720397949219,0.16270661354064941,0.20844274759292603,0.03456687927246094,0.096241236,-0.14620192,9.769331,-0.22932364,-0.15517053,9.766974,0
14,988.0203857421875,-1.3706041499972343E-4,-9.283841936849058E-4,3.7519997567869723E-4,-11.366283416748047,27.164945602416992,-39.263099670410156,0.17163586616516113,0.22592850029468536,0.048797607421875,0.086690545,-0.14858548,9.757496,-0.23874576,-0.15116109,9.75492,0
15,988.0104370117188,-5.366199184209108E-4,-9.283702820539474E-4,-5.569422501139343E-4,-11.346230506896973,26.603971481323242,-38.77146911621094,0.17946535348892212,0.22375580668449402,0.03465557098388672,0.07474995,-0.13905258,9.774067,-0.24648783,-0.13539839,9.771297,0
15,988.035888671875,-4.0354731027036905E-4,4.032230353914201E-4,3.751266631297767E-4,-11.372371673583984,27.1590518951416,-38.953880310058594,0.1835128366947174,0.21382848918437958,0.029943466186523438,0.08192846,-0.13905285,9.778803,-0.23738655,-0.13875073,9.776268,0
15,988.0130004882812,1.2899877037853003E-4,8.027107105590403E-4,6.414058152586222E-4,-10.7779541015625,27.294095993041992,-38.82243347167969,0.18189531564712524,0.24615728855133057,0.025257110595703125,0.07237777,-0.15811925,9.785905,-0.24822561,-0.15786308,9.783028,0
15,988.0228881835938,9.27860732190311E-4,0.002001146087422967,3.7505332147702575E-4,-10.884124755859375,26.668127059936523,-39.15435791015625,0.18881553411483765,0.20724473893642426,0.058470726013183594,0.07240254,-0.14382012,9.764603,-0.24168003,-0.14195889,9.7619095,0
15,988.0328369140625,7.946174591779709E-4,0.004531160928308964,5.081746494397521E-4,-10.622269630432129,27.01878547668457,-39.36920166015625,0.1527155041694641,0.2254045456647873,0.049071311950683594,0.09154743,-0.14858736,9.7504015,-0.22030829,-0.1558494,9.74823,0
15,988.0380249023438,0.0011933489004150033,0.0035980399698019028,3.7252643960528076E-4,-11.145108222961426,27.793577194213867,-39.487937927246094,0.17359612882137299,0.22441737353801727,0.053887367248535156,0.08199796,-0.1485876,9.748035,-0.22772184,-0.1503249,9.745693,0
15,987.9974975585938,9.268975118175149E-4,0.005462272558361292,7.719421992078424E-4,-11.131686210632324,27.594999313354492,-38.78553009033203,0.18003658950328827,0.19501663744449615,0.03976726531982422,0.048549473,-0.12952162,9.748036,-0.24942848,-0.12128577,9.745071,0
15,988.0330200195312,2.6101002003997564E-4,0.005195972975343466,0.0010382161708548665,-11.31891918182373,28.15712547302246,-38.71258544921875,0.19260311126708984,0.18448524177074432,0.03508281707763672,0.058119237,-0.12952186,9.769342,-0.23803538,-0.12602666,9.766661,0
15,988.0104370117188,6.603860529139638E-4,0.0014675662387162447,2.3922655964270234E-4,-10.887413024902344,27.665605545043945,-38.67333221435547,0.1676820069551468,0.20264127850532532,0.020910263061523438,0.060519278,-0.1414385,9.774077,-0.23827639,-0.13815218,9.771407,0
15,988.01806640625,3.939722664654255E-4,2.8448994271457195E-6,2.391846210230142E-4,-10.842710494995117,27.760343551635742,-38.99370574951172,0.17148485779762268,0.21566149592399597,0.030409812927246094,0.067699134,-0.14620529,9.766977,-0.22996178,-0.14673436,9.764496,0
15,988.0056762695312,2.6071653701364994E-4,-1.3029720867052674E-4,2.3914268240332603E-4,-10.343809127807617,27.279726028442383,-39.735321044921875,0.16600926220417023,0.2052755206823349,0.02096271514892578,0.07248914,-0.13428919,9.766977,-0.22130874,-0.13537589,9.764724,0
15,988.00830078125,9.264082182198763E-4,-5.297550815157592E-4,-9.593206341378391E-4,-10.590147018432617,27.575937271118164,-39.86865997314453,0.16538378596305847,0.2233223170042038,0.02098369598388672,0.07488915,-0.1533557,9.77408,-0.22770649,-0.14865863,9.771786,0
15,988.0283813476562,-4.0526874363422394E-4,-0.0010623709531500936,-2.93572957161814E-4,-11.135571479797363,27.328210830688477,-39.15423583984375,0.17896947264671326,0.22642052173614502,0.04941844940185547,0.0605599,-0.1557392,9.762245,-0.23896557,-0.1470214,9.7596445,0
15,988.0285034179688,-8.048407034948468E-4,-6.628812407143414E-4,-1.6045698430389166E-4,-10.744746208190918,27.114667892456055,-39.12498474121094,0.16398879885673523,0.1923280954360962,0.044701576232910156,0.067739725,-0.13667323,9.759879,-0.2251503,-0.13057768,9.757601,0
15,988.0260620117188,0.0011924307327717543,-2.633915573824197E-4,7.71606806665659E-4,-10.87469482421875,27.30910301208496,-39.193321228027344,0.17240434885025024,0.22490139305591583,0.016326904296875,0.06774992,-0.14858986,9.781185,-0.22857507,-0.14106523,9.778861,0
15,988.0059814453125,0.0011923328274860978,2.9401853680610657E-6,-4.268567427061498E-4,-11.039373397827148,27.681493759155273,-38.881797790527344,0.1527033895254135,0.21458382904529572,0.049485206604003906,0.07731962,-0.15097336,9.757513,-0.2201038,-0.14441325,9.755436,0
15,988.0056762695312,9.259191574528813E-4,-7.959915674291551E-4,-9.595304145477712E-4,-11.141658782958984,27.322317123413086,-38.84502410888672,0.16573938727378845,0.2089458405971527,0.04005241394042969,0.07493991,-0.14620705,9.771718,-0.22016954,-0.13768102,9.769648,0
15,988.021240234375,7.92663311585784E-4,0.0010682353749871254,3.7200713995844126E-4,-11.196197509765625,27.060819625854492,-39.28321838378906,0.15037976205348969,0.2079978585243225,0.040081024169921875,0.07256016,-0.13905747,9.774086,-0.21635379,-0.13343781,9.772038,0
15,988.0209350585938,2.5993387680500746E-4,4.0246167918667197E-4,-6.932983524166048E-4,-10.530936241149902,26.735509872436523,-39.28971862792969,0.17277538776397705,0.19287686049938202,0.02591705322265625,0.060620785,-0.14859082,9.785923,-0.22793159,-0.14053504,9.783576,0
15,988.0133056640625,7.924677338451147E-4,0.001201425213366747,7.713970844633877E-4,-10.34546947479248,27.172338485717773,-38.95893096923828,0.16704198718070984,0.1966705620288849,0.01647472381591797,0.06780064,-0.1319081,9.776455,-0.21473052,-0.12574494,9.774413,0
15,988.0336303710938,6.592118879780173E-4,4.024934605695307E-4,-2.7592468541115522E-5,-10.35544204711914,26.8996524810791,-39.01842498779297,0.15192900598049164,0.21973150968551636,0.030699729919433594,0.07020068,-0.15097462,9.774088,-0.21996838,-0.14058316,9.772019,0
15,988.0263061523438,2.595424884930253E-4,-5.295804003253579E-4,-2.767634578049183E-5,-10.803850173950195,26.8487491607666,-39.331268310546875,0.1703549027442932,0.2042980045080185,0.049658775329589844,0.060651243,-0.1414418,9.755152,-0.22409713,-0.12771797,9.752956,0
15,988.0697631835938,0.005585762206465006,1.3622513506561518E-4,-4.271920188330114E-4,-11.307722091674805,27.79915428161621,-39.15526580810547,0.14085432887077332,0.1911482810974121,0.02599811553955078,0.07978058,-0.13667549,9.764622,-0.2050265,-0.13008167,9.762886,0
15,988.0697631835938,0.005585762206465006,1.3622513506561518E-4,-4.271920188330114E-4,-10.82015609741211,27.570600509643555,-38.75511932373047,0.15870915353298187,0.1983906328678131,0.059180259704589844,0.063061446,-0.14620884,9.750419,-0.22009134,-0.13423845,9.748311,0
15,988.2374877929688,-0.0037353914231061935,0.001068346668034792,5.048715393058956E-4,-10.844369888305664,27.6529483795166,-38.217315673828125,0.13347268104553223,0.19181695580482483,0.007142066955566406,0.0869706,-0.14144255,9.785928,-0.19503349,-0.13634944,9.784443,0
16,987.9271850585938,-9.391724597662687E-4,6.688887369818985E-4,-2.780207432806492E-5,-10.404520034790039,28.538984298706055,-38.41392517089844,0.14206010103225708,0.20523883402347565,0.04030895233154297,0.079811096,-0.14620931,9.764624,-0.19838102,-0.14268936,9.762986,0
16,987.9555053710938,6.586250383406878E-4,5.357466288842261E-4,2.3847183911129832E-4,-10.88200569152832,27.933874130249023,-38.381927490234375,0.16030238568782806,0.19524817168712616,0.040329933166503906,0.063091904,-0.15574266,9.776461,-0.21968177,-0.1415591,9.774411,0
16,988.0215454101562,0.001324316835962236,2.694466966204345E-4,-5.605178303085268E-4,-10.638712882995605,27.63471794128418,-38.093971252441406,0.14927512407302856,0.19419215619564056,0.06403827667236328,0.075051546,-0.14620979,9.755157,-0.202476,-0.13693225,9.753479,0
16,988.0093383789062,2.5895540602505207E-4,0.0012015681713819504,-8.268756209872663E-4,-10.851001739501953,28.015348434448242,-38.00654602050781,0.14368502795696259,0.18821963667869568,0.045113563537597656,0.077546835,-0.14382912,9.76227,-0.19879636,-0.13405956,9.760693,0
16,987.9736938476562,-7.684808224439621E-6,1.3635726645588875E-4,3.714069025591016E-4,-11.012689590454102,26.758119583129883,-38.600929260253906,0.13741028308868408,0.19674108922481537,0.04041767120361328,0.0823406,-0.14621277,9.76227,-0.1960106,-0.13362746,9.760831,0
16,988.0062866210938,1.2431712821125984E-4,0.001200766651891172,-1.6371224774047732E-4,-10.831789016723633,27.190523147583008,-38.038230895996094,0.15076524019241333,0.21480731666088104,0.021503448486328125,0.06323531,-0.15097965,9.774107,-0.21320224,-0.13295725,9.772249,0
16,988.0140380859375,3.904986660927534E-4,2.6868301210924983E-4,2.3570421035401523E-4,-10.930595397949219,27.572355270385742,-38.430267333984375,0.1451101154088974,0.18537834286689758,0.04993247985839844,0.068029046,-0.14383014,9.759906,-0.20465782,-0.12774,9.758222,0
16,988.016845703125,6.566799711436033E-4,-2.6392698055133224E-4,1.0248861508443952E-4,-10.984834671020508,27.942991256713867,-38.44359588623047,0.14467757940292358,0.17975202202796936,0.04994487762451172,0.06326324,-0.13906394,9.769375,-0.20674269,-0.121447094,9.767627,0
16,988.0241088867188,3.902297466993332E-4,-5.302209756337106E-4,7.682206341996789E-4,-10.611592292785645,27.449399948120117,-38.087310791015625,0.15306442975997925,0.18847495317459106,0.02630138397216797,0.06805694,-0.14144756,9.778845,-0.20116328,-0.12608846,9.777224,0
16,988.0318603515625,7.895691087469459E-4,4.019064363092184E-4,3.686892450787127E-4,-10.639010429382324,27.002580642700195,-38.51884460449219,0.1476617306470871,0.1924360692501068,0.035785675048828125,0.06807092,-0.14144792,9.752808,-0.20046082,-0.12445259,9.751217,0
16,988.0347290039062,7.894346490502357E-4,-5.301773780956864E-4,2.3547359160147607E-4,-10.623493194580078,27.649450302124023,-38.867027282714844,0.14226269721984863,0.18689733743667603,0.03579998016357422,0.07286465,-0.1462148,9.767012,-0.19599846,-0.13158461,9.765525,0
16,988.0547485351562,2.5666854344308376E-4,-2.6383966905996203E-4,-2.972157089971006E-4,-10.856706619262695,27.11494255065918,-38.72282409667969,0.14139600098133087,0.19046877324581146,0.045291900634765625,0.0728786,-0.14859842,9.771748,-0.19751814,-0.13024122,9.770286,1
16,988.01708984375,-2.760975621640682E-4,2.4980399757623672E-6,3.685164265334606E-4,-10.57175350189209,26.90757179260254,-38.60063171386719,0.14990881085395813,0.19424214959144592,0.045318603515625,0.07289255,-0.15336527,9.764647,-0.19680294,-0.13546236,9.763202,1
16,988.0195922851562,3.8955756463110447E-4,2.688358654268086E-4,5.016167415305972E-4,-10.312100410461426,27.519128799438477,-38.137542724609375,0.134700208902359,0.1738114356994629,0.054808616638183594,0.072906464,-0.14144929,9.752812,-0.19050455,-0.124440014,9.751456,1
16,988.0272216796875,-5.426823627203703E-4,6.683313986286521E-4,1.0208535240963101E-4,-10.560938835144043,27.44410514831543,-38.017822265625,0.13840240240097046,0.19671247899532318,0.04063129425048828,0.070530534,-0.15574922,9.762283,-0.19896848,-0.13281232,9.760851,1
16,988.0247192382812,1.2297299690544605E-4,6.683531682938337E-4,-6.969200330786407E-4,-11.02692985534668,27.113149642944336,-38.003631591796875,0.1327245980501175,0.18594355881214142,0.026452064514160156,0.0753243,-0.14621653,9.771752,-0.18901448,-0.12630227,9.770492,1
16,988.0145874023438,-2.766355173662305E-4,2.5853514671325684E-6,1.0197004303336143E-4,-10.932116508483887,27.57088279724121,-38.35295867919922,0.15085656940937042,0.16599510610103607,0.04067707061767578,0.06577864,-0.13668375,9.771753,-0.19418445,-0.11241266,9.770354,1
16,988.0297241210938,-1.0453863069415092E-5,6.683968240395188E-4,1.0191247565671802E-4,-10.852416038513184,26.907529830932617,-37.55658721923828,0.1315503716468811,0.17927096784114838,0.040683746337890625,0.0777421,-0.14860047,9.767021,-0.18513595,-0.12886217,9.765855,1
16,988.0350341796875,3.888856153935194E-4,-0.0017284242203459144,2.3501281975768507E-4,-10.722030639648438,27.451147079467773,-37.76245880126953,0.13069137930870056,0.1733105331659317,0.05017280578613281,0.07058635,-0.13906766,9.757553,-0.18682925,-0.117346585,9.756306,1
16,988.0374755859375,-6.765127182006836E-4,2.6896665804088116E-4,1.0179728269577026E-4,-10.494523048400879,27.085248947143555,-38.62293243408203,0.1399088054895401,0.18178309500217438,0.021775245666503906,0.08015987,-0.15336768,9.774125,-0.18257037,-0.13268766,9.773051,1
16,988.02783203125,-2.7717300690710545E-4,-0.0011957488022744656,-1.6457622405141592E-4,-10.625993728637695,27.27821159362793,-38.61396026611328,0.12006153166294098,0.17874540388584137,0.007596015930175781,-0.14208706,-1.1066794,9.90669,-0.70170367,-0.9613327,9.898025,1
16,988.0195922851562,-0.007467835210263729,2.6944326236844063E-6,0.0024985249619930983,-10.211634635925293,27.24469566345215,-38.521881103515625,1.6380507946014404,2.651482105255127,-0.24327850341796875,-0.8805528,-1.8478795,9.828573,-1.5860653,-1.3707514,9.818163,1
16,987.963623046875,-0.17281731963157654,0.022952420637011528,0.52030348777771,-9.651267051696777,27.295316696166992,-38.61119842529297,-0.7817263603210449,-0.4819616377353668,0.18756961822509766,1.389868,1.4601108,10.070028,1.6145548,1.1668074,10.074765,1
16,987.9485473632812,-0.1621648371219635,0.03387139365077019,1.2866274118423462,-9.021522521972656,28.516679763793945,-38.009864807128906,-0.5309842824935913,-2.371645450592041,-1.673563003540039,0.3263756,1.302814,10.806231,0.51145846,1.6988952,10.743864,1
16,987.956298828125,-0.9404731392860413,-0.15654444694519043,0.6955392360687256,-8.275932312011719,30.004560470581055,-37.441978454589844,-0.07895053923130035,-0.5138237476348877,0.06240558624267578,0.16865599,-1.595253,9.544514,-0.18734801,-0.51729465,9.662728,1
17,987.9638671875,-1.6468762159347534,-0.012600681744515896,0.24346797168254852,-7.59537410736084,31.74684715270996,-35.64720153808594,0.029984712600708008,1.3888592720031738,-0.03166007995605469,0.015716225,-2.7797422,9.485334,-0.45346025,-0.96530247,9.826563,1
17,987.9819946289062,-1.7214446067810059,-0.05507804453372955,0.32935479283332825,-7.552659034729004,34.261260986328125,-33.414398193359375,0.2221468836069107,0.07946348190307617,0.19516658782958984,0.14956462,-2.6772618,9.326733,-0.13340652,-0.24648285,9.700489,1
17,987.9541625976562,-1.7643216848373413,-0.06479855626821518,0.31297630071640015,-7.27064323425293,37.316070556640625,-31.635011672973633,0.20800279080867767,0.022820234298706055,-0.019051551818847656,0.06832194,-3.2730818,9.847518,-0.15820903,0.064414024,10.376037,1
17,987.9819946289062,-1.7466118335723877,-0.03643588721752167,0.1984604150056839,-6.954906463623047,38.61090087890625,-28.987993240356445,0.09898889809846878,-0.29364824295043945,-0.2779273986816406,-0.30448878,-3.3112147,9.402486,-0.16898525,0.45150018,9.961485,1
17,988.0171508789062,-1.311185359954834,0.7450680732727051,0.12722086906433105,-6.664332866668701,40.83058166503906,-26.699155807495117,0.20275092124938965,-0.539823055267334,0.2996225357055664,-0.6247217,-3.9404006,8.102893,-0.28525245,-0.11967921,9.026528,1
17,988.0608520507812,-1.4034643173217773,0.5831480622291565,-0.12298302352428436,-4.8017072677612305,43.09943389892578,-23.731630325317383,0.23267215490341187,0.001216888427734375,0.21547222137451172,-0.9569042,-4.5600533,8.292271,-0.3789884,-0.019870281,9.504076,1
17,988.0327758789062,-1.1772289276123047,0.6155055165290833,-0.2339036464691162,-4.266073226928711,44.02100372314453,-21.558561325073242,0.09292483329772949,-0.12387704849243164,-0.6866827011108398,-0.6748817,-5.3393855,8.46271,0.04913056,-0.24364042,10.025978,1
17,988.0327758789062,-1.1772289276123047,0.6155055165290833,-0.2339036464691162,-4.405971527099609,44.363059997558594,-19.86336326599121,0.10472989082336426,0.1327657699584961,1.6934175491333008,-1.1265593,-5.5348144,7.0518594,-0.40923,-0.6716771,9.000745,1
17,988.0049438476562,-0.8608459234237671,0.8188377022743225,-0.10926786065101624,-3.943704605102539,44.95343780517578,-19.122316360473633,-0.1875627040863037,0.13288640975952148,-0.49948740005493164,-1.2101918,-5.510982,8.330149,0.08938718,0.21408892,10.058481,1
17,988.0202026367188,-0.6202296614646912,0.5064491629600525,0.020161591470241547,-3.463855743408203,45.82386779785156,-18.708303451538086,-0.035064101219177246,0.3450322151184082,0.01352071762084961,-1.1026323,-6.8718343,5.669416,-0.58542395,-2.196947,8.683945,1
17,988.1067504882812,-0.2994522750377655,0.9651783108711243,0.02016153186559677,-2.3689918518066406,45.90007019042969,-17.57274055480957,0.28085243701934814,-0.21415948867797852,-0.7521867752075195,-1.8697768,-5.4823833,9.295971,0.24958372,1.2879624,10.874122,1
17,988.459716796875,-0.853123128414154,-0.4715958535671234,0.5872811079025269,-1.5823163986206055,46.635765075683594,-16.197328567504883,0.1001596450805664,0.005242824554443359,1.152768611907959,-1.9462398,-5.9328237,7.179693,-0.2918043,-0.09244919,9.510023,1
17,988.5614013671875,-0.4039815664291382,0.49806028604507446,0.4229642152786255,-0.2022256851196289,46.7164306640625,-16.337730407714844,0.4527430534362793,-0.5684242248535156,0.5862269401550293,-2.6106186,-5.463318,6.6944184,-0.7080252,0.1835959,8.996855,1
17,988.2945556640625,-0.08293785899877548,0.8103156685829163,0.25625038146972656,0.5943698883056641,46.092247009277344,-15.654115676879883,0.09915304183959961,-0.06168651580810547,0.33899974822998047,-2.2999175,-6.082971,6.6731143,-0.35617876,-0.36396408,9.303939,1
17,987.9949951171875,-0.20544330775737762,0.42788606882095337,-0.10860241949558258,0.0027513504028320312,46.9605712890625,-15.613759994506836,0.13190793991088867,0.10512733459472656,1.3522939682006836,-2.192358,-6.321299,6.4837394,-0.35588646,-0.5469215,9.293995,1
17,987.8447875976562,-0.32794874906539917,-0.11326775699853897,-0.13736459612846375,-0.33962345123291016,47.429725646972656,-14.895593643188477,0.17421603202819824,-0.17223167419433594,-0.2554759979248047,-2.3213985,-5.966191,6.39142,-0.5632596,-0.16493821,9.027187,1
17,987.735595703125,-0.2535135746002197,-0.40661466121673584,-0.06665778905153275,-0.7535772323608398,46.989036560058594,-14.190141677856445,0.8107115030288696,-0.7042636871337891,4.329866886138916,-1.9127115,-5.956658,2.3837476,-1.7072661,-2.5328104,5.9575663,1
17,987.771240234375,-0.22035740315914154,-1.164283275604248,-0.29142847657203674,-1.9462738037109375,46.87245178222656,-12.998735427856445,-1.8083648681640625,1.8696517944335938,3.22411847114563,1.6052381,-7.4581237,7.7052207,1.7718606,-0.34297466,10.691759,1
17,987.9384155273438,-1.2604541778564453,-5.350902080535889,-0.5171312093734741,-5.072343349456787,47.42054748535156,-10.239561080932617,-0.867377519607544,-0.04664754867553711,-4.198347091674805,0.9743179,-7.219796,8.711282,0.5913,0.6957493,11.319342,1
17,987.9718627929688,-0.08253919333219528,-1.2098233699798584,0.5883458852767944,-4.749700546264648,48.56481170654297,-9.201469421386719,1.1173597574234009,0.2625441551208496,4.9486541748046875,-0.43332034,-7.2603126,5.873008,-0.65159166,-0.87095547,9.28488,1
17,987.9464721679688,-0.5604432225227356,0.46490412950515747,0.21204154193401337,-4.408686637878418,48.62040710449219,-8.718381881713867,0.16409319639205933,-0.1925196647644043,-0.9980239868164062,-0.12261914,-7.029135,6.793851,-0.29549128,0.21350479,9.769712,1
17,987.97705078125,-0.7961328029632568,-0.5256577730178833,0.1952635943889618,-4.596195220947266,48.970703125,-7.247282028198242,0.07252649962902069,0.055194854736328125,0.43932151794433594,0.17135274,-7.455742,6.149973,-0.07841623,-0.358665,9.659441,1
17,987.9846801757812,-0.5175666213035583,0.005908751394599676,4.5346724800765514E-4,-4.601441383361816,49.228660583496094,-6.414739608764648,0.08491867780685425,0.18210887908935547,0.17638731002807617,0.032752365,-7.4700418,6.334616,-0.17665619,-0.06360006,9.792585,1
17,987.9972534179688,-0.3904009163379669,-0.09822073578834534,0.09086765348911285,-4.045776844024658,49.1689453125,-5.57305908203125,0.23874224722385406,-0.17940807342529297,0.05440187454223633,-0.029371142,-7.460509,6.1452413,-0.2308746,-0.0025048256,9.662854,1
18,988.007568359375,-0.4734915494918823,-0.13590441644191742,0.10391706228256226,-4.535683631896973,49.55248260498047,-4.596197128295898,0.5281128883361816,-0.8051447868347168,-0.33587169647216797,-0.38144696,-6.7598066,6.7061987,-0.43453956,1.0460434,9.462059,1
18,988.007568359375,-0.3081077039241791,0.07062327861785889,-0.03350118547677994,-4.472448825836182,49.08476257324219,-4.347620010375977,0.04722626507282257,-0.042449951171875,-0.5389571189880371,0.2757733,-8.170708,6.206719,0.06796086,-0.4399991,10.254837,1
18,988.0882568359375,0.38258808851242065,1.0125815868377686,-0.5458905696868896,-5.214804649353027,49.33831024169922,-5.017905235290527,-0.531431257724762,1.010737419128418,0.6512904167175293,0.17778468,-8.003879,6.119132,0.17765415,-0.75234604,10.046885,1
18,988.0608520507812,0.7892523407936096,1.4655848741531372,-0.2639952301979065,-5.180777549743652,49.00243377685547,-6.620165824890137,-0.26084521412849426,0.29619932174682617,-0.8668522834777832,-0.48900074,-7.2483783,7.4518666,0.23541129,0.38830996,10.3972225,1
18,987.9948120117188,0.9410524964332581,1.5087281465530396,0.19526654481887817,-4.957124710083008,49.582000732421875,-8.921089172363281,-0.2052949070930481,-0.6263408660888672,1.5364389419555664,-0.9120161,-6.3379664,5.548636,-0.0695436,-0.6335819,8.448828,1
