Timestamp,P,Gx,Gy,Gz,Mx,My,Mz,LiAx,LiAy,LiAz,Ax,Ay,Az,earthAx,earthAy,earthAz,Value,Type
0,988.2930908203125,-2.1803018171340227E-4,0.0026068566367030144,-1.540535595268011E-5,-7.314883232116699,25.701807022094727,-40.000816345214844,-0.3722613453865051,1.4564943313598633,-0.02685070037841797,0.066176504,-0.15837754,9.748993,-0.011568945,-1.5043291,9.633753,0
0,988.1842041015625,0.0020744805224239826,0.0027441736310720444,1.346259959973395E-4,-6.903981685638428,25.347593307495117,-37.65689468383789,-0.3716699481010437,1.468697428703308,-0.05022144317626953,0.059010625,-0.1464612,9.772666,-0.04308668,-1.4916283,9.659354,0
0,988.1334838867188,-1.9329594215378165E-4,4.8115302342921495E-4,-1.334435655735433E-4,-7.9938201904296875,26.434160232543945,-37.475547790527344,-0.3758411705493927,1.4270297288894653,-0.054462432861328125,0.063794196,-0.13216166,9.772666,-0.042311892,-1.4767346,9.66147,0
0,988.1334838867188,-1.9329594215378165E-4,4.8115302342921495E-4,-1.334435655735433E-4,-7.9938201904296875,26.434160232543945,-37.475547790527344,-0.3661079406738281,1.459493637084961,-0.06853866577148438,0.06618795,-0.15122797,9.784502,-0.04063427,-1.4951961,9.670909,0
0,988.1791381835938,-3.2649090280756354E-4,-3.177886828780174E-4,3.991724515799433E-4,-7.845607280731201,26.25740623474121,-38.33487319946289,-0.3794589340686798,1.4332194328308105,-0.035040855407714844,0.07097155,-0.14169498,9.767933,-0.015632607,-1.482882,9.656007,0
0,988.1715087890625,-4.596852813847363E-4,-1.846247469075024E-4,-2.666329382918775E-4,-7.305185317993164,25.762662887573242,-38.54316711425781,-0.3789093792438507,1.4404783248901367,-0.058391571044921875,0.07097536,-0.14646165,9.775034,-0.0067851134,-1.4861543,9.662768,0
0,988.2166748046875,0.001404489390552044,8.16970132291317E-5,-3.3277319744229317E-7,-6.921426296234131,25.173460006713867,-38.02893829345703,-0.3782972991466522,1.4478479623794556,-0.06755256652832031,0.06619936,-0.15837808,9.78687,-0.033386488,-1.4953896,9.673417,0
0,988.2140502929688,6.055046687833965E-4,8.17030668258667E-5,1.32809451315552E-4,-7.4210309982299805,25.496145248413086,-38.50972366333008,-0.3873082101345062,1.4504438638687134,-0.057778358459472656,0.07337287,-0.15599485,9.770302,-0.013150126,-1.490747,9.657432,0
0,988.2140502929688,6.055046687833965E-4,8.17030668258667E-5,1.32809451315552E-4,-7.272520065307617,25.951520919799805,-38.944175720214844,-0.3822980225086212,1.4383459091186523,-0.052695274353027344,0.06620696,-0.1536117,9.77977,-0.030720364,-1.4851564,9.667742,0
0,988.2116088867188,7.283658487722278E-5,7.474985904991627E-4,1.3279367703944445E-4,-7.557610511779785,26.052980422973633,-38.36729049682617,-0.3671472668647766,1.4265334606170654,-0.0523681640625,0.06143093,-0.15122853,9.775036,-0.03505936,-1.4785513,9.663883,0
0,988.2090454101562,7.385527133010328E-4,-4.5091082574799657E-4,-1.3355357805266976E-4,-7.068521976470947,25.825895309448242,-38.04444885253906,-0.3853786885738373,1.4193426370620728,-0.03308296203613281,0.073384285,-0.14169551,9.756099,-0.0018598996,-1.4677265,9.646384,0
0,988.1756591796875,-1.9358942518010736E-4,-3.1774688977748156E-4,-5.330431158654392E-4,-7.6604390144348145,26.06209373474121,-38.42896270751953,-0.3847922682762146,1.4165788888931274,-0.08004283905029297,0.07338807,-0.13454579,9.782139,-0.023179308,-1.4613979,9.673548,0
0,988.1859130859375,2.058476093225181E-4,7.47522572055459E-4,-4.2706960812211037E-7,-7.138686180114746,26.02387809753418,-38.50712585449219,-0.36562395095825195,1.4379823207855225,-0.06551837921142578,0.0686121,-0.15122877,9.782139,-0.00911985,-1.4739666,9.671874,0
0,988.1909790039062,2.0581093849614263E-4,0.0014133182121440768,6.65346859022975E-4,-7.509756565093994,25.044309616088867,-38.46961212158203,-0.3841061294078827,1.4162425994873047,-0.06041240692138672,0.0733957,-0.13931252,9.779772,-0.03015555,-1.4604341,9.671348,0
0,988.1856079101562,-1.9369955407455564E-4,3.480605664663017E-4,-4.586181603372097E-7,-7.813079833984375,26.340349197387695,-38.03680419921875,-0.3739244043827057,1.4281901121139526,-0.04114723205566406,0.06622979,-0.15599556,9.765569,-0.038514577,-1.4700947,9.655692,0
0,988.1751098632812,6.052114185877144E-4,2.1490862127393484E-4,2.6584166334941983E-4,-7.710113525390625,26.437150955200195,-38.67420959472656,-0.35901111364364624,1.4254190921783447,-0.045500755310058594,0.0638437,-0.1512291,9.770304,-0.033502027,-1.4628718,9.661502,0
0,988.2105712890625,7.254286902025342E-5,-5.840330850332975E-4,-4.900502972304821E-7,-7.331081390380859,25.31731605529785,-39.0520133972168,-0.3728835880756378,1.4322431087493896,-0.049866676330566406,0.061457574,-0.158379,9.775038,-0.034654535,-1.4670235,9.665757,0
0,988.1903076171875,2.056642551906407E-4,0.0016796578420326114,-2.6682153111323714E-4,-7.007650852203369,25.092863082885742,-38.24188995361328,-0.3724120557308197,1.4103974103927612,-0.04002094268798828,0.06863111,-0.14646272,9.772672,-0.012668643,-1.4546299,9.665152,0
0,988.2155151367188,4.7194346552714705E-4,3.480843733996153E-4,-1.3367936480790377E-4,-6.897595405578613,25.985624313354492,-37.54124450683594,-0.37209299206733704,1.4027825593948364,-0.058577537536621094,0.07580462,-0.14407958,9.789242,0.0107228365,-1.4535722,9.682085,0
0,988.1974487304688,-5.933569627813995E-4,0.0014133538352325559,1.3262080028653145E-4,-7.401658535003662,25.197546005249023,-37.417457580566406,-0.36677801609039307,1.4144972562789917,-0.044022560119628906,0.07102865,-0.14884622,9.763203,-0.02712243,-1.4506317,9.656203,0
0,988.1974487304688,0.001004501711577177,8.178048301488161E-5,6.652368465438485E-4,-7.5487542152404785,25.849985122680664,-37.43296813964844,-0.3706585466861725,1.4069072008132935,-0.038895606994628906,0.071032405,-0.14646302,9.772673,-0.024878673,-1.4466978,9.666338,0
0,988.2050170898438,3.386756288819015E-4,-9.834771044552326E-4,-1.337265712209046E-4,-7.412579536437988,25.767358779907227,-38.3729248046875,-0.38393634557724,1.4087042808532715,-0.05741691589355469,0.08298576,-0.15361293,9.767939,-0.0102628805,-1.4530543,9.6608305,0
0,988.19970703125,-1.9399315351620317E-4,3.481082385405898E-4,-2.669001114554703E-4,-7.6579694747924805,25.221071243286133,-37.61029052734375,-0.3689705431461334,1.3868639469146729,-0.06650829315185547,0.06626025,-0.13693006,9.772673,-0.03961542,-1.4300654,9.66859,0
0,988.21240234375,6.049179355613887E-4,4.812721163034439E-4,3.988737880717963E-4,-7.246760845184326,26.290945053100586,-37.73625946044922,-0.368344247341156,1.4077649116516113,-0.04244041442871094,0.06865394,-0.14884658,9.76794,-0.009111855,-1.4390154,9.662746,0
0,988.1973266601562,-6.0908321756869555E-5,-3.1766953179612756E-4,-6.664054817520082E-4,-7.247740268707275,25.921186447143555,-37.56050109863281,-0.3510148525238037,1.3761893510818481,-0.03710460662841797,0.05447054,-0.14164187,9.772469,-0.025357816,-1.4259627,9.669031,0
1,988.2020874023438,4.770378000102937E-4,2.1409959299489856E-4,9.337675292044878E-4,-7.909415245056152,25.881147384643555,-37.61016845703125,-0.3644074499607086,1.3878686428070068,-0.04620361328125,0.059164077,-0.15117286,9.777195,-0.05279121,-1.4334062,9.672768,0
1,988.2122192382812,0.0011527767637744546,7.496373145841062E-4,-1.2492045061662793E-4,-7.749845027923584,25.87263298034668,-37.788230895996094,-0.3684364855289459,1.3898693323135376,-0.07422828674316406,0.06863743,-0.15117083,9.784288,-0.0367585,-1.4343625,9.679934,0
1,988.2046508789062,3.546604420989752E-4,-5.820770747959614E-4,8.593779057264328E-6,-7.356274604797363,25.0299015045166,-38.33845520019531,-0.37226182222366333,1.3767805099487305,-0.050070762634277344,0.075720906,-0.13686903,9.779547,-0.02617342,-1.41845,9.6773615,0
1,988.2197265625,-0.0011078929528594017,-3.676807973533869E-4,-3.0072347726672888E-5,-7.733241558074951,25.78291893005371,-37.93950271606445,-0.3610936105251312,1.4021406173706055,-0.044869422912597656,0.06607503,-0.15593313,9.77007,-0.040586643,-1.4292041,9.666369,0
1,988.1893310546875,-3.0811416218057275E-4,-0.0014330791309475899,6.36073702480644E-4,-7.918815612792969,26.452436447143555,-38.642940521240234,-0.3552011549472809,1.3892426490783691,-0.03020191192626953,0.07793829,-0.15354772,9.765327,-0.016885102,-1.4262987,9.662125,0
1,988.186767578125,9.219121420755982E-5,1.6468105604872108E-4,9.027458727359772E-4,-7.371899604797363,25.489377975463867,-38.36293029785156,-0.35914450883865356,1.3764128684997559,-0.04395771026611328,0.06590253,-0.14639576,9.770054,-0.012803089,-1.4136779,9.668561,0
1,988.1915893554688,2.261804766021669E-4,2.977040712721646E-4,-5.616351845674217E-4,-7.201515197753906,26.01738929748535,-37.95817565917969,-0.3628980815410614,1.3829292058944702,-0.02933788299560547,0.06820616,-0.15354346,9.762945,-0.015705973,-1.417038,9.661009,0
1,988.2344360351562,-3.930408274754882E-5,-9.008523775264621E-4,-2.8647074941545725E-5,-7.433313846588135,26.5907039642334,-38.26394271850586,-0.3571760654449463,1.3606818914413452,-0.04310894012451172,0.06334013,-0.1440083,9.770039,-0.019399874,-1.4042609,9.669855,0
1,988.1988525390625,2.2784312022849917E-4,2.974341041408479E-4,2.3802503710612655E-4,-7.39263391494751,26.312726974487305,-38.253944396972656,-0.3705539107322693,1.3621808290481567,-0.02846240997314453,0.07759327,-0.14162292,9.762929,-0.0037843175,-1.4014648,9.663166,0
1,988.2014770507812,-3.764132270589471E-5,3.098341403529048E-5,2.383813844062388E-4,-7.0017008781433105,24.99283790588379,-37.852027893066406,-0.3648526668548584,1.353924036026001,-0.018523216247558594,0.06555751,-0.15115388,9.760553,-0.021089066,-1.403518,9.6605,0
1,988.2115478515625,-1.6996805788949132E-4,5.634800181724131E-4,-2.7578265871852636E-5,-7.1089582443237305,25.103452682495117,-38.38086700439453,-0.3591870367527008,1.3600538969039917,-0.02753734588623047,0.072640985,-0.1487685,9.765281,-0.015884582,-1.4002194,9.665777,0
1,988.1986694335938,2.3033731849864125E-4,5.633450928144157E-4,-2.722191857174039E-5,-7.372442722320557,25.857667922973633,-38.46138000488281,-0.34882766008377075,1.356642246246338,-0.06495952606201172,0.0701648,-0.13923325,9.786577,-0.0023701824,-1.3897753,9.688648,0
1,988.1937866210938,2.3199996212497354E-4,2.967592445202172E-4,-2.9282522154971957E-4,-7.839955806732178,25.525243759155273,-38.36988830566406,-0.3569389879703522,1.3371771574020386,-0.04059791564941406,0.07007855,-0.13684781,9.769999,-0.038701817,-1.3812453,9.673013,0
1,988.1809692382812,2.328314003534615E-4,4.297823761589825E-4,-2.924688742496073E-4,-7.787482261657715,26.1535587310791,-37.95283508300781,-0.3659321367740631,1.3531270027160645,-0.054393768310546875,0.07477206,-0.15114541,9.774726,-0.028200384,-1.3937727,9.676276,0
1,988.1809692382812,2.328314003534615E-4,4.297823761589825E-4,-2.924688742496073E-4,-7.787482261657715,26.1535587310791,-37.95283508300781,-0.3559414744377136,1.3512705564498901,-0.025743484497070312,0.07707572,-0.14876004,9.767616,-0.024467818,-1.3877792,9.669947,0
1,988.1809692382812,2.328314003534615E-4,4.297823761589825E-4,-2.924688742496073E-4,-7.99422550201416,26.908369064331055,-38.27307891845703,-0.3548712134361267,1.3522542715072632,-0.06785297393798828,0.06742987,-0.14875789,9.78418,-0.020112447,-1.3835738,9.687218,0
1,988.2113037109375,1.0050478158518672E-4,9.62279096711427E-4,1.0736123658716679E-4,-7.392090320587158,25.944433212280273,-38.155494689941406,-0.3632085621356964,1.334277629852295,-0.04368877410888672,0.0697335,-0.14160599,9.772335,-0.016556568,-1.3720413,9.676812,0
1,988.1861572265625,-2.981376019306481E-4,-5.025931750424206E-4,1.0771764209493995E-4,-7.35736083984375,25.7664852142334,-38.53535461425781,-0.3477717638015747,1.3402546644210815,-0.02427959442138672,0.06964725,-0.15828674,9.774694,-0.029145509,-1.3844358,9.677657,0
1,988.196044921875,-3.0158960726112127E-5,1.6292656073346734E-4,1.0843010386452079E-4,-7.607178211212158,25.321691513061523,-38.2398796081543,-0.34177762269973755,1.341613531112671,-0.033293724060058594,0.060001373,-0.15590133,9.777054,-0.046000235,-1.3760172,9.681072,0
1,988.1957397460938,3.7014606641605496E-4,-6.361560663208365E-4,-2.4371431209146976E-5,-7.450652122497559,25.31022834777832,-38.263328552246094,-0.3596702814102173,1.3139724731445312,-0.037525177001953125,0.071864665,-0.13921626,9.774679,-0.023484625,-1.3593001,9.680943,0
1,988.2007446289062,-4.279700224287808E-4,-5.03133109305054E-4,-2.903310232795775E-4,-7.332442760467529,25.84206199645996,-37.85075759887695,-0.34914320707321167,1.3098528385162354,-0.03225994110107422,0.074168295,-0.14636408,9.765202,-0.011748981,-1.3615468,9.671203,0
1,988.197998046875,-0.001625560224056244,2.9567949241027236E-4,7.752887904644012E-4,-7.229476451873779,25.93886375427246,-38.4881591796875,-0.35739171504974365,1.3157236576080322,-0.0412445068359375,0.076471925,-0.14159541,9.769928,-0.002935458,-1.3543715,9.676933,0
1,988.2080688476562,6.389562622644007E-4,-7.697188993915915E-4,-2.3302447516471148E-5,-7.585709571838379,25.868528366088867,-38.198204040527344,-0.34658852219581604,1.317246437072754,-0.06448554992675781,0.06443617,-0.15112637,9.791225,-0.0330774,-1.3592546,9.697754,0
1,988.185302734375,0.0010392614640295506,-2.3722200421616435E-4,-4.224200383760035E-4,-7.625304222106934,25.40993309020996,-38.01129913330078,-0.3309566378593445,1.3089967966079712,-0.021417617797851562,0.0667398,-0.14874096,9.77228,-0.037464824,-1.3514527,9.67968,0
2,988.1954345703125,-4.246446187607944E-4,-5.036728689447045E-4,3.7688383599743247E-4,-6.863706588745117,25.543821334838867,-38.444427490234375,-0.35012027621269226,1.3100589513778687,-0.030517578125,0.07274628,-0.15592091,9.777126,5.1004812E-5,-1.3570833,9.684015,0
2,988.1878051757812,4.832002450712025E-4,-0.0012961140600964427,-4.1796843288466334E-4,-7.783214569091797,25.52583885192871,-38.609619140625,-0.3485383689403534,1.30178964138031,-0.04425621032714844,0.06793219,-0.14638694,9.772388,-0.04112906,-1.3417509,9.681096,0
2,988.1953735351562,8.784231613390148E-4,-0.0010291081853210926,-4.197900998406112E-4,-7.902647495269775,25.624670028686523,-38.52001190185547,-0.3378015160560608,1.312245488166809,-0.05323505401611328,0.06311813,-0.15353592,9.781855,-0.051586814,-1.3442212,9.690337,0
2,988.172607421875,-4.5282585779204965E-4,-2.3021409288048744E-4,-2.017489168792963E-5,-7.842020511627197,25.892065048217773,-38.391029357910156,-0.3405386805534363,1.2870639562606812,-0.03351402282714844,0.06308389,-0.1487685,9.781852,-0.044754744,-1.3355973,9.691487,0
2,988.2105712890625,-9.85127640888095E-4,-0.001561847049742937,-2.8634927002713084E-4,-7.519538402557373,26.510107040405273,-38.476890563964844,-0.3443770706653595,1.2899365425109863,-0.01906108856201172,0.07738903,-0.14400117,9.774747,-0.009794414,-1.3303266,9.685171,0
2,988.2125244140625,-5.8532360708341E-4,-8.961109560914338E-4,7.790557574480772E-4,-7.33771276473999,25.679712295532227,-38.841243743896484,-0.34785231947898865,1.2716823816299438,-0.03749656677246094,0.07974467,-0.1440003,9.777111,-0.009565588,-1.3270944,9.68802,0
2,988.2127685546875,-3.1867792131379247E-4,-7.630066247656941E-4,1.1340744094923139E-4,-7.096782207489014,25.1152400970459,-38.99930953979492,-0.34199684858322144,1.291388750076294,-0.02277851104736328,0.07254073,-0.14638276,9.767639,-0.01347746,-1.3221346,9.679114,0
2,988.21533203125,-4.515053587965667E-4,4.353613476268947E-4,1.1354900198057294E-4,-7.268527984619141,25.111970901489258,-38.20280456542969,-0.3410787582397461,1.2686458826065063,-0.036525726318359375,0.07250649,-0.14161535,9.774737,-0.019506976,-1.3145614,9.687227,0
2,988.1973266601562,7.472459110431373E-4,3.0214973958209157E-4,2.468483871780336E-4,-7.808950424194336,25.606718063354492,-37.994510650634766,-0.3305457830429077,1.279270052909851,-0.04553794860839844,0.06291261,-0.1439978,9.779469,-0.045677014,-1.3105747,9.692421,0
2,988.1998291015625,-1.8452940275892615E-4,-2.3053563199937344E-4,1.1383189121261239E-4,-7.898761749267578,25.89146614074707,-38.151302337646484,-0.3245347738265991,1.266021966934204,-0.011931419372558594,0.06287837,-0.14399697,9.765263,-0.045887385,-1.305003,9.678839,0
2,988.2124633789062,6.147481617517769E-4,-6.300630629993975E-4,-1.9184488337486982E-5,-7.412036895751953,25.39906883239746,-38.274478912353516,-0.3374919891357422,1.2668794393539429,-0.025643348693847656,0.07240373,-0.14399613,9.769993,-0.023012992,-1.3044568,9.683832,0
2,988.2174072265625,4.8192060785368085E-4,-9.74848517216742E-5,1.1411489685997367E-4,-7.670848846435547,25.051355361938477,-38.21424865722656,-0.3268071115016937,1.2629506587982178,-0.03936290740966797,0.06519979,-0.15114512,9.76999,-0.04606348,-1.304856,9.683751,0
2,988.1820678710938,-7.1617093635723E-4,1.6877742018550634E-4,-4.183754208497703E-4,-7.880635738372803,25.803220748901367,-38.3798828125,-0.33071398735046387,1.2446014881134033,-0.0294036865234375,0.069945395,-0.13922788,9.76762,-0.033357777,-1.2905931,9.683178,0
2,988.1820678710938,-5.005107959732413E-5,-9.759207023307681E-5,-1.8760154489427805E-5,-7.683429718017578,25.51378059387207,-38.393333435058594,-0.32940176129341125,1.254988193511963,-0.033654212951660156,0.07230103,-0.13684373,9.777086,-0.021324098,-1.2861748,9.693331,0
2,988.1892700195312,-3.160369233228266E-4,-6.302773836068809E-4,-1.861853525042534E-5,-7.372740745544434,25.22553062438965,-38.886253356933594,-0.33315545320510864,1.231845736503601,-0.028426170349121094,0.06748697,-0.14160945,9.788918,-0.033839233,-1.2864625,9.705224,0
2,988.1968994140625,-7.1518070762977E-4,-2.3085711291059852E-4,-1.8477148842066526E-5,-7.622122764587402,25.518796920776367,-38.86498260498047,-0.31783780455589294,1.2516093254089355,-0.008999824523925781,0.06506282,-0.14875849,9.758142,-0.02696345,-1.2851824,9.674466,0
2,988.1968994140625,8.830448496155441E-4,1.6856304137036204E-4,-1.5149364480748773E-4,-7.289560317993164,25.30318260192871,-38.51869201660156,-0.3260766863822937,1.252697229385376,-0.027482986450195312,0.07219827,-0.14637433,9.769974,-0.029475171,-1.2821305,9.686811,0
2,988.1744384765625,4.6089832903817296E-4,-6.587306270375848E-4,-4.5727507676929235E-4,-7.693103790283203,25.873228073120117,-38.027957916259766,-0.32480373978614807,1.2584384679794312,-0.041225433349609375,0.076943815,-0.15352334,9.769972,-0.014051769,-1.2865072,9.686411,0
2,988.2020874023438,5.943866563029587E-4,1.4016340719535947E-4,-5.902915727347136E-4,-7.493940353393555,26.32331657409668,-38.392921447753906,-0.31938809156417847,1.2545262575149536,-0.0265655517578125,0.06973988,-0.1559058,9.781805,-0.027086802,-1.2842052,9.6986065,0
2,988.1917724609375,-7.10732419975102E-5,9.390575578436255E-4,2.0879774820059538E-4,-7.541006565093994,25.9632625579834,-38.51856994628906,-0.3325062394142151,1.221775770187378,-0.021330833435058594,0.07926518,-0.13922198,9.760496,-0.0350254,-1.2636985,9.679606,0
2,988.201904296875,-2.0390079589560628E-4,-3.9257551543414593E-4,7.578125223517418E-5,-7.938355445861816,25.432859420776367,-37.964393615722656,-0.3311794698238373,1.2179311513900757,-0.0019292831420898438,0.07206124,-0.13445456,9.767594,-0.010983434,-1.2544872,9.687896,0
2,988.1968994140625,7.285345927812159E-4,-0.001058418769389391,-5.7235127314925194E-5,-7.224367618560791,25.57499122619629,-38.62162780761719,-0.3202085494995117,1.2138835191726685,-0.039318084716796875,0.06963712,-0.13922031,9.7746935,-0.020920537,-1.254885,9.695035,0
2,988.20166015625,-2.0324060460552573E-4,6.791087798774242E-6,7.606419967487454E-5,-7.403585910797119,25.670278549194336,-38.13768005371094,-0.30953508615493774,1.2146117687225342,-0.038840293884277344,0.060043275,-0.13921948,9.784159,-0.03429821,-1.249105,9.705221,0
2,988.2197875976562,6.340508116409183E-5,-2.59578344412148E-4,-1.9011017866432667E-4,-7.425734519958496,25.38580894470215,-37.578731536865234,-0.3225454092025757,1.2199395895004272,-0.024137496948242188,0.07673836,-0.14398523,9.777054,-0.0034256727,-1.2531762,9.69778,0
2,988.1965942382812,-6.02054235059768E-4,-9.254216565750539E-4,3.4266302827745676E-4,-7.009853839874268,25.3537654876709,-37.56395721435547,-0.31642746925354004,1.2112234830856323,-0.018934249877929688,0.07228744,-0.14160998,9.769983,0.0033185761,-1.2448397,9.691657,0
3,988.1965942382812,-6.02054235059768E-4,-9.254216565750539E-4,3.4266302827745676E-4,-6.884035110473633,25.89296531677246,-37.53791046142578,-0.3114140033721924,1.197763204574585,-0.004340171813964844,0.06785837,-0.14400186,9.758179,-0.031693406,-1.2402786,9.680295,0
3,988.2066650390625,7.298550917766988E-4,-3.928434452973306E-4,2.0964653231203556E-4,-7.631934642791748,25.772329330444336,-37.80052947998047,-0.32011678814888,1.2029844522476196,-0.02752208709716797,0.07263312,-0.13685192,9.762913,-0.023818575,-1.2309573,9.68621,0
3,988.1889038085938,-2.1257024491205812E-4,2.7687702095136046E-4,2.0786805544048548E-4,-8.111348152160645,25.639955520629883,-38.488746643066406,-0.30014026165008545,1.2037709951400757,-0.017599105834960938,0.058288604,-0.14400162,9.760544,-0.05993173,-1.2287256,9.683956,0
3,988.1889038085938,-2.1257024491205812E-4,2.7687702095136046E-4,2.0786805544048548E-4,-8.111348152160645,25.639955520629883,-38.488746643066406,-0.30362290143966675,1.1900304555892944,-0.031314849853515625,0.07023305,-0.13446839,9.772381,-0.035994425,-1.2203873,9.697,0
3,988.17919921875,-4.787882207892835E-4,-6.552444538101554E-4,-4.578796215355396E-4,-7.477772235870361,25.495546340942383,-38.269989013671875,-0.32141178846359253,1.1909607648849487,-0.01666545867919922,0.077397645,-0.14638461,9.77238,-0.01996047,-1.2300086,9.696057,0
3,988.1640014648438,7.196821388788521E-4,-1.2262060772627592E-4,2.0793091971427202E-4,-7.116567611694336,25.09608268737793,-37.99433898925781,-0.3058677911758423,1.1821143627166748,-0.006730079650878906,0.0654431,-0.14638446,9.758177,-0.021803666,-1.2211818,9.682766,0
3,988.196533203125,4.534151521511376E-4,-3.889444633387029E-4,7.479399209842086E-5,-7.249423027038574,25.393491744995117,-38.607147216796875,-0.3141741156578064,1.1779632568359375,-0.03466224670410156,0.07499763,-0.14400108,9.77948,-0.013983492,-1.2194216,9.704505,0
3,988.1914672851562,-7.91677157394588E-5,-1.2263652752153575E-4,2.0797288743779063E-4,-7.533534049987793,25.864713668823242,-38.206016540527344,-0.30379921197891235,1.1596498489379883,-0.02001190185546875,0.067822844,-0.14161767,9.772379,-0.025829617,-1.2102824,9.69838,0
3,988.211669921875,1.8719705985859036E-4,9.426191099919379E-4,0.0011400994844734669,-7.167083740234375,25.20729637145996,-38.762908935546875,-0.3073923587799072,1.1888116598129272,-0.010069847106933594,0.06542787,-0.15591721,9.765276,-0.02486492,-1.2183686,9.690417,0
3,988.1887817382812,5.408813012763858E-5,-0.001187915913760662,6.074886186979711E-4,-7.784873962402344,25.418447494506836,-37.83323669433594,-0.3011203110218048,1.155943751335144,0.01882457733154297,0.06781271,-0.13446762,9.755808,-0.038315628,-1.192462,9.683752,0
3,988.1838989257812,-4.7849485417827964E-4,-2.558182750362903E-4,7.487775292247534E-5,-7.419508934020996,25.497617721557617,-38.58702850341797,-0.3096987009048462,1.1659237146377563,-0.023308753967285156,0.07497731,-0.14161737,9.779478,-0.018533517,-1.1997613,9.70691,0
3,988.1987915039062,-4.784459597431123E-4,2.768055419437587E-4,2.0805670646950603E-4,-7.3483662605285645,25.669404983520508,-38.30010986328125,-0.30370527505874634,1.14710533618927,-0.027540206909179688,0.072582364,-0.13446738,9.774744,-0.014404189,-1.1871759,9.703576,0
3,988.1810913085938,-2.1208106772974133E-4,2.767976257018745E-4,7.491977885365486E-5,-7.315158367156982,25.48997688293457,-38.6026611328125,-0.3028112053871155,1.161873698234558,-0.022337913513183594,0.07018736,-0.14638366,9.774744,-0.020231161,-1.1935822,9.702935,0
3,988.1834716796875,-3.4519011387601495E-4,1.0473828297108412E-5,-1.9137514755129814E-4,-7.025777339935303,25.18110466003418,-38.0133056640625,-0.3015766739845276,1.1435452699661255,-0.01715564727783203,0.067792416,-0.14638354,9.77711,-0.014995053,-1.1891224,9.705859,0
3,988.19384765625,-7.882533827796578E-5,1.046591205522418E-5,-3.245121333748102E-4,-7.302684783935547,26.13389778137207,-38.796234130859375,-0.3102053999900818,1.1632847785949707,-0.0072422027587890625,0.07734692,-0.15114991,9.781844,-0.0074104443,-1.1925186,9.710363,0
3,988.1884765625,4.5385531848296523E-4,0.0012088792864233255,6.076144054532051E-4,-7.398881912231445,25.780614852905273,-39.06867218017578,-0.29532164335250854,1.139861822128296,0.0026884078979492188,0.065392375,-0.13923343,9.758172,-0.022201244,-1.1710389,9.688848,0
3,988.1987915039062,-7.872754940763116E-5,1.4360790373757482E-4,-1.913122832775116E-4,-7.315158367156982,25.489973068237305,-38.6026611328125,-0.2884197235107422,1.1335020065307617,-0.00608062744140625,0.06777716,-0.1392333,9.767641,-0.020194132,-1.1680257,9.698769,0
3,988.196044921875,-2.1183647913858294E-4,-0.0010548215359449387,-5.907650338485837E-4,-7.99039363861084,25.5425968170166,-38.65565490722656,-0.30238479375839233,1.1408079862594604,-0.024781227111816406,0.07972163,-0.146383,9.779476,-0.034891322,-1.1745872,9.710051,0
3,988.2113037109375,-2.1178770111873746E-4,9.425397147424519E-4,-5.8112433180212975E-5,-7.662259578704834,25.42848014831543,-38.776527404785156,-0.29683929681777954,1.1411707401275635,-0.019582748413085938,0.07254684,-0.1535327,9.77474,-0.022372767,-1.1750089,9.705319,0
3,988.1707763671875,-4.78054687846452E-4,6.762159173376858E-4,-1.9124941900372505E-4,-7.413421154022217,25.503507614135742,-38.89624786376953,-0.29571443796157837,1.1176626682281494,-0.004904747009277344,0.06776196,-0.14161621,9.772373,-0.022690233,-1.1575279,9.704821,0
3,988.1881103515625,-2.1168991224840283E-4,-1.2273972970433533E-4,-1.912284642457962E-4,-7.312955379486084,25.22907066345215,-39.28059387207031,-0.3039851784706116,1.1129642724990845,-0.013872146606445312,0.07253671,-0.14876594,9.765271,-0.034251466,-1.1597593,9.697511,0
3,988.2088012695312,-0.001410062424838543,-5.222214967943728E-4,7.408980745822191E-4,-7.783214569091797,25.52583885192871,-38.609619140625,-0.29791468381881714,1.1088179349899292,-0.013425827026367188,0.07492155,-0.13923271,9.772372,-0.012126524,-1.1480577,9.705983,0
3,988.2138061523438,9.86829400062561E-4,-1.2275559129193425E-4,7.512932643294334E-5,-7.325674533843994,25.5855770111084,-38.76060485839844,-0.2966265082359314,1.1191294193267822,-0.008264541625976562,0.0796963,-0.15353222,9.762903,-0.011971239,-1.1579087,9.69553,0
3,988.2062377929688,3.210885333828628E-4,-5.222373874858022E-4,-1.9116559997200966E-4,-7.334805965423584,25.57674217224121,-38.296775817871094,-0.28125572204589844,1.1055456399917603,-0.017309188842773438,0.07013154,-0.12969936,9.774738,-0.012637641,-1.1295806,9.710363,0
4,988.180908203125,3.211374278180301E-4,2.7670228155329823E-4,2.083292929455638E-4,-7.299234867095947,25.662633895874023,-38.15331268310547,-0.2893231213092804,1.1105390787124634,-0.0073299407958984375,0.07449335,-0.14637198,9.7747,-0.023434456,-1.1419221,9.709129,0
4,988.20068359375,-3.4312548814341426E-4,-2.561772125773132E-4,7.582560647279024E-5,-7.498261451721191,25.31846809387207,-38.4874267578125,-0.2930675446987152,1.111083984375,-0.016359329223632812,0.07208189,-0.15590458,9.769964,-0.016411848,-1.1458142,9.704048,0
4,988.1881103515625,3.2219220884144306E-4,8.11076199170202E-4,-9.873969247564673E-4,-7.071183681488037,24.928442001342773,-38.91533660888672,-0.2730318307876587,1.1022416353225708,-0.025407791137695312,0.060110807,-0.13683785,9.774696,-0.038049813,-1.1202645,9.711364,0
4,988.1783447265625,4.5555783435702324E-4,2.7841090923175216E-4,6.105873035266995E-4,-7.777669429779053,25.900022506713867,-39.01728820800781,-0.29550641775131226,1.093468427658081,-0.015515327453613281,0.076818556,-0.15352024,9.772327,-0.016551044,-1.1366018,9.707508,0
4,988.1986694335938,3.226078115403652E-4,-5.205705529078841E-4,2.1120259771123528E-4,-7.454101085662842,25.781484603881836,-38.90624237060547,-0.28988856077194214,1.0750536918640137,0.0038423538208007812,0.06484747,-0.13683678,9.7675905,-0.017648127,-1.1128668,9.705152,0
4,988.213623046875,3.228156128898263E-4,6.778170936740935E-4,2.112916554324329E-4,-7.397902965545654,26.150373458862305,-39.24442672729492,-0.2841113209724426,1.0850131511688232,0.009019851684570312,0.06960568,-0.14398609,9.767588,-0.016001113,-1.1165515,9.704865,0
4,988.213623046875,1.2908497592434287E-4,2.872264594770968E-4,-1.2052716920152307E-4,-7.168605804443359,25.20582389831543,-38.685604095458984,-0.29727017879486084,1.0709524154663086,-0.023657798767089844,0.07436398,-0.14398552,9.779423,-0.020880736,-1.1141925,9.7170725,0
4,988.1910400390625,-3.6572455428540707E-6,-2.454727655276656E-4,9.449145873077214E-4,-7.611606121063232,25.423185348510742,-38.70703887939453,-0.2809736728668213,1.07404363155365,0.019611358642578125,0.0647828,-0.14398505,9.753382,-0.03417707,-1.1044686,9.691872,0
4,988.1910400390625,-3.6572455428540707E-6,-2.454727655276656E-4,9.449145873077214E-4,-7.611606121063232,25.423185348510742,-38.70703887939453,-0.2896583080291748,1.0861177444458008,-0.01329803466796875,0.08149052,-0.15351765,9.772317,-0.01138619,-1.1155933,9.709979,0
4,988.180419921875,-4.0292314952239394E-4,-6.449803477153182E-4,1.2898060958832502E-5,-7.341597557067871,25.412919998168945,-39.20995330810547,-0.28378963470458984,1.057905673980713,0.006079673767089844,0.064739645,-0.1368341,9.760479,-0.027224313,-1.0893686,9.700639,0
4,988.180419921875,-4.0292314952239394E-4,-6.449803477153182E-4,1.2898060958832502E-5,-7.439998149871826,25.320539474487305,-38.80446243286133,-0.25397735834121704,1.0533232688903809,-0.017133712768554688,0.05276856,-0.13921691,9.786516,-0.020577155,-1.0867077,9.727113,0
4,988.170654296875,-2.6955740759149194E-4,2.07755365408957E-5,5.456189392134547E-4,-7.066863059997559,25.933290481567383,-38.820831298828125,-0.2529381513595581,1.0489038228988647,-0.0024919509887695312,0.057526827,-0.13683306,9.760475,-0.0385126,-1.0780545,9.701816,0
4,988.1904907226562,-1.3598374789580703E-4,-5.119236302562058E-4,8.121129358187318E-4,-7.475133895874023,25.972700119018555,-39.222129821777344,-0.2752748429775238,1.0684840679168701,0.016877174377441406,0.0718447,-0.14636566,9.753372,-0.017645549,-1.0861967,9.694058,0
4,988.2032470703125,-2.6178895495831966E-6,-6.451152730733156E-4,-1.1990353232249618E-4,-7.240971565246582,25.664701461791992,-38.47035217285156,-0.26925599575042725,1.0548324584960938,0.0030841827392578125,0.0646534,-0.15351494,9.760471,-0.021585934,-1.0876341,9.70109,0
4,988.1954345703125,2.6390579296275973E-4,2.064072759822011E-5,-1.1981447460129857E-4,-7.530788898468018,25.23552131652832,-38.785499572753906,-0.2680513858795166,1.0409387350082397,0.0035142898559570312,0.06702173,-0.13444825,9.7675705,-0.028247736,-1.0658633,9.710363,0
4,988.2059326171875,-1.3536022743210196E-4,-3.788669127970934E-4,-1.1972541688010097E-4,-8.127815246582031,25.83558464050293,-39.03654479980469,-0.27174675464630127,1.0415575504302979,0.0039196014404296875,0.06939006,-0.15113063,9.765202,-0.044748563,-1.0774969,9.706897,0
4,988.1904907226562,3.974793362431228E-4,-3.789005568251014E-4,2.798374916892499E-4,-7.732423305511475,25.626462936401367,-39.23920440673828,-0.27039897441864014,1.0323837995529175,0.004353523254394531,0.05980894,-0.14398028,9.758099,-0.040589873,-1.0631592,9.701176,0
4,988.18798828125,-1.349446247331798E-4,1.536973868496716E-4,2.799265494104475E-4,-7.5790791511535645,25.506132125854492,-38.408973693847656,-0.27919191122055054,1.037463665008545,0.009511947631835938,0.07651666,-0.15351285,9.750995,-0.022855222,-1.0719211,9.693388,0
4,988.1956176757812,-1.5787663869559765E-6,0.0010857691522687674,4.131736059207469E-4,-7.760660171508789,25.33609962463379,-38.37104034423828,-0.25411856174468994,1.0239510536193848,-0.009039878845214844,0.057375878,-0.13921265,9.772297,-0.045189615,-1.0504984,9.716732,0
4,988.1981811523438,-1.370848622173071E-6,1.5362986596301198E-4,2.801047230605036E-4,-7.47374963760376,25.868261337280273,-38.60035705566406,-0.26284050941467285,1.0434249639511108,0.010310173034667969,0.06930381,-0.1606616,9.769928,-0.024363741,-1.0701978,9.712684,0
4,988.1907348632812,1.3199489330872893E-4,-5.121934809722006E-4,1.4703586930409074E-4,-7.661823272705078,26.166536331176758,-39.05073547363281,-0.25661396980285645,1.0010838508605957,0.005985260009765625,0.059722632,-0.13444503,9.772293,-0.0300108,-1.0381963,9.718054,0
4,988.1983032226562,1.3220269465819E-4,-2.4591138935647905E-4,2.802828385028988E-4,-7.48937463760376,26.327733993530273,-38.62483215332031,-0.2746955156326294,1.0206921100616455,-0.007817268371582031,0.06448093,-0.14874424,9.76519,-0.022077907,-1.048398,9.710078,0
4,988.1932983398438,3.9872637717053294E-4,5.530025227926672E-4,2.803719253279269E-4,-6.975391387939453,25.75593376159668,-39.44042205810547,-0.25483864545822144,1.002709984779358,0.0019960403442382812,0.064459324,-0.13682725,9.767555,-0.0068040714,-1.0336013,9.71389,0
4,988.2083129882812,0.0010647240560501814,5.529688787646592E-4,-5.184866604395211E-4,-7.153087139129639,25.852693557739258,-39.033782958984375,-0.2677741050720215,1.0030707120895386,-0.0023193359375,0.07160747,-0.14159335,9.772287,-0.0063935965,-1.0358381,9.718528,0
4,988.1931762695312,-0.0010655950754880905,-3.7917052395641804E-4,1.4234217815101147E-5,-7.915228366851807,26.087095260620117,-38.699100494384766,-0.26160717010498047,1.0080646276474,0.026515960693359375,0.07158589,-0.15589239,9.76045,-0.03325206,-1.0433246,9.705988,0
5,988.1909790039062,-1.3328174827620387E-4,-0.0010449939873069525,4.13797126384452E-4,-7.562176704406738,26.048559188842773,-38.1353759765625,-0.2604185938835144,1.003280520439148,0.01749420166015625,0.062004685,-0.1487421,9.760447,-0.029243972,-1.0292777,9.707316,0
5,988.1981811523438,-7.988636498339474E-4,2.8655165806412697E-4,-7.845352520234883E-4,-7.335648059844971,25.312894821166992,-38.82009506225586,-0.26897913217544556,0.9941959977149963,-0.010515213012695312,0.07871246,-0.14159168,9.777016,-0.010368068,-1.0240451,9.724582,0
5,988.1854248046875,-1.328660291619599E-4,8.191497181542218E-4,1.4501449186354876E-5,-7.278906345367432,25.313493728637695,-39.05982971191406,-0.2536153197288513,0.9758464097976685,-0.01961231231689453,0.06435153,-0.13682462,9.77228,-0.020849872,-1.0110601,9.72099,0
5,988.1981811523438,3.999735345132649E-4,-3.793054784182459E-4,1.4774856390431523E-4,-7.671934604644775,25.787935256958008,-38.41114807128906,-0.2574405372142792,0.9908676147460938,0.00916290283203125,0.06671983,-0.14635722,9.765177,-0.02947715,-1.0158789,9.713479,0
5,988.200927734375,4.00181335862726E-4,5.527663161046803E-4,-3.8479414070025086E-4,-7.445107460021973,25.68440818786621,-38.670997619628906,-0.25661057233810425,0.9866125583648682,-0.009390830993652344,0.061918437,-0.1535065,9.784111,-0.036579017,-1.018729,9.732269,0
5,988.2031860351562,-3.985583898611367E-4,2.8641673270612955E-4,-2.5154714239761233E-4,-7.620600700378418,25.5202693939209,-38.94228744506836,-0.25531724095344543,0.9726626873016357,0.009950637817382812,0.07145649,-0.1392063,9.772274,-0.025206786,-1.0020489,9.72199,0
5,988.2057495117188,-1.3203459093347192E-4,-5.125646712258458E-4,-5.177739658392966E-4,-7.590573787689209,25.231977462768555,-38.39115905761719,-0.2542576193809509,0.9874221682548523,-0.02280139923095703,0.071434915,-0.15827198,9.795944,-0.030157994,-1.0179273,9.744412,0
5,988.1906127929688,-2.6498473016545177E-4,5.526651511900127E-4,-3.8452696753665805E-4,-7.669731616973877,25.527036666870117,-39.089080810546875,-0.24856573343276978,0.9733612537384033,0.0012722015380859375,0.061853766,-0.14158852,9.779371,-0.032046642,-0.9933604,9.729962,0
5,988.1856079101562,-6.642506341449916E-4,1.999962842091918E-5,1.4819385251030326E-4,-7.542827129364014,25.32965660095215,-38.86613464355469,-0.2519276738166809,0.9594316482543945,-0.0030641555786132812,0.07139182,-0.13920473,9.777002,-0.035267282,-0.9885545,9.728091,0
5,988.2083129882812,-5.308848922140896E-4,-6.458237767219543E-4,4.1459884960204363E-4,-7.958707809448242,25.361696243286133,-38.88090896606445,-0.24593548476696014,0.9598367214202881,0.006793022155761719,0.06659043,-0.14158751,9.777,-0.029004108,-0.98533916,9.728438,0
5,988.2059326171875,-3.975190338678658E-4,1.993216574192047E-5,-5.174176185391843E-4,-7.591958522796631,25.3364200592041,-39.01293182373047,-0.23531083762645721,0.9555844664573669,0.016637802124023438,0.06417894,-0.1439702,9.765162,-0.024869509,-0.98178947,9.7169285,0
5,988.1884765625,-1.3099535135552287E-4,2.862143446691334E-4,-3.841706202365458E-4,-7.313093662261963,25.123159408569336,-38.581512451171875,-0.2533186078071594,0.9466245174407959,-0.011399269104003906,0.073717,-0.13681991,9.772262,-0.0134221725,-0.9738258,9.724853,0
5,988.17333984375,2.686863881535828E-4,1.9864703062921762E-5,-6.5039744367823E-4,-7.519836902618408,25.877973556518555,-38.901763916015625,-0.23795749247074127,0.9521795511245728,0.007886886596679688,0.059356064,-0.14635243,9.762791,-0.03778502,-0.97390854,9.715302,0
5,988.1754150390625,4.020521300844848E-4,2.861468237824738E-4,-7.834662101231515E-4,-7.6758198738098145,25.521142959594727,-38.77986145019531,-0.2564060091972351,0.9385176301002502,-0.005963325500488281,0.073673904,-0.14635192,9.776992,-0.022673078,-0.9749997,9.72961,0
5,988.1934814453125,-1.303718308918178E-4,9.519026498310268E-4,-6.502193282358348E-4,-7.93846321105957,26.53920555114746,-38.33705139160156,-0.25123387575149536,0.9435847997665405,0.0133056640625,0.069438726,-0.1463653,9.769941,-0.027169947,-0.96868443,9.723111,0
5,988.20849609375,-9.311450994573534E-4,-1.1306436499580741E-4,-2.515279338695109E-4,-7.69394588470459,25.609384536743164,-38.55127716064453,-0.24066710472106934,0.9245457053184509,-4.949569702148438E-4,0.06465179,-0.13444872,9.774675,-0.027981125,-0.9515363,9.729354,0
5,988.2059326171875,-0.0010731229558587074,5.570243229158223E-4,-2.5246827863156796E-4,-7.690901756286621,25.612329483032227,-38.70588684082031,-0.239334836602211,0.9394429922103882,0.00460052490234375,0.064644516,-0.15589799,9.769939,-0.04733681,-0.9667548,9.72334,0
5,988.2059326171875,-0.0010731229558587074,5.570243229158223E-4,-2.5246827863156796E-4,-8.075096130371094,25.463476181030273,-38.94591522216797,-0.2434496283531189,0.9209309816360474,-0.013988494873046875,0.062247396,-0.13444836,9.7817745,-0.033538926,-0.94275975,9.737308,0
5,988.1884765625,1.2536800932139158E-4,-2.4193455465137959E-4,1.3877346646040678E-5,-7.892673969268799,25.89735221862793,-38.46052551269531,-0.2472306340932846,0.935946524143219,0.014760017395019531,0.06940991,-0.15589763,9.7746725,-0.03330921,-0.9605353,9.728804,0
5,988.2007446289062,2.675228170119226E-4,6.739599630236626E-4,-8.703680941835046E-5,-7.841340065002441,25.629682540893555,-38.991661071777344,-0.23644568026065826,0.9177448153495789,0.0150909423828125,0.069402754,-0.15113093,9.765203,-0.02829557,-0.95126545,9.720142,0
5,988.180419921875,4.008197574876249E-4,-2.5816820561885834E-4,3.1249652965925634E-4,-7.399860858917236,25.41084861755371,-38.892913818359375,-0.2306753247976303,0.9179651737213135,0.015467643737792969,0.05983585,-0.15113075,9.7675705,-0.029294953,-0.94443655,9.723119,0
5,988.1986694335938,1.41531927511096E-6,-1.250214409083128E-4,-8.69475188665092E-5,-7.793730735778809,25.62144660949707,-38.76755905151367,-0.24875898659229279,0.9143322110176086,0.001567840576171875,0.07177818,-0.14636405,9.7699375,-0.02666863,-0.9393215,9.726009,0
5,988.1837158203125,8.004324627108872E-4,8.125207386910915E-6,1.7939822282642126E-4,-7.270455360412598,25.584707260131836,-38.923030853271484,-0.23320110142230988,0.9102509021759033,0.006644248962402344,0.06460127,-0.13683076,9.7581,-0.0154347345,-0.92338955,9.715477,0
5,988.1864013671875,1.3471214333549142E-4,-1.2504408368840814E-4,-8.688797242939472E-5,-7.902647018432617,25.624670028686523,-38.52001190185547,-0.22253182530403137,0.8966600298881531,0.01644611358642578,0.06459409,-0.1439804,9.767569,-0.036054447,-0.92628646,9.724762,0
5,988.2091064453125,1.6238191165030003E-6,-1.2505537597462535E-4,5.789315328001976E-4,-7.649242401123047,25.70411491394043,-38.87165069580078,-0.24006858468055725,0.9019599556922913,0.012067794799804688,0.066976726,-0.16066317,9.767567,-0.030379336,-0.93873,9.723864,0
6,988.1837158203125,-3.977806190960109E-4,-9.240142535418272E-4,-3.531443071551621E-4,-7.44358491897583,25.685880661010742,-38.74830627441406,-0.22464260458946228,0.897786021232605,0.007672309875488281,0.05979985,-0.14398004,9.774668,-0.026632491,-0.9172232,9.73275,0
6,988.19384765625,5.343945813365281E-4,8.080096449702978E-6,-3.531145048327744E-4,-7.148958206176758,25.119054794311523,-38.99148941040039,-0.24283717572689056,0.8702901005744934,0.0032339096069335938,0.08130178,-0.13206346,9.765198,0.001516208,-0.9071388,9.724209,0
6,988.1962280273438,5.344638484530151E-4,8.068745955824852E-6,9.784947615116835E-4,-7.366354942321777,25.863561630249023,-38.770599365234375,-0.24174511432647705,0.8806383013725281,0.008287429809570312,0.07651478,-0.14159639,9.767565,-0.005986534,-0.91112375,9.726308,0
6,988.2113647460938,6.676912889815867E-4,4.075312754139304E-4,4.641892155632377E-5,-7.517473220825195,26.14328956604004,-38.45574188232422,-0.22670775651931763,0.8721343874931335,0.036988258361816406,0.06216812,-0.1439795,9.750994,-0.02224398,-0.9044848,9.710196,0
6,988.2266845703125,6.677609053440392E-4,5.406779237091541E-4,-8.670933311805129E-5,-7.798839569091797,25.985315322875977,-38.63409423828125,-0.230269655585289,0.8869333863258362,0.023126602172851562,0.06455082,-0.14874585,9.772298,-0.030797116,-0.9066556,9.731451,0
6,988.2217407226562,-0.0013295388780534267,8.034927304834127E-6,4.647840978577733E-5,-7.907074928283691,25.726167678833008,-38.98717498779297,-0.2334631383419037,0.8808209300041199,-6.103515625E-5,0.07171333,-0.14636241,9.76993,-0.028222024,-0.9016867,9.729557,0
6,988.2066040039062,2.6842596707865596E-4,8.023693226277828E-6,5.791399744339287E-4,-7.419508934020996,25.497617721557617,-38.58702850341797,-0.2327314019203186,0.8644852042198181,-0.009367942810058594,0.06931621,-0.13921247,9.774664,-0.016612176,-0.8907744,9.735218,0
6,988.188720703125,6.679692887701094E-4,-7.909352425485849E-4,-2.1977786673232913E-4,-7.864574909210205,26.08180046081543,-38.629615783691406,-0.2314745932817459,0.8701879978179932,0.005139350891113281,0.069308996,-0.1535119,9.774664,-0.028700702,-0.9002625,9.734533,0
6,988.2040405273438,1.3540690997615457E-4,2.7431698981672525E-4,-8.659012382850051E-5,-7.085287094116211,25.389394760131836,-39.017120361328125,-0.2209693193435669,0.8566069006919861,0.010187149047851562,0.07169169,-0.14636193,9.772295,-0.0072646216,-0.89008415,9.733037,0
6,988.2294921875,-3.9715523598715663E-4,-6.577998865395784E-4,1.797554432414472E-4,-7.5353546142578125,25.23110008239746,-38.55358123779297,-0.21968358755111694,0.8668959736824036,0.03417396545410156,0.07407439,-0.15351151,9.755724,-0.021571275,-0.89193875,9.716336,0
6,988.1812744140625,5.350197316147387E-4,-3.9149521035142243E-4,5.792590673081577E-4,-8.012404441833496,25.364049911499023,-38.79579162597656,-0.23274092376232147,0.872355043888092,0.020287513732910156,0.06689745,-0.15827794,9.769928,-0.042670198,-0.89079475,9.730656,0
6,988.2222290039062,1.356154098175466E-4,-5.246645305305719E-4,1.798150478862226E-4,-7.301054954528809,25.029024124145508,-38.500877380371094,-0.22201240062713623,0.8493719696998596,0.006386756896972656,0.071670055,-0.14636137,9.767559,-0.016918492,-0.87710834,9.729449,0
6,988.2020874023438,2.688428503461182E-4,7.955939508974552E-6,-2.1962897153571248E-4,-7.367333889007568,25.49379539489746,-38.594844818115234,-0.21613730490207672,0.8455802798271179,0.020879745483398438,0.06210327,-0.1511278,9.760457,-0.03359514,-0.8744116,9.722526,0
6,988.19189453125,5.352281150408089E-4,-3.915291163139045E-4,-8.644134504720569E-5,-7.903733253479004,26.361249923706055,-38.716915130615234,-0.23430754244327545,0.8417237401008606,0.016437530517578125,0.0764932,-0.14636244,9.777031,-0.025317624,-0.8709631,9.739527,0
6,988.2118530273438,2.6658526621758938E-6,2.742493525147438E-4,1.7990433843806386E-4,-8.052105903625488,26.011789321899414,-38.98154067993164,-0.21420873701572418,0.8469412922859192,0.016750335693359375,0.064597785,-0.1535136,9.772303,-0.031927146,-0.8698719,9.734883,0
6,988.1642456054688,2.6795343728736043E-4,-3.913734690286219E-4,-6.194839370436966E-4,-7.548371315002441,24.955472946166992,-38.45846176147461,-0.2077975571155548,0.8316335082054138,0.02191638946533203,0.062205315,-0.1439804,9.769936,-0.03287887,-0.8558291,9.733588,0
6,988.1642456054688,2.6795343728736043E-4,-3.913734690286219E-4,-6.194839370436966E-4,-7.548371315002441,24.955472946166992,-38.45846176147461,-0.21692897379398346,0.8488110303878784,0.017322540283203125,0.059812903,-0.15828003,9.762833,-0.03607225,-0.86459327,9.72588,0
6,988.2147827148438,4.0113594150170684E-4,8.070440962910652E-4,-8.684175554662943E-5,-7.530788898468018,25.235517501831055,-38.785499572753906,-0.215867280960083,0.8162767291069031,0.02234649658203125,0.062200278,-0.13921373,9.7652,-0.0335714,-0.84292394,9.729889,0
6,988.2072143554688,1.6865669749677181E-6,-7.908552652224898E-4,7.121163653209805E-4,-7.750006198883057,25.34641456604004,-38.91217803955078,-0.21964797377586365,0.831547737121582,0.032095909118652344,0.08131695,-0.1630465,9.760466,-0.02353172,-0.8668702,9.723573,0
6,988.2072143554688,4.011847195215523E-4,-3.9138534339144826E-4,-8.682068437337875E-5,-7.916207313537598,25.717329025268555,-38.523345947265625,-0.2089870274066925,0.8084626793861389,0.01345062255859375,0.06458515,-0.14398016,9.769934,-0.03316524,-0.84042215,9.734943,0
6,988.1845092773438,-1.314224791713059E-4,6.738741649314761E-4,-3.531261463649571E-4,-7.940282821655273,25.90559196472168,-38.68461990356445,-0.2132120430469513,0.8187717199325562,0.013733863830566406,0.07175231,-0.15589656,9.7652,-0.026055392,-0.849664,9.729646,0
6,988.1946411132812,-1.3139803195372224E-4,0.0013396600261330605,7.121477974578738E-4,-7.743077278137207,25.616147994995117,-38.69807434082031,-0.2127516269683838,0.8291906118392944,0.014006614685058594,0.062190145,-0.15112986,9.772301,-0.021706056,-0.8394482,9.737527,0
6,988.1617431640625,6.675738259218633E-4,6.738663651049137E-4,1.7952657071873546E-4,-7.316542625427246,25.594419479370117,-39.22443389892578,-0.20706310868263245,0.8160218596458435,0.014266014099121094,0.06696743,-0.15589638,9.7652,-0.032207407,-0.84067595,9.730373,0
6,988.210205078125,2.6812468422576785E-4,4.075464094057679E-4,-2.199367736466229E-4,-7.725791931152344,25.264062881469727,-39.44997787475586,-0.2108193337917328,0.7790151834487915,0.01926136016845703,0.07174468,-0.12968023,9.767565,-0.0023802556,-0.81361455,9.734747,0
7,988.1946411132812,6.676229531876743E-4,2.7438445249572396E-4,4.6389526687562466E-5,-7.325376033782959,26.21771812438965,-38.33573532104492,-0.21014627814292908,0.7897509932518005,0.02897930145263672,0.06935227,-0.14874639,9.762831,-0.017942756,-0.8272711,9.729086,0
7,988.2174682617188,8.008051081560552E-4,0.0010733281960710883,8.453476475551724E-4,-7.81500768661499,26.813085556030273,-38.75702667236328,-0.22391395270824432,0.800295352935791,0.015035629272460938,0.069349706,-0.1439798,9.767566,-0.009646852,-0.81937563,9.734444,0
7,988.2174682617188,8.008051081560552E-4,0.0010733281960710883,8.453476475551724E-4,-7.011536598205566,24.82607078552246,-38.610599517822266,-0.20372141897678375,0.7821856141090393,0.010568618774414062,0.066957235,-0.13682993,9.765198,-0.017542996,-0.80764014,9.732919,0
7,988.2125244140625,4.0135596645995975E-4,9.401661809533834E-4,-4.862213390879333E-4,-7.582665920257568,25.871484756469727,-38.35280990600586,-0.2023521214723587,0.7691400647163391,0.03922843933105469,0.064564824,-0.12253018,9.753361,-0.021003813,-0.7886285,9.72239,0
7,988.19970703125,5.345625686459243E-4,-2.582632005214691E-4,4.6431319788098335E-5,-7.570192337036133,26.51540184020996,-38.54637908935547,-0.19661107659339905,0.7702261805534363,0.01581096649169922,0.06456226,-0.14397962,9.784134,-0.01702512,-0.80771303,9.751999,0
7,988.1776123046875,2.682713675312698E-4,-3.914250119123608E-4,-7.525056716986E-4,-7.761203289031982,25.704397201538086,-38.469486236572266,-0.19066275656223297,0.7951000928878784,0.025537490844726562,0.06455976,-0.1582792,9.777034,-0.032157216,-0.8167324,9.7443075,0
7,988.1953735351562,1.97970075532794E-6,-2.5827111676335335E-4,3.127681848127395E-4,-7.46116828918457,25.40583610534668,-38.421268463134766,-0.20404334366321564,0.7910391092300415,0.021080970764160156,0.06933701,-0.14636277,9.758095,-0.018282808,-0.8014275,9.726461,0
7,988.2157592773438,-3.479409497231245E-4,-1.5383149730041623E-4,-5.286275409162045E-4,-7.496739387512207,25.3199405670166,-38.564727783203125,-0.21236789226531982,0.7729924321174622,0.007136344909667969,0.07411429,-0.14397945,9.769931,-0.014802519,-0.7972857,9.738682,0
7,988.1823120117188,1.8471525982022285E-4,-8.19625158328563E-4,4.014815203845501E-6,-7.445948600769043,25.420564651489258,-39.19432067871094,-0.19640740752220154,0.7738317847251892,0.01687908172607422,0.07172185,-0.14636268,9.777032,-0.016022377,-0.7952167,9.74599,0
7,988.1551513671875,-4.8105011228471994E-4,-0.001219102879986167,-7.949224673211575E-4,-7.07270622253418,24.926973342895508,-38.83802795410156,-0.19552811980247498,0.7605085372924805,0.03133583068847656,0.0669395,-0.14397933,9.76993,-0.013602655,-0.78742146,9.739431,0
7,988.1631469726562,-2.147096674889326E-4,-2.870012540370226E-4,-6.617540493607521E-4,-7.530788898468018,25.23552131652832,-38.785499572753906,-0.19921524822711945,0.7661790251731873,0.026859283447265625,0.06693703,-0.1582789,9.76283,-0.027359117,-0.7964432,9.731769,0
7,988.1678466796875,5.163054447621107E-5,3.78784432541579E-4,-3.95427574403584E-4,-7.850769996643066,24.988710403442383,-38.95270538330078,-0.19363772869110107,0.7529308795928955,-0.0013027191162109375,0.06454456,-0.14636247,9.772297,-0.03637545,-0.7807833,9.742301,0
7,988.2108764648438,4.511288134381175E-4,7.782542961649597E-4,2.703724312596023E-4,-8.010883331298828,25.36551856994629,-38.87309265136719,-0.18794408440589905,0.7539151310920715,0.022620201110839844,0.05976221,-0.14159583,9.774664,-0.04052663,-0.7710636,9.745332,0
7,988.2062377929688,-7.472680881619453E-4,-2.0697363652288914E-5,-1.2909085489809513E-4,-7.540326118469238,25.70088768005371,-39.11919403076172,-0.19230584800243378,0.7405639290809631,0.02759552001953125,0.06931931,-0.13444598,9.772297,-0.014262181,-0.7635391,9.743586,0
7,988.183349609375,-4.809279926121235E-4,0.0010445620864629745,4.077563062310219E-6,-8.177083969116211,25.736440658569336,-38.4842643737793,-0.1912228912115097,0.7462259531021118,0.032576560974121094,0.06463152,-0.14636464,9.765203,-0.037927076,-0.76859534,9.736151,0
7,988.1783447265625,-3.479716833680868E-4,-2.869844320230186E-4,-6.6179852001369E-4,-7.33771276473999,25.679712295532227,-38.84123992919922,-0.19038502871990204,0.727856457233429,0.013898849487304688,0.07180247,-0.13206495,9.774673,-0.006135281,-0.7539887,9.746708,0
7,988.2189331054688,-7.48122576624155E-4,-2.8687453595921397E-4,-6.620887434110045E-4,-7.543668270111084,25.06580924987793,-39.38945770263672,-0.17907372117042542,0.736961841583252,0.03317451477050781,0.05985424,-0.14874788,9.7699375,-0.032004863,-0.76259255,9.741397,0
7,988.1810913085938,7.166028954088688E-4,-4.2003049748018384E-4,-5.289360415190458E-4,-7.17814302444458,25.671194076538086,-39.01930236816406,-0.17848163843154907,0.749381422996521,0.023827552795410156,0.057465613,-0.15351458,9.762836,-0.02198226,-0.7627423,9.734352,0
7,988.2113037109375,-8.235708810389042E-5,-6.863443413749337E-4,-1.2946745846420527E-4,-7.510842800140381,25.780893325805664,-38.6665153503418,-0.18723902106285095,0.745326817035675,0.04302024841308594,0.069416404,-0.14398144,9.760469,-0.015232671,-0.75235754,9.732732,0
7,988.186279296875,-7.481593638658524E-4,-2.0552717614918947E-5,-6.621043430641294E-4,-6.9749860763549805,25.281728744506836,-38.64289474487305,-0.190673366189003,0.7177248597145081,0.033791542053222656,0.06702775,-0.13921492,9.767572,-0.0066170096,-0.74374294,9.7404375,0
7,988.1936645507812,-8.813292952254415E-4,-8.194983238354325E-4,-2.626358764246106E-4,-7.502689361572266,25.419965744018555,-38.95458984375,-0.1942533403635025,0.7326840162277222,0.015111923217773438,0.071808815,-0.15589781,9.769939,-0.01885214,-0.75674343,9.742083,0
7,988.1942138671875,-0.0010144993430003524,-6.863384041935205E-4,-7.952728774398565E-4,-7.393229961395264,25.048452377319336,-39.10368728637695,-0.1880790889263153,0.7273070812225342,0.015444755554199219,0.06942019,-0.1415983,9.769939,-0.020396125,-0.7384377,9.743249,0
7,988.1764526367188,3.1706748995929956E-4,6.452429224736989E-4,2.699853794183582E-4,-7.800361156463623,25.98384666442871,-38.55678939819336,-0.18280616402626038,0.7352461814880371,-0.012862205505371094,0.062251747,-0.1535147,9.7865095,-0.027055774,-0.7456255,9.759432,0
7,988.1994018554688,4.502134397625923E-4,-0.001352124148979783,3.6642886698246002E-6,-7.409834384918213,25.138166427612305,-38.95240783691406,-0.19587844610214233,0.7079131007194519,0.0489044189453125,0.076592475,-0.13444848,9.760471,-0.018972237,-0.7258524,9.734655,0
7,988.2014770507812,5.0715054385364056E-5,-2.8685666620731354E-4,4.031276621390134E-4,-7.578397750854492,25.24376106262207,-39.00959777832031,-0.17535623908042908,0.7121326923370361,0.020822525024414062,0.0598644,-0.14398159,9.774673,-0.030253932,-0.72755086,9.748759,0
8,988.2014770507812,5.0715054385364056E-5,-2.8685666620731354E-4,4.031276621390134E-4,-7.578397750854492,25.24376106262207,-39.00959777832031,-0.18915213644504547,0.7245332598686218,0.02567291259765625,0.07181519,-0.16066463,9.758102,-0.019291837,-0.7423375,9.731396,0
8,988.2116088867188,-2.1561305038630962E-4,-6.863285088911653E-4,-9.284570114687085E-4,-7.3108906745910645,24.86225700378418,-39.25944519042969,-0.18747463822364807,0.7065508961677551,0.025902748107910156,0.07420635,-0.14874826,9.760469,-0.013452798,-0.7277367,9.734712,0
8,988.1943359375,4.5016477815806866E-4,-9.52642410993576E-4,-3.95830487832427E-4,-7.462552547454834,25.51027488708496,-39.04304504394531,-0.19129621982574463,0.7079251408576965,0.021370887756347656,0.07898742,-0.14159842,9.765205,-0.009213988,-0.71892655,9.740052,0
8,988.1991577148438,-2.1563749760389328E-4,-8.194824331440032E-4,-2.626777277328074E-4,-7.499783039093018,25.31699562072754,-38.410118103027344,-0.18963997066020966,0.7090311646461487,0.03579902648925781,0.07659876,-0.15113159,9.762838,-0.014780447,-0.7233161,9.73747,0
8,988.212158203125,-6.151235429570079E-4,-0.0017515860963612795,-3.9584096521139145E-4,-7.696010589599609,25.9762020111084,-38.57242202758789,-0.18853133916854858,0.686119556427002,0.03129291534423828,0.07182026,-0.14159854,9.76994,-0.0065556616,-0.7094381,9.745441,0
8,988.1995239257812,-6.151354173198342E-4,-1.5368883032351732E-4,4.0310146869160235E-4,-7.074771404266357,25.293790817260742,-38.85917663574219,-0.17812389135360718,0.6683435440063477,0.012558937072753906,0.0694316,-0.13921525,9.777041,-0.017439794,-0.7031854,9.752946,0
8,988.179443359375,5.832734750583768E-4,3.789448528550565E-4,-1.2953556142747402E-4,-7.52385950088501,25.505258560180664,-38.57139587402344,-0.18701675534248352,0.6979776620864868,0.017505645751953125,0.069432855,-0.14874835,9.767573,-0.023171216,-0.7079412,9.743239,0
8,988.194580078125,-7.483181543648243E-4,9.115787106566131E-4,-1.2954080011695623E-4,-7.785279273986816,25.89266014099121,-38.63076400756836,-0.16719698905944824,0.699367344379425,0.02716827392578125,0.069434136,-0.153515,9.765205,-0.016560648,-0.7091773,9.740863,0
8,988.2200317382812,-2.1569838281720877E-4,-5.53156656678766E-4,3.611843567341566E-6,-7.26839017868042,25.217885971069336,-38.901885986328125,-0.1657547950744629,0.6720091700553894,0.04631519317626953,0.06704551,-0.13206555,9.760471,-0.0067801103,-0.68398964,9.737599,0
8,988.1871337890625,5.060515832155943E-5,-5.53154677618295E-4,1.367646036669612E-4,-7.00889778137207,25.303224563598633,-39.562740325927734,-0.16491205990314484,0.6688624620437622,0.046494483947753906,0.06943673,-0.14398195,9.762838,-0.019685622,-0.6927514,9.739522,0
8,988.1871337890625,5.060515832155943E-5,-5.53154677618295E-4,1.367646036669612E-4,-7.641633033752441,25.711477279663086,-39.25817108154297,-0.16872823238372803,0.6655615568161011,0.018274307250976562,0.064658165,-0.15113176,9.767574,-0.035513885,-0.69470793,9.744161,0
8,988.1845703125,3.1690846662968397E-4,-2.8683681739494205E-4,8.025490678846836E-4,-8.07716178894043,25.830289840698242,-38.96706008911133,-0.18253791332244873,0.6765494346618652,0.032660484313964844,0.076608956,-0.15113188,9.758104,-0.017486721,-0.6945454,9.734816,0
8,988.2074584960938,3.168843686580658E-4,6.452728412114084E-4,-1.295669935643673E-4,-7.580899238586426,24.872526168823242,-38.756534576416016,-0.16269320249557495,0.6826924681663513,0.023380279541015625,0.059880853,-0.15589844,9.767574,-0.03599185,-0.6913924,9.744438,0
8,988.1947631835938,1.8371385522186756E-4,1.126429415307939E-4,2.6990158949047327E-4,-7.838433742523193,25.526716232299805,-38.44718933105469,-0.1711391806602478,0.6649951934814453,0.047245025634765625,0.06466198,-0.14398207,9.758104,-0.029535823,-0.67722076,9.73581,0
8,988.1900634765625,-2.1577184088528156E-4,-6.863026646897197E-4,-6.622093496844172E-4,-7.742236137390137,25.880002975463867,-38.17475128173828,-0.16029179096221924,0.6741637587547302,0.023835182189941406,0.0577178,-0.1511374,9.767595,-0.03363064,-0.6792458,9.745234,0
8,988.2005004882812,1.8448644550517201E-4,-1.544589758850634E-4,-5.296734743751585E-4,-7.699895858764648,25.709409713745117,-38.941139221191406,-0.16456221044063568,0.6532432436943054,0.047608375549316406,0.0696775,-0.13922127,9.753391,-0.018954057,-0.66675603,9.7318,0
8,988.1801147460938,-2.1586782531812787E-4,-4.206319572404027E-4,2.688969543669373E-4,-7.720630168914795,26.532758712768555,-38.8321533203125,-0.1776626706123352,0.6434844136238098,0.02894115447998047,0.07207751,-0.14398806,9.772331,-0.013156574,-0.66798496,9.750796,0
8,988.19775390625,-2.159656141884625E-4,-1.5430012717843056E-4,-3.969347453676164E-4,-7.37589168548584,26.328927993774414,-39.10430145263672,-0.17246423661708832,0.6559720039367676,0.010099411010742188,0.06969777,-0.15590475,9.781801,-0.012267858,-0.67756873,9.759792,0
8,988.1878051757812,-4.8237916780635715E-4,6.446634652093053E-4,1.3565522385761142E-4,-7.662802696228027,25.79677391052246,-38.87498474121094,-0.15746714174747467,0.6525550484657288,0.02448272705078125,0.06253818,-0.14398862,9.772333,-0.025310304,-0.65995467,9.751254,0
8,988.1952514648438,-8.300336776301265E-5,-4.205843433737755E-4,-2.638606238178909E-4,-7.935173988342285,25.541723251342773,-38.818084716796875,-0.1567559838294983,0.6397894620895386,0.04832744598388672,0.06254834,-0.14875542,9.753395,-0.034007773,-0.6599172,9.732324,0
8,988.1780395507812,5.74801757466048E-4,0.0010213088244199753,3.469178918749094E-4,-7.729516983032227,25.523488998413086,-38.694740295410156,-0.16115784645080566,0.6317332983016968,0.03429126739501953,0.06255847,-0.14160587,9.758131,-0.027086169,-0.65028006,9.737633,0
8,988.2080078125,1.7522991402074695E-4,0.0011544824810698628,6.131918635219336E-4,-7.666825771331787,25.424062728881836,-38.544612884521484,-0.1649802178144455,0.6475515365600586,0.024994850158691406,0.06734842,-0.1487559,9.758132,-0.023804355,-0.6551418,9.737455,0
8,988.1859130859375,-3.5749952076002955E-4,-3.1023885821923614E-4,3.468341310508549E-4,-7.354316711425781,25.76942253112793,-38.689964294433594,-0.16427548229694366,0.63006591796875,0.048831939697265625,0.064968705,-0.14398961,9.753398,-0.015564799,-0.6467049,9.733203,0
8,988.1854248046875,3.081922768615186E-4,8.925088332034647E-5,0.0011457398068159819,-7.465298175811768,26.13947105407715,-38.46356201171875,-0.15384778380393982,0.6315808892250061,0.044264793395996094,0.06258893,-0.14637311,9.753399,-0.01865634,-0.645007,9.733333,0
9,988.2135009765625,-4.908530390821397E-4,-7.096809567883611E-4,-3.190395073033869E-4,-7.376465320587158,25.484956741333008,-38.131019592285156,-0.15790772438049316,0.613707959651947,0.04444694519042969,0.06976879,-0.13922353,9.758135,-0.011662561,-0.6366471,9.738584,0
9,988.19091796875,-4.90951060783118E-4,7.550722220912576E-4,2.1355034550651908E-4,-7.412579536437988,25.76735496520996,-38.372928619384766,-0.15255466103553772,0.6387820839881897,0.0209503173828125,0.062609226,-0.15590669,9.774706,-0.021824773,-0.64805,9.754623,0
9,988.2090454101562,-9.157467866316438E-5,3.556142619345337E-4,8.035049540922046E-5,-7.361926555633545,25.762060165405273,-38.30344009399414,-0.16164398193359375,0.6114891767501831,0.03059101104736328,0.07217902,-0.13922398,9.760504,-0.006567955,-0.6304726,9.74138,0
9,988.1934814453125,-8.9062046026811E-4,0.00102142000105232,-5.2849354688078165E-5,-7.209286212921143,25.483800888061523,-38.69559860229492,-0.1511845886707306,0.6223850250244141,0.01655864715576172,0.060239583,-0.14875741,9.777075,-0.019015156,-0.6337811,9.7578125,0
9,988.1861572265625,-4.912441945634782E-4,-4.382769111543894E-5,8.792143780738115E-4,-7.742236137390137,25.8799991607666,-38.17475128173828,-0.15012720227241516,0.5999642610549927,0.03566455841064453,0.05546999,-0.13922457,9.769975,-0.029971536,-0.61912405,9.751444,0
9,988.1937866210938,-8.908160380087793E-4,-7.096015615388751E-4,-3.192490548826754E-4,-7.94539213180542,26.26946449279785,-38.55115509033203,-0.14924882352352142,0.6015383005142212,0.03582286834716797,0.06264979,-0.14399137,9.767609,-0.011564359,-0.6226655,9.749,0
9,988.2112426757812,1.7434993060305715E-4,-1.7695390852168202E-4,7.459725602529943E-4,-7.094961643218994,25.74884605407715,-38.65174102783203,-0.1629505753517151,0.5935930013656616,0.04071235656738281,0.067439795,-0.1320752,9.753406,-0.011205964,-0.6084339,9.735533,0
9,988.2090454101562,4.109396832063794E-5,-4.378007724881172E-5,4.7961476957425475E-4,-7.446629524230957,25.68293571472168,-38.593692779541016,-0.14311310648918152,0.6050016283988953,0.017181396484375,0.057890266,-0.14160858,9.784181,-0.032521714,-0.6130522,9.766099,0
9,988.1918334960938,7.067858823575079E-4,8.883413393050432E-4,2.132569788955152E-4,-8.027189254760742,26.087369918823242,-38.29694366455078,-0.15219125151634216,0.5924454927444458,0.022058486938476562,0.060290366,-0.14399208,9.769979,-0.021094445,-0.61272454,9.751974,0
9,988.1868286132812,4.089850699529052E-5,2.225674979854375E-4,4.7953095054253936E-4,-7.449673175811768,25.679990768432617,-38.439083099365234,-0.13727125525474548,0.5941497683525085,0.02220439910888672,0.06269038,-0.15114214,9.7723465,-0.016016178,-0.6173998,9.754185,0
9,988.1943969726562,-9.235733887180686E-5,8.88373120687902E-4,-4.526165430434048E-4,-7.212191581726074,25.586774826049805,-39.24006652832031,-0.1460777074098587,0.5862137675285339,0.04129314422607422,0.06270057,-0.14875908,9.7699795,-0.02130415,-0.61157405,9.752132,0
9,988.1943969726562,-9.245512774214149E-5,-3.10032453853637E-4,-5.858163931407034E-4,-7.474728107452393,25.49849510192871,-38.424598693847656,-0.14540919661521912,0.5880235433578491,0.0366973876953125,0.0627107,-0.1535259,9.755777,-0.024428677,-0.61240923,9.737918,0
9,988.1692504882812,3.0692090513184667E-4,-4.370071110315621E-5,-4.5270047849044204E-4,-7.683972358703613,25.882070541381836,-38.49178695678711,-0.1403270810842514,0.6133823394775391,0.02737712860107422,0.053161263,-0.17020907,9.765247,-0.041114353,-0.6227886,9.746913,0
9,988.1845092773438,3.0682311626151204E-4,0.001554210321046412,4.793632833752781E-4,-7.604975700378418,25.060789108276367,-38.917808532714844,-0.14902327954769135,0.5768641233444214,0.013321876525878906,0.06990069,-0.13922684,9.777084,-0.020385023,-0.5950216,9.760184,0
9,988.2071533203125,-6.253802566789091E-4,-4.431427223607898E-4,4.793213738594204E-4,-7.900444507598877,25.363767623901367,-39.19794464111328,-0.15763260424137115,0.5833607316017151,0.05607414245605469,0.067852736,-0.15115155,9.758179,-0.009410333,-0.6022818,9.740979,0
9,988.1692504882812,7.061013602651656E-4,-3.0996892019174993E-4,-5.335238529369235E-5,-7.163060665130615,25.580007553100586,-39.0932731628418,-0.13377594947814941,0.5567577481269836,0.037201881408691406,0.06104493,-0.13209425,9.760578,-0.016779438,-0.57924676,9.744448,0
9,988.1818237304688,-2.2557779448106885E-4,-5.845348350703716E-4,3.388255136087537E-4,-7.507798194885254,25.78383445739746,-38.82112503051758,-0.14696869254112244,0.5853109955787659,0.046886444091796875,0.06825146,-0.15354456,9.755848,-0.015560064,-0.59814626,9.738932,0
9,988.1818237304688,-2.2557779448106885E-4,-5.845348350703716E-4,3.388255136087537E-4,-7.507798194885254,25.78383445739746,-38.82112503051758,-0.14168186485767365,0.5693573355674744,0.04222679138183594,0.06350845,-0.14401244,9.767687,-0.021947075,-0.5848807,9.751407,0
9,988.1898193359375,1.7354130977764726E-4,-5.184553447179496E-5,4.718313866760582E-4,-7.7776689529418945,25.900022506713867,-39.01728820800781,-0.14104270935058594,0.5759373903274536,0.01868438720703125,0.05876544,-0.14639656,9.779526,-0.013729598,-0.5838022,9.7633505,0
9,988.1898193359375,1.7354130977764726E-4,-5.184553447179496E-5,4.718313866760582E-4,-7.111428260803223,25.944475173950195,-39.19953918457031,-0.12131038308143616,0.5966182947158813,0.061431884765625,0.046852708,-0.15831386,9.75349,-0.03154513,-0.58769983,9.737118,0
9,988.1798706054688,-2.2628711303696036E-4,2.145279140677303E-4,2.0536361262202263E-4,-7.157110214233398,25.479982376098633,-38.70341491699219,-0.14492464065551758,0.5555542707443237,0.033148765563964844,0.06600872,-0.14163186,9.758228,-0.01418573,-0.5739075,9.74258,0
9,988.174560546875,5.719514447264373E-4,0.001146748661994934,7.190171163529158E-5,-7.444564342498779,25.316118240356445,-38.572547912597656,-0.14884106814861298,0.5577462315559387,0.028528213500976562,0.07082534,-0.13924943,9.7677,-0.009703826,-0.5706328,9.752264,0
9,988.1898193359375,7.047547842375934E-4,-7.174049387685955E-4,-1.9456620793789625E-4,-7.300619125366211,25.76707649230957,-38.77508544921875,-0.14339342713356018,0.5501942038536072,0.03338050842285156,0.06369236,-0.14878346,9.760602,-0.013741724,-0.5748078,9.744997,0
9,988.1847534179688,1.7176842084154487E-4,8.160030120052397E-5,7.373874541372061E-4,-7.504892349243164,25.680864334106445,-38.27665710449219,-0.13322916626930237,0.5616172552108765,0.024033546447753906,0.056559473,-0.14640106,9.772442,-0.024323449,-0.5680052,9.7571535,0
9,988.1876831054688,-2.2805988555774093E-4,2.148157509509474E-4,2.0460376981645823E-4,-7.6142144203186035,26.158300399780273,-38.826637268066406,-0.1469515562057495,0.5584320425987244,0.03837108612060547,0.073325574,-0.15355177,9.770079,-0.009366911,-0.5761667,9.754557,0
10,988.19287109375,-4.947303677909076E-4,2.1487337653525174E-4,-1.950219739228487E-4,-7.610084533691406,25.424665451049805,-38.78434753417969,-0.13175515830516815,0.5459840297698975,0.038494110107421875,0.059022963,-0.14401968,9.772449,-0.024501555,-0.5599935,9.757602,0
10,988.1802978515625,8.364944369532168E-4,3.4808882628567517E-4,7.369315717369318E-4,-7.646198749542236,25.707059860229492,-39.02626037597656,-0.14515213668346405,0.5288950800895691,0.03388023376464844,0.06622946,-0.13210411,9.758247,-0.013442144,-0.5470902,9.744011,0
10,988.1953735351562,3.7192192394286394E-5,-9.834329830482602E-4,-6.21679937466979E-5,-7.711933612823486,25.80354118347168,-39.02177429199219,-0.13043469190597534,0.53559809923172,0.038726806640625,0.06626624,-0.14163817,9.762987,-0.016431268,-0.55360186,9.748518,0
10,988.1978759765625,-9.632034925743937E-5,7.476776372641325E-4,-6.231997394934297E-5,-7.468341827392578,26.136518478393555,-38.30895233154297,-0.12975171208381653,0.5422649383544922,0.034111976623535156,0.05913335,-0.14163907,9.760622,-0.016966216,-0.5487938,9.746374,0
10,988.200439453125,-9.667495032772422E-5,3.482615284156054E-4,4.7015983727760613E-4,-7.019689559936523,25.186994552612305,-38.32252502441406,-0.13388526439666748,0.5347333550453186,0.04369163513183594,0.05678016,-0.14402322,9.760626,-0.016312357,-0.5477363,9.746462,0
10,988.1881103515625,-9.702943498268723E-5,8.200318552553654E-5,-6.262387614697218E-5,-7.466575622558594,25.1375675201416,-38.712677001953125,-0.13803261518478394,0.5316917300224304,0.03907966613769531,0.068766505,-0.15832384,9.765364,-0.017355833,-0.5615691,9.750717,0
10,988.1832275390625,-4.96857741381973E-4,-5.109718767926097E-5,3.3669802360236645E-4,-7.880092620849609,25.4349308013916,-38.28143310546875,-0.13238443434238434,0.5193970799446106,0.010785102844238281,0.061633527,-0.13210858,9.767735,-0.022959474,-0.5314063,9.754331,0
10,988.1655883789062,8.343669469468296E-4,-7.168293232098222E-4,-8.618755964562297E-4,-7.816583156585693,25.179048538208008,-39.43101119995117,-0.13144585490226746,0.5263198018074036,0.03456401824951172,0.056890547,-0.14402594,9.767737,-0.03127326,-0.5386518,9.754053,0
10,988.17333984375,3.01380583550781E-4,-9.830876952037215E-4,-0.001128343166783452,-7.860987663269043,25.71645164489746,-38.68577194213867,-0.13086113333702087,0.5186131000518799,0.044147491455078125,0.06409705,-0.14402689,9.770107,-0.022063814,-0.5379438,9.756536,0
10,988.1959838867188,-9.031792869791389E-4,7.625934667885303E-4,-5.565729225054383E-5,-7.4787211418151855,26.338045120239258,-39.16596984863281,-0.13488227128982544,0.5156221985816956,0.03953075408935547,0.06891364,-0.13926117,9.774846,-0.005952105,-0.53207195,9.761589,0
10,988.178466796875,-5.040600663051009E-4,-3.0261254869401455E-4,2.1050666691735387E-4,-7.209828853607178,25.852094650268555,-38.79405212402344,-0.12463530153036118,0.512722373008728,0.0538482666015625,0.059390843,-0.14164539,9.753544,-0.013239279,-0.5280812,9.740439,0
10,988.1934814453125,-1.0494072921574116E-4,9.691884042695165E-5,7.719680434092879E-5,-7.037134647369385,25.012861251831055,-38.69457244873047,-0.1331954449415207,0.5242424011230469,0.030282974243164062,0.06898719,-0.15117939,9.765385,-0.007864799,-0.53730375,9.752005,0
10,988.1912231445312,1.6102066729217768E-4,-8.351291762664914E-4,-1.8927105702459812E-4,-7.193522930145264,25.1302433013916,-39.370201110839844,-0.12799225747585297,0.5117442607879639,0.011457443237304688,0.06663412,-0.14164717,9.767754,-0.0095167905,-0.52458364,9.754909,0
10,988.168701171875,-6.382818100973964E-4,4.965077969245613E-4,2.100507845170796E-4,-7.4655961990356445,25.5073299407959,-38.88843536376953,-0.12269137054681778,0.5042750239372253,0.049434661865234375,0.05950117,-0.15118124,9.758289,-0.023291405,-0.5285543,9.745291,0
10,988.1788940429688,-2.3916258942335844E-4,-1.6922433860599995E-4,-1.8957495922222733E-4,-7.4936957359313965,25.322885513305664,-38.71934127807617,-0.13591143488883972,0.5014636516571045,0.054297447204589844,0.06887555,-0.14402683,9.760639,-0.012771469,-0.52143526,9.748,0
10,988.1485595703125,2.9390945564955473E-4,3.63335944712162E-4,3.432453377172351E-4,-7.569947242736816,25.51497459411621,-38.872802734375,-0.14505672454833984,0.5083781480789185,0.04492378234863281,0.07846314,-0.14641084,9.75354,-0.0026774667,-0.5235171,9.740896,0
10,988.1791381835938,8.348959963768721E-4,2.2305574384517968E-4,-5.7775410823524E-5,-7.443042278289795,25.317594528198242,-38.64985275268555,-0.14933255314826965,0.4913630485534668,0.04502391815185547,0.07371122,-0.12972845,9.770113,-0.0060703047,-0.50402176,9.758243,0
10,988.1817016601562,-2.3063679691404104E-4,3.5625745658762753E-4,-1.9104871898889542E-4,-7.740033149719238,25.619096755981445,-38.852684020996094,-0.138917475938797,0.4937312602996826,0.030910491943359375,0.07134923,-0.13449575,9.763014,-0.009717938,-0.50512445,9.751121,0
10,988.1815185546875,4.348836373537779E-4,-3.0948861967772245E-4,-3.2432202715426683E-4,-7.5634541511535645,25.046659469604492,-38.384490966796875,-0.13385991752147675,0.49582093954086304,0.031006813049316406,0.07854688,-0.1487961,9.772486,-0.002149906,-0.5186063,9.760166,0
10,988.161376953125,-4.974912153556943E-4,0.0014216083800420165,7.503642700612545E-5,-7.590137958526611,25.970029830932617,-38.66535949707031,-0.12828496098518372,0.5027058720588684,0.05951118469238281,0.06184551,-0.14641352,9.75355,-0.02179597,-0.50811285,9.741577,0
10,988.1740112304688,1.6802933532744646E-4,-5.757171311415732E-4,6.075528799556196E-4,-7.8464484214782715,25.993558883666992,-38.85820007324219,-0.12752008438110352,0.48568886518478394,0.03593730926513672,0.07143304,-0.14164765,9.7677555,-0.0083996095,-0.5040117,9.75603,0
10,988.2125244140625,3.0091824010014534E-4,-3.093575360253453E-4,2.0796374883502722E-4,-7.723130702972412,26.16152000427246,-38.57908630371094,-0.13137465715408325,0.49744290113449097,0.0312957763671875,0.069071054,-0.14641483,9.763024,-0.016149346,-0.50495553,9.751288,0
10,988.1895141601562,3.4333206713199615E-5,-1.7615588149055839E-4,2.078482648357749E-4,-7.774082660675049,25.534677505493164,-39.073448181152344,-0.13099700212478638,0.48985326290130615,0.02665996551513672,0.061929256,-0.14403231,9.777229,-0.018876307,-0.49845254,9.765757,0
10,988.1818237304688,-6.317256484180689E-4,7.559934165328741E-4,4.740488075185567E-4,-7.665846824645996,25.7938289642334,-38.72037124633789,-0.12584500014781952,0.48741304874420166,0.040947914123535156,0.066736996,-0.15118285,9.760662,-0.014880396,-0.50366545,9.749049,0
10,988.1795043945312,3.001106670126319E-4,2.2340528084896505E-4,3.407754993531853E-4,-7.499646186828613,25.422910690307617,-39.10919952392578,-0.1201476901769638,0.47041773796081543,0.0599822998046875,0.059595227,-0.14403369,9.760664,-0.025482148,-0.4917258,9.749482,0
11,988.1669921875,3.352563362568617E-5,-5.75498619582504E-4,-5.914454814046621E-4,-8.113956451416016,26.37506675720215,-38.60834503173828,-0.13361649215221405,0.48685628175735474,0.031668663024902344,0.07635248,-0.15356739,9.777237,-0.0077575706,-0.50357985,9.765762,0
11,988.1771850585938,2.995722461491823E-4,-4.4229699415154755E-4,4.737027920782566E-4,-7.691582202911377,25.87470817565918,-38.105262756347656,-0.13285380601882935,0.4748408794403076,0.017551422119140625,0.07877028,-0.13450189,9.765404,0.0017699078,-0.4829622,9.754699,0
11,988.1771850585938,2.995722461491823E-4,-4.4229699415154755E-4,4.737027920782566E-4,-7.6633453369140625,26.16506004333496,-38.973426818847656,-0.1320783495903015,0.4720767140388489,0.03658294677734375,0.07162851,-0.14165248,9.767775,-4.349649E-4,-0.48512766,9.75701,0
11,988.1749877929688,-2.3332878481596708E-4,-1.7593742813915014E-4,-1.922022784128785E-4,-6.998381614685059,25.207616806030273,-39.4047966003418,-0.11699309945106506,0.46469199657440186,0.046141624450683594,0.06687662,-0.13450332,9.763042,-0.012302071,-0.47396135,9.75268,0
11,988.1847534179688,-3.6675576120615005E-4,-5.753675359301269E-4,2.0715617574751377E-4,-7.632776737213135,25.508485794067383,-38.32384490966797,-0.12079077214002609,0.4953334331512451,0.06990623474121094,0.06212473,-0.1726364,9.751208,-0.023288801,-0.5061469,9.739765,0
11,988.1826171875,-3.67293949238956E-4,-4.4212222564965487E-4,4.732412926387042E-4,-7.670710563659668,25.157270431518555,-38.913330078125,-0.12017211318016052,0.4593903422355652,0.0368499755859375,0.0669325,-0.14403774,9.767782,-0.017341215,-0.4776739,9.757374,0
11,988.1627197265625,-2.3440527729690075E-4,2.2371116210706532E-4,7.365219062194228E-5,-8.089879989624023,26.186796188354492,-38.44706726074219,-0.11463011801242828,0.46051889657974243,0.05117225646972656,0.06935033,-0.15118827,9.770151,-0.018625755,-0.4826662,9.759621,0
11,988.165283203125,4.3111527338624E-4,3.5691281664185226E-4,-1.9277911633253098E-4,-7.9272661209106445,26.181222915649414,-38.77973937988281,-0.11872461438179016,0.459276020526886,0.022808074951171875,0.06698835,-0.13927262,9.777256,-0.015248895,-0.46837378,9.767243,0
11,988.1981811523438,8.303198264911771E-4,-0.001640412607230246,-5.923683056607842E-4,-7.778350353240967,26.162397384643555,-38.41666030883789,-0.12233167141675949,0.45703500509262085,0.06549358367919922,0.062236458,-0.14880641,9.75832,-0.020659462,-0.47317606,9.748154,0
11,988.1754150390625,3.1103030778467655E-5,-9.745791321620345E-4,-3.2616767566651106E-4,-7.760904788970947,26.336530685424805,-38.04461669921875,-0.11209650337696075,0.4355277419090271,0.04189872741699219,0.06943411,-0.13450737,9.763058,-0.0087376945,-0.45911235,9.7534275,0
11,988.147705078125,-1.0232394561171532E-4,-5.750616546720266E-4,7.319072028622031E-5,-7.385864734649658,26.056241989135742,-39.163787841796875,-0.1209939494729042,0.4711000919342041,0.060919761657714844,0.06946206,-0.15595756,9.741755,-0.009705506,-0.4765298,9.731585,0
11,988.1552734375,6.963545456528664E-4,4.902455257251859E-4,-1.9324058666825294E-4,-7.294531345367432,25.77297019958496,-39.08430480957031,-0.11575378477573395,0.4405994415283203,0.023103713989257812,0.06710005,-0.13212551,9.767796,-0.0054660887,-0.45181882,9.758465,0
11,988.1806640625,6.960853934288025E-4,3.571313282009214E-4,-6.019801367074251E-5,-7.51252555847168,25.253198623657227,-39.713157653808594,-0.10538356006145477,0.45228147506713867,0.02792072296142578,0.064738065,-0.14642592,9.767799,-0.01747825,-0.462043,9.758162,0
11,988.1781616210938,-5.026053404435515E-4,-8.412464521825314E-4,7.386343204416335E-4,-7.758159637451172,25.70734214782715,-38.62409973144531,-0.11881541460752487,0.45470714569091797,0.04693317413330078,0.074325144,-0.1488098,9.763067,-0.01102379,-0.46432546,9.753432,0
11,988.1934814453125,2.960729179903865E-4,-3.0857097590342164E-4,2.0588713232427835E-4,-7.746120929718018,25.613203048706055,-38.54346466064453,-0.11847777664661407,0.43320655822753906,0.03280353546142578,0.071962714,-0.14166065,9.767805,-0.01121822,-0.4545158,9.758512,0
11,988.1605224609375,-3.65647254511714E-4,7.526236586272717E-4,-3.280314849689603E-4,-7.3656744956970215,25.601186752319336,-39.3712272644043,-0.12266019731760025,0.449626624584198,0.042351722717285156,0.067210734,-0.14881118,9.755971,-0.011621412,-0.45715082,9.746614,0
11,988.18115234375,1.6671698540449142E-4,-1.7943850252777338E-4,2.0448560826480389E-4,-7.493557929992676,25.428804397583008,-39.418418884277344,-0.12671606242656708,0.42836129665374756,0.032950401306152344,0.081578076,-0.13927878,9.760708,0.001901038,-0.44973236,9.7516775,0
11,988.1884765625,1.664480660110712E-4,-9.783424902707338E-4,-1.9510334823280573E-4,-7.592501640319824,25.704713821411133,-39.11138153076172,-0.1111077219247818,0.45322149991989136,0.04726696014404297,0.06965643,-0.15834557,9.755976,-0.0153573975,-0.46198466,9.746554,0
11,988.1508178710938,-1.0013673454523087E-4,-1.7935122014023364E-4,-6.206065881997347E-5,-7.62364387512207,25.51732063293457,-38.78767776489258,-0.11080930382013321,0.4331362247467041,0.03309440612792969,0.06968433,-0.14404665,9.774917,-0.012781732,-0.44639605,9.766023,0
11,988.1934814453125,3.2752519473433495E-5,8.700831676833332E-5,-1.9533373415470123E-4,-7.736147880554199,25.885892868041992,-38.483970642089844,-0.12031779438257217,0.45455455780029297,0.0615692138671875,0.07449207,-0.15358044,9.753614,-0.010289516,-0.45393398,9.744535,0
11,988.1608276367188,1.6564165707677603E-4,0.0011523155262693763,-1.954490435309708E-4,-7.465297698974609,26.139467239379883,-38.46356201171875,-0.10537987947463989,0.4281870126724243,0.04270744323730469,0.072129965,-0.14643134,9.75835,-0.0052662417,-0.44404855,9.749607,0
11,988.1839599609375,-1.0094314347952604E-4,-4.606237052939832E-5,7.365413475781679E-4,-6.970963478088379,25.654436111450195,-38.97325897216797,-0.12378659844398499,0.41671591997146606,0.042763710021972656,0.07454783,-0.13928218,9.763088,0.0018933415,-0.43589917,9.754632,0
11,988.1990966796875,5.690036923624575E-4,2.961221616715193E-4,7.027860265225172E-4,-7.025639533996582,25.287015914916992,-38.71238327026367,-0.10448795557022095,0.44295090436935425,0.033359527587890625,0.06501606,-0.15596576,9.767825,-0.01850237,-0.44705528,9.759035,0
11,988.161376953125,1.6926130047068E-4,9.61955520324409E-4,4.3635503971017897E-4,-7.601633071899414,25.69587516784668,-38.64754867553711,-0.10891386866569519,0.4263771176338196,0.04762744903564453,0.06982377,-0.14881666,9.767828,-0.012794554,-0.43921733,9.759323,0
12,988.1639404296875,-2.3048155708238482E-4,2.962094731628895E-4,7.025557570159435E-4,-7.647858142852783,25.599668502807617,-38.2498779296875,-0.11766654253005981,0.40974724292755127,0.06663227081298828,0.07702139,-0.13928424,9.753627,4.202202E-4,-0.4292481,9.745476,0
12,988.1563720703125,1.6872346168383956E-4,-5.02694514580071E-4,-4.959810758009553E-4,-7.3688554763793945,25.49232292175293,-38.517539978027344,-0.12188801169395447,0.42661356925964355,0.04775428771972656,0.07465935,-0.14881797,9.758364,0.003349198,-0.43565214,9.750055,0
12,988.1663818359375,8.342445944435894E-4,1.6313884407281876E-4,-6.292540347203612E-4,-7.071971893310547,26.297163009643555,-38.68737030029297,-0.097938172519207,0.40071070194244385,0.038341522216796875,0.060347855,-0.13690226,9.758366,-0.012169763,-0.41835275,9.750534,0
12,988.161376953125,3.502779873088002E-5,9.621301433071494E-4,5.690521211363375E-4,-7.417551040649414,26.23714256286621,-38.938541412353516,-0.10171210765838623,0.4129124879837036,0.03840160369873047,0.0627656,-0.14881934,9.770205,-0.020133086,-0.42825705,9.762129,0
12,988.1715087890625,7.005488150753081E-4,-9.020374272949994E-4,3.026210470125079E-4,-7.777669429779053,25.900022506713867,-39.01728820800781,-0.11067430675029755,0.42035752534866333,0.033722877502441406,0.06996322,-0.14882006,9.765472,-0.008364137,-0.42811203,9.757466,0
12,988.1968383789062,-3.649833961389959E-4,-6.356779485940933E-4,3.618997288867831E-5,-7.598153114318848,26.436872482299805,-39.07636642456055,-0.11007112264633179,0.4129176139831543,0.03853034973144531,0.07238102,-0.14405425,9.767843,-0.0097038485,-0.42142892,9.760074,0
12,988.2070922851562,-4.984103725291789E-4,2.9647129122167826E-4,-9.708316065371037E-5,-7.57244873046875,25.143735885620117,-38.61973571777344,-0.1046362817287445,0.4106406569480896,0.04332542419433594,0.07001901,-0.15358792,9.758377,-0.008536968,-0.42744833,9.750468,0
12,988.179443359375,1.6711052739992738E-4,-1.0295884567312896E-4,-9.719835361465812E-5,-7.114227294921875,24.941102981567383,-39.37135314941406,-0.10916951298713684,0.3942738175392151,0.057582855224609375,0.07004693,-0.13452242,9.744175,-0.008830268,-0.406586,9.736866,0
12,988.15673828125,4.3288880260661244E-4,-1.0287159238941967E-4,3.572914283722639E-5,-8.075234413146973,25.35755729675293,-38.24683380126953,-0.1132567971944809,0.4007711410522461,0.04819297790527344,0.06768489,-0.1488228,9.760749,-0.021805774,-0.41772175,9.753151,0
12,988.15673828125,4.3288880260661244E-4,-1.0287159238941967E-4,3.572914283722639E-5,-8.075234413146973,25.35755729675293,-38.24683380126953,-0.10835598409175873,0.39988791942596436,0.052948951721191406,0.0724926,-0.14882351,9.760752,-0.009605635,-0.41746098,9.753221,0
12,988.2051391601562,4.326198832131922E-4,8.292776765301824E-4,3.5613891668617725E-5,-7.822915077209473,26.173582077026367,-38.795372009277344,-0.09334233403205872,0.3973624110221863,0.038811683654785156,0.060570955,-0.14405762,9.774958,-0.01602757,-0.4074582,9.767698,0
12,988.1669311523438,-3.6659621400758624E-4,-3.691001911647618E-4,-3.639750648289919E-4,-7.4480133056640625,25.787382125854492,-39.2154655456543,-0.10731549561023712,0.4048052430152893,0.05306720733642578,0.0749383,-0.14405824,9.7607565,-0.0025181435,-0.40889567,9.75354,0
12,988.1669311523438,-3.6659621400758624E-4,-3.691001911647618E-4,-3.639750648289919E-4,-7.4073333740234375,25.509401321411133,-39.205467224121094,-0.10197840631008148,0.40254196524620056,0.024718284606933594,0.060626745,-0.16312517,9.758392,-0.018140674,-0.4210801,9.75084,0
12,988.17236328125,3.23397689498961E-5,-1.0269705671817064E-4,5.679000751115382E-4,-7.731581687927246,25.890310287475586,-38.71588897705078,-0.10111258924007416,0.394545316696167,0.02953338623046875,0.06065464,-0.16074263,9.767863,-0.023629881,-0.41652283,9.760461,0
12,988.1775512695312,-2.3424491519108415E-4,4.2997836135327816E-4,4.346269997768104E-4,-7.673158168792725,26.41860008239746,-37.908973693847656,-0.10997893661260605,0.3983672857284546,0.05326557159423828,0.07222268,-0.15120013,9.75836,-0.0072083026,-0.40831682,9.75125,0
12,988.1622924804688,6.985709187574685E-4,-6.354004726745188E-4,-9.77005111053586E-5,-7.369398593902588,25.86060905456543,-38.61599349975586,-0.0954873338341713,0.3869099020957947,0.03911018371582031,0.06267449,-0.14405055,9.767829,-0.012094714,-0.397241,9.761004,0
12,988.20068359375,4.4059811625629663E-4,8.224182529374957E-4,9.674043394625187E-4,-7.6080193519592285,25.057844161987305,-38.76319885253906,-0.09990185499191284,0.3754492402076721,0.02968883514404297,0.06746572,-0.14166756,9.767831,-0.013165597,-0.39412507,9.761129,0
12,988.1753540039062,5.736460443586111E-4,8.224362973123789E-4,4.347253416199237E-4,-7.977376937866211,25.818227767944336,-38.75077819824219,-0.09496847540140152,0.3876202404499054,0.02500629425048828,0.060307443,-0.15358426,9.7773,-0.025010746,-0.4015352,9.770413,0
12,988.1876831054688,-9.22537874430418E-5,9.556121658533812E-4,3.5204284358769655E-5,-7.5950026512146,25.33347511291504,-38.85831832885742,-0.10894395411014557,0.3808267414569855,0.043992042541503906,0.07226837,-0.14405139,9.763098,-0.0072831027,-0.39357197,9.756491,0
12,988.1780395507812,7.065837271511555E-4,4.2299824417568743E-4,3.515719436109066E-5,-7.121837615966797,24.93373680114746,-38.98482894897461,-0.09472019225358963,0.39353299140930176,0.05349922180175781,0.06511009,-0.15596808,9.7631,-0.011887129,-0.40167338,9.75629,0
12,988.1653442382812,0.00110594742000103,0.0012219635536894202,1.6826792852953076E-4,-7.356137275695801,25.13581657409668,-39.03752899169922,-0.10405229032039642,0.391445517539978,0.04881477355957031,0.06751144,-0.15358509,9.755999,-0.011103727,-0.3977323,9.749324,0
12,988.1702270507812,3.0688976403325796E-4,0.0013551394222304225,-9.809515904635191E-5,-7.621281147003174,25.782644271850586,-38.34165954589844,-0.08906807005405426,0.37533220648765564,0.04412269592285156,0.053183436,-0.15120204,9.760735,-0.025461078,-0.38961685,9.754239,0
12,988.1731567382812,8.394112810492516E-4,-6.422116421163082E-4,-9.814242366701365E-5,-7.357223033905029,25.87239646911621,-39.23442840576172,-0.09354710578918457,0.36383676528930664,0.039435386657714844,0.06514436,-0.1273696,9.760735,-0.0033700056,-0.36815947,9.754838,0
12,988.1856079101562,4.035362508147955E-5,5.562276346608996E-4,4.344422195572406E-4,-7.412878036499023,25.135217666625977,-38.79779815673828,-0.07920610159635544,0.3810047209262848,0.03000926971435547,0.05798608,-0.15835245,9.777307,-0.021871153,-0.39444038,9.770779,0
12,988.1608276367188,-9.291456080973148E-5,0.0013551930896937847,3.0123707256279886E-4,-6.945364952087402,25.467641830444336,-38.8892936706543,-0.09801532328128815,0.3883971571922302,0.048996925354003906,0.07233691,-0.16073604,9.760736,-5.141441E-4,-0.39828956,9.7542,0
13,988.15283203125,1.7329130787402391E-4,1.5678946510888636E-4,3.011898952536285E-4,-7.639705657958984,25.238744735717773,-38.53794860839844,-0.09741362929344177,0.35781329870224,0.04430866241455078,0.06517863,-0.13213702,9.770207,-0.009973783,-0.36683553,9.764425,0
13,988.2084350585938,3.063392359763384E-4,2.3649452487006783E-5,1.6798474825918674E-4,-7.844383716583252,25.626737594604492,-38.83705139160156,-0.10665526986122131,0.3698081076145172,0.04909515380859375,0.06996983,-0.15120347,9.763106,-0.011638988,-0.3839848,9.756969,0
13,988.1988525390625,-6.258764769881964E-4,1.5682537923566997E-4,-2.3153616348281503E-4,-7.131075859069824,26.031240463256836,-38.893653869628906,-0.08234568685293198,0.381867915391922,0.034941673278808594,0.060421646,-0.15358706,9.770209,-0.010307068,-0.38187528,9.764133,0
13,988.18603515625,-4.928285488858819E-4,2.900010731536895E-4,3.4732511267066E-5,-7.762587547302246,25.808835983276367,-39.09126281738281,-0.07217681407928467,0.3658824563026428,0.04918384552001953,0.04848358,-0.14643754,9.767843,-0.028989952,-0.36944568,9.762032,0
13,988.1734619140625,7.054826710373163E-4,1.5686106053180993E-4,3.010011569131166E-4,-7.829003810882568,26.167692184448242,-38.48615264892578,-0.08628155291080475,0.34978681802749634,0.049223899841308594,0.058054626,-0.14643772,9.767843,-0.019081913,-0.37039605,9.76207,0
13,988.1837158203125,4.39056777395308E-4,1.5687887207604945E-4,-2.316778409294784E-4,-7.139963626861572,25.0219783782959,-38.75624465942383,-0.08618985861539841,0.35260871052742004,0.03506183624267578,0.062845856,-0.13690497,9.760742,-0.006797882,-0.36067727,9.755237,0
13,988.1710815429688,3.057887079194188E-4,0.0012221602955833077,9.666965343058109E-4,-7.5382609367370605,25.334074020385742,-39.09804916381836,-0.08612643927335739,0.3364255428314209,0.03983497619628906,0.055687547,-0.13213865,9.772581,-0.017682359,-0.3523484,9.767265,0
13,988.1508178710938,4.3883651960641146E-4,0.001488494104705751,-3.6493007792159915E-4,-7.822372913360596,25.805295944213867,-38.696922302246094,-0.09579844027757645,0.3825490474700928,0.03039836883544922,0.07003844,-0.1535884,9.767847,-0.012498904,-0.37536445,9.762082,0
13,988.1738891601562,7.05042271874845E-4,0.0013553539756685495,1.6765447799116373E-4,-8.113412857055664,26.006772994995117,-38.509891510009766,-0.10030587017536163,0.3520311713218689,0.04464149475097656,0.07004982,-0.1369058,9.772583,-0.005797066,-0.35764062,9.767245,0
13,988.1762084960938,3.9142556488513947E-5,1.569504092913121E-4,1.676072715781629E-4,-7.753188133239746,25.237546920776367,-38.05848693847656,-0.08998279273509979,0.3408418297767639,0.04941272735595703,0.06528145,-0.14167263,9.772583,-0.012424864,-0.3590085,9.767225,0
13,988.1812744140625,8.379799546673894E-4,-3.756634541787207E-4,3.4402182791382074E-5,-8.016672134399414,25.99176597595215,-38.138999938964844,-0.10854978859424591,0.34844696521759033,0.049454689025878906,0.077242374,-0.14882274,9.75128,0.0039256476,-0.36686838,9.745819,0
13,988.1636962890625,3.0223256908357143E-4,2.0671077072620392E-4,-3.928702790290117E-4,-7.409535884857178,25.77030372619629,-38.52753448486328,-0.10324591398239136,0.341643363237381,0.035294532775878906,0.070084095,-0.1512063,9.758383,-0.0061951317,-0.36523202,9.752969,0
13,988.1688232421875,-4.968252032995224E-4,-5.958729889243841E-5,-2.597595448605716E-4,-7.5102996826171875,25.4126033782959,-38.56806182861328,-0.09783364832401276,0.34920209646224976,0.040069580078125,0.07009554,-0.14405672,9.772587,-0.0045051314,-0.35659307,9.767392,0
13,988.2068481445312,-9.74615104496479E-5,-3.2588528119958937E-4,-9.255965705960989E-4,-7.28238582611084,24.572492599487305,-38.631011962890625,-0.10216612368822098,0.3377474546432495,0.011701583862304688,0.07488674,-0.14167376,9.772587,0.0044133663,-0.353653,9.7675,0
13,988.1742553710938,-3.638872876763344E-4,-5.955155938863754E-5,6.461923476308584E-6,-7.3678765296936035,25.862085342407227,-38.69329833984375,-0.08219510316848755,0.3498093783855438,0.04964733123779297,0.057880163,-0.14643352,9.763094,-0.017714523,-0.350963,9.758039,0
13,988.179443359375,-7.617579540237784E-4,7.334613474085927E-5,-3.923246404156089E-4,-7.611606597900391,25.423189163208008,-38.70703887939453,-0.08669304847717285,0.33836230635643005,0.044952392578125,0.06504989,-0.14405026,9.760727,-0.006941173,-0.3488192,9.755771,0
13,988.1844482421875,-9.496079292148352E-5,4.726564511656761E-4,1.407387899234891E-4,-7.4451069831848145,25.68440818786621,-38.670997619628906,-0.0958116203546524,0.34093427658081055,0.04026317596435547,0.07460949,-0.13928373,9.758359,0.0067853574,-0.34454474,9.753553,0
13,988.1716918945312,-8.939084364101291E-4,-4.5944913290441036E-4,-5.250509129837155E-4,-7.290646076202393,26.039758682250977,-38.71559143066406,-0.0905291736125946,0.34835076332092285,0.030836105346679688,0.06027007,-0.1559666,9.77493,-0.011651145,-0.35496688,9.769907,0
13,988.1742553710938,1.7135508824139833E-4,4.726564511656761E-4,8.065284928306937E-4,-7.154066562652588,25.48293113708496,-38.85802459716797,-0.0851157009601593,0.34169119596481323,0.026140213012695312,0.06504989,-0.15120007,9.770195,-0.011454731,-0.3494312,9.765326,0
13,988.1996459960938,-4.944346146658063E-4,-9.92080895230174E-4,1.407387899234891E-4,-7.751230239868164,25.977079391479492,-38.409996032714844,-0.09418965131044388,0.31536591053009033,0.05459403991699219,0.07221958,-0.13451715,9.763094,6.984528E-4,-0.332794,9.758615,0
13,988.1870727539062,-0.0018260140204802155,6.05814391747117E-4,-1.2557709123939276E-4,-7.691582679748535,25.87470054626465,-38.105262756347656,-0.08410976082086563,0.33245596289634705,0.04516410827636719,0.055490255,-0.14881684,9.760727,-0.01652064,-0.33989155,9.756087,0
13,988.1870727539062,-0.0018260140204802155,6.05814391747117E-4,-1.2557709123939276E-4,-7.505434989929199,26.04915428161621,-38.37510681152344,-0.07375939190387726,0.31641459465026855,0.030994415283203125,0.057880163,-0.141667,9.770195,-0.015094345,-0.33185446,9.765747,0
13,988.1900634765625,1.7135508824139833E-4,-5.926070734858513E-4,-3.918928559869528E-4,-8.025666236877441,26.088842391967773,-38.374244689941406,-0.08754440397024155,0.32878434658050537,0.02629852294921875,0.06027007,-0.14881684,9.777297,-0.018154796,-0.33735305,9.7727785,0
13,988.2050170898438,-2.2811873350292444E-4,3.394985105842352E-4,-1.2557697482407093E-4,-7.652286529541016,25.7011661529541,-38.717037200927734,-0.08723220229148865,0.3271285891532898,0.045266151428222656,0.06504989,-0.141667,9.760727,-0.008328585,-0.33001494,9.756388,0
14,988.1923828125,1.7135508824139833E-4,-5.9975311160087585E-5,-2.5873491540551186E-4,-7.593480110168457,25.33494758605957,-38.93562316894531,-0.07735919207334518,0.3206614851951599,0.05476665496826172,0.06265998,-0.14643355,9.75836,-0.012346495,-0.33214334,9.753997,0
14,988.1824951171875,3.819714765995741E-5,6.05814391747117E-4,1.407387899234891E-4,-7.561495780944824,25.786184310913086,-38.73600387573242,-0.08630897104740143,0.31861281394958496,0.045334815979003906,0.06982967,-0.14166696,9.767828,-0.002283791,-0.32765776,9.763609,0
14,988.1973876953125,-9.496079292148352E-5,-7.257650140672922E-4,-3.918928559869528E-4,-7.471684455871582,25.501440048217773,-38.57920837402344,-0.08101879060268402,0.316761314868927,0.045368194580078125,0.067439795,-0.14166696,9.763094,-0.0044615082,-0.3250024,9.758944,0
14,988.2280883789062,-3.6127667408436537E-4,7.318262942135334E-5,9.396864334121346E-4,-7.506712436676025,25.04725456237793,-38.62422180175781,-0.08517687767744064,0.3244258165359497,0.040668487548828125,0.06504989,-0.1559666,9.763094,-0.0127896,-0.33605134,9.758765,0
14,988.1900634765625,-6.275925552472472E-4,-1.931332517415285E-4,-3.918929724022746E-4,-7.370240211486816,25.596769332885742,-39.139312744140625,-0.06588702648878098,0.31279611587524414,0.04070568084716797,0.055490255,-0.15120007,9.774929,-0.016795453,-0.3271247,9.770768,0
14,988.1903686523438,-4.944346146658063E-4,7.389720994979143E-4,5.402126116678119E-4,-7.236406326293945,25.669126510620117,-38.70226287841797,-0.0799127072095871,0.31102806329727173,0.05020427703857422,0.06265998,-0.14643355,9.760727,-0.0066477656,-0.3225143,9.756696,0
14,988.1802978515625,-9.496079292148352E-5,-5.9975311160087585E-5,7.580849342048168E-6,-7.433069229125977,25.59027671813965,-38.590362548828125,-0.06969420611858368,0.30919042229652405,0.036032676696777344,0.053100377,-0.1392837,9.777297,-0.016538402,-0.3112914,9.773463,0
14,988.2030639648438,-9.496079292148352E-5,-1.931332517415285E-4,6.733705522492528E-4,-7.548914909362793,25.323759078979492,-38.556915283203125,-0.08808595687150955,0.3072970509529114,0.026597976684570312,0.06265998,-0.14405026,9.772562,-0.010972567,-0.31634223,9.768698,0
14,988.1779174804688,-8.939084364101291E-4,-9.92080895230174E-4,-6.582087371498346E-4,-7.480135440826416,25.230222702026367,-38.71601104736328,-0.08291314542293549,0.3011093735694885,0.03608989715576172,0.067439765,-0.1392837,9.765461,-0.0045365132,-0.31153673,9.761717,0
14,988.2056884765625,9.703027317300439E-4,7.318262942135334E-5,-1.2557709123939276E-4,-7.513886451721191,25.777944564819336,-38.51190185546875,-0.0773513987660408,0.31257063150405884,0.03613853454589844,0.057880163,-0.15358333,9.765461,-0.016141508,-0.32083517,9.761556,0
14,988.1859130859375,-2.2811873350292444E-4,-3.2629119232296944E-4,7.580849342048168E-6,-7.616852760314941,25.681142807006836,-37.8745002746582,-0.08649829030036926,0.311862587928772,0.05982398986816406,0.067439795,-0.15358333,9.760727,-0.008760259,-0.32146424,9.756868,0
14,988.18310546875,4.376709694042802E-4,7.318262942135334E-5,-1.2557697482407093E-4,-7.8151984214782715,25.074602127075195,-38.809242248535156,-0.07701251655817032,0.30073678493499756,0.02670764923095703,0.0698297,-0.14166696,9.774929,-0.0067959055,-0.309356,9.771306,0
14,988.2138061523438,4.376709694042802E-4,6.058141589164734E-4,-1.2557709123939276E-4,-7.581144332885742,25.872953414916992,-38.43011474609375,-0.08631829917430878,0.2993509769439697,0.02673053741455078,0.06982967,-0.14643355,9.772562,-0.00285252,-0.312572,9.7689085,0
14,988.2188110351562,1.7135508824139833E-4,4.726564511656761E-4,-5.250507965683937E-4,-7.949277400970459,26.00267219543457,-38.91986846923828,-0.0859326422214508,0.29720407724380493,0.05517005920410156,0.06265998,-0.14405026,9.760727,-0.0123144705,-0.3058321,9.757192,0
14,988.2063598632812,-0.001160224317573011,2.0634062821045518E-4,-5.250507965683937E-4,-8.181511878967285,25.837934494018555,-38.9514274597168,-0.07557656615972519,0.3050647974014282,0.059932708740234375,0.067834616,-0.15359302,9.756027,-0.012618385,-0.314485,9.752394,0
14,988.1934814453125,-2.2811873350292444E-4,-8.589229546487331E-4,5.402126116678119E-4,-8.048519134521484,25.64644432067871,-39.03770065307617,-0.061764586716890335,0.2794174551963806,0.045683860778808594,0.05630374,-0.13215376,9.775004,-0.010536838,-0.2893749,9.77177,0
14,988.221435546875,-7.603145204484463E-4,6.052986136637628E-4,-2.6161206187680364E-4,-7.487309455871582,25.96091651916504,-38.60369110107422,-0.08506478369235992,0.2822948098182678,0.05044364929199219,0.06828502,-0.13453783,9.758437,0.0010166299,-0.29271007,9.755213,0
14,988.1962890625,1.714852696750313E-4,-7.262311992235482E-4,-3.949010279029608E-4,-7.444128513336182,26.054174423217773,-38.84675598144531,-0.08425280451774597,0.2997974157333374,0.04573249816894531,0.073096514,-0.14407171,9.75844,-0.003380444,-0.30145776,9.75512,0
14,988.1937255859375,3.043371543753892E-4,-4.598656087182462E-4,-3.950321697629988E-4,-7.698809623718262,24.97282600402832,-38.74423599243164,-0.08384260535240173,0.2839825749397278,0.04101848602294922,0.070738316,-0.1416892,9.770279,-0.0053600445,-0.2970876,9.767044,0
14,988.1988525390625,-6.280739326030016E-4,-7.261318969540298E-4,-3.951630205847323E-4,-7.988030433654785,25.80791664123535,-38.20964050292969,-0.08800143003463745,0.310810923576355,0.04104137420654297,0.07315996,-0.16075625,9.767914,-0.008855011,-0.314116,9.764456,0
14,988.203857421875,-9.574784780852497E-5,7.286533946171403E-5,6.699694786220789E-4,-8.062759399414062,26.00147819519043,-38.440399169921875,-0.08759427815675735,0.2897445261478424,0.04580211639404297,0.07558155,-0.14645733,9.763183,0.001845099,-0.29905072,9.759994,0
14,988.1964721679688,-4.95527870953083E-4,-5.928747123107314E-4,-1.291093067266047E-4,-7.48151969909668,25.33466911315918,-39.3377799987793,-0.08691094815731049,0.2737331986427307,0.060028076171875,0.06844354,-0.14645813,9.7560835,-0.0051392727,-0.2951287,9.752957,0
14,988.1715087890625,-4.958333447575569E-4,2.0612258231267333E-4,2.7023363509215415E-4,-7.501168251037598,25.421438217163086,-39.03189468383789,-0.08648394793272018,0.2910563349723816,0.05531501770019531,0.07325506,-0.14884217,9.751352,-0.0033799596,-0.29688483,9.748243,0
14,988.1691284179688,1.696509134490043E-4,-1.9330170471221209E-4,3.7867575883865356E-6,-7.913705825805664,26.08856773376465,-38.776405334472656,-0.08645844459533691,0.2753257155418396,0.03165912628173828,0.07567671,-0.14407642,9.775027,0.0050804056,-0.291908,9.772022,0
14,988.1766967773438,-3.632863226812333E-4,0.0011383274104446173,-1.2950226664543152E-4,-7.325674533843994,25.585580825805664,-38.76060485839844,-0.08083167672157288,0.28785446286201477,0.04588508605957031,0.0780983,-0.14646043,9.767929,0.005882319,-0.2928393,9.764947,0
15,988.1741333007812,-4.1197711834684014E-4,-9.272735333070159E-4,2.2109108977019787E-4,-7.485787391662598,25.96238899230957,-38.680992126464844,-0.08059696853160858,0.27207130193710327,0.05537128448486328,0.07574013,-0.1369281,9.758463,0.004969625,-0.28143576,9.755658,0
15,988.1791381835938,6.529809325002134E-4,4.8816436901688576E-6,-4.4482952216640115E-4,-7.528287887573242,25.606760025024414,-39.03855895996094,-0.07540024071931839,0.28492045402526855,0.05065441131591797,0.07099205,-0.14407875,9.756098,-0.0034183636,-0.2854279,9.753243,0
15,988.20458984375,-4.125889972783625E-4,-1.2822664575651288E-4,-1.7864484107121825E-4,-7.657693386077881,25.432905197143555,-39.008445739746094,-0.07981494069099426,0.2737077474594116,0.04593944549560547,0.07341364,-0.14646278,9.756102,0.0028655566,-0.28667772,9.753263,0
15,988.2174072265625,-6.792103522457182E-4,6.70770590659231E-4,2.2069804253987968E-4,-7.210127353668213,25.219961166381836,-39.21892166137695,-0.07452106475830078,0.2662925124168396,0.041235923767089844,0.07344538,-0.14646359,9.7608385,0.0024374928,-0.28494355,9.758054,0
15,988.1870727539062,1.1943181743845344E-4,-1.2812745990231633E-4,-8.446963620372117E-4,-7.658917427062988,26.063566207885742,-38.50626754760742,-0.08350943773984909,0.26470184326171875,0.04598712921142578,0.07347709,-0.1369312,9.763209,0.0029972568,-0.27429658,9.7605915,0
15,988.1870727539062,1.1943181743845344E-4,-1.2812745990231633E-4,-8.446963620372117E-4,-7.658917427062988,26.063566207885742,-38.50626754760742,-0.06920500844717026,0.2829154133796692,0.055466651916503906,0.06394917,-0.16076477,9.767946,-0.011501638,-0.29281145,9.765082,0
15,988.197021484375,-2.80348293017596E-4,-1.2807780876755714E-4,2.204360207542777E-4,-7.5469560623168945,26.063283920288086,-38.90842819213867,-0.06386987119913101,0.2721221446990967,0.03654193878173828,0.06159097,-0.14646591,9.779785,-0.01568874,-0.27693227,9.777143,0
15,988.1820678710938,0.0010506201069802046,-2.611365634948015E-4,3.5333208506926894E-4,-7.905691146850586,25.62172508239746,-38.36540222167969,-0.06348007917404175,0.2708168029785156,0.02708721160888672,0.05923283,-0.14646669,9.775053,-0.01711038,-0.27486974,9.7724495,0
15,988.194580078125,5.176828126423061E-4,4.047027905471623E-4,-3.125887014903128E-4,-7.091375350952148,25.383501052856445,-38.70790100097656,-0.07724485546350479,0.2788119316101074,0.04130744934082031,0.07121402,-0.15123399,9.765587,3.3099577E-4,-0.28124732,9.762968,0
15,988.21240234375,-5.478861858136952E-4,-9.268269059248269E-4,-4.640384577214718E-5,-7.422117233276367,26.232725143432617,-38.70662307739258,-0.05249527096748352,0.26270440220832825,0.069732666015625,0.06407601,-0.14885147,9.756122,-0.0071797054,-0.2749567,9.753591,0
15,988.1996459960938,-9.476654813624918E-4,-0.0013262510765343904,6.192549481056631E-4,-7.391409873962402,25.68206214904785,-38.75611877441406,-0.06655998528003693,0.2608281970024109,0.04134559631347656,0.06649768,-0.14646907,9.760859,-0.005201472,-0.27146602,9.758409,0
15,988.1826171875,-4.1533965850248933E-4,-1.2778007658198476E-4,-1.7982377903535962E-4,-7.528287887573242,25.60675621032715,-39.03855895996094,-0.07589445263147354,0.26911497116088867,0.05082511901855469,0.07369909,-0.15361957,9.758495,-0.0016813334,-0.27901214,9.755994,0
15,988.2001953125,5.16459986101836E-4,5.3805933566764E-4,2.1951901726424694E-4,-7.5519585609436035,25.32081413269043,-38.402305603027344,-0.07529200613498688,0.2676517963409424,0.027169227600097656,0.06895095,-0.14647059,9.767965,-0.005523745,-0.26933894,9.765592,0
15,988.2205200195312,-1.4963519060984254E-4,-3.9399671368300915E-4,-3.1324359588325024E-4,-7.740033149719238,25.619096755981445,-38.852684020996094,-0.07037345319986343,0.25187063217163086,0.050853729248046875,0.07137263,-0.13932152,9.765602,-0.0018529054,-0.2616663,9.763351,0
15,988.227783203125,-1.678272383287549E-5,6.713163456879556E-4,2.1925714099779725E-4,-7.710549831390381,25.6991024017334,-38.400001525878906,-0.07455100119113922,0.26000943779945374,0.05560302734375,0.06662512,-0.14647217,9.765605,-0.008158471,-0.26567245,9.763314,0
15,988.1953735351562,-1.7091224435716867E-5,-5.270550027489662E-4,3.5228297929279506E-4,-7.398338794708252,25.412321090698242,-38.97022247314453,-0.0599028542637825,0.25364741683006287,0.0556182861328125,0.069046766,-0.14647295,9.765608,-0.0035492145,-0.2647769,9.763359,0
15,988.225830078125,2.57091480307281E-4,-1.3139372458681464E-4,8.480169344693422E-5,-7.441083908081055,26.057119369506836,-39.001365661621094,-0.0642058476805687,0.2569587230682373,0.050896644592285156,0.059518874,-0.13694055,9.753775,-0.008886965,-0.2513801,9.751674,0
15,988.2105712890625,-4.090036964043975E-4,-2.645020140334964E-4,-3.148032119497657E-4,-7.671796798706055,25.89385414123535,-39.1102294921875,-0.06374263018369675,0.2553134858608246,0.046176910400390625,0.07150012,-0.14647453,9.7585125,-0.0025180746,-0.26212758,9.756352,0
15,988.2537841796875,-5.424680421128869E-4,-2.644523628987372E-4,6.171711720526218E-4,-7.369398593902588,25.86060905456543,-38.615989685058594,-0.06840963661670685,0.2635533809661865,0.041454315185546875,0.069141984,-0.15362503,9.775085,-0.0038824435,-0.26728046,9.772883,0
15,988.2205810546875,1.230156049132347E-4,4.013869329355657E-4,-0.0012471710797399282,-7.854058265686035,25.986188888549805,-38.47167205810547,-0.08216899633407593,0.23285111784934998,0.05093955993652344,0.078733325,-0.14170946,9.765619,0.004369475,-0.2568524,9.763585,0
15,988.2079467773438,1.2270978186279535E-4,-2.643530606292188E-4,8.42773006297648E-5,-7.333146572113037,25.68412971496582,-39.073158264160156,-0.07231594622135162,0.2416992485523224,0.06515026092529297,0.07398528,-0.15124337,9.751419,0.0012412388,-0.26313078,9.749322,0
15,988.2137451171875,-1.4391157310456038E-4,-2.6430338039062917E-4,-1.8216966418549418E-4,-7.429045677185059,25.962987899780273,-38.92072677612305,-0.07162138819694519,0.2402174174785614,0.022551536560058594,0.066847265,-0.13932778,9.779829,-0.002938997,-0.24839363,9.777896,0
15,988.2031860351562,3.8841390050947666E-4,-5.305695813149214E-4,7.498047780245543E-4,-7.829301834106445,25.535554885864258,-38.91102600097656,-0.07610829919576645,0.2342153936624527,0.04149818420410156,0.076438636,-0.13456197,9.760894,0.0031298697,-0.24504727,9.759045,0
15,988.2208862304688,-2.7768174186348915E-4,1.352696563117206E-4,-1.8243183149024844E-4,-7.5748114585876465,24.878416061401367,-39.065757751464844,-0.0707474872469902,0.2518533766269684,0.04624462127685547,0.076470375,-0.15362893,9.763264,-0.001977414,-0.26180068,9.761261,0
15,988.223876953125,-5.446091527119279E-4,-7.967365090735257E-4,-8.484838181175292E-4,-7.165561676025391,25.208768844604492,-38.840213775634766,-0.060100264847278595,0.24481496214866638,0.03679370880126953,0.07411218,-0.14171343,9.772736,0.0032706093,-0.2480654,9.770896,0
16,988.223876953125,-5.446091527119279E-4,-7.967365090735257E-4,-8.484838181175292E-4,-7.165561676025391,25.208768844604492,-38.840213775634766,-0.054862212389707565,0.2535231411457062,0.046268463134765625,0.05980453,-0.15124722,9.768003,-0.015704073,-0.25152028,9.766107,0
16,988.2137451171875,-1.454412704333663E-4,-6.635289173573256E-4,6.161225028336048E-4,-7.432526111602783,25.221986770629883,-38.491912841796875,-0.06422460079193115,0.25197380781173706,0.046280860900878906,0.074175656,-0.15363134,9.75617,-0.0017104074,-0.25616068,9.754297,0
16,988.1935424804688,-2.789051504805684E-4,1.3546831905841827E-4,-4.4927216367796063E-4,-7.392388820648193,25.312299728393555,-38.58036422729492,-0.05899400636553764,0.24582377076148987,0.04629039764404297,0.059867978,-0.14886554,9.760908,-0.013415085,-0.24626526,9.759111,0
16,988.2366333007812,-4.123694961890578E-4,-1.3079779455438256E-4,3.4954436705447733E-4,-7.5906805992126465,26.338319778442383,-38.76381301879883,-0.05840309336781502,0.22999103367328644,0.06050586700439453,0.06706944,-0.1417165,9.768013,-0.00556414,-0.2397584,9.766327,0
16,988.2416381835938,-6.789908511564136E-4,-9.296957869082689E-4,-4.495343309827149E-4,-7.479156494140625,25.59998893737793,-38.89176940917969,-0.0725536197423935,0.22841480374336243,0.04631328582763672,0.074270874,-0.14886709,9.768016,-0.0017085876,-0.24704354,9.766309,0
16,988.2339477539062,-1.4666467905044556E-4,4.019331536255777E-4,-4.49665414635092E-4,-7.632638454437256,25.61440086364746,-39.022926330566406,-0.05811658501625061,0.23657606542110443,0.051056861877441406,0.05757329,-0.14886789,9.75855,-0.018423919,-0.24084994,9.7568655,0
16,988.2139282226562,-1.4697096776217222E-4,5.351409199647605E-4,8.283526403829455E-5,-7.721907615661621,25.530858993530273,-39.08126449584961,-0.048380471765995026,0.23053845763206482,0.03212738037109375,0.059994936,-0.1369523,9.77039,-0.010646813,-0.2290435,9.768842,0
16,988.2240600585938,6.516706198453903E-4,2.558634150773287E-6,2.158620918635279E-4,-7.772805690765381,26.53658103942871,-38.82433319091797,-0.06664889305830002,0.22938081622123718,0.04160308837890625,0.060026705,-0.1393363,9.765657,-0.011324387,-0.22997597,9.764121,0
16,988.22412109375,-4.1389872785657644E-4,-5.300234770402312E-4,2.1573100821115077E-4,-7.503232955932617,25.788259506225586,-39.05303955078125,-0.057066019624471664,0.22309261560440063,0.055816650390625,0.072007954,-0.14648695,9.760925,-0.0041871667,-0.23860285,9.759373,0
16,988.2291259765625,-8.136780234053731E-4,-3.968158271163702E-4,-1.838739262893796E-4,-7.919794082641602,26.082674026489258,-38.467185974121094,-0.06616441905498505,0.22638510167598724,0.04162311553955078,0.072039664,-0.14887099,9.777498,-0.0026784763,-0.23951513,9.775962,0
16,988.2094116210938,-2.8135243337601423E-4,-2.6360820629633963E-4,-5.834788898937404E-4,-7.648262977600098,26.07387351989746,-39.047401428222656,-0.06107277050614357,0.22016677260398865,0.036896705627441406,0.07685119,-0.1369554,9.7704,0.0011313297,-0.22791982,9.769003,0
16,988.2171020507812,-1.5342258848249912E-5,5.353891174308956E-4,-4.504520329646766E-4,-7.958707809448242,25.3617000579834,-38.88090515136719,-0.055654577910900116,0.2190544605255127,0.03216743469238281,0.06493342,-0.14172275,9.765669,-0.007708112,-0.22785312,9.764252,0
16,988.2520751953125,2.6359857292845845E-4,-7.518632337450981E-4,1.486927503719926E-4,-7.345620632171631,25.040212631225586,-38.87958908081055,-0.06513489782810211,0.22218848764896393,0.027444839477539062,0.07452476,-0.1417235,9.772774,0.0017674714,-0.22897068,9.771403,0
16,988.2520751953125,2.6359857292845845E-4,-7.518632337450981E-4,1.486927503719926E-4,-7.649785041809082,26.07240104675293,-38.97010040283203,-0.055232562124729156,0.24492482841014862,0.04638671875,0.06771532,-0.1607985,9.765705,-0.013827577,-0.24402189,9.764205,0
16,988.2323608398438,-5.356553592719138E-4,3.134499420411885E-4,-3.8407009560614824E-4,-7.929086208343506,25.547616958618164,-39.12730407714844,-0.04672185331583023,0.2101687639951706,0.06053733825683594,0.06331575,-0.13935842,9.761005,-0.0067945607,-0.2211298,9.7597,0
16,988.2297973632812,1.3095233589410782E-4,0.0019040140323340893,8.084672153927386E-4,-7.770877838134766,26.063844680786133,-38.10411071777344,-0.06099953502416611,0.22310930490493774,0.06054115295410156,0.06576395,-0.15604277,9.761011,-0.010734346,-0.23643057,9.75961,0
16,988.2221069335938,-2.6986689772456884E-4,5.726529634557664E-4,1.421007327735424E-4,-7.677341938018799,25.519670486450195,-38.70255661010742,-0.06594626605510712,0.2170579433441162,0.03213977813720703,0.07060209,-0.14174457,9.777586,-0.002177555,-0.22298574,9.776326,0
16,988.2246704101562,-2.704289508983493E-4,5.727442330680788E-4,-3.907718928530812E-4,-7.836475372314453,26.2662410736084,-38.7987060546875,-0.05110987648367882,0.2205997109413147,0.04634571075439453,0.06588054,-0.14174597,9.761022,-0.006358046,-0.22022098,9.759788,0
16,988.2196655273438,-1.3783317990601063E-4,-3.592701395973563E-4,5.410928279161453E-4,-7.8348469734191895,25.1613712310791,-38.50334930419922,-0.045732513070106506,0.21474754810333252,0.046347618103027344,0.06593889,-0.14413066,9.761027,-0.009868499,-0.2212041,9.759803,0
16,988.222412109375,3.942364128306508E-4,-8.918106323108077E-4,-6.575695006176829E-4,-7.69394588470459,25.609384536743164,-38.55127716064453,-0.05979301780462265,0.21834054589271545,0.04635143280029297,0.061217427,-0.14174883,9.765766,-0.011545235,-0.21648256,9.764582,0
16,988.2046508789062,2.605166519060731E-4,-4.922455991618335E-4,7.979222573339939E-6,-7.8670759201049805,25.710561752319336,-38.37655258178711,-0.049839019775390625,0.20246517658233643,0.036887168884277344,0.06366563,-0.14175023,9.768139,-0.010288149,-0.21551019,9.766991,0
16,988.2098999023438,-0.0012047828640788794,-3.589963889680803E-4,-1.254195231013E-4,-8.022079467773438,25.723501205444336,-38.4304084777832,-0.0637575015425682,0.22024011611938477,0.04162406921386719,0.07806337,-0.1560513,9.763411,-0.0019271392,-0.23194927,9.762214,0
16,988.2327880859375,-6.923684850335121E-6,-3.5890511935576797E-4,4.0697131771594286E-4,-8.001888275146484,25.2684383392334,-38.63784408569336,-0.07304301857948303,0.2048807144165039,0.04636096954345703,0.07334185,-0.14175309,9.770516,-0.0031907372,-0.2158198,9.769434,0
16,988.1973876953125,-1.4064356219023466E-4,3.06975853163749E-4,-2.590593066997826E-4,-7.325131416320801,25.2172908782959,-38.66215133666992,-0.05868419632315636,0.21289853751659393,0.036895751953125,0.07101029,-0.14890434,9.770522,-0.0019266531,-0.22059654,9.769424,0
17,988.2326049804688,-8.04755836725235E-6,4.402249469421804E-4,1.4017370995134115E-4,-7.426981449127197,25.59617042541504,-38.89958190917969,-0.06801413744688034,0.20725873112678528,0.05109977722167969,0.07345852,-0.15605558,9.765793,-0.0015001781,-0.2272015,9.764671,0
17,988.2200317382812,6.571798585355282E-4,8.397900382988155E-4,-7.921727374196053E-4,-7.832208156585693,25.638525009155273,-39.45549011230469,-0.06800837069749832,0.20147687196731567,0.051100730895996094,0.0782966,-0.14175738,9.753962,0.0043447763,-0.21380356,9.752962,0
17,988.218017578125,2.5714398361742496E-4,5.73565426748246E-4,-1.2662395602092147E-4,-7.728973865509033,25.155202865600586,-38.596290588378906,-0.0488576665520668,0.20951128005981445,0.03690147399902344,0.06401551,-0.1465254,9.765803,-0.010751262,-0.21285269,9.764788,0
17,988.2052612304688,-1.4289189130067825E-4,-3.584488877095282E-4,-3.93180875107646E-4,-7.81824254989624,25.071657180786133,-38.65462875366211,-0.04869738593697548,0.20860344171524048,0.04163551330566406,0.06407383,-0.15844329,9.772911,-0.015038084,-0.2233259,9.771842,0
17,988.2128295898438,-1.4345406088978052E-4,8.400638471357524E-4,-9.260533843189478E-4,-7.684270858764648,25.249929428100586,-38.916656494140625,-0.053301628679037094,0.21682235598564148,0.04163837432861328,0.07130188,-0.14652826,9.772916,-0.0030264538,-0.21276067,9.771957,0
17,988.2154541015625,1.2229988351464272E-4,-9.195055463351309E-5,5.811220034956932E-6,-7.523721694946289,25.611177444458008,-39.27047348022461,-0.06265154480934143,0.20543760061264038,0.04637432098388672,0.0713602,-0.14891301,9.756351,-0.0015594177,-0.21376222,9.755408,0
17,988.2026977539062,-1.4457828365266323E-4,3.0761450761929154E-4,2.718862670008093E-4,-7.134418487548828,25.396162033081055,-39.16391372680664,-0.05777173861861229,0.19521602988243103,0.04637432098388672,0.069028586,-0.1417646,9.761091,8.991938E-4,-0.20496453,9.760215,0
17,988.1978759765625,-8.109299233183265E-4,4.138977965340018E-5,5.329493433237076E-6,-7.836911678314209,25.528188705444336,-38.524497985839844,-0.05721389502286911,0.21289598941802979,0.04164409637451172,0.06908691,-0.1512991,9.768196,-0.0069124997,-0.21260664,9.767296,0
17,988.220458984375,2.537715481594205E-4,-3.5799265606328845E-4,4.0456236456520855E-4,-7.306569576263428,25.867101669311523,-39.164939880371094,-0.04278689995408058,0.19314058125019073,0.03217124938964844,0.06914526,-0.14415072,9.780039,-1.5984662E-4,-0.20519307,9.779194,0
17,988.2130737304688,-1.3106502592563629E-5,7.073621382005513E-4,-6.609419360756874E-4,-7.513748645782471,25.88386344909668,-39.21098327636719,-0.052190400660037994,0.1870548129081726,0.04164314270019531,0.06681365,-0.14176886,9.77531,-0.0055752266,-0.20085475,9.774501,0
17,988.2156982421875,-1.3668672181665897E-5,-3.5781017504632473E-4,-2.617090358398855E-4,-7.8774542808532715,25.912084579467773,-39.23357391357422,-0.0521819032728672,0.19561845064163208,0.04637718200683594,0.06687197,-0.14177029,9.763479,-0.0030793566,-0.19991839,9.7626915,0
17,988.243408203125,-1.4230608940124512E-5,8.407026180066168E-4,-5.282658385112882E-4,-7.498804569244385,25.686758041381836,-38.58587646484375,-0.06122882664203644,0.19916795194149017,0.05584526062011719,0.07409999,-0.14177172,9.763485,0.005494684,-0.20055215,9.762734,0
17,988.2132568359375,2.515232190489769E-4,-3.57627694029361E-4,2.7044088346883655E-4,-7.3428215980529785,26.0435848236084,-38.70777893066406,-0.056468416005373,0.18857212364673615,0.022704124450683594,0.069378525,-0.13938986,9.772959,3.004279E-4,-0.1960135,9.772235,0
17,988.2588500976562,-1.4851288869976997E-4,7.077271002344787E-4,1.3704202137887478E-4,-7.430025100708008,25.593225479125977,-38.744972229003906,-0.06089605391025543,0.20154841244220734,0.032174110412597656,0.07660657,-0.15369089,9.7705965,0.0026393663,-0.21036807,9.769841,0
17,988.2210083007812,-6.817067041993141E-4,-4.906030953861773E-4,1.3680104166269302E-4,-7.762289047241211,26.440969467163086,-38.66638946533203,-0.054406989365816116,0.18162187933921814,0.027565956115722656,0.06807721,-0.13697465,9.7752075,-0.0023629963,-0.19105564,9.774536,0
17,988.2487182617188,9.190173586830497E-4,1.7472740728408098E-4,5.374873289838433E-4,-7.858487129211426,26.087690353393555,-38.93883514404297,-0.05418095737695694,0.1854383647441864,0.03703880310058594,0.070468366,-0.15604086,9.77284,-0.004282914,-0.20905961,9.772103,0
17,988.198486328125,2.631817478686571E-4,3.995344741269946E-5,9.121664334088564E-6,-7.505733966827393,25.417020797729492,-38.79997634887695,-0.04441244527697563,0.17985844612121582,0.03704261779785156,0.05852014,-0.14174129,9.756269,-0.013558671,-0.19096777,9.755595,0
17,988.2236328125,9.289594599977136E-4,4.394293064251542E-4,-1.2404145672917366E-4,-7.865553855895996,25.712034225463867,-38.453857421875,-0.058276694267988205,0.18846333026885986,0.032311439514160156,0.07286081,-0.14650793,9.777575,0.004165804,-0.1986917,9.776923,0
17,988.2261962890625,2.6315776631236076E-4,-0.0011584640014916658,5.417429492808878E-4,-7.0661821365356445,25.67091941833496,-39.42145538330078,-0.043623365461826324,0.19213519990444183,0.03705024719238281,0.06330246,-0.13935806,9.779942,-0.006526122,-0.18808062,9.779328,0
17,988.2289428710938,-2.694866852834821E-4,4.394332063384354E-4,9.412115323357284E-4,-7.55706787109375,25.6846866607666,-38.268836975097656,-0.052910611033439636,0.18613556027412415,0.06072711944580078,0.07525325,-0.1369748,9.770473,0.004568506,-0.18785775,9.769916,0
17,988.213623046875,-5.358145572245121E-4,-9.319651871919632E-5,2.754165616352111E-4,-7.680385589599609,25.516725540161133,-38.54794692993164,-0.057208433747291565,0.19457440078258514,0.060730934143066406,0.07286465,-0.15365775,9.7657385,-0.0015667398,-0.20198676,9.765132,0
17,988.213623046875,-5.358145572245121E-4,-9.319651871919632E-5,2.754165616352111E-4,-7.508778095245361,25.41407585144043,-38.64537048339844,-0.05220155417919159,0.18882548809051514,0.03232574462890625,0.06330627,-0.14650805,9.758637,-0.009052254,-0.19140801,9.758061,0
17,988.2238159179688,-2.695106668397784E-4,-2.263524802401662E-4,9.095529094338417E-6,-7.649242877960205,25.70411491394043,-38.87165069580078,-0.05264855921268463,0.19251927733421326,0.037067413330078125,0.07525706,-0.146508,9.765739,0.0064448137,-0.1938101,9.7652025,0
17,988.2162475585938,0.0011952141067013144,9.720709058456123E-4,-2.5722559075802565E-4,-7.208306789398193,25.85357093811035,-38.87135314941406,-0.03359150141477585,0.17261406779289246,0.041805267333984375,0.060918927,-0.14174147,9.7704735,-0.010988545,-0.18441044,9.769944,0
17,988.2391357421875,-1.363895135000348E-4,9.720748639665544E-4,5.417114589363337E-4,-7.980420112609863,25.815282821655273,-38.596168518066406,-0.04776829108595848,0.19536042213439941,0.03707408905029297,0.07047981,-0.15604122,9.7752075,-0.005879171,-0.19980696,9.774664,0
18,988.2188720703125,-5.358757916837931E-4,3.0628725653514266E-4,2.753903390839696E-4,-7.797317028045654,25.986787796020508,-38.711402893066406,-0.047302283346652985,0.16548460721969604,0.07021903991699219,0.068091154,-0.14412482,9.756269,-0.0031676926,-0.18633653,9.755792,0
