Timestamp,P,Gx,Gy,Gz,Mx,My,Mz,LiAx,LiAy,LiAz,Ax,Ay,Az,Value,Type
0,989.89306640625,7.330172811634839E-4,0.0025533242151141167,6.25062151812017E-4,2.964054822921753,25.674537658691406,-14.456216812133789,-0.5456686615943909,3.070448398590088,-0.39782047271728516,0.038477987,-0.15644118,9.768872,0
0,989.7493286132812,0.003195946104824543,0.0019365510670468211,-2.4121763999573886E-4,2.8486454486846924,26.146072387695312,-14.696977615356445,-0.5731014609336853,3.0835254192352295,-0.42429065704345703,0.057552785,-0.15644011,9.771235,0
0,989.7670288085938,9.32689115870744E-4,-4.6036113053560257E-4,2.528168261051178E-5,2.8717424869537354,25.588050842285156,-14.359949111938477,-0.5478628277778625,3.058230400085449,-0.42227745056152344,0.04071659,-0.15405414,9.773592,0
0,989.7997436523438,5.337177426554263E-4,-6.0968865000177175E-5,2.549696364440024E-5,2.8401942253112793,25.874862670898438,-14.833772659301758,-0.5560483932495117,3.051621913909912,-0.4201526641845703,0.047839463,-0.1516698,9.778322,0
0,989.8120727539062,-2.666207146830857E-4,-9.909484069794416E-4,4.2879703687503934E-4,2.8991382122039795,25.61456298828125,-15.751436233520508,-0.5495417714118958,3.054513692855835,-0.4180030822753906,0.045402586,-0.16120175,9.7830515,0
0,989.79443359375,-2.661683247424662E-4,-7.247059256769717E-4,-5.031146574765444E-4,2.9230763912200928,25.32038116455078,-14.891084671020508,-0.5289438962936401,3.0383267402648926,-0.3921985626220703,0.04296577,-0.16120055,9.761744,0
0,989.8270263671875,5.994806997478008E-7,-5.916213849559426E-4,1.628687314223498E-4,2.8613643646240234,25.789566040039062,-15.21696662902832,-0.5372045040130615,3.0362050533294678,-0.4042091369628906,0.040528953,-0.15881613,9.768841,0
0,989.8168334960938,-2.652641269378364E-4,-3.2537890365347266E-4,-3.695691702887416E-4,3.27626633644104,25.38775634765625,-15.026437759399414,-0.5357531309127808,3.0215039253234863,-0.3963460922241211,0.042871952,-0.14928189,9.775938,0
0,989.8117065429688,2.678196760825813E-4,3.403373993933201E-4,-2.3621751461178064E-4,2.8818535804748535,25.96664810180664,-14.999532699584961,-0.539886474609375,3.018085241317749,-0.38579654693603516,0.04760486,-0.15404728,9.764098,0
0,989.8114624023438,4.0142989018931985E-4,6.0657988069579E-4,5.629239021800458E-4,3.044031858444214,25.2230224609375,-15.057992935180664,-0.5238946080207825,3.0066230297088623,-0.39786338806152344,0.03560844,-0.1468963,9.778296,0
0,989.828857421875,5.350399878807366E-4,-8.582309237681329E-4,-2.3582990979775786E-4,3.067702293395996,25.508960723876953,-15.694250106811523,-0.5367642641067505,3.00923752784729,-0.3956775665283203,0.045121133,-0.1468952,9.766456,0
0,989.8339233398438,2.6917626382783055E-4,-7.251463830471039E-4,3.0679715564474463E-5,2.828294277191162,26.074913024902344,-15.613489151000977,-0.5399395227432251,3.0070905685424805,-0.38875484466552734,0.04985404,-0.14927727,9.761718,0
0,989.7908325195312,2.6962830452248454E-4,-3.25745961163193E-4,-3.6860036198049784E-4,2.5462470054626465,26.17931365966797,-15.19120979309082,-0.5244783163070679,2.9954936504364014,-0.3866252899169922,0.037857592,-0.16357577,9.759346,0
0,989.816162109375,4.032385186292231E-4,7.365446072071791E-5,3.1067291274666786E-5,2.7199203968048096,25.70984649658203,-15.267488479614258,-0.5326069593429565,2.9835586547851562,-0.39858531951904297,0.044980407,-0.15404159,9.775912,0
0,989.7933349609375,4.216737579554319E-6,-5.922086420468986E-4,-2.3505487479269505E-4,2.5022246837615967,25.82221221923828,-15.471475601196289,-0.5168076753616333,2.97670841217041,-0.38223934173583984,0.04254359,-0.15642366,9.768806,0
0,989.8236694335938,6.704587140120566E-4,7.350770465563983E-5,2.977707190439105E-4,2.7119052410125732,26.17668914794922,-15.678495407104492,-0.5345472693443298,2.960057258605957,-0.38475990295410156,0.04488662,-0.15165594,9.761701,0
0,989.8184814453125,5.377528141252697E-4,-1.9288156181573868E-4,-6.34141149930656E-4,3.122485637664795,24.770034790039062,-15.58247184753418,-0.5333837270736694,2.986417531967163,-0.37312984466552734,0.037669957,-0.1659545,9.75933,0
0,989.8156127929688,0.0013371524401009083,6.05992681812495E-4,-1.0131558519788086E-4,3.093163013458252,25.21625518798828,-14.911203384399414,-0.5369004011154175,2.946035385131836,-0.3946361541748047,0.049572557,-0.15165368,9.780629,0
0,989.8080444335938,9.381309500895441E-4,3.3960334258154035E-4,-2.342796651646495E-4,2.871199607849121,25.956336975097656,-14.458398818969727,-0.5306112766265869,2.9531397819519043,-0.39714527130126953,0.04713577,-0.15641907,9.782992,0
0,989.8255004882812,8.05425166618079E-4,-8.58891464304179E-4,1.653878134675324E-4,3.3305063247680664,25.017120361328125,-15.01310920715332,-0.5100852847099304,2.945897340774536,-0.371246337890625,0.044698954,-0.15641788,9.771152,0
0,989.81787109375,2.7324556140229106E-4,-6.001726433169097E-5,1.6558164497837424E-4,2.781090259552002,25.608943939208984,-15.040060043334961,-0.5325671434402466,2.933485984802246,-0.36890506744384766,0.044652015,-0.14926696,9.768781,0
0,989.8125610351562,-1.2577633606269956E-4,3.393832012079656E-4,1.6577536007389426E-4,2.9756879806518555,26.054611206054688,-15.17310905456543,-0.5214437246322632,2.9588241577148438,-0.371185302734375,0.05177486,-0.1611822,9.764042,0
0,989.8298950195312,-0.0014564513694494963,-3.2655333052389324E-4,-1.0015288717113435E-4,3.121262550354004,25.40069580078125,-15.080293655395508,-0.5285829305648804,2.93235182762146,-0.39114952087402344,0.044558227,-0.16833082,9.775874,0
0,989.8298950195312,-0.0014564513694494963,-3.2655333052389324E-4,-1.0015288717113435E-4,3.121262550354004,25.40069580078125,-15.080293655395508,-0.5138242244720459,2.8952443599700928,-0.36635684967041016,0.04451129,-0.14449695,9.761666,0
1,989.8248291015625,4.082120140083134E-4,3.3916300162672997E-4,-9.995920117944479E-5,2.861907482147217,25.421279907226562,-15.11851692199707,-0.5219137668609619,2.906710147857666,-0.3214445114135742,0.046854317,-0.15402889,9.7521925,0
1,989.8220825195312,2.755062305368483E-4,-6.038423452991992E-5,-9.97653987724334E-5,2.718153476715088,26.70880126953125,-14.863763809204102,-0.5297698974609375,2.899014472961426,-0.3711891174316406,0.049197257,-0.15879425,9.778228,0
1,989.8245239257812,2.759583876468241E-4,-7.262473809532821E-4,3.3586344216018915E-5,3.0453083515167236,26.22492218017578,-14.808881759643555,-0.5186800956726074,2.900716543197632,-0.3546276092529297,0.053930193,-0.16117641,9.766387,0
1,989.8499145507812,1.4325248776003718E-4,-3.268469008617103E-4,-9.937779395841062E-5,3.125009298324585,25.56157684326172,-14.012502670288086,-0.5069011449813843,2.878451347351074,-0.35691165924072266,0.03635198,-0.14923915,9.768678,0
1,989.8394165039062,-1.1881330283358693E-4,0.0011372005101293325,3.0191740370355546E-4,2.9313902854919434,25.485671997070312,-14.055208206176758,-0.5152342319488525,2.8657712936401367,-0.3592948913574219,0.055392534,-0.14685395,9.771037,0
1,989.8241577148438,-6.319952080957592E-5,-1.121077366406098E-4,-3.0802167020738125E-4,2.9030237197875977,25.881351470947266,-15.382726669311523,-0.49912989139556885,2.8579323291778564,-0.3664112091064453,0.043364346,-0.14446881,9.7781315,0
1,989.8267822265625,7.071663276292384E-5,-5.117047112435102E-4,3.5809300607070327E-4,2.8281564712524414,25.968994140625,-14.91441535949707,-0.49758273363113403,2.8593595027923584,-0.3450641632080078,0.036115944,-0.15876654,9.763921,0
1,989.8240966796875,2.0463301916606724E-4,2.0803885490749963E-5,9.210215648636222E-5,3.0407423973083496,26.220504760742188,-14.576963424682617,-0.5202475786209106,2.870321273803711,-0.3426780700683594,0.050376654,-0.17306426,9.761546,0
1,989.8163452148438,7.223364082165062E-5,4.2015465442091227E-4,-1.7388875130563974E-4,2.717855453491211,26.07666015625,-15.288637161254883,-0.5093573927879333,2.833810567855835,-0.3545551300048828,0.04551816,-0.15161282,9.7710085,0
1,989.8238525390625,7.387815276160836E-4,9.526631911285222E-4,-4.04057209379971E-5,2.468878746032715,25.89571762084961,-14.46983528137207,-0.5030861496925354,2.8303751945495605,-0.3474102020263672,0.040659666,-0.15637746,9.7639,0
1,989.8339233398438,-4.5888134627602994E-4,-2.458812959957868E-4,-3.0639662872999907E-4,2.5943996906280518,25.802783966064453,-14.868661880493164,-0.5013623237609863,2.8458762168884277,-0.3260221481323242,0.042970896,-0.15637553,9.763892,0
1,989.8311157226562,-5.864907871000469E-5,-3.791623457800597E-4,9.340231190435588E-5,3.0606353282928467,25.13330841064453,-15.20927619934082,-0.48102155327796936,2.8135476112365723,-0.32355690002441406,0.033332586,-0.151607,9.761518,0
1,989.8287963867188,-7.236804813146591E-4,8.191358647309244E-4,4.932011943310499E-4,2.842940330505371,25.245670318603516,-15.41325569152832,-0.4982132315635681,2.824840545654297,-0.3544120788574219,0.040423572,-0.1611382,9.761511,0
1,989.8435668945312,0.001540762954391539,-7.788824150338769E-4,2.272103156428784E-4,2.54679012298584,25.811023712158203,-15.09276008605957,-0.49054503440856934,2.783817768096924,-0.336578369140625,0.04273483,-0.14683667,9.768605,0
1,989.8662109375,3.430999640841037E-4,-7.790056406520307E-4,4.938512574881315E-4,2.8725616931915283,25.431591033935547,-15.659650802612305,-0.494301974773407,2.789806842803955,-0.31526660919189453,0.04504603,-0.15636775,9.759129,0
1,989.81298828125,-1.8877335241995752E-4,1.9819026420009322E-5,3.610183484852314E-4,2.4870049953460693,25.807479858398438,-14.698419570922852,-0.4978451728820801,2.7912137508392334,-0.3366127014160156,0.033017844,-0.16113243,9.76859,0
1,989.8055419921875,4.777747963089496E-4,0.001351275248453021,-3.813041257672012E-5,2.99990177154541,25.972259521484375,-15.710908889770508,-0.4922701418399811,2.772681474685669,-0.31646060943603516,0.032939166,-0.14921412,9.75438,0
1,989.8307495117188,7.448489777743816E-4,5.522044957615435E-4,9.535261779092252E-5,3.160994052886963,25.96521759033203,-15.966279983520508,-0.4955117106437683,2.7692995071411133,-0.3235940933227539,0.04003018,-0.15397874,9.75674,0
1,989.8128662109375,0.0010119235375896096,-3.800242266152054E-4,-4.3695420026779175E-4,3.213437080383301,25.381271362304688,-14.477487564086914,-0.4835793673992157,2.7664475440979004,-0.32006072998046875,0.04473126,-0.15874332,9.768569,0
1,989.8428344726562,0.0011458398075774312,1.9326458641444333E-5,9.600265184417367E-5,3.2627058029174805,25.480422973632812,-15.02977180480957,-0.4827168881893158,2.7432098388671875,-0.3283405303955078,0.042262673,-0.1492083,9.780397,0
1,989.822998046875,-2.339240163564682E-4,9.780470281839371E-5,-2.104960149154067E-4,3.3269190788269043,25.382469177246094,-14.956949234008789,-0.47189804911613464,2.748913288116455,-0.28804492950439453,0.03740418,-0.1492064,9.759086,0
1,989.82763671875,1.6630836762487888E-4,4.971553571522236E-4,-6.096448050811887E-4,3.489938735961914,24.902687072753906,-14.492090225219727,-0.4750553071498871,2.7356557846069336,-0.30931758880615234,0.0373255,-0.15635425,9.756711,0
1,989.820068359375,5.665406351909041E-4,-3.559949982445687E-5,5.6469900300726295E-5,3.703343391418457,24.997737884521484,-15.454347610473633,-0.5020573735237122,2.736565589904785,-0.3163566589355469,0.044416547,-0.16350219,9.759071,0
1,989.8525390625,1.6782514285296202E-4,-1.6888057871256024E-4,-2.095209201797843E-4,3.507521629333496,25.182735443115234,-14.819124221801758,-0.47563549876213074,2.7233901023864746,-0.31266307830810547,0.03238836,-0.16588357,9.775634,0
1,989.8421020507812,-9.773229976417497E-5,-3.5845747333951294E-5,3.234358737245202E-4,3.7328271865844727,25.077735900878906,-15.001668930053711,-0.4890983998775482,2.704939365386963,-0.31149959564208984,0.049039006,-0.15634856,9.777995,0
2,989.8497924804688,1.6934191808104515E-4,-4.354426055215299E-4,-2.088708570227027E-4,3.9214749336242676,25.623428344726562,-15.524572372436523,-0.4589368402957916,2.6864144802093506,-0.2758665084838867,0.032230973,-0.13728029,9.756682,0
2,989.8090209960938,-4.956894554197788E-4,2.3022390087135136E-4,-2.085458254441619E-4,3.8752493858337402,25.527225494384766,-15.126901626586914,-0.4858172833919525,2.6968884468078613,-0.30661582946777344,0.046491712,-0.15634462,9.770879,0
2,989.8469848632812,4.3717457447201014E-4,-3.0253094155341387E-4,-2.0822091028094292E-4,4.212921142578125,24.947738647460938,-14.914072036743164,-0.4843592643737793,2.688087224960327,-0.32312965393066406,0.049672067,-0.15159747,9.780419,0
2,989.833740234375,-6.463070749305189E-4,2.3571157362312078E-4,3.222945670131594E-4,4.329714775085449,24.37175750732422,-14.051538467407227,-0.47923213243484497,2.6840569972991943,-0.29116344451904297,0.050514936,-0.17783418,9.771028,0
2,989.833740234375,-6.463070749305189E-4,2.3571157362312078E-4,3.222945670131594E-4,4.329714775085449,24.37175750732422,-14.051538467407227,-0.4642118811607361,2.6560018062591553,-0.3042173385620117,0.04333633,-0.15161797,9.789965,0
2,989.839111328125,1.506632543168962E-4,0.0010349801741540432,-6.106584332883358E-4,4.341753005981445,24.277626037597656,-13.970903396606445,-0.4582303464412689,2.6520376205444336,-0.28291797637939453,0.036157787,-0.15161774,9.773395,0
2,989.8312377929688,-7.812711992301047E-4,1.0284683958161622E-4,-7.795335841365159E-5,5.218461990356445,23.307842254638672,-14.588140487670898,-0.4704003632068634,2.6527366638183594,-0.2887086868286133,0.04092869,-0.1635339,9.77576,0
2,989.8312377929688,-7.812711992301047E-4,1.0284683958161622E-4,-7.795335841365159E-5,5.218461990356445,23.307842254638672,-14.588140487670898,-0.49342232942581177,2.6195409297943115,-0.31113719940185547,0.055259228,-0.13731757,9.780494,0
2,989.8259887695312,1.7761776689440012E-5,3.6914885276928544E-4,-6.105484790168703E-4,5.044353008270264,23.03925323486328,-14.237661361694336,-0.47791752219200134,2.6247072219848633,-0.2802896499633789,0.048080683,-0.15876687,9.768657,0
2,989.866455078125,-7.811003015376627E-4,0.0010349246440455317,-7.788013317622244E-5,5.631299018859863,23.27284812927246,-14.418756484985352,-0.46645933389663696,2.6201751232147217,-0.2825202941894531,0.05046168,-0.15638337,9.771024,0
2,989.8257446289062,-6.478566792793572E-4,-8.293004939332604E-4,1.884724770206958E-4,5.789614677429199,22.682735443115234,-13.022905349731445,-0.4551810026168823,2.592402458190918,-0.2565145492553711,0.040893227,-0.13970026,9.766288,0
2,989.8334350585938,6.838080589659512E-4,-3.0366660212166607E-5,1.8850911874324083E-4,6.08424186706543,22.115909576416016,-13.266092300415039,-0.4680861830711365,2.61224365234375,-0.30153369903564453,0.040884316,-0.15876627,9.785226,0
2,989.843505859375,5.507358000613749E-4,5.02251205034554E-4,-3.440859727561474E-4,6.14973258972168,23.019859313964844,-12.944162368774414,-0.46637919545173645,2.593825340270996,-0.28023433685302734,0.038485587,-0.15876606,9.766287,0
2,989.8359985351562,5.508213653229177E-4,-6.961841136217117E-4,-7.77334498707205E-5,6.209517955780029,23.023401260375977,-13.338502883911133,-0.46483203768730164,2.5988733768463135,-0.27779483795166016,0.050426215,-0.17068222,9.768653,0
2,989.8330688476562,-1.1479732347652316E-4,-5.630539963021874E-4,5.549780325964093E-5,7.081386566162109,21.837360382080078,-12.32567024230957,-0.4583512246608734,2.5802764892578125,-0.2564697265625,0.04563752,-0.16114885,9.76155,0
2,989.8330688476562,-1.1479732347652316E-4,-5.630539963021874E-4,5.549780325964093E-5,7.30973482131958,21.735309600830078,-12.662824630737305,-0.4423796236515045,2.5664124488830566,-0.2588205337524414,0.036069065,-0.15161547,9.766284,0
2,989.827880859375,1.516041229479015E-4,5.021956749260426E-4,4.550082376226783E-4,7.090816020965576,22.478334426879883,-12.364633560180664,-0.46466168761253357,2.5669748783111572,-0.25647830963134766,0.045619786,-0.15638188,9.754447,0
2,989.84033203125,4.180054529570043E-4,-2.9676585108973086E-4,-3.4390261862426996E-4,8.02815055847168,21.775943756103516,-12.85289192199707,-0.46272891759872437,2.5387609004974365,-0.2777585983276367,0.043220997,-0.15161511,9.771016,0
2,989.8479614257812,-2.476986846886575E-4,-6.962534971535206E-4,5.560778663493693E-5,8.051547050476074,21.85004997253418,-12.09099006652832,-0.446926474571228,2.524569034576416,-0.25165748596191406,0.036042422,-0.14446506,9.766282,0
2,989.8377685546875,-7.802447653375566E-4,9.016278199851513E-4,3.219603095203638E-4,8.030376434326172,21.935344696044922,-11.707796096801758,-0.4453708827495575,2.5391926765441895,-0.24928760528564453,0.045593143,-0.15876451,9.773383,0
2,989.8577880859375,1.8788210581988096E-5,5.021401448175311E-4,5.883128615096211E-4,8.174322128295898,22.38630485534668,-11.910333633422852,-0.4527057111263275,2.5206894874572754,-0.2599773406982422,0.038414538,-0.16353083,9.768647,0
2,989.8173217773438,-1.142840483225882E-4,-3.0505500035360456E-5,-2.1059811115264893E-4,9.007467269897461,22.217771530151367,-11.259012222290039,-0.45658332109451294,2.520791530609131,-0.23984432220458984,0.04557538,-0.16591388,9.752076,0
2,989.8346557617188,1.8959457520395517E-5,-2.9683526372537017E-4,3.2207032199949026E-4,9.072362899780273,21.85744285583496,-11.786821365356445,-0.4444868266582489,2.4783194065093994,-0.2552528381347656,0.047956407,-0.15399727,9.778114,0
2,989.839599609375,1.9045022781938314E-5,1.0262464638799429E-4,-2.1052476949989796E-4,9.544004440307617,21.456233978271484,-11.836023330688477,-0.44305524230003357,2.487780809402466,-0.26703834533691406,0.047947556,-0.14923054,9.787582,0
3,989.857177734375,-5.135012906976044E-4,2.3576871899422258E-4,-8.762778015807271E-4,9.903985977172852,21.68743896484375,-11.058198928833008,-0.4509016275405884,2.4785964488983154,-0.2694568634033203,0.050328553,-0.14446375,9.775746,0
3,989.8624877929688,-2.4709972785785794E-4,1.025968958856538E-4,8.548120968043804E-4,9.833982467651367,22.411636352539062,-10.396928787231445,-0.45414042472839355,2.4501359462738037,-0.2481670379638672,0.047929794,-0.15399662,9.768643,0
3,989.831787109375,-0.0011791198048740625,3.68898909073323E-4,-4.7673063818365335E-4,10.350765228271484,22.843212127685547,-11.040704727172852,-0.4534534215927124,2.454904317855835,-0.24698352813720703,0.05031082,-0.14684656,9.759173,0
3,989.8294067382812,1.5254499157890677E-4,7.683588191866875E-4,-3.4353602677583694E-4,10.805259704589844,22.900005340576172,-11.037080764770508,-0.4269390404224396,2.4506607055664062,-0.2435464859008789,0.04791203,-0.15876272,9.7828455,0
3,989.8240356445312,4.1894655441865325E-4,1.0255523375235498E-4,-3.4349935594946146E-4,10.665200233459473,22.715839385986328,-10.465829849243164,-0.43946897983551025,2.445983409881592,-0.23646831512451172,0.043123364,-0.16114584,9.766273,0
3,989.8490600585938,-3.7991564022377133E-4,-6.964062340557575E-4,4.554848710540682E-4,10.516284942626953,22.734668731689453,-10.82890510559082,-0.45211470127105713,2.4369451999664307,-0.25790977478027344,0.052674115,-0.16114566,9.77811,0
3,989.8567504882812,4.191174521110952E-4,-4.3010435183532536E-4,-6.097418372519314E-4,11.330057144165039,22.86473846435547,-11.269853591918945,-0.4408959150314331,2.4279298782348633,-0.24148941040039062,0.050275326,-0.15399557,9.775741,0
3,989.8388671875,2.860451932065189E-4,1.0251357161905617E-4,4.555582127068192E-4,11.182281494140625,23.77954864501953,-10.684736251831055,-0.4449293911457062,2.446863889694214,-0.23556232452392578,0.050266445,-0.168295,9.75917,0
3,989.8160400390625,2.861307584680617E-4,3.688155557028949E-4,-7.70369078963995E-5,11.232528686523438,24.248462677001953,-11.412775039672852,-0.43384549021720886,2.404287338256836,-0.21438217163085938,0.045477748,-0.1516118,9.756801,0
3,989.8566284179688,-2.3543834686279297E-4,9.24022460822016E-4,5.420355009846389E-4,11.48259162902832,23.692821502685547,-12.034669876098633,-0.43254977464675903,2.380537748336792,-0.24524497985839844,0.04307902,-0.14207843,9.787574,0
3,989.831298828125,-2.3535266518592834E-4,5.245347856543958E-4,2.757562615443021E-4,11.314760208129883,25.16861343383789,-11.941194534301758,-0.4213579595088959,2.39042329788208,-0.21461868286132812,0.045460016,-0.15637797,9.771003,0
3,989.8211669921875,3.104878851445392E-5,2.5820493465289474E-4,9.47705120779574E-6,10.934993743896484,24.918258666992188,-11.714052200317383,-0.4195602536201477,2.366962432861328,-0.207672119140625,0.045451134,-0.14446136,9.761533,0
3,989.8311157226562,4.306079354137182E-4,-2.744406519923359E-4,2.758296031970531E-4,11.184375762939453,24.62499237060547,-11.735322952270508,-0.43250608444213867,2.3622517585754395,-0.23381805419921875,0.045442283,-0.14446113,9.766267,0
3,989.8134155273438,-3.682539099827409E-4,7.908089901320636E-4,9.550421964377165E-6,10.606563568115234,24.40023422241211,-12.018060684204102,-0.4213774502277374,2.357635259628296,-0.23631763458251953,0.04782328,-0.15399402,9.778102,0
3,989.83349609375,-2.3501052055507898E-4,1.25005331938155E-4,-6.562027265317738E-4,10.786079406738281,24.937088012695312,-12.07713508605957,-0.42416444420814514,2.348330497741699,-0.21042251586914062,0.052594244,-0.16591018,9.775734,0
3,989.8258056640625,-2.34925071708858E-4,-8.071140036918223E-4,-3.8985005812719464E-4,11.02524185180664,25.371562957763672,-11.83146858215332,-0.4179364740848541,2.319746971130371,-0.2176504135131836,0.047805548,-0.1373106,9.775733,0
3,989.8408813476562,-6.343132117763162E-4,7.907673134468496E-4,2.7597625739872456E-4,10.83564567565918,25.668373107910156,-12.204545974731445,-0.41405871510505676,2.3245816230773926,-0.1915740966796875,0.041050255,-0.13964543,9.751881,0
3,989.8430786132812,-9.68961903708987E-5,-6.747468723915517E-4,2.7802708791568875E-4,10.532567024230957,25.963985443115234,-12.098154067993164,-0.4172450602054596,2.320192813873291,-0.2178335189819336,0.031430095,-0.14679378,9.766078,0
3,989.8380126953125,-9.011464862851426E-5,6.583306239917874E-4,8.24613613076508E-4,10.852251052856445,25.578659057617188,-12.35582160949707,-0.4196382462978363,2.287114381790161,-0.2003650665283203,0.055268526,-0.13964245,9.773173,0
3,989.8380126953125,-9.011464862851426E-5,6.583306239917874E-4,8.24613613076508E-4,10.852251052856445,25.578659057617188,-12.35582160949707,-0.40924909710884094,2.3064465522766113,-0.19931983947753906,0.04086852,-0.1610905,9.773168,0
3,989.8223266601562,1.7736887093633413E-4,-0.0012060700682923198,-5.064653232693672E-4,9.93235969543457,26.455188751220703,-11.495515823364258,-0.4062657058238983,2.2972943782806396,-0.21502017974853516,0.026468515,-0.16585556,9.768428,0
3,989.8223266601562,1.7736887093633413E-4,-0.0012060700682923198,-5.064653232693672E-4,9.93235969543457,26.455188751220703,-11.495515823364258,-0.4053744673728943,2.292271852493286,-0.20439624786376953,0.04552716,-0.15632096,9.768422,0
3,989.8451538085938,-4.878368927165866E-4,-1.4090137847233564E-4,2.6416731998324394E-5,10.097175598144531,26.18871307373047,-12.506120681762695,-0.41780123114585876,2.268800735473633,-0.2212209701538086,0.04785648,-0.14678636,9.77552,0
3,989.7942504882812,-8.719530160306022E-5,-5.405647680163383E-4,2.932330535259098E-4,10.429738998413086,25.973098754882812,-12.159830093383789,-0.4159383773803711,2.278620481491089,-0.19069480895996094,0.045405984,-0.15393472,9.766045,0
3,989.7942504882812,-8.719530160306022E-5,-5.405647680163383E-4,2.932330535259098E-4,10.429738998413086,25.973098754882812,-12.159830093383789,-0.40477702021598816,2.250149965286255,-0.1980295181274414,0.045345426,-0.15631652,9.775508,0
4,989.8323974609375,-2.1918548736721277E-4,-2.7443846920505166E-4,4.268914635758847E-4,10.9506196975708,24.458778381347656,-11.689577102661133,-0.40680626034736633,2.2407374382019043,-0.20428752899169922,0.04289493,-0.14916518,9.766033,0
4,989.8323974609375,-2.1918548736721277E-4,-2.7443846920505166E-4,4.268914635758847E-4,11.05831241607666,25.086219787597656,-11.434953689575195,-0.3962032198905945,2.2409658432006836,-0.19378948211669922,0.035664678,-0.15631357,9.763661,0
4,989.8222045898438,-8.544360025553033E-5,-5.408491124399006E-4,1.6082581714726985E-4,10.708711624145508,24.65349578857422,-11.355756759643555,-0.4278193414211273,2.207706928253174,-0.19167232513427734,0.052333415,-0.13009593,9.758922,0
4,989.8218994140625,-8.485977741656825E-5,-8.312136742461007E-6,9.60023608058691E-4,10.697513580322266,25.011478424072266,-10.91307258605957,-0.41172632575035095,2.2033517360687256,-0.20383644104003906,0.054662764,-0.1396276,9.775485,0
4,989.8014526367188,4.888210241915658E-5,-8.406927918258589E-6,1.6132628661580384E-4,10.581369400024414,24.11281967163086,-11.304498672485352,-0.38635480403900146,2.1989612579345703,-0.1686687469482422,0.03787285,-0.14915922,9.773112,0
4,989.78369140625,-8.369201532332227E-5,3.90972156310454E-4,2.9473446193151176E-4,11.220598220825195,23.236251831054688,-11.120756149291992,-0.37460821866989136,2.189425230026245,-0.17601299285888672,0.0402022,-0.15630761,9.775475,0
4,989.8240966796875,-6.157398456707597E-4,-8.075441583059728E-4,5.613005487248302E-4,11.225162506103516,23.240671157836914,-11.352670669555664,-0.38205841183662415,2.204010009765625,-0.17869949340820312,0.037751675,-0.16107264,9.758899,0
4,989.8114624023438,5.832655588164926E-4,-0.0014734286814928055,2.9523493140004575E-4,11.418783187866211,23.316570281982422,-11.309965133666992,-0.3895148038864136,2.1761274337768555,-0.17675018310546875,0.040080994,-0.14438826,9.758893,0
4,989.7935791015625,9.833232033997774E-4,-4.082599189132452E-4,-5.034625064581633E-4,10.786590576171875,23.356534957885742,-10.906946182250977,-0.3833902180194855,2.180786371231079,-0.1936025619506836,0.042410314,-0.16345295,9.784927,0
4,989.796142578125,-0.0011466199066489935,7.900667260400951E-4,-2.3689636145718396E-4,10.38038444519043,23.029129028320312,-11.287099838256836,-0.3856668174266815,2.1623945236206055,-0.19538402557373047,0.03756991,-0.1491518,9.780187,0
4,989.8007202148438,4.518593195825815E-4,-5.416075000539422E-4,1.6282769502140582E-4,10.48193645477295,22.018112182617188,-11.474542617797852,-0.38903000950813293,2.1531808376312256,-0.17920494079589844,0.042289138,-0.15630016,9.768346,0
4,989.8517456054688,1.8612726125866175E-4,0.0011893510818481445,1.630779297556728E-4,9.987739562988281,22.60906219482422,-11.663919448852539,-0.3677607774734497,2.1343133449554443,-0.16298580169677734,0.039838642,-0.14914885,9.765972,0
4,989.8237915039062,-3.4592056181281805E-4,-6.749549647793174E-4,-2.3614565725438297E-4,9.655719757080078,22.456384658813477,-11.911760330200195,-0.38135942816734314,2.1342766284942627,-0.18090248107910156,0.037388235,-0.14914736,9.770701,0
4,989.7931518554688,-2.1217879839241505E-4,-8.082076674327254E-4,-5.022112745791674E-4,9.285926818847656,22.478713989257812,-11.625131607055664,-0.38407647609710693,2.1398541927337646,-0.17429637908935547,0.04688725,-0.15629569,9.782532,0
4,989.8006591796875,0.0011199844302609563,-2.756706962827593E-4,2.9698657453991473E-4,8.950565338134766,21.690954208374023,-12.143232345581055,-0.3864818513393402,2.1163034439086914,-0.1713390350341797,0.044436753,-0.14676109,9.768323,0
4,989.803466796875,-8.768007392063737E-4,-9.449528988625389E-6,2.9723686748184264E-4,8.782001495361328,21.796550750732422,-12.200418472290039,-0.36646929383277893,2.130535125732422,-0.1324462890625,0.045327246,-0.17061579,9.758936,0
4,989.7905883789062,-6.099010352045298E-4,-9.544378372083884E-6,-5.014606285840273E-4,8.38576889038086,21.7418270111084,-12.521081924438477,-0.35664787888526917,2.0929713249206543,-0.1581583023071289,0.039105833,-0.15872258,9.773226,0
4,989.8159790039062,-3.54575808160007E-4,-1.409181277267635E-4,-5.061707925051451E-4,8.22231388092041,21.483551025390625,-12.711732864379883,-0.37974146008491516,2.1025748252868652,-0.17138671875,0.04151222,-0.1658729,9.78033,0
4,989.8004150390625,4.37407405115664E-4,6.591601413674653E-4,-5.091556813567877E-4,7.615177154541016,21.705015182495117,-12.323198318481445,-0.37375810742378235,2.074263572692871,-0.1600189208984375,0.04391861,-0.15395686,9.770862,0
4,989.8002319335938,-4.9501599278301E-4,-6.577985004696529E-6,4.2281372589059174E-4,7.013860702514648,22.512493133544922,-13.740488052368164,-0.3904414772987366,2.0650858879089355,-0.1902942657470703,0.060664415,-0.15634054,9.777965,0
4,989.8179321289062,-3.8821229827590287E-4,-1.2677613995037973E-4,-2.8961521456949413E-4,6.771951198577881,22.70720672607422,-13.406667709350586,-0.369891881942749,2.075054407119751,-0.15056419372558594,0.039171785,-0.1634908,9.761395,0
4,989.8031005859375,1.1102616554126143E-5,1.395655272062868E-4,-2.896833175327629E-4,5.705890655517578,22.973373413085938,-13.488916397094727,-0.3633391559123993,2.032460927963257,-0.15815162658691406,0.053527683,-0.14919153,9.773232,0
4,989.8179321289062,4.1041741496883333E-4,6.433424005081179E-6,-4.229094192851335E-4,5.313543319702148,23.185441970825195,-13.44087028503418,-0.35692524909973145,2.042426586151123,-0.12790393829345703,0.0463745,-0.14680865,9.766133,0
4,989.7799072265625,-3.8868890260346234E-4,1.3961715740151703E-4,-2.898195816669613E-4,4.927283763885498,23.40340232849121,-13.702035903930664,-0.35532593727111816,2.047520875930786,-0.15919208526611328,0.04639095,-0.163492,9.780337,0
4,989.7824096679688,2.7694166055880487E-4,2.7280094218440354E-4,-2.89887742837891E-4,5.0187554359436035,23.22604751586914,-14.321634292602539,-0.368256151676178,2.0244176387786865,-0.1479663848876953,0.03684789,-0.16825897,9.770871,0
5,989.7824096679688,2.7694166055880487E-4,2.7280094218440354E-4,-2.89887742837891E-4,5.0187554359436035,23.22604751586914,-14.321634292602539,-0.35790371894836426,2.020125389099121,-0.14237403869628906,0.04881388,-0.15634298,9.775607,0
5,989.7769165039062,-3.8916608900763094E-4,0.001204958069138229,-2.3708067601546645E-5,4.776845455169678,23.420761108398438,-13.987810134887695,-0.3557871878147125,1.9921391010284424,-0.1396656036376953,0.046440452,-0.14681026,9.77324,0
5,989.8101806640625,-3.893248795066029E-4,-7.923853117972612E-4,-2.3776170564815402E-5,5.0197343826293945,23.595808029174805,-14.497385025024414,-0.3586325943470001,2.0068087577819824,-0.12364482879638672,0.05123675,-0.15634379,9.770876,0
5,989.8101806640625,-3.893248795066029E-4,-7.923853117972612E-4,-2.3776170564815402E-5,5.0197343826293945,23.595808029174805,-14.497385025024414,-0.3767518699169159,1.9929566383361816,-0.1417255401611328,0.056033015,-0.16349399,9.775611,0
5,989.8048095703125,6.75779883749783E-4,-9.255174081772566E-4,-9.559498867020011E-4,4.247077465057373,23.925813674926758,-14.320650100708008,-0.3415737748146057,1.9791773557662964,-0.11155033111572266,0.044100046,-0.1491948,9.759043,0
5,989.8197631835938,1.428300456609577E-4,1.3979780487716198E-4,-5.56612154468894E-4,3.9631035327911377,24.502952575683594,-14.618597030639648,-0.3491741716861725,1.9661122560501099,-0.11848831176757812,0.036946774,-0.15157843,9.756677,0
5,989.8197631835938,1.428300456609577E-4,1.3979780487716198E-4,-5.56612154468894E-4,3.9631035327911377,24.502952575683594,-14.618597030639648,-0.3675389885902405,1.9949162006378174,-0.11760711669921875,0.046522915,-0.16587853,9.754312,0
5,989.8146362304688,0.0010747765190899372,6.724553531967103E-4,-2.4048698833212256E-5,4.25069522857666,24.772727966308594,-15.448541641235352,-0.34708160161972046,1.957344651222229,-0.13482284545898438,0.04414946,-0.15396252,9.761415,0
5,989.8045043945312,-1.238036493305117E-4,6.69145856591058E-6,-5.567484768107533E-4,4.21262264251709,24.31560516357422,-15.33894157409668,-0.3550020456314087,1.9392391443252563,-0.10950088500976562,0.048945785,-0.15157959,9.754313,0
5,989.8095703125,4.0866920608095825E-4,1.3987519196234643E-4,2.4213097640313208E-4,3.4082796573638916,24.826507568359375,-14.936952590942383,-0.3426554203033447,1.9257845878601074,-0.14006423950195312,0.039402664,-0.15158007,9.763784,0
5,989.7867431640625,-2.57279520155862E-4,-0.0013248365139588714,-4.237268294673413E-4,3.999791145324707,25.06452178955078,-15.349969863891602,-0.34676340222358704,1.9451247453689575,-0.12027835845947266,0.048978746,-0.16349685,9.766152,0
5,989.802001953125,2.7519321884028614E-4,2.7308473363518715E-4,-1.574790512677282E-4,3.816145181655884,25.261306762695312,-15.333185195922852,-0.3394279181957245,1.9131256341934204,-0.11783027648925781,0.04660541,-0.15396413,9.76142,0
5,989.7844848632812,5.41349989362061E-4,-7.921530050225556E-4,-2.4389330064877868E-5,3.264227867126465,25.481895446777344,-15.107072830200195,-0.33718904852867126,1.90902841091156,-0.11141300201416016,0.04662183,-0.15396455,9.775625,0
5,989.8221435546875,8.559523848816752E-6,-3.926533681806177E-4,2.4185847723856568E-4,3.712475061416626,25.006576538085938,-15.918176651000977,-0.34520816802978516,1.8907692432403564,-0.13345813751220703,0.051418185,-0.14919838,9.775626,0
5,989.8095703125,4.0787432226352394E-4,-3.926275239791721E-4,6.412641378119588E-4,3.1255292892456055,24.772979736328125,-15.737077713012695,-0.3206062912940979,1.8864694833755493,-0.11845779418945312,0.08250338,-0.12059948,9.794566,0
5,989.7916259765625,-2.580744039732963E-4,-2.594437974039465E-4,-4.2406757711432874E-4,2.5589656829833984,25.82280731201172,-15.711206436157227,-0.147207573056221,1.996833324432373,-0.031617164611816406,0.021817923,-0.16109216,9.763706,0
5,989.7966918945312,5.40714361704886E-4,-6.588917458429933E-4,-8.236094145104289E-4,2.8062825202941895,25.8963623046875,-15.753618240356445,-0.22374869883060455,2.0406289100646973,-0.0905160903930664,-0.03175491,-0.2134999,9.751779,0
5,989.7916259765625,-3.777471138164401E-4,5.395362386479974E-4,3.8743249024264514E-4,2.463066577911377,26.101661682128906,-15.558774948120117,-0.466536283493042,1.7600823640823364,-0.1323690414428711,0.080510855,-0.111017525,9.758876,0
5,989.783935546875,-2.440147945890203E-4,-9.252941817976534E-4,-8.107427274808288E-4,2.2924375534057617,26.574073791503906,-15.637109756469727,-0.3411255478858948,1.8846182823181152,-0.10234546661376953,0.07089168,-0.12531564,9.765972,0
5,989.8291625976562,2.2875596187077463E-5,0.001205139560624957,-5.441806279122829E-4,2.0979771614074707,26.234329223632812,-16.20313835144043,-0.24452544748783112,1.8949873447418213,-0.09131145477294922,0.020644099,-0.15868011,9.7754345,0
5,989.8265991210938,-6.423394661396742E-4,0.001071888254955411,2.5501337950117886E-4,1.7315263748168945,26.891742706298828,-15.646242141723633,-0.31958699226379395,1.8573552370071411,-0.1133575439453125,0.042093545,-0.16582853,9.782531,0
5,989.8192749023438,-6.417647236958146E-4,6.723211263306439E-4,-1.4421422383747995E-4,1.8910961151123047,26.883224487304688,-15.824304580688477,-0.3512190282344818,1.83950936794281,-0.12131977081298828,0.039644033,-0.15867713,9.770689,0
5,989.8088989257812,0.0010898631298914552,-5.261935293674469E-4,-9.429155616089702E-4,2.2172720432281494,26.029582977294922,-15.593664169311523,-0.36381834745407104,1.8071415424346924,-0.1292562484741211,0.053923845,-0.15629244,9.768317,0
5,989.796142578125,2.517421671655029E-5,-2.599709841888398E-4,-1.4372175792232156E-4,2.2914586067199707,26.204307556152344,-15.46135139465332,-0.35167962312698364,1.8034453392028809,-0.117431640625,0.06342387,-0.15629104,9.775413,0
6,989.796142578125,-1.0740933066699654E-4,-3.93222231650725E-4,2.559983404353261E-4,1.5986714363098145,27.18914794921875,-16.259050369262695,-0.3031732738018036,1.8133131265640259,-0.10718059539794922,0.046634912,-0.16105604,9.780142,0
6,989.8139038085938,-0.0011720983311533928,-6.596313323825598E-4,-4.095449985470623E-4,1.7697057723999023,26.242523193359375,-15.383188247680664,-0.30096104741096497,1.8093315362930298,-0.10088920593261719,0.03223592,-0.16343787,9.765933,0
6,989.8139038085938,-2.394181356066838E-4,-0.0011923563433811069,-2.761409559752792E-4,1.4501595497131348,26.73377227783203,-15.824602127075195,-0.32810303568840027,1.7767784595489502,-0.1183004379272461,0.03934601,-0.14913678,9.773028,0
6,989.7734985351562,-3.7200143560767174E-4,8.049194002524018E-4,1.2357920059002936E-4,1.1621637344360352,26.938194274902344,-15.792181015014648,-0.34576448798179626,1.7682445049285889,-0.1073465347290039,0.0560157,-0.15390182,9.777758,0
6,989.811279296875,-1.0511094296816736E-4,-1.2727943249046803E-4,-8.082803105935454E-4,1.3723859786987305,26.92438507080078,-15.900751113891602,-0.3062700033187866,1.7738251686096191,-0.11531639099121094,0.046396494,-0.15390041,9.782487,0
6,989.7938232421875,-6.371680647134781E-4,8.047329029068351E-4,-1.4224424376152456E-4,1.328662395477295,27.199417114257812,-15.756135940551758,-0.29547756910324097,1.7607141733169556,-0.085479736328125,0.041557074,-0.15151569,9.773013,0
6,989.8011474609375,1.6235372459050268E-4,5.383237730711699E-4,-8.077877573668957E-4,1.347874641418457,26.374595642089844,-15.787817001342773,-0.32751163840293884,1.752247929573059,-0.10296821594238281,0.053447008,-0.13959774,9.768273,0
6,989.8037109375,2.9666104819625616E-4,-7.934421300888062E-4,-6.74137263558805E-4,1.2339868545532227,26.84760284423828,-16.105886459350586,-0.2913043797016144,1.7445284128189087,-0.09136104583740234,0.04621765,-0.15866259,9.763534,0
6,989.8037109375,2.9666104819625616E-4,-7.934421300888062E-4,-6.74137263558805E-4,1.2339868545532227,26.84760284423828,-16.105886459350586,-0.32894155383110046,1.7260472774505615,-0.09065818786621094,0.055717647,-0.14436147,9.756427,0
6,989.7860107421875,3.091977850999683E-5,6.712018512189388E-4,-1.4125931193120778E-4,1.495842456817627,27.198265075683594,-16.320722579956055,-0.28917044401168823,1.7271387577056885,-0.0892343521118164,0.041318655,-0.15389302,9.775358,0
6,989.8059692382812,-3.6797940265387297E-4,-1.2783909915015101E-4,-5.404868861660361E-4,1.24135160446167,27.85540008544922,-16.165990829467773,-0.2831644117832184,1.7092945575714111,-0.07364463806152344,0.04364893,-0.1419752,9.758782,0
6,989.8011474609375,5.652752006426454E-4,2.7144819614477456E-4,-1.405205111950636E-4,1.20121431350708,27.765087127685547,-16.07753562927246,-0.3002871572971344,1.7019726037979126,-0.08110332489013672,0.034029722,-0.15627345,9.761144,0
6,989.8011474609375,5.652752006426454E-4,2.7144819614477456E-4,-1.405205111950636E-4,1.20121431350708,27.765087127685547,-16.07753562927246,-0.3233315348625183,1.7121989727020264,-0.08989429473876953,0.036359996,-0.1705716,9.763506,0
6,989.8187255859375,9.653235320001841E-4,6.708287401124835E-4,6.58673292491585E-4,1.0445506572723389,27.670635223388672,-15.355005264282227,-0.30243778228759766,1.7040125131607056,-0.09800434112548828,0.041080177,-0.15150395,9.765868,0
6,989.8009643554688,1.6695049998816103E-4,-9.271598537452519E-4,-8.058178937062621E-4,1.3105361461639404,27.28765869140625,-15.527555465698242,-0.2819010317325592,1.676823616027832,-0.06353187561035156,0.038630664,-0.14435267,9.765862,0
6,989.8008422851562,3.436718543525785E-5,-1.2830542982555926E-4,-6.623915396630764E-6,0.9242768287658691,27.505615234375,-15.788721084594727,-0.28494080901145935,1.697136640548706,-0.0716409683227539,0.038571,-0.16580066,9.765857,0
6,989.8133544921875,-9.82160127023235E-5,-6.610305281355977E-4,-4.058514896314591E-4,1.2764878273010254,27.20323944091797,-15.748323440551758,-0.29472342133522034,1.6746783256530762,-0.08468151092529297,0.042821497,-0.14916337,9.766027,0
6,989.8133544921875,5.499861435964704E-4,-9.244912071153522E-4,-5.465468857437372E-4,1.419889211654663,28.02248764038086,-16.0493106842041,-0.28266915678977966,1.6674346923828125,-0.06380462646484375,0.045227885,-0.16108018,9.770762,0
6,989.8133544921875,5.499861435964704E-4,-9.244912071153522E-4,-5.465468857437372E-4,1.419889211654663,28.02248764038086,-16.0493106842041,-0.3153233230113983,1.6398693323135376,-0.08214378356933594,0.047634304,-0.13963106,9.76603,0
6,989.798095703125,8.161431178450584E-4,-1.2551783584058285E-4,-1.4714113785885274E-4,1.3692355155944824,28.02777862548828,-16.118799209594727,-0.3041229248046875,1.651548981666565,-0.07548999786376953,0.04287097,-0.15154788,9.758929,0
6,989.7853393554688,-1.1612162052188069E-4,9.397714748047292E-4,-9.461570298299193E-4,0.9096312522888184,28.334857940673828,-15.988958358764648,-0.3028356432914734,1.6341655254364014,-0.1026620864868164,0.050057203,-0.1515483,9.770768,0
6,989.7930297851562,1.6877296729944646E-5,2.740075869951397E-4,-1.4727746020071208E-4,1.331599235534668,28.30870819091797,-16.283403396606445,-0.2734335958957672,1.6301684379577637,-0.08782958984375,0.038124204,-0.15154865,9.770769,0
6,989.8133544921875,8.15665815025568E-4,7.717581866018008E-6,-6.799774710088968E-4,1.0430290699005127,27.66916275024414,-15.277704238891602,-0.2811533212661743,1.6037871837615967,-0.06701183319091797,0.047700286,-0.14678255,9.77077,0
6,989.8056640625,-1.1659869051072747E-4,1.409013639204204E-4,-5.468876333907247E-4,1.0251784324645996,27.96923828125,-16.447275161743164,-0.2949748635292053,1.6190285682678223,-0.07589149475097656,0.047716796,-0.1586993,9.770772,0
6,989.8004150390625,2.8271612245589495E-4,0.0013393486151471734,-1.4324032235890627E-5,1.4139394760131836,28.122512817382812,-16.439165115356445,-0.26515230536460876,1.601715087890625,-0.060489654541015625,0.035783798,-0.1515499,9.773141,0
7,989.7777099609375,5.488728638738394E-4,2.7411096380092204E-4,-0.0010796557180583477,0.896613597869873,28.059226989746094,-15.893838882446289,-0.291659414768219,1.5851809978485107,-0.08708572387695312,0.040580094,-0.13725063,9.770775,0
7,989.80029296875,1.492401206633076E-4,-2.584950707387179E-4,-4.139340890105814E-4,1.099907636642456,27.775676727294922,-16.216516494750977,-0.29049545526504517,1.5858222246170044,-0.08644390106201172,0.042986453,-0.15155068,9.768409,0
7,989.8029174804688,-6.498665316030383E-4,-0.0010574167827144265,1.1862942483276129E-4,1.1388211250305176,28.49665069580078,-15.802789688110352,-0.2890699505805969,1.5872306823730469,-0.07573986053466797,0.040613085,-0.15870097,9.758943,0
7,989.7827758789062,1.576401700731367E-5,-1.2528549996204674E-4,-1.4775461750105023E-4,1.4529595375061035,27.737144470214844,-15.652788162231445,-0.27811264991760254,1.5792723894119263,-0.06506633758544922,0.04540941,-0.15631807,9.773147,0
7,989.8004150390625,-3.8386881351470947E-4,-3.9157550781965256E-4,-9.467704221606255E-4,1.5582890510559082,28.099262237548828,-15.844175338745117,-0.2864811420440674,1.5619125366210938,-0.049691200256347656,0.050205708,-0.15155193,9.7707815,0
7,989.805419921875,-2.5086989626288414E-4,8.068718016147614E-4,7.842146442271769E-4,1.2301549911499023,28.21337890625,-15.723306655883789,-0.28918004035949707,1.5594713687896729,-0.06684207916259766,0.040662587,-0.15870216,9.76368,0
7,989.8179931640625,-1.1787110997829586E-4,7.94994684838457E-6,1.1835680925287306E-4,1.3220312595367432,27.561813354492188,-15.545366287231445,-0.27860549092292786,1.5516308546066284,-0.05148506164550781,0.043069005,-0.16585246,9.770784,0
7,989.80029296875,-2.5118805933743715E-4,5.406076088547707E-4,-2.811851736623794E-4,1.1108598709106445,28.41812515258789,-16.33277702331543,-0.292294979095459,1.5524249076843262,-0.07457160949707031,0.05025518,-0.16346958,9.777887,0
7,989.8178100585938,-1.1818904022220522E-4,8.00154793978436E-6,3.845363389700651E-4,1.2201814651489258,27.940692901611328,-15.782793045043945,-0.28128695487976074,1.5495073795318604,-0.06397056579589844,0.043102026,-0.16108665,9.770787,0
7,989.807861328125,2.8112565632909536E-4,1.4118535909801722E-4,2.5131029542535543E-4,1.4074151515960693,27.37856674194336,-15.855737686157227,-0.27501341700553894,1.5226422548294067,-0.048625946044921875,0.045508385,-0.15155393,9.770789,0
7,989.8104858398438,-2.5166524574160576E-4,-3.9142058813013136E-4,5.175579572096467E-4,1.2964329719543457,27.748607635498047,-15.629339218139648,-0.28235647082328796,1.5207399129867554,-0.05169486999511719,0.05030474,-0.14917108,9.751852,0
7,989.7948608398438,-2.856834908016026E-5,-5.395542248152196E-4,2.5947141693904996E-4,1.5859522819519043,27.545654296875,-15.73906135559082,-0.27175629138946533,1.516722559928894,-0.04163932800292969,0.043151498,-0.14917147,9.758956,0
7,989.8050537109375,5.037455121055245E-4,2.594449615571648E-4,-4.06454608310014E-4,1.6862802505493164,27.165298461914062,-15.424325942993164,-0.25054723024368286,1.4961001873016357,-0.040045738220214844,0.04316801,-0.15632173,9.768426,0
7,989.8050537109375,5.037455121055245E-4,2.594449615571648E-4,-4.06454608310014E-4,1.6862802505493164,27.165298461914062,-15.424325942993164,-0.25936657190322876,1.4924473762512207,-0.03952217102050781,0.038404673,-0.15870538,9.761326,0
7,989.8080444335938,7.69902253523469E-4,1.263128942809999E-4,6.587407551705837E-4,1.774569034576416,26.87908172607422,-15.19023323059082,-0.26796814799308777,1.504073143005371,-0.052677154541015625,0.045590907,-0.15632257,9.773164,0
7,989.8101806640625,3.7026937934570014E-4,6.589704426005483E-4,5.25514711625874E-4,1.4277663230895996,27.449729919433594,-14.939226150512695,-0.2523750960826874,1.4871512651443481,-0.04689979553222656,0.040653825,-0.15155211,9.773149,0
7,989.8046264648438,2.3695241543464363E-4,5.258383462205529E-4,2.591306692920625E-4,1.957129955291748,27.41887664794922,-15.40391731262207,-0.27937543392181396,1.4840208292007446,-0.06469917297363281,0.033316314,-0.15869784,9.763665,0
7,989.8097534179688,-6.923658074811101E-4,1.2591203267220408E-4,7.929569110274315E-4,1.4343974590301514,27.08733367919922,-15.149999618530273,-0.25411778688430786,1.4860010147094727,-0.05890941619873047,0.04048857,-0.16108117,9.775501,0
7,989.8147583007812,2.4012752692215145E-4,-5.399406072683632E-4,-8.047720766626298E-4,1.5116276741027832,27.26500701904297,-15.172296524047852,-0.24345552921295166,1.4880592823028564,-0.05314159393310547,0.03571129,-0.16108125,9.766032,0
7,989.8097534179688,-2.6212685042992234E-5,5.253268755041063E-4,7.931127911433578E-4,1.7885658740997314,27.52447509765625,-15.46110725402832,-0.24700137972831726,1.4423837661743164,-0.033164024353027344,0.03810373,-0.14916489,9.761298,0
7,989.8075561523438,-6.920266896486282E-4,-7.300975994439796E-6,-2.72161269094795E-4,1.5326595306396484,27.073795318603516,-14.856409072875977,-0.23110665380954742,1.44889497756958,-0.027357101440429688,0.033326507,-0.14439839,9.756564,0
7,989.8178100585938,-9.583672508597374E-4,-5.39928674697876E-4,3.9361798553727567E-4,1.574021339416504,26.53343963623047,-15.447042465209961,-0.2826119661331177,1.4370657205581665,-0.05480384826660156,0.050058305,-0.15631488,9.768401,0
7,989.8173217773438,7.726617623120546E-4,6.584966322407126E-4,1.272916852030903E-4,2.4133925437927246,26.476715087890625,-15.804018020629883,-0.24808944761753082,1.4347684383392334,-0.0680532455444336,0.028551757,-0.15393165,9.782604,0
7,989.81005859375,7.726371986791492E-4,3.921847965102643E-4,-5.87682006880641E-6,2.0661535263061523,26.309310913085938,-15.278810501098633,-0.246773824095726,1.4083653688430786,-0.05285835266113281,0.04050377,-0.14439857,9.768401,0
8,989.799560546875,-1.5949286171235144E-4,1.2587282981257886E-4,-4.053611191920936E-4,2.2301511764526367,26.199295043945312,-14.989702224731445,-0.2502453625202179,1.4107789993286133,-0.023496627807617188,0.047676027,-0.14678198,9.763667,0
8,989.7897338867188,1.0679868864826858E-4,-4.067549016326666E-4,2.6041813543997705E-4,2.1177854537963867,26.673782348632812,-15.385072708129883,-0.24387484788894653,1.4030730724334717,-0.03193378448486328,0.033339143,-0.14678198,9.7613,0
8,989.7822265625,-9.584893705323339E-4,-5.399089423008263E-4,3.9356559864245355E-4,2.893049955368042,25.60866928100586,-15.442216873168945,-0.2613585889339447,1.4008276462554932,-0.04993247985839844,0.05007097,-0.16108176,9.770768,0
8,989.8073120117188,7.725395262241364E-4,-8.062207489274442E-4,-4.053925513289869E-4,3.1828672885894775,26.03784942626953,-15.127069473266602,-0.25064918398857117,1.413172960281372,-0.06325149536132812,0.040513933,-0.16108176,9.773136,0
8,989.8075561523438,0.0013051468413323164,5.253625568002462E-4,5.267026135697961E-4,3.1467528343200684,26.32025146484375,-15.368982315063477,-0.2442956566810608,1.391633152961731,-0.038623809814453125,0.042906344,-0.15631533,9.773136,0
8,989.8375244140625,-4.259309789631516E-4,-8.062128908932209E-4,-2.722555655054748E-4,3.302299976348877,25.939022064208984,-15.216676712036133,-0.26638102531433105,1.3906707763671875,-0.05146312713623047,0.0500786,-0.16346517,9.77077,0
8,989.8248291015625,5.061503034085035E-4,-4.067351983394474E-4,-5.950045306235552E-6,3.2044425010681152,25.478351593017578,-14.712732315063477,-0.2273920476436615,1.3644816875457764,-0.026882171630859375,0.026182175,-0.14439905,9.763668,0
8,989.8097534179688,-2.6505818823352456E-5,0.0015906379558146,-2.7227640384808183E-4,3.8185088634490967,25.526626586914062,-14.887170791625977,-0.24131980538368225,1.3799463510513306,-0.031157493591308594,0.038134158,-0.161082,9.763668,0
8,989.8047485351562,1.0662744170986116E-4,1.259045529877767E-4,7.929765852168202E-4,3.514451026916504,25.452476501464844,-14.605020523071289,-0.24918700754642487,1.363642692565918,-0.025547027587890625,0.0500862,-0.14916572,9.758935,0
8,989.78955078125,9.055507835000753E-4,-8.061969419941306E-4,-5.981535650789738E-6,4.117702007293701,24.964218139648438,-15.362268447875977,-0.23371991515159607,1.3565198183059692,-0.034111976623535156,0.03335941,-0.16108212,9.768403,0
8,989.7971801757812,-5.592108936980367E-4,7.917021284811199E-4,0.0010592715116217732,4.055010795593262,25.063644409179688,-15.512395858764648,-0.22776161134243011,1.3445605039596558,-0.019001007080078125,0.04531145,-0.15631568,9.763669,0
8,989.8198852539062,-5.59235573746264E-4,-4.067152622155845E-4,7.92945153079927E-4,4.438769340515137,24.474449157714844,-14.998167037963867,-0.24053862690925598,1.3516663312911987,-0.018090248107910156,0.0405342,-0.16346559,9.756568,0
8,989.8045654296875,-1.5978599549271166E-4,-4.0671133319847286E-4,-2.723289071582258E-4,4.554614543914795,24.740966796875,-15.031610488891602,-0.22495408356189728,1.3305535316467285,-0.031441688537597656,0.038146853,-0.15154925,9.756568,0
8,989.7919921875,3.7282120320014656E-4,-1.4039143570698798E-4,3.934504056815058E-4,4.6071953773498535,24.262939453125,-14.241899490356445,-0.24141983687877655,1.3347208499908447,-0.011229515075683594,0.05487871,-0.16108242,9.761302,0
8,989.7969360351562,9.054284309968352E-4,-0.0014719669707119465,-5.386657430790365E-4,4.334418296813965,24.482093811035156,-14.98253059387207,-0.23107565939426422,1.3171112537384033,-0.04395866394042969,0.045321643,-0.13963297,9.782607,0
8,989.8223266601562,3.7277242518030107E-4,-0.0012056470150128007,-2.7236033929511905E-4,4.802474498748779,24.44622802734375,-14.975576400756836,-0.23900847136974335,1.3200302124023438,-0.01946735382080078,0.05249387,-0.15631598,9.770772,0
8,989.8172607421875,1.0643186396919191E-4,-5.398534121923149E-4,5.26576885022223E-4,4.640839576721191,24.821563720703125,-14.818658828735352,-0.24671803414821625,1.303858757019043,-0.01386260986328125,0.04705006,-0.14676657,9.768344,0
8,989.79443359375,5.074674263596535E-4,1.256828400073573E-4,1.2777227675542235E-4,4.329171657562256,24.740047454833984,-14.149991989135742,-0.23604333400726318,1.3018851280212402,-0.04618644714355469,0.039856225,-0.16344893,9.775443,0
8,989.8193359375,5.123616429045796E-4,3.91204230254516E-4,-2.6960409013554454E-4,4.429882526397705,23.46518325805664,-14.860757827758789,-0.23982331156730652,1.3045530319213867,-0.040625572204589844,0.051781684,-0.16344833,9.765971,0
8,989.7991943359375,-1.5319595695473254E-4,5.243244231678545E-4,-3.188557457178831E-6,4.568580627441406,24.17409896850586,-14.230752944946289,-0.24330922961235046,1.2930961847305298,-0.020880699157714844,0.049367666,-0.14914808,9.763602,0
8,989.8167724609375,1.1335217277519405E-4,-4.0781882125884295E-4,2.632269461173564E-4,5.345803260803223,23.848514556884766,-14.639406204223633,-0.18459567427635193,1.276774287223816,-0.015334129333496094,0.020664722,-0.153914,9.770702,0
8,989.7814331054688,-5.522051360458136E-4,-8.38273626868613E-6,-4.0246330900117755E-4,5.484447479248047,22.92486000061035,-14.760690689086914,-0.24091236293315887,1.2842302322387695,-0.009790420532226562,0.0564892,-0.1682131,9.754129,0
8,989.7966918945312,-1.9341270672157407E-5,2.578954736236483E-4,3.9658386958763003E-4,5.615674018859863,23.73232650756836,-14.443239212036133,-0.2590518593788147,1.2822396755218506,-0.037403106689453125,0.058854997,-0.16106269,9.768331,0
8,989.7964477539062,3.8059704820625484E-4,-8.074434008449316E-4,-1.3584893895313144E-4,5.937283515930176,22.874267578125,-13.980680465698242,-0.22801512479782104,1.2487510442733765,-0.007854461669921875,0.042101562,-0.14437917,9.754125,0
8,989.7964477539062,3.8059704820625484E-4,-8.074434008449316E-4,-1.3584893895313144E-4,5.937283515930176,22.874267578125,-13.980680465698242,-0.22728899121284485,1.2504310607910156,-0.016961097717285156,0.051637113,-0.15629497,9.768327,0
9,989.8037109375,3.935812273994088E-4,5.726524977944791E-5,-4.139274242334068E-4,5.845812797546387,23.051620483398438,-13.361089706420898,-0.2159995287656784,1.2454434633255005,-0.025300979614257812,0.04444328,-0.15867767,9.758855,0
9,989.8037109375,3.935812273994088E-4,5.726524977944791E-5,-4.139274242334068E-4,5.845812797546387,23.051620483398438,-13.361089706420898,-0.2106248140335083,1.2373579740524292,-0.01544952392578125,0.039639384,-0.15391055,9.758853,0
9,989.8089599609375,-5.660586793965194E-6,3.235434414818883E-4,2.519616682548076E-4,6.083836555480957,22.590118408203125,-14.063623428344727,-0.24289388954639435,1.2404996156692505,-0.028921127319335938,0.05395472,-0.15629321,9.765952,0
9,989.805908203125,3.942778566852212E-4,1.9031006377190351E-4,0.0011842662934213877,6.835323333740234,22.34540557861328,-13.857172012329102,-0.21284128725528717,1.226149082183838,-0.02783679962158203,0.037201285,-0.14675948,9.780152,0
9,989.805908203125,3.942778566852212E-4,1.9031006377190351E-4,0.0011842662934213877,6.835323333740234,22.34540557861328,-13.857172012329102,-0.22670523822307587,1.2278234958648682,-0.008551597595214844,0.05629641,-0.15152547,9.770682,0
9,989.8291015625,-4.9638410928309895E-6,0.001122377929277718,-4.1352957487106323E-4,7.148237705230713,22.21656036376953,-13.204988479614258,-0.19714243710041046,1.2070279121398926,-0.007825851440429688,0.03237331,-0.14437506,9.761211,0
9,989.81103515625,-1.3788942305836827E-4,3.233926254324615E-4,3.8551766192540526E-4,7.744720458984375,21.98478889465332,-13.052392959594727,-0.2101770043373108,1.2246489524841309,-0.030798912048339844,0.049078524,-0.17059052,9.7635765,0
9,989.8139038085938,5.281323101371527E-4,-7.61189148761332E-5,5.18775312229991E-4,7.692002296447754,22.35689926147461,-13.143022537231445,-0.21862825751304626,1.198943018913269,-0.025328636169433594,0.04188472,-0.14199057,9.768309,0
9,989.8184814453125,1.2912308739032596E-4,-0.0011414578184485435,3.858163545373827E-4,7.898065090179443,21.864459991455078,-12.22215461730957,-0.22107696533203125,1.1987744569778442,-0.005311012268066406,0.049030364,-0.15867296,9.751737,0
9,989.79833984375,-3.8027144455554662E-6,-8.751795976422727E-4,-4.1303178295493126E-4,8.389355659484863,21.376483917236328,-12.577241897583008,-0.22936494648456573,1.1877206563949585,-0.014089584350585938,0.06334567,-0.15867236,9.76357,0
9,989.79833984375,-3.8027144455554662E-6,-8.751795976422727E-4,-4.1303178295493126E-4,8.389355659484863,21.376483917236328,-12.577241897583008,-0.2050514668226242,1.1844632625579834,-0.018472671508789062,0.044202328,-0.15628847,9.777771,0
9,989.8107299804688,-3.3382173114659963E-6,4.563244292512536E-4,-4.1283282916992903E-4,8.537729263305664,21.72594451904297,-12.312616348266602,-0.23758527636528015,1.1780747175216675,-0.031986236572265625,0.05373785,-0.1515213,9.775401,0
9,989.8107299804688,-3.3382173114659963E-6,4.563244292512536E-4,-4.1283282916992903E-4,8.537729263305664,21.72594451904297,-12.312616348266602,-0.21739663183689117,1.1673569679260254,-0.017142295837402344,0.034594536,-0.14675418,9.761195,0
9,989.8106079101562,6.626838585361838E-4,1.8997072766069323E-4,3.862145240418613E-4,8.742843627929688,22.076000213623047,-12.287721633911133,-0.21619322896003723,1.191238284111023,-0.02087116241455078,0.044130057,-0.16343653,9.780131,0
9,989.815673828125,-1.360315509373322E-4,9.888807544484735E-4,1.1999820708297193E-4,9.282286643981934,21.21149444580078,-12.320261001586914,-0.21027997136116028,1.1469217538833618,-0.02968311309814453,0.03932616,-0.14675298,9.7753935,0
9,989.8056030273438,-8.015889907255769E-4,1.8989533418789506E-4,2.5325565366074443E-4,9.320657730102539,22.300758361816406,-12.00499153137207,-0.2091764360666275,1.1551789045333862,-0.029008865356445312,0.03427136,-0.16342917,9.770635,0
9,989.818115234375,2.6390678249299526E-4,8.556473767384887E-4,5.196710117161274E-4,9.328128814697266,22.202207565307617,-11.692438125610352,-0.2033085972070694,1.1442204713821411,0.0047817230224609375,0.036371112,-0.1586555,9.758773,0
9,989.8334350585938,-5.448845968203386E-6,-7.357865979429334E-5,6.602862849831581E-4,9.837706565856934,22.152210235595703,-11.152162551879883,-0.22661614418029785,1.1363078355789185,-0.018561363220214844,0.048276186,-0.1538879,9.772971,0
9,989.8079223632812,2.630903327371925E-4,5.918501410633326E-4,1.2860735296271741E-4,10.029804229736328,22.226638793945312,-11.03215217590332,-0.2052081972360611,1.155555009841919,-0.0033769607543945312,0.045841843,-0.17056975,9.768233,0
9,989.8055419921875,-2.691132540348917E-4,-0.0011392725864425302,1.2879091082140803E-4,10.350902557373047,22.949129104614258,-11.739778518676758,-0.19499389827251434,1.128800868988037,-0.0030727386474609375,0.0434075,-0.1515024,9.775331,0
9,989.7850341796875,-4.0184290264733136E-4,-8.73026205226779E-4,-1.3734144158661366E-4,10.597101211547852,22.547000885009766,-10.90736198425293,-0.19407851994037628,1.1223218441009521,-0.007145881652832031,0.03858328,-0.15865117,9.768226,0
9,989.8076782226562,-0.001200362341478467,4.584837006404996E-4,-6.697896751575172E-4,11.189156532287598,22.416725158691406,-11.221925735473633,-0.19807609915733337,1.116306185722351,-0.011271476745605469,0.04092872,-0.15626678,9.76822,0
9,989.8079223632812,-1.5126111065910663E-6,9.910458466038108E-4,-8.027641451917589E-4,10.157442092895508,23.39944839477539,-10.658540725708008,-0.19227054715156555,1.1214423179626465,-0.015088081359863281,0.0361045,-0.1681821,9.787154,0
9,989.8053588867188,-1.0842027222679462E-6,8.578184060752392E-4,3.95840936107561E-4,10.263017654418945,22.761138916015625,-11.176347732543945,-0.20085400342941284,1.1060914993286133,-0.009770393371582031,0.038449973,-0.15626463,9.768212,0
9,989.7947387695312,3.9881790871731937E-4,4.582750843837857E-4,9.286561980843544E-4,10.612075805664062,23.562156677246094,-11.35399055480957,-0.17183998227119446,1.0984750986099243,0.0047149658203125,0.038405538,-0.15388021,9.7753105,0
10,989.8380126953125,-1.333857944700867E-4,4.5820552622899413E-4,-3.2657990232110023E-6,11.00678825378418,23.615406036376953,-10.956026077270508,-0.18013034760951996,1.0925556421279907,5.731582641601562E-4,0.035971224,-0.16102901,9.768205,0
10,989.8329467773438,-3.9927338366396725E-4,-3.408116172067821E-4,0.0011953392531722784,10.869909286499023,23.540102005004883,-11.238466262817383,-0.2025124430656433,1.082181453704834,-0.008332252502441406,0.040706575,-0.15149474,9.770568,0
10,989.8126220703125,0.0013322080485522747,-0.0010066707618534565,-2.6921468088403344E-4,11.667078018188477,23.759885787963867,-11.528131484985352,-0.2013377845287323,1.0718882083892822,-0.03145790100097656,0.045441955,-0.1514937,9.777665,0
10,989.8124389648438,5.336886970326304E-4,-7.463479414582253E-5,7.962323725223541E-4,11.560770034790039,23.028003692626953,-11.160989761352539,-0.1859971433877945,1.0565425157546997,-0.0024843215942382812,0.040617734,-0.14195949,9.775294,0
10,989.8148803710938,-3.979886241722852E-4,5.845367559231818E-5,-6.683214451186359E-4,11.084997177124023,24.16284942626953,-11.154077529907227,-0.17064766585826874,1.0603498220443726,0.0075397491455078125,0.035793513,-0.15387478,9.770556,0
10,989.8074951171875,1.9133753994537983E-6,1.915420580189675E-4,6.634414894506335E-4,11.536992073059082,23.848405838012695,-10.897394180297852,-0.18889786303043365,1.0782256126403809,-0.0013570785522460938,0.047698617,-0.16340682,9.775287,0
10,989.8126220703125,6.685595726594329E-4,-7.491289579775184E-5,-1.98112684302032E-6,10.97926139831543,24.274932861328125,-11.760217666625977,-0.15875592827796936,1.0554426908493042,0.004189491271972656,0.026145011,-0.15863916,9.758711,0
10,989.8126220703125,6.685595726594329E-4,-7.491289579775184E-5,-1.98112684302032E-6,10.97926139831543,24.274932861328125,-11.760217666625977,-0.18706005811691284,1.057244896888733,-0.014469146728515625,0.038050115,-0.1562548,9.765809,0
10,989.8377075195312,1.367842487525195E-4,0.0013896854361519217,-1.6140402294695377E-6,11.204025268554688,24.538223266601562,-12.041215896606445,-0.17661389708518982,1.0489205121994019,0.0052471160888671875,0.03800565,-0.15625373,9.770539,0
10,989.8377075195312,1.367842487525195E-4,0.0013896854361519217,-1.6140402294695377E-6,11.204025268554688,24.538223266601562,-12.041215896606445,-0.16702164709568024,1.0271828174591064,0.014960289001464844,0.03318143,-0.15863588,9.763433,0
10,989.8021850585938,-1.286751648876816E-4,-2.0834886527154595E-4,9.308585431426764E-4,11.63292121887207,24.781814575195312,-12.121561050415039,-0.1752072125673294,1.0375434160232544,0.006300926208496094,0.0259673,-0.1634014,9.761063,0
10,989.8021850585938,-1.286751648876816E-4,-2.0834886527154595E-4,9.308585431426764E-4,11.63292121887207,24.781814575195312,-12.121561050415039,-0.17942805588245392,1.0297755002975464,-0.0076236724853515625,0.037872374,-0.1419507,9.763426,0
10,989.7944946289062,-2.627976064104587E-4,2.875981153920293E-4,4.8711674753576517E-4,11.288726806640625,24.617351531982422,-11.750955581665039,-0.1735762655735016,1.0194380283355713,-0.02131175994873047,0.030658215,-0.1610159,9.784726,0
10,989.7994384765625,1.3753279927186668E-4,2.1143205231055617E-5,3.5432586446404457E-4,10.622079849243164,25.047103881835938,-12.366235733032227,-0.18626226484775543,1.011110782623291,0.0031261444091796875,0.04017341,-0.15624827,9.76105,0
10,989.7964477539062,2.7111879899166524E-4,-9.110319660976529E-4,-1.7812236910685897E-4,10.948554992675781,24.825599670410156,-11.710721969604492,-0.18000349402427673,1.0059090852737427,-0.001129150390625,0.037739098,-0.15148064,9.772882,0
10,989.7964477539062,2.7111879899166524E-4,-9.110319660976529E-4,-1.7812236910685897E-4,10.948554992675781,24.825599670410156,-11.710721969604492,-0.17449310421943665,1.0173357725143433,0.00386810302734375,0.038220227,-0.15387568,9.76109,0
10,989.8016357421875,1.2629646516870707E-4,2.894348290283233E-4,-5.800974322482944E-4,10.683547973632812,25.578338623046875,-11.713930130004883,-0.16444891691207886,1.0046237707138062,0.013956069946289062,0.041122675,-0.15388829,9.765872,0
10,989.8016357421875,1.2629646516870707E-4,2.894348290283233E-4,-5.800974322482944E-4,10.683547973632812,25.578338623046875,-11.713930130004883,-0.17838053405284882,0.997141420841217,-0.0094757080078125,0.036340296,-0.15865472,9.780074,0
10,989.8419799804688,-6.812460924265906E-6,1.5626891399733722E-4,-4.74447151646018E-5,10.805046081542969,25.112693786621094,-11.782392501831055,-0.17245879769325256,0.9842731952667236,7.01904296875E-4,0.036337733,-0.14435506,9.770606,0
10,989.8419799804688,-6.812460924265906E-6,1.5626891399733722E-4,-4.74447151646018E-5,10.805046081542969,25.112693786621094,-11.782392501831055,-0.15297356247901917,0.9958601593971252,0.02460956573486328,0.031555474,-0.1586546,9.768238,0
10,989.8778076171875,0.006118502002209425,-0.0030395295470952988,-3.137396415695548E-4,10.536153793334961,25.59864044189453,-12.154314041137695,-0.16518431901931763,0.9836713671684265,0.015395164489746094,0.036332667,-0.1467382,9.758769,0
10,989.8778076171875,0.006118502002209425,-0.0030395295470952988,-3.137396415695548E-4,10.313457489013672,24.96853256225586,-11.852174758911133,-0.16930857300758362,0.9773257374763489,-0.0029973983764648438,0.02916044,-0.14912137,9.76587,0
10,990.0274047851562,-0.003868319559842348,0.001354678301140666,2.1890262723900378E-4,10.031440734863281,26.285194396972656,-12.501638412475586,-0.16459080576896667,0.9846801161766052,-0.01662158966064453,0.029157937,-0.163421,9.784808,0
10,989.7708129882812,-0.0034688208252191544,0.0020204640459269285,-3.1371868681162596E-4,10.129566192626953,26.165740966796875,-11.508966445922852,-0.1540517508983612,0.950526237487793,0.007525444030761719,0.036325097,-0.15388781,9.775338,0
11,989.6688232421875,-8.056376245804131E-4,-6.426986074075103E-4,-4.4686609180644155E-4,10.558165550231934,25.777191162109375,-12.014184951782227,-0.1578879952430725,0.9497789144515991,0.02219676971435547,0.033932626,-0.1467379,9.772971,0
11,989.7455444335938,-6.724554696120322E-4,2.3087231966201216E-5,-4.4685567263513803E-4,11.017770767211914,25.470115661621094,-12.144025802612305,-0.1706608086824417,0.9347366094589233,0.017932891845703125,0.043489754,-0.14673784,9.7564,0
11,989.793701171875,-8.055888465605676E-4,-0.001441654283553362,2.1894450765103102E-4,10.367048263549805,26.072528839111328,-12.309953689575195,-0.18849752843379974,0.948764979839325,0.004155158996582031,0.050656855,-0.14912108,9.770604,0
11,989.8114624023438,5.260150064714253E-4,-0.0010421843035146594,-1.8051883671432734E-4,10.376041412353516,25.975448608398438,-12.074705123901367,-0.15892596542835236,0.9292714595794678,-0.004881858825683594,0.043484688,-0.14435443,9.768235,0
11,989.7835083007812,-2.7290830621495843E-4,2.8939114417880774E-4,6.184392841532826E-4,9.98521614074707,26.18899154663086,-12.103963851928711,-0.16723138093948364,0.9363611936569214,4.4727325439453125E-4,0.041092217,-0.1562708,9.763501,0
11,989.8365478515625,5.260639009065926E-4,1.5622927458025515E-4,-7.131296442821622E-4,9.690045356750488,27.124107360839844,-11.959222793579102,-0.15257364511489868,0.9384009838104248,0.005402565002441406,0.036309898,-0.158654,9.770602,0
11,989.8009033203125,-1.3970148575026542E-4,2.893832279369235E-4,8.582844748161733E-5,9.895404815673828,26.473739624023438,-12.260751724243164,-0.1662694215774536,0.9382580518722534,0.020002365112304688,0.045866966,-0.14673755,9.7564,0
11,989.8339233398438,6.59270619507879E-4,8.22011090349406E-4,8.583892486058176E-5,10.041414260864258,26.557880401611328,-12.442140579223633,-0.1648242175579071,0.918610692024231,0.0015048980712890625,0.03869468,-0.14673749,9.761134,0
11,989.8115234375,-5.391262820921838E-4,-0.0015748359728604555,6.184811936691403E-4,10.338948249816895,25.888084411621094,-12.140863418579102,-0.173316091299057,0.918216347694397,0.006656646728515625,0.048251808,-0.15865383,9.772969,0
11,989.8109130859375,-6.722600082866848E-4,1.5621338388882577E-4,3.5217576078139246E-4,9.811542510986328,26.658462524414062,-12.027685165405273,-0.19579437375068665,0.9246447086334229,0.0025491714477539062,0.060198724,-0.16103706,9.772969,0
11,989.8033447265625,-8.053932688198984E-4,2.8936733724549413E-4,-3.136033774353564E-4,9.549419403076172,26.887928009033203,-13.309450149536133,-0.1569274663925171,0.9033082723617554,0.016935348510742188,0.041077018,-0.14673725,9.770602,0
11,989.79833984375,2.5989458663389087E-4,-0.0021074796095490456,-4.467508988454938E-4,9.821218490600586,26.299007415771484,-12.393060684204102,-0.15034529566764832,0.9007903337478638,0.01751422882080078,0.038684547,-0.15388712,9.7635,0
11,989.8009033203125,-6.396974640665576E-6,-2.4327239952981472E-4,-3.1358248088508844E-4,9.87285041809082,26.663475036621094,-12.499330520629883,-0.15925344824790955,0.898270845413208,-0.0012226104736328125,0.038681984,-0.153887,9.765866,0
11,989.8336181640625,5.262594786472619E-4,-3.7643424002453685E-4,-4.7256151447072625E-5,10.041711807250977,27.190017700195312,-12.017274856567383,-0.16313259303569794,0.8837523460388184,0.013367652893066406,0.045849204,-0.14912042,9.765866,0
11,989.8285522460938,-4.058218910358846E-4,-3.764382272493094E-4,-4.724570317193866E-5,9.783039093017578,26.948223114013672,-12.656122207641602,-0.15738731622695923,0.8691810369491577,0.023224830627441406,0.04584664,-0.14673701,9.7706,0
11,989.8186645507812,-5.389553843997419E-4,-5.096001550555229E-4,-4.723519668914378E-5,9.647682189941406,26.8743896484375,-13.015863418579102,-0.13764894008636475,0.8739283084869385,0.028324127197265625,0.036284506,-0.15627018,9.768233,0
11,989.8361206054688,1.2685898400377482E-4,8.219753508456051E-4,6.185649544931948E-4,9.12677001953125,27.17645263671875,-12.414377212524414,-0.16997253894805908,0.8783819675445557,0.00978851318359375,0.050461352,-0.1514996,9.772953,0
11,989.8184204101562,-4.0499080205336213E-4,-5.097310640849173E-4,2.1942637977190316E-4,9.282317161560059,26.79522705078125,-12.26207160949707,-0.17768684029579163,0.8748379945755005,-0.004132270812988281,0.0408929,-0.15626594,9.780053,0
11,989.8033447265625,0.0029247859492897987,-0.0021077608689665794,-0.0045739044435322285,8.916547775268555,27.190265655517578,-12.305810928344727,-0.13850924372673035,0.8694077730178833,-0.008457183837890625,0.20100743,-0.29449588,9.789521,0
11,989.83837890625,-0.0021351303439587355,-7.761953165754676E-4,8.665994391776621E-5,9.009540557861328,27.014381408691406,-13.002702713012695,-0.8480525612831116,0.98301100730896,-0.18542861938476562,0.122131795,-0.018035352,10.452337,0
11,989.7472534179688,-0.10985981673002243,-0.03939201310276985,0.03524039685726166,9.315961837768555,27.353851318359375,-12.838834762573242,-0.006728619337081909,1.2260088920593262,-0.17787742614746094,-0.04278031,-0.6710534,9.481784,0
11,989.6635131835938,-0.14820921421051025,0.3259933590888977,0.07145939767360687,9.688117980957031,27.596839904785156,-12.679449081420898,0.08929862082004547,0.5745419263839722,1.1988258361816406,-0.5613979,0.4204884,9.867637,0
11,989.7542114257812,-0.9170629978179932,-0.21595950424671173,-0.4133686423301697,8.03089714050293,29.889694213867188,-11.172517776489258,-0.33185794949531555,1.2481482028961182,0.43828487396240234,0.08864653,-1.1739248,10.01677,0
11,989.7542114257812,-0.9170629978179932,-0.21595950424671173,-0.4133686423301697,8.03089714050293,29.889694213867188,-11.172517776489258,-0.4342498183250427,0.33108943700790405,0.12254142761230469,0.34435713,-0.9832622,9.8250265,0
11,989.7723388671875,-0.8410297632217407,0.045962173491716385,-0.33507171273231506,7.5374040603637695,30.638572692871094,-10.139497756958008,-0.33372536301612854,-0.0024545788764953613,-0.1556377410888672,0.4949121,-0.9427463,10.002564,0
12,989.7774047851562,-0.9665975570678711,0.02572215348482132,-0.17807844281196594,7.218019008636475,31.656036376953125,-9.456960678100586,-0.5651296973228455,0.6087404489517212,0.3196859359741211,0.1005694,-2.070037,9.204817,0
12,989.8154907226562,-1.2558165788650513,0.04503003880381584,-0.33240845799446106,6.587808132171631,32.85582733154297,-7.582427978515625,-0.6584253907203674,1.3711661100387573,0.09406852722167969,0.54508233,-2.4585109,9.2853,0
12,989.8206787109375,-1.067397952079773,-0.06668948382139206,0.08171277493238449,6.389538764953613,34.302162170410156,-5.942850112915039,0.24036313593387604,-0.984684944152832,0.6660480499267578,-0.5542815,-2.19635,9.233222,0
12,989.8382568359375,-0.641558825969696,0.013604735024273396,0.20634861290454865,5.898003578186035,35.79056167602539,-5.261341094970703,0.2446177750825882,1.3362412452697754,0.4709281921386719,-0.25794253,-3.242609,8.949157,0
12,989.8103637695312,-0.2932175099849701,0.17539162933826447,-0.3077741265296936,5.236328125,35.750526428222656,-5.311004638671875,-0.4378228783607483,1.0647516250610352,-0.12911605834960938,0.119653106,-3.3951387,9.361049,0
12,989.8428344726562,-0.4371612071990967,-0.05417267978191376,-0.11722507327795029,5.2530927658081055,36.18703079223633,-4.338335037231445,-0.06168113648891449,0.9386873245239258,0.2596855163574219,0.016878426,-3.1925597,9.214282,0
12,989.8306884765625,-0.4479469060897827,-0.022614264860749245,0.06253817677497864,4.837808609008789,37.48334884643555,-3.503366470336914,0.14987961947917938,0.6599729061126709,0.6439332962036133,-0.32249653,-3.101995,8.968091,0
12,989.815185546875,-0.3797699511051178,-0.010763220489025116,0.03524082899093628,5.287738800048828,37.53572082519531,-3.2678260803222656,-0.4884241819381714,0.8743793964385986,0.22142887115478516,0.50440073,-3.5190685,9.266358,0
12,989.794677734375,-0.12623712420463562,0.05674784258008003,-0.17794498801231384,4.8933258056640625,38.11460876464844,-3.2409191131591797,-0.40716221928596497,0.7143652439117432,0.23837852478027344,0.23672277,-3.414204,9.032004,0
12,989.8251342773438,-0.24914181232452393,-0.04059062898159027,0.11819830536842346,4.621796131134033,38.12340545654297,-2.660703659057617,-0.23202729225158691,0.7925868034362793,0.7672901153564453,0.09331977,-3.4904685,8.679291,0
12,989.8327026367188,-0.08748800307512283,-0.13167066872119904,0.3528226315975189,4.8281331062316895,37.842803955078125,-3.1379871368408203,-0.14597387611865997,0.7895393371582031,0.6816949844360352,-0.035743773,-3.3021896,8.984658,0
12,989.8275756835938,0.36791226267814636,-0.14551912248134613,0.39676475524902344,5.468776702880859,38.07404708862305,-3.404207229614258,1.9443780183792114E-4,0.6774709224700928,-0.06045246124267578,-0.16480738,-3.0257292,9.574092,0
12,989.80224609375,0.5403518676757812,-0.09385385364294052,0.26014477014541626,5.784168720245361,37.89613723754883,-4.828115463256836,-0.10007677972316742,0.7597708702087402,0.28631019592285156,0.045495093,-3.0090458,9.086448,0
12,989.81494140625,0.27643290162086487,-0.014225411228835583,0.04562736675143242,5.814035415649414,37.081626892089844,-5.400930404663086,-0.1267891824245453,0.8051948547363281,0.6354179382324219,0.064605474,-2.8279166,9.195338,0
12,989.7996826171875,0.4725746512413025,-0.0055701592937111855,0.00887581892311573,5.431905746459961,36.56595230102539,-5.619810104370117,0.1300913393497467,0.6773916482925415,-0.20428180694580078,-0.10986629,-2.5395393,9.912599,0
12,989.8302612304688,0.549273669719696,-0.03300070762634277,0.0015521679306402802,5.4266357421875,36.40360641479492,-6.610294342041016,-0.07799243927001953,0.726783037185669,0.2721881866455078,0.107400626,-2.5729003,9.356286,0
12,989.8196411132812,0.12729626893997192,0.08044984191656113,-0.17980889976024628,5.068880558013916,36.33180236816406,-6.24302864074707,-0.3794734477996826,0.7699891328811646,0.23682022094726562,0.2696874,-2.5085464,9.410712,0
12,989.7794189453125,0.11651061475276947,0.026521075516939163,-0.12387889623641968,5.205896377563477,36.513023376464844,-6.659666061401367,-0.1505405753850937,0.8265213966369629,0.1491241455078125,0.109538615,-2.5180786,9.600085,0
12,989.7666625976562,0.11837556213140488,-0.09145698696374893,0.11766991764307022,5.198966979980469,36.2432861328125,-6.873767852783203,0.07878579944372177,0.6146243810653687,-0.053772926330566406,-0.11274764,-2.406064,9.086401,0
12,989.7841796875,0.09467369318008423,-0.11262913048267365,0.10368844121694565,4.557781219482422,36.38032531738281,-6.705999374389648,-0.11892244219779968,0.24325299263000488,-0.9538068771362305,0.26244152,-2.0914705,10.246327,0
12,989.9925537109375,0.23235926032066345,-0.38067612051963806,0.021130623295903206,4.321554660797119,37.055137634277344,-7.478925704956055,-0.16374482214450836,1.2199156284332275,0.972315788269043,0.18593934,-2.7873874,8.643729,0
12,989.7939453125,-0.28043171763420105,0.4459683299064636,-0.08606141805648804,4.7484941482543945,36.55919647216797,-7.207757949829102,-0.23969051241874695,0.6359125375747681,-0.3933095932006836,0.29106963,-2.310731,10.161103,0
12,989.7080078125,0.20546182990074158,-0.21875613927841187,-0.009628649801015854,4.166955947875977,36.593868255615234,-6.735252380371094,-0.15492463111877441,0.8703901767730713,1.4641427993774414,0.013815641,-2.496626,8.541935,0
12,989.7714233398438,-0.12969645857810974,0.2811187207698822,0.059613581746816635,3.77819561958313,36.440589904785156,-6.7433624267578125,-0.09838025271892548,0.5397799015045166,-1.1314001083374023,0.15957427,-2.1915658,10.298396,0
13,989.872802734375,0.3785676956176758,-0.5525831580162048,0.09476738423109055,3.7446892261505127,35.987884521484375,-6.865678787231445,-0.10234013199806213,0.7768595218658447,0.7497377395629883,0.30055308,-2.3822272,9.147935,0
13,989.750732421875,-0.11664649844169617,0.22066496312618256,-0.12893785536289215,3.4424281120300293,36.12704086303711,-8.058992385864258,-0.28437668085098267,0.6503852605819702,-0.2562122344970703,0.2670691,-2.2797458,9.751568,0
13,989.7733764648438,-0.11957548558712006,0.18977221846580505,0.010878197848796844,3.7128424644470215,35.64256286621094,-7.764375686645508,-0.08537980914115906,0.728377103805542,0.40325450897216797,0.049562633,-2.398909,9.195273,0
13,989.7733764648438,-0.11957548558712006,0.18977221846580505,0.010878197848796844,3.7128424644470215,35.64256286621094,-7.764375686645508,-0.2532618045806885,0.6876152753829956,0.09348392486572266,0.29091728,-2.3178773,9.609532,0
13,989.7755737304688,-0.007056529633700848,0.02758578397333622,0.03977368026971817,2.781594753265381,36.350852966308594,-7.585336685180664,-0.07318893074989319,0.6865599155426025,0.27719688415527344,0.12598872,-2.3345594,9.455661,0
13,989.7755737304688,-0.007056529633700848,0.02758578397333622,0.03977368026971817,2.781594753265381,36.350852966308594,-7.585336685180664,-0.0824117362499237,0.7101259231567383,0.2211008071899414,0.17376137,-2.3393254,9.507737,0
13,989.7933349609375,0.019974777474999428,-0.02674269862473011,0.006750614382326603,2.9583115577697754,35.88433074951172,-7.816221237182617,-0.15423867106437683,0.6911712884902954,0.154815673828125,0.18568546,-2.3202584,9.446187,0
13,989.778076171875,0.004262384492903948,0.004016746301203966,-0.003369283862411976,2.8503739833831787,36.25731658935547,-7.744428634643555,-0.10713083297014236,0.6784135103225708,0.11795520782470703,0.19282985,-2.298808,9.588218,0
13,989.8033447265625,0.027964740991592407,-0.027808038517832756,0.00648450804874301,2.7514305114746094,36.533226013183594,-7.437387466430664,-0.19658762216567993,0.7076456546783447,0.2420034408569336,0.20475394,-2.3750725,9.339658,1
13,989.8082275390625,0.08402472734451294,-0.08067182451486588,0.0821184292435646,2.5774590969085693,36.37055587768555,-7.785985946655273,-0.09377128630876541,0.6780258417129517,0.15090656280517578,0.17126992,-2.3035736,9.424876,1
13,989.8036499023438,0.08202759921550751,-0.1326034665107727,0.06454168260097504,3.030433177947998,36.425872802734375,-7.705053329467773,-0.2147197276353836,0.5759015083312988,-0.3534212112426758,0.20709309,-2.2130084,10.059283,1
13,989.8036499023438,0.08202759921550751,-0.1326034665107727,0.06454168260097504,3.030433177947998,36.425872802734375,-7.705053329467773,-0.09809712320566177,0.6841733455657959,0.5276594161987305,0.042164475,-2.4608688,9.001142,1
13,989.8439331054688,-0.33315861225128174,0.41414302587509155,-0.017483500763773918,3.075136184692383,36.520606994628906,-8.025423049926758,-0.20514997839927673,0.6579593420028687,-0.015900611877441406,0.13534525,-2.410819,9.708932,1
13,989.8335571289062,-0.03195510804653168,0.01094072125852108,0.02406187914311886,3.886270761489868,36.173519134521484,-7.514230728149414,-0.15033161640167236,0.6003400087356567,-0.30468273162841797,0.116200686,-2.568115,9.964589,1
13,989.8360595703125,-0.23901546001434326,-0.019685644656419754,0.08558095246553421,3.600231647491455,37.11747741699219,-7.83332633972168,-0.09007976204156876,0.606452465057373,-0.11043357849121094,0.061207533,-2.7945256,9.332543,1
13,989.8690795898438,-0.8278396725654602,-0.032868318259716034,0.13405054807662964,3.434351921081543,38.54083251953125,-5.196599960327148,0.11071203649044037,0.440549373626709,0.29111480712890625,-0.065482676,-3.0114036,8.899343,1
13,989.8259887695312,-0.8012078404426575,-0.0465836301445961,0.15788593888282776,3.8941173553466797,38.75997543334961,-4.202489852905273,0.06778304278850555,0.46949124336242676,-0.3342399597167969,-0.21798493,-2.894634,9.424903,1
13,989.7849731445312,-0.522908627986908,-0.01648978888988495,0.04203813895583153,3.945068836212158,39.386817932128906,-3.7081298828125,0.10124264657497406,0.2197411060333252,0.1139068603515625,-0.7342101,-2.4918597,9.1100645,1
13,989.87646484375,-0.46791762113571167,-0.03632979094982147,0.09463411569595337,3.9619712829589844,39.92924118041992,-3.434537887573242,-0.9946132302284241,1.4187076091766357,0.27188777923583984,0.93632495,-4.608211,8.965664,1
13,989.8231201171875,-0.182826429605484,-0.41223466396331787,0.374798446893692,3.2683651447296143,41.070533752441406,-2.9325294494628906,-0.3466130197048187,1.093200445175171,0.4268922805786133,0.39620084,-3.4833033,9.183447,1
13,989.8231201171875,-0.4270380437374115,-0.8520553708076477,0.3087521195411682,3.2842888832092285,41.24319076538086,-2.4831809997558594,-0.24043899774551392,-0.7922701835632324,-0.3659849166870117,0.94826186,-2.6372395,9.453307,1
13,989.9169921875,-0.433562695980072,-0.11249616742134094,0.33844640851020813,3.8435404300689697,40.818138122558594,-1.6976604461669922,-0.41783034801483154,0.11613774299621582,-1.1119804382324219,0.7522836,-2.9160829,9.803653,1
13,990.0413208007812,0.4510055482387543,0.15634970366954803,-0.351578027009964,2.1135787963867188,40.884864807128906,-2.97467041015625,-0.19558009505271912,1.3466277122497559,-1.9474906921386719,0.6758003,-4.1601534,11.209769,1
13,989.9727172851562,0.32796767354011536,0.1548849642276764,-0.7842081189155579,0.894418478012085,40.27092742919922,-4.213581085205078,-0.6663968563079834,0.7906520366668701,-2.0760202407836914,0.8383074,-3.2688076,11.14112,1
13,989.9625244140625,0.7712505459785461,0.6302587985992432,-0.373282790184021,1.229703426361084,39.00582504272461,-6.269796371459961,-0.32067012786865234,-0.0015587806701660156,1.0844497680664062,0.071142495,-2.5299911,8.821261,1
14,989.9012451171875,1.0254490375518799,1.281134843826294,-0.1334652304649353,1.614938497543335,37.577491760253906,-9.478925704956055,-0.3506867289543152,0.17038178443908691,1.493412971496582,-0.038799345,-2.2821298,8.286273,1
14,989.7815551757812,1.1921628713607788,0.284447580575943,-0.05370361730456352,1.2957220077514648,35.541664123535156,-11.697126388549805,-0.8274804353713989,0.5917614698410034,-0.28253936767578125,0.60407794,-0.8974451,9.619008,1
14,989.7362670898438,1.8740648031234741,-0.621159553527832,-0.040387798100709915,-0.3193192481994629,32.7662353515625,-13.210458755493164,-0.7987370491027832,-0.0977621078491211,-1.2235231399536133,0.7140071,-1.25732,11.621661,1
14,989.8095092773438,0.5768401622772217,-0.19092628359794617,-0.44705209136009216,-0.34689760208129883,31.793193817138672,-14.76594352722168,0.2915498614311218,0.9138234853744507,-0.523289680480957,-1.1333934,-1.9174879,9.801282,1
14,989.931396484375,-0.4406196177005768,1.576878547668457,-0.6252173781394958,1.185399055480957,30.85755157470703,-15.024301528930664,0.005090951919555664,0.553150475025177,0.5197544097900391,-0.58372235,-1.10479,8.953822,1
14,989.7127075195312,0.6623276472091675,0.4604823589324951,-0.28180307149887085,0.916292667388916,29.18471908569336,-17.27146339416504,-0.5734677910804749,0.017454206943511963,1.0145606994628906,-0.08901897,-0.67818284,9.086386,1
14,989.7560424804688,0.4624577462673187,-0.630347490310669,-0.4477178454399109,-2.390806198120117,25.614967346191406,-18.40059471130371,0.3041927218437195,1.2726566791534424,-1.3368911743164062,-0.62436336,-1.6076612,10.7860365,1
14,989.7560424804688,0.4624577462673187,-0.630347490310669,-0.4477178454399109,-2.390806198120117,25.614967346191406,-18.40059471130371,-0.16013304889202118,0.523242712020874,-1.0292186737060547,-0.1392196,-0.79019666,10.568253,1
14,989.7609252929688,0.15965665876865387,0.05634798854589462,-0.1161545068025589,-2.168705463409424,24.980804443359375,-19.55247688293457,-0.11198168992996216,0.7431597113609314,-0.302459716796875,-0.14161584,-0.26587522,9.706591,1
14,989.7938842773438,0.6620616316795349,0.20854750275611877,-0.11109448224306107,-1.8602728843688965,23.32089614868164,-20.118749618530273,-0.17423728108406067,0.3487340211868286,0.768040657043457,-0.38778207,-0.44700417,9.323102,1
14,989.7709350585938,0.6238453388214111,-0.22874318063259125,-0.20217448472976685,-2.8777990341186523,22.316020965576172,-20.903955459594727,0.3608471751213074,1.573357343673706,0.0017642974853515625,-0.22766498,-0.7186978,9.886497,1
14,989.7404174804688,0.21531686186790466,-0.6039823293685913,0.00888088159263134,-3.630157470703125,21.084625244140625,-20.56199073791504,0.273290753364563,0.33654117584228516,-1.2756109237670898,-0.026919544,0.022501945,11.036957,1
14,989.780517578125,-0.04061264544725418,-0.6710938811302185,0.18598097562789917,-4.151367664337158,20.75455093383789,-20.3853816986084,0.1670185625553131,0.5233997702598572,-1.4011821746826172,0.38174736,0.27512962,11.081933,1
14,989.8231811523438,0.7708519101142883,-0.7262213230133057,-0.1644907146692276,-5.614640712738037,20.596229553222656,-20.61253547668457,0.20765382051467896,0.8478276133537292,0.016239166259765625,0.08300322,0.17979862,9.893597,1
14,989.6585693359375,0.5988118648529053,0.08284635841846466,-0.37860867381095886,-5.716979503631592,18.6044921875,-21.32704734802246,0.5332367420196533,1.0495742559432983,-1.564366340637207,-0.1822822,0.04633522,11.63349,1
14,989.711669921875,0.5430187582969666,0.04596160352230072,-0.15916432440280914,-5.902201175689697,17.167238235473633,-21.984251022338867,0.5223736763000488,1.331433653831482,-0.7979373931884766,0.37933844,0.8209009,9.467498,1
14,989.7984008789062,1.314935326576233,-0.3708227574825287,0.1923726499080658,-6.302212238311768,15.739376068115234,-22.300966262817383,-0.5700968503952026,0.26295578479766846,0.5994758605957031,1.3878707,1.4786859,10.045095,1
14,989.6764526367188,1.1680622100830078,-0.9075825214385986,0.27919164299964905,-7.237727642059326,12.703910827636719,-22.595064163208008,0.677335262298584,1.9438252449035645,-2.1947021484375,0.59441686,0.8828664,11.311548,1
14,989.7367553710938,0.9097358584403992,-0.582011342048645,0.20502270758152008,-8.479610443115234,10.961540222167969,-22.30174446105957,0.16528630256652832,0.9017232656478882,-1.5953369140625,1.5468873,2.0792992,10.468723,1
14,989.7693481445312,1.0768518447875977,-0.5861396193504333,0.5068929195404053,-9.16275405883789,10.374658584594727,-22.393083572387695,-0.148978590965271,0.9635090827941895,-0.784672737121582,2.2112336,2.2532797,9.38454,1
14,989.6783447265625,1.4907091856002808,-1.2964041233062744,0.3598935902118683,-9.981582641601562,7.8695573806762695,-22.19730567932129,0.12338805198669434,1.2871336936950684,-1.416630744934082,2.3187327,2.3795943,11.195446,1
14,989.619873046875,0.9136029481887817,-0.9256924390792847,0.21288742125034332,-11.744377136230469,6.429243087768555,-21.302499771118164,0.3351428508758545,1.5928127765655518,-2.269947052001953,2.4788103,2.8634014,9.886378,1
14,989.7643432617188,1.4148099422454834,-0.9391414523124695,0.2282007783651352,-12.757911682128906,4.584816932678223,-21.346330642700195,-0.07307934761047363,0.8863725662231445,-0.5499162673950195,3.1264277,3.5879188,8.989205,1
14,989.6830444335938,1.4262619018554688,-0.7312819957733154,0.1776009500026703,-15.622125625610352,1.1120967864990234,-19.931917190551758,-0.2717916965484619,1.267712116241455,-1.6954898834228516,3.3916602,3.7213836,9.479212,1
14,989.6829223632812,1.1486281156539917,-0.507976233959198,0.07573531568050385,-15.561582565307617,-1.4653396606445312,-19.482492446899414,-0.10486793518066406,1.2943143844604492,-1.3803825378417969,3.4226828,4.1479917,8.624648,1
15,989.7080688476562,1.4261298179626465,-0.45125100016593933,-0.04690295085310936,-16.408754348754883,-3.154460906982422,-18.79120445251465,-0.08960533142089844,1.4509086608886719,-1.0590567588806152,3.4250264,4.3720207,8.165406,1
15,989.7333984375,1.5068238973617554,-0.6017194986343384,-0.16248385608196259,-17.08877944946289,-6.056997776031494,-17.5927677154541,0.25353097915649414,1.5477566719055176,-1.438178539276123,3.1549215,4.7247477,8.238786,1
15,989.6951293945312,1.1955010890960693,-0.1409931182861328,-0.20695842802524567,-16.859235763549805,-8.001971244812012,-17.3603572845459,0.6415104866027832,1.8303680419921875,-1.7584805488586426,2.5143814,4.6318007,7.736933,1
15,989.695068359375,1.396303653717041,-0.1898621767759323,-0.28858402371406555,-17.391429901123047,-10.186758995056152,-15.995744705200195,1.1880435943603516,2.3570713996887207,-0.30665159225463867,2.2920742,4.8891954,6.0183406,1
15,989.669677734375,1.4900473356246948,-0.1899954080581665,-0.18738381564617157,-17.09560775756836,-12.596503257751465,-15.669374465942383,1.1343722343444824,1.8130040168762207,-0.30438661575317383,2.2275004,5.377769,6.219548,1
15,989.62353515625,1.121599793434143,-0.12341650575399399,-0.04290725663304329,-17.86815643310547,-13.372844696044922,-15.11998176574707,1.2765133380889893,2.1139087677001953,-0.6874675750732422,2.2895918,5.6113315,5.7342677,1
15,989.641357421875,1.157286524772644,-0.23353822529315948,0.0721413865685463,-18.136131286621094,-14.941656112670898,-13.52418327331543,1.1333184242248535,1.8314366340637207,0.030291080474853516,2.5333157,6.078455,4.7873826,1
15,989.6387939453125,1.2996327877044678,-0.42302206158638,0.15603108704090118,-18.48606300354004,-17.218774795532227,-12.798128128051758,1.4849557876586914,2.2024435997009277,0.48570680618286133,2.244091,5.873494,3.83813,1
15,989.6283569335938,1.0913742780685425,-0.22621464729309082,0.2202133983373642,-18.796100616455078,-18.40516471862793,-11.834100723266602,1.0254924297332764,1.7443318367004395,0.23699283599853516,3.0207634,6.3525343,3.9517512,1
15,989.6334838867188,0.7552840709686279,-0.07468099892139435,0.565758466720581,-19.409624099731445,-18.821725845336914,-11.561220169067383,0.9407558441162109,1.5215468406677246,0.5659632682800293,3.2405877,6.331086,3.303134,1
15,989.6409301757812,0.7114754915237427,-0.14858371019363403,0.7389971017837524,-20.347639083862305,-17.85696029663086,-10.472330093383789,0.5886874198913574,1.487241268157959,0.22470593452453613,4.0196495,6.564648,3.203707,1
15,989.6334838867188,0.8789886832237244,-0.4999876320362091,0.9079746603965759,-21.71637725830078,-17.76938819885254,-9.650659561157227,1.2403388023376465,2.2363624572753906,0.20059490203857422,3.8212414,5.9020977,2.761036,1
15,989.66357421875,0.8668717741966248,-0.4308786988258362,0.9429954290390015,-22.652463912963867,-17.277355194091797,-7.841550827026367,0.6129021644592285,1.8576855659484863,-0.2864375114440918,4.992247,6.1714096,3.0900729,1
15,989.6610107421875,0.9065532684326172,-0.492664098739624,1.2359431982040405,-24.350555419921875,-16.44499969482422,-6.3968353271484375,0.37979888916015625,1.52451753616333,0.2886316776275635,5.50603,5.9140167,1.807045,1
15,989.6832275390625,0.9576863646507263,-0.1725524216890335,1.3259581327438354,-25.128999710083008,-15.488754272460938,-5.486005783081055,-0.12907981872558594,1.368166446685791,0.6714417934417725,6.6268477,6.0879974,2.0129871,1
15,989.6705322265625,0.7475636005401611,-0.013961408287286758,1.4492624998092651,-25.588851928710938,-14.181246757507324,-5.029747009277344,-0.46013736724853516,0.2666478157043457,-0.4756786823272705,6.7749753,6.528905,2.4698532,1
15,989.6526489257812,0.18190953135490417,1.099105715751648,1.0846763849258423,-25.392807006835938,-11.415506362915039,-6.684492111206055,0.12929582595825195,0.9453020095825195,-0.221221923828125,6.9876304,5.2824516,2.6308188,1
15,989.6526489257812,0.18190953135490417,1.099105715751648,1.0846763849258423,-25.392807006835938,-11.415506362915039,-6.684492111206055,0.13466119766235352,-0.22693109512329102,0.025443077087402344,6.9449954,6.588479,2.597713,1
15,989.7085571289062,0.33637315034866333,1.1210767030715942,0.9979908466339111,-24.4720458984375,-10.815925598144531,-8.093210220336914,0.09320497512817383,0.45498180389404297,0.42933058738708496,6.923896,5.7185717,2.3278894,1
15,989.70556640625,0.24195942282676697,1.1039000749588013,0.8151628971099854,-23.813138961791992,-10.567005157470703,-9.287088394165039,0.33631324768066406,0.2983551025390625,1.2892858982086182,6.4626336,5.623241,2.2142627,1
15,989.690185546875,-0.17336314916610718,1.2571653127670288,0.7632300853729248,-22.219066619873047,-9.547313690185547,-11.363039016723633,0.19093704223632812,0.245849609375,1.0758087635040283,7.0959463,4.9154077,2.9362583,1
15,989.6979370117188,-0.5033283829689026,0.9012342691421509,0.7014448642730713,-21.231399536132812,-6.935973167419434,-12.899782180786133,0.36048221588134766,1.5091979503631592,0.39406752586364746,6.675312,3.871532,3.7458405,1
15,989.7128295898438,-0.922509491443634,0.9217404127120972,0.6128948330879211,-19.64727783203125,-5.768667221069336,-13.212194442749023,0.1836996078491211,1.1181776523590088,0.38042783737182617,6.7207084,3.4639916,4.21928,1
15,989.72802734375,-1.1339643001556396,0.9359883069992065,0.6717507243156433,-18.59746551513672,-2.888460159301758,-14.697267532348633,0.18407297134399414,1.2177064418792725,1.0830249786376953,7.4520073,3.5950723,4.8489547,1
16,989.7357788085938,-1.2157231569290161,0.6506308913230896,0.8481850624084473,-17.12679672241211,-0.5100908279418945,-15.601949691772461,-1.492051601409912,-0.07109546661376953,-0.530156135559082,8.374497,3.9549475,5.9165616,1
16,989.733154296875,-1.1921541690826416,0.607487678527832,0.8677593469619751,-16.488569259643555,2.1947431564331055,-15.935548782348633,-1.039970874786377,-0.20810151100158691,-0.7826781272888184,7.9705935,3.7142367,6.0846324,1
16,989.720458984375,-0.7992047667503357,0.6168087124824524,0.5051702260971069,-15.442371368408203,4.228034973144531,-16.292726516723633,-0.13076400756835938,0.23083901405334473,1.7583212852478027,7.217763,3.4878254,3.639311,1
16,989.7154541015625,-0.3276924788951874,0.5656760931015015,0.3321981728076935,-14.111656188964844,5.315896034240723,-16.25349998474121,-1.1757402420043945,-0.7777795791625977,2.2053205966949463,8.281257,3.7047043,4.306861,1
16,989.7278442382812,-0.4067881405353546,0.05581424757838249,0.23286238312721252,-14.363508224487305,6.450185775756836,-17.0509090423584,-0.9741063117980957,0.6737265586853027,0.9173822402954102,7.5953436,2.255671,4.858418,1
16,989.7049560546875,-1.0431498289108276,0.6307902336120605,-0.08631716668605804,-13.233043670654297,7.824546813964844,-16.8436222076416,-0.15058135986328125,0.41472911834716797,2.833315134048462,6.615473,2.4296508,4.096178,1
16,989.7528076171875,-1.0870919227600098,0.6550249457359314,-0.16567924618721008,-11.862052917480469,9.108634948730469,-17.591928482055664,0.575136661529541,0.866320013999939,0.8762822151184082,6.3525724,1.3333429,6.03965,1
16,989.7577514648438,-1.0210453271865845,-0.23873119056224823,0.31688523292541504,-11.003467559814453,12.598560333251953,-16.850664138793945,-0.7250461578369141,0.2998279333114624,0.3119688034057617,7.468645,2.0602431,7.1853747,1
16,989.7577514648438,-1.0210453271865845,-0.23873119056224823,0.31688523292541504,-11.168529510498047,13.865463256835938,-15.513643264770508,-0.3853158950805664,-0.07414078712463379,-0.678657054901123,6.8377,1.097399,7.0267715,1
16,989.7801513671875,-1.0203795433044434,-0.10797013342380524,0.390255331993103,-10.424568176269531,16.458209991455078,-15.241106033325195,-0.8481545448303223,0.29352521896362305,0.12942743301391602,7.8796854,1.4668074,7.185373,1
16,989.7371826171875,-1.1173183917999268,0.05967572703957558,0.5447186231613159,-10.237525939941406,18.529071807861328,-14.236337661743164,-0.5407590866088867,-0.43921977281570435,-0.40720415115356445,7.2391806,0.5063466,6.962855,1
16,989.7672119140625,-1.1804351806640625,0.08577465265989304,0.3411201238632202,-9.551828384399414,21.119747161865234,-13.646760940551758,-0.7978472709655762,0.7414699792861938,1.2934117317199707,7.523567,-0.0751732,6.1367,1
16,989.7342529296875,-1.345816969871521,0.1792515069246292,0.34072068333625793,-9.061302185058594,22.420791625976562,-11.95085334777832,-0.10481071472167969,0.837164044380188,-2.2286930084228516,7.0838137,-0.79015636,8.615161,1
16,989.7139282226562,-1.3856312036514282,-0.6231582760810852,0.30263760685920715,-9.085601806640625,24.029788970947266,-9.962686538696289,0.26300477981567383,1.3213891983032227,-1.2504515647888184,7.112481,-1.6266868,7.280057,1
16,989.7342529296875,-0.670839250087738,-0.684943437576294,0.3942502737045288,-9.448165893554688,24.953994750976562,-9.037080764770508,-0.8506169319152832,-0.32325151562690735,0.9571208953857422,7.8915777,-0.5804273,5.438372,1
16,989.7640991210938,0.09202270209789276,-1.016373634338379,0.6234151124954224,-9.812253952026367,25.876724243164062,-8.034173965454102,0.28711605072021484,0.48999375104904175,1.1558599472045898,7.616728,-1.307327,5.0241103,1
16,989.766357421875,-0.24047257006168365,-1.0022588968276978,0.6842684149742126,-10.026308059692383,27.256309509277344,-7.543024063110352,-0.5639595985412598,0.08492505550384521,-0.3364748954772949,8.123376,-2.1081083,6.745066,1
16,989.7509765625,-0.6673767566680908,-0.881218433380127,0.7385968565940857,-9.210149765014648,28.072002410888672,-5.714927673339844,-0.5029082298278809,0.6998279094696045,-1.6404647827148438,7.8102865,-3.2091827,7.549914,1
16,989.7487182617188,-1.442622184753418,0.2246582806110382,0.9714901447296143,-7.980526447296143,31.329238891601562,-3.939441680908203,-1.3275203704833984,-0.26850461959838867,-1.149271011352539,8.794423,-2.0413637,6.4751577,1
16,989.779052734375,-0.8074586987495422,0.23038403689861298,1.1451281309127808,-5.481464862823486,32.510108947753906,-3.854745864868164,-0.45509815216064453,-0.48250770568847656,0.446225643157959,7.780569,-2.6467035,5.147108,1
16,989.7635498046875,-0.14566035568714142,-0.5099743008613586,0.7011874914169312,-5.620246410369873,33.327842712402344,-3.0343799591064453,0.27578115463256836,0.6445167064666748,-0.11060285568237305,7.1567545,-3.6786618,5.4927154,1
16,989.7554931640625,-0.45192310214042664,-0.761110246181488,0.6009198427200317,-4.719546794891357,33.696441650390625,-2.03997802734375,0.6652979850769043,0.4756031036376953,0.04545927047729492,7.0180893,-4.0385356,4.8062215,1
16,989.7681884765625,-0.6400748491287231,-0.5324781537055969,0.7153027057647705,-4.358969211578369,35.191917419433594,-0.41240882873535156,1.0402593612670898,0.7977712154388428,0.5438694953918457,6.563957,-4.684403,4.4369335,1
16,989.7529296875,-0.4439326822757721,-0.8294203877449036,0.6620397567749023,-3.161384105682373,36.365352630615234,0.4121665954589844,0.8082137107849121,0.9300222396850586,-0.5695099830627441,7.2139597,-4.960862,4.9458776,1
16,989.7805786132812,-0.3146357834339142,-1.094404697418213,0.7750911116600037,-2.840017795562744,36.507720947265625,1.201141357421875,-0.0010247230529785156,1.5525517463684082,-0.48787355422973633,7.763587,-6.336012,4.877224,1
17,989.7880249023438,-0.6978639364242554,-0.4643014669418335,0.7318149209022522,-1.9196152687072754,38.42211151123047,2.6409473419189453,-0.45857954025268555,2.062967300415039,-1.8357062339782715,8.344282,-6.324095,5.940093,1
17,989.7652587890625,-0.9442055821418762,-0.18560199439525604,0.8356783390045166,-0.565098762512207,39.1098747253418,4.239603042602539,-1.0871620178222656,0.09408283233642578,-2.2158052921295166,8.251025,-5.3755484,5.9069476,1
17,989.7902221679688,-0.4998570680618286,-0.18773260712623596,0.7624417543411255,1.0519537925720215,39.88592529296875,5.022790908813477,-0.3562440872192383,0.45522356033325195,-2.0747528076171875,7.796893,-5.785471,5.705731,1
17,989.7901000976562,-0.2740207016468048,-0.043655794113874435,0.48534026741981506,2.0019237995147705,40.353668212890625,5.464908599853516,-0.5917534828186035,0.23006010055541992,-1.3900182247161865,7.634329,-5.7401876,4.79672,1
17,989.7749633789062,-0.008636434562504292,0.27725476026535034,0.42874833941459656,3.0136375427246094,41.564483642578125,5.161172866821289,0.44802331924438477,0.45074987411499023,-0.06638669967651367,6.6185703,-5.8402843,3.724373,1
17,989.7799682617188,0.2587451934814453,0.4185352921485901,0.25804007053375244,3.7701256275177,42.06224822998047,4.861505508422852,0.1917104721069336,0.09463977813720703,0.7259373664855957,6.6854362,-5.730652,3.33378,1
17,989.7947998046875,0.2958967685699463,0.20907776057720184,0.3138335049152374,4.326311111450195,41.21394348144531,3.978609085083008,0.6849803924560547,0.36069345474243164,0.6586644649505615,6.3507996,-5.8736477,3.7314653,1
17,989.7842407226562,-0.035666029900312424,0.1599423736333847,0.3561778664588928,5.343240261077881,40.95454406738281,3.9140682220458984,-0.006529808044433594,-0.0687723159790039,-0.6765365600585938,6.8526278,-5.742566,5.007383,1
17,989.786865234375,-0.2768145501613617,0.046225424855947495,0.4460597336292267,6.1732354164123535,41.889404296875,4.347341537475586,-0.2686738967895508,-0.13930273056030273,-1.2772860527038574,6.9816318,-5.7330317,5.182551,1
17,989.8074951171875,0.027584971860051155,-0.13127419352531433,0.3428625464439392,6.926244258880615,41.64616775512695,4.476491928100586,-9.951591491699219E-4,-0.12657451629638672,-0.7452664375305176,6.592027,-5.799762,4.8108954,1
17,989.7948608398438,0.2323823720216751,-0.11622743308544159,0.2063758224248886,7.6115899085998535,41.97214889526367,3.889902114868164,0.030977249145507812,-0.026620864868164062,-0.8768243789672852,6.6851826,-5.845043,4.8866415,1
17,989.8097534179688,0.09669491648674011,0.019194118678569794,0.14179444313049316,7.90263032913208,41.770668029785156,3.7028751373291016,0.0016880035400390625,-0.2930908203125,-0.5859918594360352,6.4246325,-5.747328,4.6877923,1
17,989.8068237304688,0.1417027860879898,0.17525514960289001,0.03646672144532204,8.237396240234375,41.294151306152344,3.3712329864501953,0.6534266471862793,0.12552642822265625,0.18409347534179688,5.9203124,-6.0666857,4.126761,1
17,989.819580078125,0.30602017045021057,0.12252452224493027,-0.052748896181583405,8.159866333007812,40.484344482421875,2.968660354614258,0.6085906028747559,0.26039981842041016,-0.2929801940917969,6.063656,-6.047618,4.7587986,1
17,989.7941284179688,0.16500641405582428,-0.02554718591272831,0.07681398838758469,8.162803649902344,41.5936279296875,2.4413928985595703,0.36238622665405273,0.13759708404541016,-0.6547374725341797,6.2117786,-6.076216,4.886623,1
17,989.7939453125,0.17805637419223785,-0.03127305582165718,0.12142211198806763,8.379657745361328,41.21742248535156,2.1220531463623047,0.34919166564941406,0.34803342819213867,-0.06718111038208008,6.2475767,-6.121497,4.448686,1
17,989.8037109375,0.34863218665122986,-0.17401844263076782,0.1493854820728302,8.253976821899414,40.78413772583008,1.3969287872314453,0.06602001190185547,0.17524099349975586,-0.21610260009765625,6.4912963,-6.078597,4.7564178,1
17,989.8037109375,0.34863218665122986,-0.17401844263076782,0.1493854820728302,8.621406555175781,40.496482849121094,0.6642818450927734,0.18911027908325195,0.368436336517334,-0.4247779846191406,6.259425,-6.209676,4.737475,1
17,989.770751953125,0.29643526673316956,-0.17042334377765656,0.086801677942276,8.369768142700195,39.418087005615234,0.6121921539306641,0.5063128471374512,0.3772249221801758,0.027151107788085938,6.0250998,-6.07621,4.3184705,1
17,989.78076171875,0.38911399245262146,-0.170956090092659,0.09159569442272186,8.088838577270508,39.9981689453125,0.15963172912597656,0.4679298400878906,0.20074796676635742,0.27957677841186523,6.082404,-5.988027,4.2829576,1
17,989.8034057617188,0.2743273377418518,-0.10211237519979477,0.13447625935077667,8.458770751953125,40.081756591796875,-0.8260746002197266,0.29355478286743164,0.27115678787231445,0.34064292907714844,6.311782,-6.0118585,4.114881,1
17,989.7931518554688,0.2507588565349579,-0.1120993047952652,0.13660700619220734,9.02269458770752,38.554771423339844,0.10018730163574219,-0.030555248260498047,0.14421701431274414,0.5854582786560059,6.467072,-5.933209,4.041493,1
17,989.8106689453125,0.12106353789567947,-0.019820930436253548,0.09239877760410309,9.170066833496094,38.114166259765625,-1.2824592590332031,0.34482383728027344,0.3918323516845703,0.3630099296569824,6.084635,-6.2239676,4.3113494,1
17,989.8310546875,0.044897716492414474,-0.06735840439796448,0.003183182096108794,8.68486213684082,38.60803985595703,-1.2365894317626953,0.36142873764038086,0.24297571182250977,-0.09818029403686523,6.0774117,-6.1929836,4.6900964,1
18,989.813232421875,2.4001852580113336E-5,-0.08946270495653152,0.07309132069349289,8.915033340454102,39.13959503173828,-1.2261772155761719,0.24044466018676758,0.051331520080566406,0.2444291114807129,6.2446513,-5.873623,4.2853,1
18,989.80322265625,-0.019682858139276505,6.851413636468351E-4,0.14006999135017395,9.023513793945312,38.3983154296875,-1.1995182037353516,0.15392446517944336,0.17081308364868164,-0.5456819534301758,6.299566,-6.0118523,4.8628926,1
18,989.8154907226562,-0.03512866795063019,-0.11183340847492218,0.10158755630254745,9.151939392089844,38.20240783691406,-1.0538768768310547,0.155548095703125,0.029983043670654297,-0.382875919342041,6.3186316,-5.852171,4.704285,1
18,989.7749633789062,0.04210345447063446,-0.060833994299173355,0.09586198627948761,8.929136276245117,38.67864227294922,-1.1243934631347656,0.22690200805664062,0.03781890869140625,0.10999727249145508,6.187134,-5.9761,4.406013,1
18,989.7850341796875,0.030119752511382103,-0.01862301118671894,0.023557446897029877,8.87543773651123,38.680992126464844,-1.0392704010009766,0.34244585037231445,0.19878864288330078,-0.256927490234375,6.108214,-6.054747,4.806065,1
18,989.7896728515625,-0.060293976217508316,-0.03540099412202835,0.022226087749004364,9.631054878234863,37.7026481628418,-0.7905254364013672,0.14821910858154297,0.08205318450927734,-0.36435937881469727,6.218096,-5.9832473,4.8107944,1
18,989.7921752929688,-0.006497656926512718,-0.05058108642697334,0.049257371574640274,8.55423355102539,39.064849853515625,-0.7042980194091797,-0.0027022361755371094,0.23994922637939453,-0.7746028900146484,6.664954,-5.914131,5.0664477,1
18,989.8048706054688,0.070867620408535,-0.008503261022269726,0.017432842403650284,8.8055419921875,38.29884719848633,-0.005344390869140625,0.6415433883666992,-0.17934083938598633,1.3011195659637451,5.8045363,-5.8283315,3.5182924,1
18,989.8201904296875,0.16687501966953278,0.15248461067676544,-0.1992148905992508,9.054220199584961,37.84765625,-1.2490119934082031,-0.28135156631469727,-0.02056407928466797,-1.2558941841125488,6.85365,-5.8307137,6.100905,1
18,989.9522094726562,-0.15523353219032288,-0.14605557918548584,-0.0366288423538208,9.186670303344727,38.024452209472656,-1.433736801147461,-0.2551860809326172,0.33277225494384766,-1.4487767219543457,6.3445477,-6.078573,5.1327147,1
18,989.885986328125,-0.013552967458963394,0.2946971356868744,-0.08216864615678787,9.049654006958008,37.843238830566406,-1.0170974731445312,0.7561030387878418,-0.013682842254638672,1.1924710273742676,5.9143124,-5.752063,3.5987625,1
18,989.693115234375,0.33638662099838257,-0.03260517865419388,0.050323735922575,9.08163833618164,38.294471740722656,-0.8174762725830078,0.24890708923339844,0.1559300422668457,0.14977073669433594,6.2846937,-6.011839,4.635592,1
18,989.7461547851562,-0.06961144506931305,-0.11263318359851837,0.04273395612835884,8.938373565673828,37.581138610839844,-1.215566635131836,0.09188985824584961,0.1932697296142578,-0.11792182922363281,6.265521,-5.992771,4.5337977,1
18,989.7866821289062,-0.05403144657611847,-0.08853168040513992,-0.003205317771062255,8.24544906616211,38.46005630493164,-1.314188003540039,0.5420413017272949,0.3163633346557617,0.13380050659179688,5.9523907,-6.119084,4.4249015,1
18,989.8167724609375,-0.019409867003560066,-0.05604122206568718,-0.07564302533864975,8.316156387329102,37.89379119873047,-0.7530574798583984,0.3210411071777344,0.289212703704834,-0.13135528564453125,6.251075,-6.0881,4.77761,1
18,989.7941284179688,-0.020075146108865738,-0.13060975074768066,-0.020115938037633896,7.901117324829102,38.18967819213867,-0.2445087432861328,0.31407880783081055,0.27121925354003906,-0.3119025230407715,6.2127833,-5.9832344,4.62137,1
18,989.7864379882812,0.03252275288105011,-0.050182439386844635,-0.008664132095873356,7.935303688049316,38.38001251220703,-0.7228202819824219,0.22184133529663086,0.11101150512695312,0.09897661209106445,6.3393946,-5.8736024,4.4556603,1
18,989.7841186523438,0.014280634000897408,-0.006373562850058079,-0.018118128180503845,7.527437686920166,37.945220947265625,-0.32658958435058594,0.28191566467285156,0.12567138671875,-0.021525859832763672,6.243746,-5.8902836,4.3917413,1
18,989.7836303710938,-0.006224663928151131,-0.06989006698131561,-0.088824562728405,7.50031852722168,38.13053512573242,-0.3332538604736328,0.3259854316711426,0.17932891845703125,-0.10788202285766602,6.2565565,-5.9022217,4.4533677,1
18,989.7836303710938,-0.006224663928151131,-0.06989006698131561,-0.088824562728405,7.50031852722168,38.13053512573242,-0.3332538604736328,0.3523244857788086,0.1496424674987793,-0.03915262222290039,6.264643,-5.8498116,4.3871694,1
18,989.7960815429688,-0.04325554519891739,-0.028076499700546265,-0.09242752194404602,7.851686954498291,37.564308166503906,-0.8161754608154297,0.3729381561279297,0.17650651931762695,0.053774356842041016,6.3722095,-5.887945,4.488961,1
18,989.7908935546875,-0.04126053676009178,-0.09052718430757523,-0.09376011788845062,6.744265079498291,38.370826721191406,-0.30779457092285156,0.23893213272094727,0.2267928123474121,-0.3420701026916504,6.408078,-5.873646,4.581284,1
18,989.813720703125,-0.02901020459830761,-0.10157926380634308,-0.08803440630435944,6.65627384185791,39.2891845703125,-0.1170196533203125,0.31595468521118164,0.15819263458251953,0.027926921844482422,6.465456,-5.8212137,4.401378,0
18,989.8058471679688,-0.08866535127162933,-0.07241760939359665,-0.046888768672943115,6.465667724609375,38.00396728515625,0.7573986053466797,0.1697239875793457,0.08990240097045898,-0.11944580078125,6.5849714,-5.7711654,4.477131,0
18,989.8009033203125,-0.058838170021772385,-0.10251127183437347,-0.06446570158004761,5.834455490112305,38.4136962890625,0.9846591949462891,0.13588523864746094,0.1382436752319336,-0.1458759307861328,6.6375694,-5.7902327,4.3185306,0
19,989.8009033203125,-0.058838170021772385,-0.10251127183437347,-0.06446570158004761,5.834455490112305,38.4136962890625,0.9846591949462891,0.3031167984008789,0.1395854949951172,-0.11970376968383789,6.4750767,-5.804532,4.2972274,0
19,989.8084106445312,-0.1110362783074379,-0.06975438445806503,-0.08097737282514572,5.767060279846191,38.40278625488281,1.7655277252197266,0.3052558898925781,0.10456085205078125,-0.14371776580810547,6.6376104,-5.7664003,4.415589,0
19,989.8104858398438,-0.11356647312641144,-0.10890280455350876,-0.0672621876001358,5.288488388061523,38.53425598144531,1.6006278991699219,0.23814678192138672,0.06844520568847656,-0.45127105712890625,6.558764,-5.7354183,4.48424,0
19,989.7852783203125,-0.049784015864133835,-0.16216595470905304,-0.10934017598628998,5.035083770751953,38.45481872558594,1.952260971069336,0.28481101989746094,0.13087987899780273,0.07313013076782227,6.604192,-5.709203,3.8521986,0
19,989.8005981445312,0.03117581643164158,-0.20237961411476135,-0.0958913043141365,4.60412073135376,38.57804870605469,2.0114593505859375,0.19315719604492188,0.14706802368164062,-0.24620842933654785,6.7117577,-5.70682,3.9729276,0
19,989.807861328125,-0.07548388093709946,-0.2789453864097595,-0.08856771141290665,3.867034673690796,38.99394226074219,2.3316612243652344,0.08184957504272461,0.20003461837768555,-0.5307912826538086,6.9125304,-5.752103,4.2356887,0
19,989.7849731445312,-0.05710828676819801,-0.3524485230445862,-0.1065441220998764,3.5499603748321533,38.6441650390625,2.708925247192383,0.7954235076904297,0.41568946838378906,-0.1283550262451172,6.4775887,-5.8045354,3.9397905,0
19,989.8001098632812,0.05248050019145012,-0.32115638256073,-0.17831633985042572,2.7295336723327637,38.45619201660156,1.5376148223876953,0.6965217590332031,0.35806751251220703,0.27851366996765137,6.7428875,-5.680606,3.4474144,0
19,989.8026733398438,0.1635340452194214,-0.507311224937439,-0.0576753132045269,2.696730852127075,38.16141128540039,2.637697219848633,0.11344623565673828,0.21146154403686523,0.031229019165039062,7.256737,-5.5614424,3.6249566,0
19,989.797607421875,-0.03993150591850281,-0.3888005316257477,-0.02318749390542507,2.1016321182250977,38.28874206542969,3.10687255859375,0.19344758987426758,0.050952911376953125,0.08716154098510742,7.220909,-5.51616,3.3527298,0
19,989.7849731445312,-0.09718961268663406,-0.2527131140232086,-0.09855497628450394,1.2918822765350342,38.53137969970703,3.2174549102783203,0.5176033973693848,0.24464797973632812,0.2219254970550537,6.6712513,-5.7878547,2.8272128,0
19,989.799560546875,-0.16829614341259003,-0.22781255841255188,-0.20814405381679535,1.3129143714904785,38.340171813964844,3.5333385467529297,1.0356454849243164,0.5523700714111328,0.2132735252380371,6.4800797,-6.0333323,2.7680347,0
19,989.7971801757812,-0.3998579978942871,-0.21130093932151794,-0.056876711547374725,0.905210018157959,38.43159103393555,5.053518295288086,0.656397819519043,0.29328346252441406,0.028696060180664062,7.2639875,-5.5757437,2.7680368,0
19,989.8046264648438,-0.4589803218841553,-0.40278202295303345,0.1358027458190918,0.6115608215332031,39.36817932128906,5.120946884155273,0.14372730255126953,-0.1294078826904297,0.23846125602722168,7.2616186,-5.7235074,2.5502558,0
19,989.7913818359375,-0.24859096109867096,-0.8603127002716064,-0.029046863317489624,0.35497450828552246,39.179874420166016,6.326271057128906,0.8641386032104492,0.5976181030273438,-0.3081698417663574,6.575737,-6.3383937,2.330108,0
19,989.7789306640625,-0.2648364305496216,-0.7308830618858337,-0.09269644320011139,-0.2903714179992676,38.838287353515625,7.52348518371582,1.7757024765014648,0.9472031593322754,0.9326165914535522,6.2220516,-6.512374,1.0447189,0
19,989.7734985351562,-0.4395398199558258,-0.6459282636642456,0.11769301444292068,-0.33697938919067383,39.6365966796875,8.946657180786133,0.49752187728881836,0.2677726745605469,0.115273118019104,7.3429356,-6.1048336,1.7572486,0
19,989.8117065429688,-0.37322741746902466,-1.3860201835632324,0.38440829515457153,-0.5124497413635254,39.892757415771484,10.498394012451172,0.7070813179016113,0.4456634521484375,-0.643217921257019,7.099186,-6.366995,1.6672969,0
19,989.7684326171875,-0.1989205777645111,-1.1442056894302368,0.39080116152763367,-0.44446563720703125,40.37598419189453,13.462030410766602,0.6184463500976562,0.47528648376464844,-0.9936091899871826,6.9304523,-6.662486,1.4943593,0
19,989.7684326171875,-0.1989205777645111,-1.1442056894302368,0.39080116152763367,-0.44446563720703125,40.37598419189453,13.462030410766602,0.34659767150878906,0.06903696060180664,-0.9113578796386719,7.2554417,-6.28831,1.122705,0
19,989.8341064453125,0.10987947136163712,-1.1145124435424805,0.44873180985450745,-0.014727115631103516,40.88341522216797,13.905008316040039,0.2005596160888672,-0.010526180267333984,-0.5081106424331665,7.166977,-6.579069,0.5427369,0
19,989.8343505859375,0.6221384406089783,-1.3475388288497925,0.3299551010131836,0.3114495277404785,40.02977752685547,14.135648727416992,0.39131689071655273,0.6967401504516602,-0.5579175353050232,7.1788883,-7.0938563,0.2870756,0
19,989.803466796875,0.78033047914505,-1.2699079513549805,0.2721647024154663,0.37677955627441406,40.407501220703125,13.333635330200195,-0.14087963104248047,0.6508235931396484,-0.06289689242839813,7.4632487,-7.234469,-0.240814,0
19,989.7858276367188,0.6953760385513306,-0.9006609320640564,0.32329750061035156,0.04476022720336914,40.25482177734375,13.085794448852539,-0.20820045471191406,0.8258495330810547,0.28094202280044556,7.4369216,-7.4632626,-0.6053667,0
19,989.7958984375,0.3891131579875946,-0.39146503806114197,0.367239773273468,0.3442521095275879,40.324554443359375,13.035564422607422,-0.3380546569824219,0.5381569862365723,0.5394991636276245,7.4870715,-7.196335,-0.72846466,0
20,989.8060913085938,0.06034654751420021,0.07698450982570648,0.49027785658836365,1.0027763843536377,41.467987060546875,12.867181777954102,-0.6402168273925781,0.11166763305664062,0.6290104389190674,7.5443907,-7.0175877,-0.86576587,0
20,989.821044921875,-0.06695206463336945,0.3225277066230774,0.5906791090965271,2.4330854415893555,40.8053092956543,13.070472717285156,-0.7997050285339355,-0.3732781410217285,0.9434599280357361,7.577812,-6.6362624,-0.99359834,0
20,989.8360595703125,-0.11116013675928116,0.384978711605072,0.6639161109924316,3.844618797302246,41.705501556396484,13.031240463256836,-1.2029829025268555,-0.9718880653381348,1.004108190536499,7.8287134,-6.366951,-1.0172739,0
20,989.8233032226562,-0.14817768335342407,0.2719275653362274,0.6533967852592468,4.842741012573242,41.796722412109375,13.795907020568848,-1.4698572158813477,-0.7199006080627441,0.6927910447120667,7.8525743,-6.862672,-0.45388308,0
20,989.8106079101562,-0.24618154764175415,0.09988744556903839,0.5137143135070801,5.741217136383057,42.00591278076172,13.645215034484863,-1.459364891052246,-0.47956418991088867,-0.3926466107368469,7.831028,-6.9627686,0.21366449,0
20,989.815673828125,-0.23765908181667328,-0.05843740701675415,0.4356839060783386,6.433216094970703,42.389793395996094,14.670882225036621,-1.8255743980407715,-0.8343119621276855,-0.36015021800994873,7.986333,-6.7482724,0.08109765,0
20,989.7953491210938,-0.035391807556152344,-0.28480595350265503,0.3310219347476959,6.80512809753418,43.633209228515625,15.156689643859863,-1.617093563079834,-1.0988216400146484,-0.2761556804180145,7.663658,-6.5433097,-0.013593915,0
20,989.8204956054688,0.050229113548994064,-0.32661759853363037,0.09826201945543289,7.092826843261719,42.79664611816406,14.69940185546875,-1.0830192565917969,-0.976201057434082,-0.354226291179657,7.118722,-6.664856,-0.051472634,0
20,989.8076782226562,0.04450369253754616,-0.15750709176063538,-0.10799949616193771,7.423025608062744,42.315711975097656,14.599675178527832,-0.5469951629638672,-0.7777056694030762,-0.06812044978141785,6.7578087,-6.8745837,-0.24558671,0
20,989.8124389648438,0.016940364614129066,0.050086069852113724,-0.1933535486459732,7.107067584991455,42.44161605834961,14.102107048034668,-0.35146570205688477,-0.35141706466674805,-0.1414821594953537,6.714753,-7.1391263,-0.20298056,0
20,989.8175659179688,0.04410495236515999,0.03250916674733162,-0.2025413066148758,6.238075256347656,42.31241989135742,14.705480575561523,-0.44242048263549805,-0.3654594421386719,0.06141167879104614,6.784022,-7.079544,-0.29057056,0
20,989.7998046875,0.21161800622940063,-0.11929094791412354,-0.16645532846450806,5.69803524017334,41.912654876708984,13.88827896118164,-0.26782941818237305,-0.3758997917175293,0.011537283658981323,6.705117,-7.0509434,-0.23139395,0
20,989.837158203125,0.29657313227653503,-0.2093057632446289,-0.16485728323459625,5.342918872833252,42.31800842285156,13.303407669067383,-0.3171730041503906,-0.3130149841308594,0.11352697014808655,6.7576566,-7.089075,-0.39946884,0
20,989.837158203125,0.3542308807373047,-0.2449921816587448,-0.15433765947818756,5.401320457458496,42.42599105834961,12.287293434143066,-0.18382549285888672,-0.09157419204711914,0.30891191959381104,6.700261,-7.315486,-0.4089411,0
20,989.8221435546875,0.3474401831626892,-0.26762905716896057,-0.1793711930513382,4.999680042266846,42.103004455566406,11.675224304199219,-0.17246675491333008,0.0806589126586914,0.13406245410442352,6.697833,-7.37745,-0.19116198,0
20,989.8245239257812,0.2815273702144623,-0.26536545157432556,-0.18842577934265137,4.736983299255371,41.488502502441406,11.366741180419922,0.13835477828979492,0.00884866714477539,-0.09010037034749985,6.4229565,-7.2130027,0.012413934,0
20,989.8193969726562,0.3318614661693573,-0.3568449914455414,-0.20307298004627228,4.090527534484863,41.46319580078125,10.544025421142578,0.3970193862915039,5.311965942382812E-4,-0.18964692950248718,6.2627945,-7.182019,0.111832954,0
20,989.8321533203125,0.34038394689559937,-0.35205137729644775,-0.18629494309425354,3.4992916584014893,41.437015533447266,9.558884620666504,0.481905460357666,0.07756567001342773,-0.35428255796432495,6.1791415,-7.27735,0.2657005,0
20,989.8270263671875,0.29178163409233093,-0.27894771099090576,-0.15220634639263153,3.278796672821045,40.54600524902344,9.18309211730957,0.5674805641174316,0.16101551055908203,-0.5097048282623291,6.1910863,-7.2678165,0.4077322,0
20,989.7963256835938,0.2837885916233063,-0.27268850803375244,-0.12330885231494904,2.498805522918701,41.08047866821289,8.348199844360352,0.7528467178344727,0.25368499755859375,-0.47583168745040894,6.002249,-7.284499,0.45270577,0
20,989.81884765625,0.30442818999290466,-0.2951921820640564,-0.12277616560459137,2.6486473083496094,39.79884719848633,7.784231185913086,0.7648434638977051,0.06467056274414062,-0.7420504093170166,6.0810795,-7.1129017,0.6373443,0
20,989.8265380859375,0.24996694922447205,-0.23913277685642242,-0.06471916288137436,2.5930228233337402,40.27393341064453,7.149127960205078,0.6705942153930664,0.29390478134155273,-0.6315253973007202,6.167081,-7.2535143,0.5639578,0
