Timestamp,P,Gx,Gy,Gz,Mx,My,Mz,LiAx,LiAy,LiAz,Ax,Ay,Az,earthAx,earthAy,earthAz,Value,Type
0,988.1585083007812,0.0014512308407574892,-0.002189279068261385,4.7708229976706207E-4,-10.179500579833984,22.703290939331055,-39.383934020996094,-0.001018434762954712,-0.005619943141937256,0.05590057373046875,0.0553208,-0.1311536,9.782532,-0.19902487,-5.036752,8.385089,0
0,988.1152954101562,0.002522188238799572,0.0027267918922007084,4.244902520440519E-4,-1.7066397666931152,25.420515060424805,-38.23109817504883,0.9294388890266418,-0.9684550166130066,-0.08121204376220703,0.062232465,-0.14068039,9.791977,-1.0344037,0.8536954,9.700913,0
0,988.0897216796875,3.94148170016706E-4,5.958612309768796E-4,2.923980646301061E-4,-1.638540267944336,25.589345932006836,-37.78956604003906,0.9427069425582886,-0.9769691228866577,-0.08093452453613281,0.059584558,-0.121607766,9.791953,-1.0373123,0.87166774,9.698704,0
0,988.079345703125,-4.023122601211071E-4,5.954576190561056E-4,-1.0600994573906064E-4,-1.574732780456543,25.965604782104492,-38.51427459716797,0.936771035194397,-0.9665448665618896,-0.09960174560546875,0.054546714,-0.12875135,9.791929,-1.0440131,0.8584796,9.6992,0
0,988.1070556640625,3.991221310570836E-4,0.0011276857694610953,2.9452980379574E-4,-2.1376028060913086,25.543745040893555,-38.171905517578125,0.9497469067573547,-0.9510257244110107,-0.11347579956054688,0.042339206,-0.13827811,9.799007,-1.031457,0.87468714,9.706312,0
0,988.1094360351562,-1.310226507484913E-4,0.0011272818082943559,-2.3703608894720674E-4,-1.8030815124511719,26.067655563354492,-38.1771240234375,0.9437836408615112,-0.9783625602722168,-0.08948802947998047,0.044471085,-0.11920549,9.780046,-1.038756,0.8772719,9.68591,0
0,988.08935546875,4.0409620851278305E-4,3.2793055288493633E-4,2.9666145564988256E-4,-1.769331455230713,25.519941329956055,-38.3812255859375,0.9382854700088501,-0.9580991864204407,-0.07029151916503906,0.05377263,-0.14541532,9.777655,-1.0298563,0.8459619,9.687638,0
0,988.1342163085938,-2.5920651387423277E-4,-3.382628783583641E-4,5.640431772917509E-4,-2.0293664932250977,25.802892684936523,-37.818824768066406,0.9228033423423767,-0.9902847409248352,-0.0747232437133789,0.058294415,-0.121576175,9.777632,-1.0117637,0.88583565,9.685655,0
0,988.1468505859375,6.753859343007207E-4,8.597549749538302E-4,-5.0015450688079E-4,-1.9738492965698242,26.434152603149414,-37.556373596191406,0.9409234523773193,-0.9461632966995239,-0.10284042358398438,0.043697,-0.14778592,9.791811,-1.0229553,0.8603406,9.701376,0
0,988.1064453125,4.1155703365802765E-4,4.59877192042768E-4,9.656486799940467E-4,-2.163606643676758,26.204740524291992,-39.05339813232422,0.9444993138313293,-0.9492736458778381,-0.10721492767333984,0.04582885,-0.14062972,9.789421,-1.0191271,0.8663744,9.698732,0
0,988.1139526367188,2.8088619001209736E-4,4.59473580121994E-4,-9.85489459708333E-5,-2.166787624359131,26.095876693725586,-38.199710845947266,0.9147131443023682,-0.9482176899909973,-0.08326148986816406,0.06707993,-0.13824011,9.782295,-0.9922647,0.8733636,9.693791,0
0,988.1213989257812,-1.1610065121203661E-4,3.259119112044573E-4,7.014645962044597E-4,-2.2143969535827637,26.104116439819336,-38.42380905151367,0.9090986251831055,-0.9517145156860352,-0.08298301696777344,0.064432025,-0.14538367,9.789373,-0.9927784,0.86689544,9.701547,0
0,988.1111450195312,-1.1361390352249146E-4,-7.397553417831659E-4,3.674064646475017E-5,-2.0512399673461914,25.730253219604492,-38.65802764892578,0.9272959232330322,-0.9840244650840759,-0.08272075653076172,0.054614365,-0.12392779,9.784615,-1.0050573,0.88279086,9.693687,0
0,988.12353515625,-2.4428474716842175E-4,9.908941574394703E-4,3.0412242631427944E-4,-2.058551788330078,26.35502815246582,-37.84663009643555,0.9163047075271606,-0.9447904229164124,-0.09187030792236328,0.06152606,-0.1382211,9.791693,-0.9917118,0.873991,9.703238,0
0,988.1160888671875,-2.417976502329111E-4,1.9154278561472893E-4,-2.2744358284398913E-4,-2.2294788360595703,26.195302963256836,-38.34983825683594,0.9390767812728882,-0.9576027393341064,-0.09627342224121094,0.046928644,-0.13583155,9.779834,-1.0094911,0.865659,9.690064,0
0,988.0908203125,-1.0615296196192503E-4,-7.517688209190965E-5,-9.321974357590079E-5,-2.1225204467773438,25.45255470275879,-38.24587631225586,0.9236435294151306,-0.9657260179519653,-0.0722818374633789,0.05145037,-0.114375666,9.784544,-1.0090797,0.88278323,9.693064,0
0,988.1259155273438,2.9491959139704704E-5,5.902091506868601E-4,-9.215384488925338E-5,-2.0056958198547363,26.088834762573242,-38.455078125,0.9204040765762329,-0.9404306411743164,-0.08633041381835938,0.0508036,-0.14540108,9.789438,-0.99726295,0.86141354,9.701558,0
0,988.1306762695312,1.3031158596277237E-4,6.060820305719972E-4,-2.203840995207429E-4,-2.185211658477783,25.55198097229004,-38.395999908447266,0.9275686740875244,-0.9526516199111938,-0.07633686065673828,0.04823494,-0.12871374,9.784688,-1.0001367,0.8726265,9.695219,0
0,988.1306762695312,1.3031158596277237E-4,6.060820305719972E-4,-2.203840995207429E-4,-2.185211658477783,25.55198097229004,-38.395999908447266,0.9175424575805664,-0.9613215327262878,-0.08091163635253906,0.052836,-0.119176224,9.782305,-0.9927255,0.8844772,9.692403,0
0,988.1358032226562,-4.029364790767431E-4,7.393400883302093E-4,3.119834582321346E-4,-2.159316062927246,25.99732780456543,-37.88716125488281,0.9018793106079102,-0.9645068645477295,-0.08530139923095703,0.05982697,-0.12632169,9.779921,-0.98593307,0.87342113,9.691824,0
0,988.1204223632812,1.3141799718141556E-4,-1.9304524175822735E-4,4.4587982119992375E-4,-2.027003288269043,26.068212509155273,-37.372806549072266,0.9192500114440918,-0.943827211856842,-0.08017826080322266,0.0548684,-0.13585041,9.784639,-0.9750186,0.8778498,9.697389,0
0,988.1128540039062,-1.3317493721842766E-4,6.056227721273899E-4,-6.186454556882381E-4,-2.375627040863037,26.005250930786133,-37.46936798095703,0.9177758693695068,-0.9280253648757935,-0.08929729461669922,0.04990983,-0.14061256,9.789356,-1.0082119,0.83719635,9.702391,0
0,988.14306640625,5.343375960364938E-4,7.385008502751589E-4,4.788269870914519E-5,-1.708704948425293,25.787328720092773,-38.25224304199219,0.9066946506500244,-0.94059818983078,-0.0652475357055664,0.052120984,-0.13822491,9.777504,-1.0045888,0.8352778,9.690949,0
0,988.1250610351562,6.70941430144012E-4,0.001137415412813425,5.819912767037749E-4,-2.110727310180664,26.358850479125977,-37.83881378173828,0.9136478900909424,-0.9333069920539856,-0.07886028289794922,0.054332137,-0.13345395,9.786957,-0.98058844,0.86440194,9.700336,0
0,988.1250610351562,6.70941430144012E-4,0.001137415412813425,5.819912767037749E-4,-2.110727310180664,26.358850479125977,-37.83881378173828,0.903412938117981,-0.9229462742805481,-0.07394981384277344,0.061323106,-0.13344957,9.784573,-0.9974378,0.83318156,9.698989,0
1,988.12255859375,-1.2628338299691677E-4,4.713459638878703E-4,7.158875232562423E-4,-1.5621519088745117,25.5031795501709,-38.33518981933594,0.9019036293029785,-0.94499272108078,-0.07356834411621094,0.05397463,-0.12629534,9.782189,-0.98878586,0.85468256,9.695457,0
1,988.1047973632812,4.0807132609188557E-4,3.379083937034011E-4,-3.486376372165978E-4,-1.966400146484375,25.91529655456543,-39.066856384277344,0.9095354676246643,-0.9432995319366455,-0.07789039611816406,0.051405966,-0.13344081,9.789274,-0.98700076,0.8491477,9.703356,0
1,988.1471557617188,4.11517103202641E-4,7.368229562416673E-4,-7.46634672395885E-4,-2.0398831367492676,25.898496627807617,-37.97676467895508,0.8986905813217163,-0.941311240196228,-0.082244873046875,0.056007028,-0.1310531,9.78689,-0.97491217,0.8565541,9.701515,0
1,988.11669921875,4.132399335503578E-4,-3.2872037263587117E-4,-8.010654710233212E-5,-2.102031707763672,25.629636764526367,-38.028438568115234,0.9209556579589844,-0.9440930485725403,-0.07709789276123047,0.041488886,-0.13343208,9.777407,-0.98441344,0.8521308,9.691338,0
1,988.11669921875,4.149627638980746E-4,3.3678964246064425E-4,-7.93682411313057E-5,-1.9684953689575195,25.069852828979492,-38.016265869140625,0.9048165678977966,-0.9281164407730103,-0.09090423583984375,0.046089947,-0.13581099,9.791594,-0.9857476,0.8423214,9.706425,0
1,988.126708984375,-1.1594605166465044E-4,7.359838346019387E-4,5.452812183648348E-5,-1.8778114318847656,26.26121711730957,-38.40788650512695,0.9075843095779419,-0.9121410250663757,-0.08575439453125,0.03874147,-0.13818987,9.786842,-0.9908312,0.83632994,9.701634,0
1,988.134033203125,-9.131708648055792E-4,0.0010020199697464705,3.2158236717805266E-4,-1.947134017944336,26.72304344177246,-38.34724044799805,0.901486873626709,-0.9204263687133789,-0.07598686218261719,0.048122317,-0.14295204,9.777357,-0.9740428,0.835709,9.693933,0
1,988.1365356445312,-7.911057327874005E-4,1.9017746672034264E-4,-9.779888205230236E-5,-2.0670032501220703,26.083818435668945,-37.983428955078125,0.899806559085846,-0.9283475279808044,-0.06614208221435547,0.047943532,-0.12864794,9.772606,-0.9684082,0.85303444,9.687992,0
1,988.1564331054688,9.564624633640051E-6,1.8989783711731434E-4,1.6925539239309728E-4,-1.8084897994995117,25.79939079284668,-38.468528747558594,0.9028102159500122,-0.9313589334487915,-0.07994651794433594,0.04298508,-0.13102688,9.777325,-0.9840225,0.8346553,9.692787,0
1,988.1514282226562,1.1287687812000513E-5,-4.761715536005795E-4,9.689414291642606E-4,-1.7065019607543945,25.526426315307617,-38.93017578125,0.8918118476867676,-0.9153209328651428,-0.1032562255859375,0.05236584,-0.13340576,9.798613,-0.9815037,0.8260791,9.715327,0
1,988.1412353515625,-2.533055958338082E-4,1.8933846149593592E-4,-4.950575530529022E-4,-1.635359764099121,25.698217391967773,-38.64325714111328,0.8900635242462158,-0.9272952675819397,-0.07439231872558594,0.052187145,-0.12148495,9.784393,-0.97970325,0.83371747,9.7003565,0
1,988.1261596679688,6.805231678299606E-4,-4.767309292219579E-4,-2.2800330771133304E-4,-1.8115334510803223,25.796445846557617,-38.31391906738281,0.8742836117744446,-0.9299620389938354,-0.055052757263183594,0.056788146,-0.12863041,9.779642,-0.9634218,0.8349064,9.697211,0
1,988.10595703125,4.159300005994737E-4,5.562114529311657E-5,-4.935808246955276E-4,-1.6494626998901367,26.159162521362305,-38.74503707885742,0.8868900537490845,-0.9233506917953491,-0.06885433197021484,0.051829636,-0.1310093,9.774891,-0.97178614,0.8226357,9.692638,0
1,988.1183471679688,-3.812946961261332E-4,-2.109744818881154E-4,-4.928424023091793E-4,-1.3171987533569336,25.31141471862793,-38.82361602783203,0.8758198022842407,-0.9168046712875366,-0.07795143127441406,0.056430697,-0.13100491,9.789078,-0.98261404,0.8040326,9.707439,0
1,988.13330078125,5.525337182916701E-4,4.5453570783138275E-4,0.0011057911906391382,-1.8342256546020508,25.880266189575195,-37.853416442871094,0.8879425525665283,-0.9099045991897583,-0.09167766571044922,0.053862035,-0.12861724,9.7914295,-0.95703167,0.8352338,9.709687,0
1,988.1484985351562,-2.4469109484925866E-4,0.0011200455483049154,5.738978506997228E-4,-2.2501063346862793,25.91231346130371,-37.868194580078125,0.8906532526016235,-0.8984292149543762,-0.06282806396484375,0.04469061,-0.13815986,9.78673,-0.94626445,0.84128034,9.705566,0
1,988.12548828125,-2.4567957734689116E-4,9.870482608675957E-4,-4.917894257232547E-4,-2.2761096954345703,26.57330894470215,-38.749691009521484,0.8876579999923706,-0.9248039126396179,-0.08142566680908203,0.049892783,-0.12863715,9.796238,-0.9410133,0.84943926,9.714849,0
1,988.1356201171875,3.9406423456966877E-4,-3.1017576111480594E-4,-3.4555053571239114E-4,-1.8522138595581055,26.07442283630371,-38.32391357421875,0.8855800628662109,-0.9086509346961975,-0.06679916381835938,0.042589903,-0.12863387,9.777288,-0.95923364,0.82799774,9.695772,0
1,988.1226806640625,-2.704419894143939E-4,4.885636153630912E-4,-8.776323520578444E-4,-2.0567855834960938,25.356077194213867,-38.25035858154297,0.8741261959075928,-0.901744544506073,-0.09950637817382812,0.052016318,-0.13578044,9.800948,-0.9467163,0.82538044,9.721224,0
1,988.1731567382812,3.966313088312745E-4,6.215130561031401E-4,-3.444504109211266E-4,-2.006537437438965,25.824987411499023,-38.97840118408203,0.8673815727233887,-0.9186996221542358,-0.08013153076171875,0.05188316,-0.12624402,9.7891,-0.94616514,0.8293958,9.708861,0
1,988.1577758789062,-2.6787503156811E-4,-3.1080085318535566E-4,9.876791154965758E-4,-1.9683575630187988,25.175771713256836,-38.71533966064453,0.8703237771987915,-0.8928681015968323,-0.08445262908935547,0.049360096,-0.1381572,9.803291,-0.9376661,0.8276361,9.724291,0
1,988.1278686523438,3.991984995082021E-4,0.0010205702856183052,-7.703428855165839E-5,-2.107545852661133,26.467710494995117,-38.6925048828125,0.8633960485458374,-0.9002518653869629,-0.06032276153564453,0.054006726,-0.13815393,9.786708,-0.92562765,0.8281206,9.708714,0
1,988.1527099609375,-1.3215001672506332E-4,-0.0011101651471108198,3.229895664844662E-4,-2.143254280090332,26.275907516479492,-38.13688659667969,0.8758829236030579,-0.9028979539871216,-0.055164337158203125,0.0538736,-0.13100083,9.767759,-0.9226038,0.83091426,9.689559,0
1,988.1627807617188,4.01765457354486E-4,7.53837579395622E-4,-4.7540798550471663E-4,-2.193770408630371,26.387113571166992,-38.90545654296875,0.8593922257423401,-0.8721292018890381,-0.1020498275756836,0.04657072,-0.14053066,9.798519,-0.9401694,0.8101308,9.720736,0
1,988.1627807617188,4.01765457354486E-4,7.53837579395622E-4,-4.7540798550471663E-4,-1.8877849578857422,25.9885311126709,-38.467376708984375,0.8622615337371826,-0.8890410661697388,-0.049538612365722656,0.05838704,-0.13814409,9.767734,-0.9247831,0.80689377,9.691483,0
2,988.1423950195312,-1.2958282604813576E-4,6.204713718034327E-4,5.7773839216679335E-5,-1.8055830001831055,25.69642448425293,-37.9240608215332,0.869805097579956,-0.8920177817344666,-0.0633392333984375,0.05108416,-0.13099106,9.793761,-0.92864096,0.8191372,9.716181,0
2,988.1270141601562,-6.609311094507575E-4,-0.0011107902973890305,-2.0799186313524842E-4,-1.9634933471679688,25.812326431274414,-38.52238464355469,0.8676711320877075,-0.880192756652832,-0.07707595825195312,0.04617119,-0.14528741,9.779546,-0.9287078,0.8008974,9.7035475,0
2,988.1220092773438,-5.264895735308528E-4,2.2058066679164767E-4,3.2518990337848663E-4,-1.9229202270507812,26.64069175720215,-38.885047912597656,0.8659451007843018,-0.8781031966209412,-0.0482635498046875,0.041258246,-0.12860124,9.770065,-0.9253297,0.8216062,9.692325,0
2,988.1421508789062,2.737415488809347E-4,3.5353045677766204E-4,-2.068917383439839E-4,-2.0939855575561523,26.375051498413086,-38.689170837402344,0.8683253526687622,-0.885475754737854,-0.09039783477783203,0.048294753,-0.13336448,9.779521,-0.91203064,0.8211195,9.703253,0
2,988.1647338867188,-1.2444867752492428E-4,2.2016401635482907E-4,4.59448026958853E-4,-2.2553749084472656,25.74995994567871,-38.858680725097656,0.866356372833252,-0.873647153377533,-0.07101249694824219,0.040991902,-0.14051105,9.786611,-0.9190915,0.8099944,9.7107315,0
2,988.1371459960938,-1.2316531501710415E-4,2.1995563292875886E-4,7.26314028725028E-4,-2.101595878601074,26.36768913269043,-38.302650451660156,0.8404039144515991,-0.8807274103164673,-0.061072349548339844,0.055198133,-0.13097467,9.784231,-0.89989614,0.8214195,9.709111,0
2,988.1669921875,2.7759221848100424E-4,4.8606301425024867E-4,-7.208361057564616E-5,-2.2128753662109375,26.1055965423584,-38.50111389160156,0.8432601690292358,-0.8640266060829163,-0.07008838653564453,0.045505345,-0.14050452,9.796055,-0.9050648,0.8133153,9.72131,0
2,988.1392822265625,2.7887546457350254E-4,-8.457246003672481E-4,7.274141535162926E-4,-2.254098415374756,26.751859664916992,-38.609561920166016,0.836088240146637,-0.880837619304657,-0.06014060974121094,0.059711605,-0.13811798,9.784206,-0.8935078,0.80653507,9.71105,0
2,988.1317749023438,8.127910550683737E-4,-1.8014322267845273E-4,6.217448390088975E-5,-2.117518901824951,26.19502830505371,-38.75199508666992,0.8434944152832031,-0.8644328117370605,-0.0881052017211914,0.052408755,-0.1381147,9.798397,-0.8924541,0.8134592,9.724824,0
2,988.154052734375,-2.511891070753336E-4,2.1912221563979983E-4,4.6219839714467525E-4,-2.2881479263305664,26.667444229125977,-38.83032989501953,0.8509188294410706,-0.8477489352226257,-0.08763885498046875,0.042715967,-0.1452613,9.793652,-0.90902984,0.79143566,9.720383,0
2,988.1239624023438,-2.486221492290497E-4,-7.134001352824271E-4,5.964564625173807E-4,-1.570465087890625,25.337888717651367,-39.17106246948242,0.8535394668579102,-0.8694031238555908,-0.058785438537597656,0.040192902,-0.14049144,9.779436,-0.9273677,0.76989293,9.7059765,0
2,988.1388549804688,2.852932084351778E-4,3.5165512235835195E-4,4.638486134354025E-4,-1.6058759689331055,25.77821159362793,-38.190574645996094,0.8321039080619812,-0.8670278787612915,-0.06777381896972656,0.054399133,-0.13333838,9.781791,-0.9048964,0.78425574,9.709287,0
2,988.1087036132812,-2.4605519138276577E-4,2.1828868193551898E-4,1.9808282377198339E-4,-2.2008371353149414,26.011457443237305,-38.42047882080078,0.8300073146820068,-0.8599002957344055,-0.057847023010253906,0.054265976,-0.13571836,9.777044,-0.88045126,0.80347306,9.705216,0
2,988.1210327148438,4.210183396935463E-4,-1.8139334861189127E-4,4.6494879643432796E-4,-1.8401761054992676,25.98029136657715,-38.24327850341797,0.813518762588501,-0.8621307611465454,-0.07630538940429688,0.056522697,-0.13809843,9.786501,-0.8885278,0.78644234,9.715446,0
2,988.1287231445312,4.223015857860446E-4,-5.810756701976061E-4,3.323409182485193E-4,-2.029910087585449,26.17118263244629,-37.917274475097656,0.816556990146637,-0.8502659201622009,-0.06641578674316406,0.061169356,-0.1357118,9.781754,-0.87294585,0.7961371,9.71128,0
2,988.1636962890625,-1.090464647859335E-4,-4.48126025730744E-4,-1.997408107854426E-4,-2.0783605575561523,25.915578842163086,-38.664695739746094,0.8189036846160889,-0.8715846538543701,-0.042311668395996094,0.0590252,-0.123801455,9.767573,-0.8731997,0.802929,9.696242,0
2,988.1283569335938,-3.8562226109206676E-4,-5.651890533044934E-4,-1.9252655329182744E-4,-2.2052650451660156,26.112958908081055,-38.88764190673828,0.8167580366134644,-0.8548423647880554,-0.065521240234375,0.05890715,-0.13333167,9.795969,-0.8684187,0.7988751,9.725735,0
2,988.1207275390625,8.126016473397613E-4,-3.2525218557566404E-5,4.7317848657257855E-4,-2.5612001419067383,26.67476463317871,-38.17280960083008,0.8138734102249146,-0.8508786559104919,-0.055359840393066406,0.044449717,-0.13571204,9.774653,-0.8608474,0.80767614,9.7041645,0
2,988.1156005859375,4.1426531970500946E-4,-0.0010979734361171722,2.073501527775079E-4,-2.007761001586914,26.45564842224121,-38.47622299194336,0.8271180987358093,-0.8494305610656738,-0.06930828094482422,0.049111485,-0.1380925,9.769909,-0.8749505,0.781324,9.700341,0
2,988.1233520507812,5.53310732357204E-4,2.7691363357007504E-5,5.6010670959949493E-5,-2.275268077850342,26.837156295776367,-38.22637176513672,0.824765145778656,-0.8328560590744019,-0.059378623962402344,0.04660356,-0.13093968,9.779367,-0.86494124,0.7993662,9.709182,0
2,988.1282348632812,-2.4449953343719244E-4,8.264543721452355E-4,3.228140703868121E-4,-1.8606643676757812,25.803213119506836,-38.46071243286133,0.8316659331321716,-0.8443927764892578,-0.054106712341308594,0.036925912,-0.1357034,9.78409,-0.88875115,0.77289355,9.713957,0
2,988.1332397460938,6.887438939884305E-4,1.604800345376134E-4,-2.093301445711404E-4,-2.178825855255127,26.19000816345215,-38.28034973144531,0.8104573488235474,-0.856050968170166,-0.05836963653564453,0.04158771,-0.12855066,9.788815,-0.8696196,0.79289836,9.718756,0
2,988.1432495117188,-2.4222431238740683E-4,-5.054944194853306E-4,4.569471057038754E-4,-1.6707706451416016,26.138540267944336,-37.66276931762695,0.8129138946533203,-0.8442835807800293,-0.057918548583984375,0.0438596,-0.12616445,9.784068,-0.8799037,0.775728,9.714415,0
2,988.1178588867188,-2.410865854471922E-4,-3.725211136043072E-4,-2.08355049835518E-4,-2.1727380752563477,26.195905685424805,-38.589569091796875,0.8056678771972656,-0.8369351029396057,-0.06688976287841797,0.043741554,-0.13092817,9.776957,-0.86138374,0.78456926,9.708264,0
3,988.074951171875,-2.3994897492229939E-4,-2.395479241386056E-4,4.579222295433283E-4,-1.6770191192626953,25.606428146362305,-38.47749710083008,0.7989099621772766,-0.8439499139785767,-0.04750537872314453,0.055573046,-0.12615867,9.784046,-0.86638045,0.76842374,9.7162485,0
3,988.112548828125,-2.3881136439740658E-4,-5.06048381794244E-4,-3.405378956813365E-4,-2.3919553756713867,26.306795120239258,-38.71624755859375,0.8062617182731628,-0.8271586298942566,-0.06598091125488281,0.045895398,-0.13807221,9.795872,-0.86752224,0.7615881,9.728702,0
3,988.1226196289062,-3.708318108692765E-4,-3.7307513412088156E-4,-7.373446715064347E-5,-1.867593765258789,25.533475875854492,-38.67481231689453,0.8182452917098999,-0.8343946933746338,-0.051321983337402344,0.03382784,-0.13330267,9.779291,-0.86110866,0.7781462,9.711149,0
3,988.130126953125,1.6293756198137999E-4,5.588456988334656E-4,5.9910991694778204E-5,-2.2249131202697754,26.19972801208496,-38.58175277709961,0.820520281791687,-0.8224787712097168,-0.05558204650878906,0.045659363,-0.13568313,9.781648,-0.8535823,0.76687217,9.715167,0
3,988.1251220703125,-5.0171441398561E-4,-2.402865793555975E-4,-0.001138022867962718,-2.01621150970459,26.184438705444336,-38.61301803588867,0.8133713603019714,-0.810515284538269,-0.05984783172607422,0.04076153,-0.13568021,9.774534,-0.87855875,0.73657614,9.708098,0
3,988.11474609375,-2.3426127154380083E-4,-3.7362915463745594E-4,-6.049036746844649E-4,-1.3674159049987793,26.05476188659668,-39.16731262207031,0.7969152927398682,-0.8170515894889832,-0.054615020751953125,0.047813177,-0.1356773,9.781626,-0.8487003,0.75933045,9.716174,0
3,988.11474609375,-2.3426127154380083E-4,-3.7362915463745594E-4,-6.049036746844649E-4,-1.9799604415893555,26.007963180541992,-39.07018280029297,0.7944839000701904,-0.8052089214324951,-0.068359375,0.045305282,-0.14997412,9.798185,-0.861087,0.730441,9.734166,0
3,988.1174926757812,5.658240988850594E-4,1.5881785657256842E-4,-3.3810033346526325E-4,-1.5977230072021484,25.417287826538086,-38.47864532470703,0.7823851108551025,-0.8217965364456177,-0.06314277648925781,0.054746866,-0.13090493,9.786339,-0.8329909,0.7649942,9.721805,0
3,988.1248779296875,-6.314599886536598E-4,-5.071564228273928E-4,-2.0445484551601112E-4,-2.061756134033203,25.825864791870117,-38.81597137451172,0.780267596244812,-0.8093439936637878,-0.04845142364501953,0.047459155,-0.13805194,9.774491,-0.82897526,0.76163805,9.710545,0
3,988.1273803710938,4.349412629380822E-4,-1.0786723578348756E-4,0.0011276120785623789,-2.245945453643799,26.39093589782715,-38.89763641357422,0.7923376560211182,-0.801656186580658,-0.05742073059082031,0.0449512,-0.13328247,9.774481,-0.8318825,0.760488,9.7103,0
3,988.1121826171875,8.355523459613323E-4,-6.406836910173297E-4,4.6230986481532454E-4,-2.1676292419433594,25.832029342651367,-38.72303009033203,0.7804408073425293,-0.7992677688598633,-0.047499656677246094,0.049613,-0.13327958,9.781572,-0.8236422,0.76097375,9.718124,0
3,988.1222534179688,-9.541551116853952E-5,-2.4139450397342443E-4,-2.0299231982789934E-4,-2.193770408630371,26.387113571166992,-38.90545654296875,0.7922521829605103,-0.786931037902832,-0.04699134826660156,0.044715196,-0.14280982,9.791029,-0.8281001,0.7472006,9.728442,0
3,988.1246337890625,-9.427801705896854E-5,-2.4157913867384195E-4,-6.019786233082414E-4,-2.161540985107422,25.837926864624023,-39.03225326538086,0.775875449180603,-0.803383469581604,-0.051280975341796875,0.04220727,-0.13804032,9.779182,-0.83164513,0.7436016,9.716412,0
3,988.1370239257812,8.401026716455817E-4,2.4367356672883034E-5,-3.3468761830590665E-4,-1.987569808959961,26.000593185424805,-38.683658599853516,0.762451171875,-0.8037094473838806,-0.03155708312988281,0.054038763,-0.13088761,9.776804,-0.81707036,0.7490492,9.714796,0
3,988.1370239257812,8.401026716455817E-4,2.4367356672883034E-5,-3.3468761830590665E-4,-1.987569808959961,26.000593185424805,-38.683658599853516,0.7708151936531067,-0.8120917081832886,-0.05974292755126953,0.046751022,-0.12373488,9.779161,-0.81926495,0.7562045,9.716298,0
3,988.1142578125,4.417662275955081E-4,-1.0897521860897541E-4,-2.0104224677197635E-4,-2.0437679290771484,25.631704330444336,-38.34547424316406,0.773273766040802,-0.7904627919197083,-0.045078277587890625,0.04238686,-0.14042802,9.788668,-0.81849366,0.7405154,9.727345,0
3,988.1219482421875,3.1088339164853096E-4,-3.756604855880141E-4,4.657225508708507E-4,-2.391848087310791,25.20045280456543,-38.343589782714844,0.7794593572616577,-0.7925304174423218,-0.03524208068847656,0.045224845,-0.13567246,9.779241,-0.8030566,0.7522763,9.718189,0
3,988.1292724609375,1.5098287258297205E-4,1.9052508287131786E-4,2.1668476983904839E-4,-1.8520760536193848,26.180341720581055,-39.02299118041992,0.7667608261108398,-0.7757249474525452,-0.03946208953857422,0.049929857,-0.14043717,9.783968,-0.8131696,0.72627765,9.724173,0
3,988.1066284179688,-1.1461239773780107E-4,0.0012556713772937655,-1.824800274334848E-4,-2.1532273292541504,26.00322151184082,-38.196380615234375,0.7497325539588928,-0.7775840759277344,-0.057888031005859375,0.05224496,-0.13090219,9.79343,-0.79694325,0.74748755,9.733309,0
3,988.1165161132812,8.182140300050378E-4,4.5660685282200575E-4,-1.8217117758467793E-4,-2.092899799346924,25.638471603393555,-38.492271423339844,0.7612538933753967,-0.7887900471687317,-0.047881126403808594,0.040220648,-0.12375058,9.774487,-0.80760485,0.7460238,9.713329,0
3,988.1215209960938,4.194610519334674E-4,3.2333191484212875E-4,2.1761158131994307E-4,-2.2164621353149414,26.470937728881836,-38.44495391845703,0.7730255722999573,-0.7715440988540649,-0.03790855407714844,0.04492569,-0.13566507,9.772111,-0.7935181,0.7377423,9.712911,0
3,988.1114501953125,6.864977767691016E-4,-3.4257484367117286E-4,-7.141850073821843E-4,-2.5916624069213867,26.225004196166992,-38.449729919433594,0.7465453147888184,-0.7923861145973206,-0.02319812774658203,0.05202061,-0.12613018,9.76737,-0.7711982,0.7572082,9.708348,0
3,988.114013671875,4.2090273927897215E-4,3.230978036299348E-4,-7.138761575333774E-4,-2.300323009490967,26.655656814575195,-38.211891174316406,0.7474303245544434,-0.7741512656211853,-0.055632591247558594,0.04716599,-0.13327815,9.783934,-0.7809479,0.7394467,9.72567,0
3,988.0938110351562,-3.77324060536921E-4,5.6665041483938694E-5,-4.7777488362044096E-5,-2.0699095726013184,26.18678855895996,-38.52789306640625,0.7460785508155823,-0.7539091110229492,-0.045937538146972656,0.051871,-0.14042617,9.769724,-0.78196454,0.7209399,9.7128105,0
3,988.1162719726562,-3.7660333327949047E-4,3.2286380883306265E-4,-3.1378440326079726E-4,-1.404646873474121,25.861478805541992,-38.534393310546875,0.7338578701019287,-0.7558305859565735,-0.04544258117675781,0.054186106,-0.14519085,9.78392,-0.79880065,0.6913047,9.727956,0
4,988.123779296875,4.2306515388190746E-4,5.643093027174473E-5,-3.134755534119904E-4,-2.0638208389282227,26.19268226623535,-38.837120056152344,0.7406103610992432,-0.7672358155250549,-0.03546428680419922,0.051721454,-0.13327266,9.779179,-0.77761036,0.723182,9.722404,0
4,988.111083984375,2.9062817338854074E-4,7.221036357805133E-4,2.1946520428173244E-4,-2.0834693908691406,26.279447555541992,-38.531227111816406,0.7431334257125854,-0.7641830444335938,-0.044455528259277344,0.05164665,-0.13088755,9.786274,-0.77399224,0.7253051,9.729636,0
4,988.1287231445312,0.0010902966605499387,-8.759087068028748E-4,-4.4601556146517396E-4,-2.2440185546875,25.918203353881836,-38.17741394042969,0.7358595132827759,-0.7568207383155823,-0.025064468383789062,0.04918194,-0.13803555,9.760227,-0.7653051,0.7196785,9.704633,0
4,988.11865234375,-7.731936639174819E-4,-7.707806071266532E-5,6.195568712428212E-4,-1.683650016784668,25.96883201599121,-38.26673126220703,0.7427555322647095,-0.7445847988128662,-0.0340576171875,0.04432735,-0.13803373,9.76969,-0.78551453,0.69859815,9.71405,0
4,988.1135864257812,1.5963276382535696E-4,3.222788218408823E-4,4.867078678216785E-4,-1.8432188034057617,25.977346420288086,-38.08866882324219,0.7350733280181885,-0.751410186290741,-0.06197071075439453,0.053812176,-0.13088204,9.78862,-0.7690876,0.7119149,9.733384,0
4,988.1084594726562,-6.385940359905362E-4,0.0011211094679310918,-4.4508889550343156E-4,-1.907975673675537,26.44359016418457,-38.25994110107422,0.7371225953102112,-0.7344153523445129,-0.052025794982910156,0.041787893,-0.14041333,9.781511,-0.7743217,0.70151794,9.726651,0
4,988.1033935546875,4.2739021591842175E-4,-0.0014090085169300437,8.785183308646083E-5,-2.0343379974365234,26.272680282592773,-38.384437561035156,0.7349503040313721,-0.7602555155754089,-0.03265094757080078,0.04171312,-0.12372853,9.779137,-0.7689575,0.7192321,9.723166,0
4,988.1135864257812,-1.045208191499114E-4,-0.001009651692584157,-4.499714123085141E-5,-1.8647947311401367,26.53684425354004,-38.50300598144531,0.7137322425842285,-0.7479931116104126,-0.04169273376464844,0.05597776,-0.13087653,9.781498,-0.7571675,0.7052906,9.727652,0
4,988.1211547851562,-4.198605893179774E-5,-9.87671548500657E-4,-3.965556970797479E-4,-1.832427978515625,26.09357261657715,-39.328880310058594,0.7211475968360901,-0.7452074885368347,-0.041259765625,0.048733264,-0.13564123,9.772022,-0.76807564,0.6888258,9.718476,0
4,988.1334838867188,9.189260890707374E-5,7.747503696009517E-5,-3.9624673081561923E-4,-1.7405509948730469,25.442014694213867,-39.15094757080078,0.7182061076164246,-0.7421103119850159,-0.03600025177001953,0.05104837,-0.12133981,9.779118,-0.7533878,0.71235514,9.724886,0
4,988.1309204101562,7.584030390717089E-4,-5.884317215532064E-4,0.0010687995236366987,-1.9785757064819336,25.90351676940918,-38.44841003417969,0.7111221551895142,-0.7438803911209106,-0.04027366638183594,0.053363502,-0.12848772,9.786212,-0.7438383,0.70835674,9.733152,0
4,988.1133422851562,4.928080015815794E-4,-3.2223283778876066E-4,-1.2931303353980184E-4,-2.1645851135253906,25.834978103637695,-38.87764358520508,0.7227477431297302,-0.7268179059028625,-0.02086162567138672,0.043729067,-0.14278562,9.774368,-0.75111604,0.68771636,9.722316,0
4,988.0958862304688,2.2721296409144998E-4,-5.6034012231975794E-5,-2.621620078571141E-4,-2.0762953758239746,25.548757553100586,-38.64354705810547,0.7104613780975342,-0.7429149746894836,-0.039310455322265625,0.055603832,-0.1237175,9.786198,-0.7374034,0.70622945,9.733732,0
4,988.0958862304688,2.2721296409144998E-4,-5.6034012231975794E-5,-2.621620078571141E-4,-2.098849296569824,25.738496780395508,-38.88212966918945,0.7029646635055542,-0.716357946395874,-0.03884410858154297,0.048359334,-0.14754851,9.769621,-0.73483706,0.6830657,9.71921,0
4,988.1156616210938,9.477563435211778E-5,7.427966338582337E-4,-2.618531580083072E-4,-2.1868410110473633,26.6568546295166,-38.69135284423828,0.7052282094955444,-0.6940822601318359,-0.047820091247558594,0.055454254,-0.1499299,9.786184,-0.71616936,0.6899742,9.736838,0
4,988.108154296875,6.281282403506339E-4,-1.8942600581794977E-4,-6.610180134885013E-4,-2.482447624206543,26.853918075561523,-38.27240753173828,0.7123928070068359,-0.7244611978530884,-0.018953323364257812,0.038983285,-0.1284868,9.769638,-0.73511595,0.7003678,9.717662,0
4,988.1055908203125,6.288490840233862E-4,-1.8954294500872493E-4,1.3823845074512064E-4,-2.3577680587768555,26.497129440307617,-39.194557189941406,0.6997700929641724,-0.7359864711761475,-0.009108543395996094,0.053600907,-0.12611033,9.762562,-0.73260504,0.6841841,9.711929,0
4,988.0932006835938,2.277122694067657E-4,-9.88220563158393E-4,-3.951060934923589E-4,-1.8090319633483887,26.16768455505371,-38.566978454589844,0.6874788999557495,-0.7095155715942383,-0.018128395080566406,0.055942625,-0.14040883,9.774393,-0.72603494,0.6702843,9.7254925,0
4,988.1207275390625,2.1671660942956805E-4,9.092944674193859E-5,2.7823515119962394E-4,-1.9136810302734375,25.543188095092773,-38.976219177246094,0.6992104053497314,-0.7164470553398132,-0.027162551879882812,0.058284342,-0.13802435,9.762552,-0.7152704,0.6744979,9.714079,0
4,988.1030883789062,-5.817663040943444E-4,2.2401195019483566E-4,2.784342796076089E-4,-1.9926786422729492,26.36446189880371,-38.550193786621094,0.6874128580093384,-0.703917384147644,-0.059864044189453125,0.046286643,-0.13563989,9.790955,-0.7301158,0.6725712,9.741557,0
4,988.113037109375,-4.8670044634491205E-5,-7.081690127961338E-4,-5.203142063692212E-4,-1.9088172912597656,26.179738998413086,-38.783260345458984,0.6897372007369995,-0.7104436159133911,-0.021533966064453125,0.05101818,-0.1356387,9.764912,-0.72094536,0.66752195,9.716436,0
4,988.110595703125,6.175842718221247E-4,-8.414023905061185E-4,-2.5379922590218484E-4,-1.9377574920654297,25.7314510345459,-39.13749313354492,0.701582133769989,-0.6932691335678101,-0.021089553833007812,0.04858011,-0.14278735,9.774376,-0.7232022,0.6560252,9.726654,0
4,988.0904541015625,6.18048885371536E-4,-9.746357100084424E-4,1.4587369514629245E-4,-1.8264775276184082,25.99355125427246,-38.93902587890625,0.6847257614135742,-0.7002434730529785,-0.02067089080810547,0.046141982,-0.13563634,9.772003,-0.71774584,0.66621554,9.723866,0
4,988.1203002929688,-4.4628529576584697E-4,-0.0012411025818437338,-1.2004395830444992E-4,-2.170535087585449,25.93500328063965,-39.26750183105469,0.6761907935142517,-0.7008728384971619,-0.015286445617675781,0.055653393,-0.13801844,9.769632,-0.7007017,0.66631055,9.722803,0
5,988.1354370117188,-4.634697688743472E-5,9.040150325745344E-5,1.3313052477315068E-5,-2.5425310134887695,26.218233108520508,-38.302940368652344,0.6697657108306885,-0.6898536086082458,-0.019766807556152344,0.050825387,-0.13801725,9.771995,-0.68899006,0.6777851,9.725195,0
5,988.1253662109375,4.867493989877403E-4,8.892735932022333E-4,-5.191195523366332E-4,-2.2148332595825195,25.366064071655273,-38.14960479736328,0.6660517454147339,-0.6949740648269653,-0.056977272033691406,0.04838729,-0.12609966,9.790928,-0.70012254,0.67831343,9.743216,0
5,988.1329345703125,2.2089813137426972E-4,-8.418549550697207E-4,-2.5260457186959684E-4,-1.8803129196166992,25.889982223510742,-38.154823303222656,0.6838994026184082,-0.703096330165863,-0.02835369110107422,0.043559283,-0.121331915,9.769619,-0.7101014,0.6687447,9.721657,0
5,988.1153564453125,-3.112691338174045E-4,-7.087723934091628E-4,2.802263479679823E-4,-1.911179542541504,25.9144229888916,-39.229278564453125,0.6623197793960571,-0.6909343004226685,-0.018471717834472656,0.053070694,-0.13801368,9.76488,-0.6981067,0.64845455,9.719408,0
5,988.1077270507812,-4.4488522689789534E-5,2.2325781174004078E-4,6.798992399126291E-4,-2.109365463256836,25.834104537963867,-39.040069580078125,0.6689428091049194,-0.6788238883018494,-0.032233238220214844,0.05780229,-0.13801248,9.769609,-0.684263,0.6534147,9.724839,0
5,988.1279296875,8.913403144106269E-5,4.89498139359057E-4,-2.52007128437981E-4,-1.9890918731689453,25.999120712280273,-38.606353759765625,0.6760610342025757,-0.6756483316421509,-0.027044296264648438,0.048194468,-0.13801129,9.779075,-0.6939654,0.648575,9.7339325,0
5,988.0875244140625,4.890724667347968E-4,-5.758408224210143E-4,2.808236749842763E-4,-2.1220850944519043,26.190610885620117,-38.52008056640625,0.6639275550842285,-0.6822211742401123,-0.012396812438964844,0.052926093,-0.12371044,9.764867,-0.68141663,0.66374195,9.719355,0
5,988.1177978515625,4.895370802842081E-4,-0.00110854790546,2.8102280339226127E-4,-2.073794364929199,25.91999626159668,-38.896610260009766,0.6567634344100952,-0.6749740242958069,-0.02621173858642578,0.052877873,-0.13800894,9.774331,-0.6813595,0.6456316,9.730278,0
5,988.1327514648438,-8.415777119807899E-4,-4.428337560966611E-4,1.4906050637364388E-5,-2.279451847076416,25.938230514526367,-39.01995086669922,0.6590468883514404,-0.667458176612854,-0.021058082580566406,0.050439745,-0.14039104,9.774326,-0.67517436,0.646724,9.730653,0
5,988.1251831054688,-1.7532339552417397E-4,8.972256910055876E-5,1.4826311962679029E-4,-1.97607421875,26.274751663208008,-38.70146942138672,0.646690845489502,-0.659798264503479,-0.030076980590820312,0.05517137,-0.13562329,9.7743225,-0.67489225,0.6412795,9.730985,0
5,988.122802734375,-1.7485866555944085E-4,8.964724838733673E-5,-2.510116610210389E-4,-2.2395591735839844,27.028966903686523,-38.78199005126953,0.6440772414207458,-0.6668385863304138,-0.015472412109375,0.05512315,-0.13085555,9.774319,-0.66431904,0.6519383,9.730937,0
5,988.0975341796875,-8.401837549172342E-4,-4.358612932264805E-5,5.481351399794221E-4,-2.2981204986572266,26.394758224487305,-38.88982009887695,0.6541092395782471,-0.6627800464630127,-0.03375434875488281,0.04551536,-0.13085435,9.781416,-0.6700366,0.6509956,9.737687,0
5,988.1151123046875,2.2554438328370452E-4,7.552861934527755E-4,-0.0010495609603822231,-2.3909759521484375,26.676557540893555,-38.892005920410156,0.6575055718421936,-0.6518961787223816,-0.005133628845214844,0.038297415,-0.14276959,9.762473,-0.66970676,0.63796014,9.719683,0
5,988.1123657226562,-4.0306884329766035E-5,-8.426845888607204E-4,4.1537548531778157E-4,-2.5574750900268555,26.41533851623535,-38.92804718017578,0.650240421295166,-0.6732691526412964,-0.018950462341308594,0.050198734,-0.130852,9.76957,-0.6512092,0.65305865,9.726953,0
5,988.0947265625,-5.724740331061184E-4,2.2250355686992407E-4,1.6100791981443763E-5,-2.181051254272461,26.030607223510742,-39.425445556640625,0.6416773796081543,-0.649951696395874,-0.02305889129638672,0.047760606,-0.1451505,9.776668,-0.6625816,0.6250066,9.735344,0
5,988.1024169921875,9.378028335049748E-5,-4.433616413734853E-4,-5.163317546248436E-4,-2.1356449127197266,26.28326988220215,-38.523414611816406,0.6403860449790955,-0.6583537459373474,-0.04180908203125,0.059661955,-0.12846632,9.783765,-0.6402409,0.6487909,9.742242,0
5,988.12255859375,-7.047027465887368E-4,-1.7712125554680824E-4,-5.161328008398414E-4,-2.421139717102051,26.858930587768555,-38.744056701660156,0.651760995388031,-0.6508457064628601,-0.012987136840820312,0.047799587,-0.13561837,9.781406,-0.64227295,0.6452122,9.740009,0
5,988.1326293945312,-4.422784550115466E-4,0.0010276013053953648,2.0576262613758445E-5,-2.6717991828918457,26.150297164916992,-38.971900939941406,0.6154047250747681,-0.6623013615608215,-0.01728057861328125,0.057316303,-0.12846746,9.779034,-0.6361871,0.6430435,9.738124,0
5,988.12255859375,-3.0918465927243233E-4,6.281377281993628E-4,-7.78398709371686E-4,-2.394455909729004,25.93556022644043,-38.46318817138672,0.6315985918045044,-0.6504335403442383,-0.007411956787109375,0.050103784,-0.13799952,9.757725,-0.64527255,0.62275636,9.717538,0
5,988.1174926757812,-7.082456722855568E-4,9.543891064822674E-5,-2.455900830682367E-4,-2.19765567779541,26.12032127380371,-39.274169921875,0.6387079954147339,-0.6527113914489746,-0.02597332000732422,0.042891234,-0.1260821,9.779026,-0.6512002,0.6341927,9.737598,0
5,988.0999145507812,-4.2043160647153854E-5,-1.7094402574002743E-4,-2.454131899867207E-4,-2.1281723976135254,26.184717178344727,-38.21086120605469,0.6455168724060059,-0.6449607610702515,-0.016068458557128906,0.0404585,-0.13323088,9.776655,-0.650493,0.6238428,9.736018,0
5,988.0999145507812,-4.2043160647153854E-5,-1.7094402574002743E-4,-2.454131899867207E-4,-2.1655635833740234,25.4652156829834,-38.70188903808594,0.6235305070877075,-0.6423184871673584,-0.0014505386352539062,0.049975276,-0.12607996,9.745878,-0.6275692,0.634778,9.705862,0
5,988.1072387695312,2.246855292469263E-4,2.2846285719424486E-4,2.873955527320504E-4,-2.4467382431030273,27.04572105407715,-38.828025817871094,0.6114802360534668,-0.6493793725967407,-0.0010766983032226562,0.054712236,-0.12846224,9.7671795,-0.6180074,0.63536084,9.727881,0
5,988.1072387695312,-9.729258599691093E-4,1.4614243991672993E-4,1.0040818597190082E-4,-2.6076927185058594,27.158689498901367,-39.27173614501953,0.6182183027267456,-0.6464081406593323,-0.029047012329101562,0.049889624,-0.1260779,9.779011,-0.63900435,0.6173307,9.739509,0
5,988.1276245117188,9.275058982893825E-5,1.2917560525238514E-5,5.000589299015701E-4,-1.967240810394287,25.651453018188477,-39.590171813964844,0.6204290390014648,-0.6387839317321777,-0.02390575408935547,0.04984677,-0.12369354,9.77664,-0.6283347,0.62482995,9.737311,0
6,988.1376953125,3.594792797230184E-4,-1.2030743528157473E-4,-3.2395822927355766E-5,-2.210672378540039,25.844690322875977,-39.179046630859375,0.6173995733261108,-0.6168844103813171,-0.02347087860107422,0.054583758,-0.14037545,9.774269,-0.6160587,0.609373,9.736948,0
6,988.1146850585938,9.35763237066567E-5,4.122573300264776E-4,8.998865960165858E-4,-2.3316268920898438,25.942049026489258,-39.01213836669922,0.6004776358604431,-0.628336489200592,-0.023067474365234375,0.052151024,-0.1308413,9.790834,-0.6263039,0.6079416,9.752867,0
6,988.1099853515625,-3.9168691728264093E-5,4.1219027480110526E-4,-6.978316232562065E-4,-1.9899330139160156,25.735273361206055,-39.129676818847656,0.6075974702835083,-0.6208385229110718,-0.013215065002441406,0.054498076,-0.13560681,9.774261,-0.60958976,0.6100746,9.737235,0
6,988.122314453125,2.2755988175049424E-4,1.458073384128511E-4,5.007666768506169E-4,-2.339779853820801,26.3029727935791,-38.72406005859375,0.6098639965057373,-0.6089189648628235,-0.017589569091796875,0.04250574,-0.14037229,9.769524,-0.6276415,0.59298563,9.732395,0
6,988.116943359375,-3.046589554287493E-4,-5.200494197197258E-4,-4.311618977226317E-4,-2.006537437438965,25.824987411499023,-38.97840118408203,0.6072264909744263,-0.6251137256622314,-0.0313873291015625,0.04963261,-0.13322143,9.788456,-0.6209612,0.5972118,9.751503,0
6,988.1348266601562,-3.7930149119347334E-5,-3.8695853436365724E-4,6.342785200104117E-4,-1.898301124572754,26.084138870239258,-38.62532043457031,0.6047425270080566,-0.608294665813446,-0.0073490142822265625,0.047199845,-0.13560365,9.769514,-0.6215868,0.58862567,9.732994,0
6,988.1096801757812,-3.0342029640451074E-4,-5.20250468980521E-4,5.014744820073247E-4,-2.5223402976989746,25.763181686401367,-38.5103759765625,0.5976762771606445,-0.6150193810462952,-0.02591228485107422,0.051936805,-0.13321932,9.778978,-0.5960762,0.6084743,9.74286,0
6,988.1273193359375,3.6278233164921403E-4,-5.203175242058933E-4,5.016514332965016E-4,-2.1287150382995605,26.553007125854492,-38.30931091308594,0.5810035467147827,-0.6170247793197632,-0.0066051483154296875,0.054283887,-0.13321824,9.776608,-0.6005889,0.59624815,9.740974,0
6,988.1045532226562,9.687914280220866E-5,-5.203845794312656E-4,3.6867044400423765E-4,-2.0270261764526367,25.64790916442871,-39.195831298828125,0.5881897211074829,-0.6002213358879089,-0.025186538696289062,0.049461246,-0.13560052,9.778971,-0.6073837,0.5870472,9.743488,0
6,988.112060546875,-5.68497518543154E-4,-6.53609458822757E-4,5.020053358748555E-4,-2.1219468116760254,26.296525955200195,-39.21915817260742,0.6094780564308167,-0.593081533908844,-0.02482891082763672,0.039858818,-0.14274926,9.774233,-0.6107679,0.58015764,9.738992,0
6,988.1220703125,-5.680845933966339E-4,-2.5420275051146746E-4,-4.299232386983931E-4,-2.0668654441833496,26.189733505249023,-38.6825065612793,0.5781553983688354,-0.5950747728347778,-0.014971733093261719,0.056545258,-0.13798167,9.778964,-0.59203255,0.5827035,9.744758,0
6,988.1195678710938,3.644336829893291E-4,-1.2111192336305976E-4,-1.6343046445399523E-4,-1.908273696899414,25.811452865600586,-38.68480682373047,0.5903568267822266,-0.583104133605957,0.009029388427734375,0.04694283,-0.13798065,9.767124,-0.6025488,0.57510316,9.732635,0
6,988.1143188476562,-8.335748570971191E-4,-6.53810566291213E-4,3.693782491609454E-4,-2.053304672241211,26.097074508666992,-38.679176330566406,0.568617045879364,-0.609176516532898,0.014130592346191406,0.05167982,-0.13321303,9.762385,-0.5908048,0.5814163,9.72818,0
6,988.1044311523438,-1.6737222904339433E-4,5.445439019240439E-4,-2.9918563086539507E-5,-2.2684993743896484,26.580678939819336,-39.13621520996094,0.5943662524223328,-0.5874767303466797,-0.0044155120849609375,0.042077363,-0.1308287,9.771851,-0.59292096,0.5869018,9.737143,0
6,988.0969848632812,-3.380159614607692E-5,1.4500308316200972E-4,3.697321517392993E-4,-2.276790142059326,26.8356876373291,-38.14906311035156,0.5772666931152344,-0.5850004553794861,-0.03245258331298828,0.053984046,-0.12844433,9.774214,-0.5762565,0.58929735,9.7403965,0
6,988.116943359375,-8.323363144882023E-4,2.7809402672573924E-4,2.367511624470353E-4,-2.105480670928955,26.10089683532715,-38.671356201171875,0.5601229667663574,-0.6013825535774231,-0.017864227294921875,0.061608434,-0.12130569,9.771889,-0.5707351,0.5888309,9.73837,0
6,988.1145629882812,-1.6613357001915574E-4,4.1118456283584237E-4,1.0377017315477133E-4,-2.0216197967529297,25.916173934936523,-38.90442657470703,0.5615918636322021,-0.5891417860984802,-0.008136749267578125,0.050143868,-0.13323398,9.776667,-0.58220285,0.5720954,9.743574,0
6,988.116943359375,-3.132836427539587E-4,-9.099111775867641E-4,0.0010377636644989252,-2.3195886611938477,25.84791374206543,-38.93149948120117,0.5592213869094849,-0.577243983745575,-0.012545585632324219,0.050141335,-0.14515032,9.769566,-0.57164335,0.5650332,9.737656,0
6,988.1318969726562,-7.127331336960196E-4,1.553483889438212E-4,1.056685287039727E-4,-1.7372093200683594,26.07709312438965,-38.88068389892578,0.5755289793014526,-0.5605291724205017,0.006747245788574219,0.045358956,-0.14753349,9.764831,-0.58674204,0.54574573,9.733121,0
6,988.12451171875,-7.12708686478436E-4,-1.1097150854766369E-4,-2.937947865575552E-4,-1.9864530563354492,26.47627067565918,-39.558494567871094,0.558658242225647,-0.5913251638412476,-0.0023736953735351562,0.054916024,-0.12370063,9.762463,-0.56966394,0.572738,9.729925,0
6,988.0791625976562,-1.8005224410444498E-4,1.5534047270193696E-4,-4.269422497600317E-4,-2.0216188430786133,25.916173934936523,-38.90442657470703,0.5415661931037903,-0.5840316414833069,-0.00675201416015625,0.06686303,-0.13561697,9.781401,-0.5540256,0.56190646,9.750691,0
6,988.1395263671875,-5.795016186311841E-4,8.211262174881995E-4,5.051738116890192E-4,-1.8356094360351562,25.984712600708008,-38.475196838378906,0.5582627654075623,-0.5769758820533752,0.021973609924316406,0.050131172,-0.13085039,9.767197,-0.571355,0.559067,9.735438,0
6,988.1192626953125,-8.457931689918041E-4,1.5533255646005273E-4,-1.60605413839221E-4,-1.8025388717651367,25.699365615844727,-38.078670501708984,0.5413146615028381,-0.5697796940803528,-0.00609588623046875,0.057298332,-0.13323362,9.769565,-0.5613652,0.55498266,9.7387,0
6,988.1170654296875,-1.79978902451694E-4,-3.773032804019749E-4,2.3887894349172711E-4,-2.05428409576416,25.72730827331543,-38.50341796875,0.5576246976852417,-0.5719571113586426,-0.010468482971191406,0.050126076,-0.13085027,9.776665,-0.5649992,0.5563216,9.745464,0
6,988.1119384765625,8.63614259287715E-5,9.54272283706814E-4,1.0573145118542016E-4,-1.850691795349121,26.075895309448242,-38.401222229003906,0.5358083248138428,-0.5643571019172668,-0.024301528930664062,0.05490333,-0.12846686,9.769564,-0.5651831,0.5473204,9.738835,0
7,988.1345825195312,4.8585969489067793E-4,4.216364468447864E-4,6.383737782016397E-4,-1.5614709854125977,25.240808486938477,-38.935813903808594,0.5428066253662109,-0.5663055777549744,0.00446319580078125,0.0477311,-0.1356167,9.771931,-0.56551677,0.54160297,9.7415695,0
7,988.1270141601562,3.5272620152682066E-4,-0.001043104799464345,-6.93195266649127E-4,-1.6670455932617188,25.879114151000977,-38.418006896972656,0.5355152487754822,-0.5540862679481506,-0.004660606384277344,0.05489829,-0.14038314,9.771931,-0.5568036,0.533277,9.742634,0
7,988.1270141601562,3.5272620152682066E-4,-0.001043104799464345,-6.93195266649127E-4,-1.5723700523376465,26.230924606323242,-38.068260192871094,0.5425586104393005,-0.5516276955604553,0.0051364898681640625,0.045336127,-0.14038314,9.764828,-0.55089635,0.54296243,9.735262,0
7,988.0941772460938,-4.6723056584596634E-5,4.216285306029022E-4,2.389208530075848E-4,-2.1361875534057617,26.65155601501465,-38.621864318847656,0.5353481769561768,-0.5634540319442749,7.238388061523438E-4,0.045333624,-0.13323317,9.769563,-0.5502472,0.54653,9.739749,0
7,988.1091918945312,-1.798565499484539E-4,-2.441651886329055E-4,7.715631509199739E-4,-2.0278444290161133,25.804365158081055,-37.89612579345703,0.5279029607772827,-0.5560011863708496,-0.0036602020263671875,0.04772097,-0.13084991,9.764828,-0.542335,0.5485296,9.73531,0
7,988.1369018554688,2.196416025981307E-4,2.88462673779577E-4,3.720998065546155E-4,-2.141732692718506,26.277376174926758,-38.21419143676758,0.5540207624435425,-0.5342721343040466,-0.008052825927734375,0.035768926,-0.13799961,9.786133,-0.5693112,0.52280855,9.756602,0
7,988.1295166015625,-3.1296571251004934E-4,2.2142718080431223E-5,2.3895231424830854E-4,-1.4647302627563477,25.225797653198242,-38.56492233276367,0.5277514457702637,-0.5508258938789368,0.0017337799072265625,0.047715843,-0.13561635,9.774296,-0.5500103,0.5269688,9.745631,0
7,988.099365234375,-5.792570300400257E-4,-7.768088253214955E-4,-8.26300703920424E-4,-1.6338376998901367,25.699689865112305,-38.720558166503906,0.539350152015686,-0.5483765602111816,-0.002666473388671875,0.04532343,-0.12131657,9.77903,-0.54125106,0.5481894,9.749499,0
7,988.0943603515625,3.528730012476444E-4,1.55292684212327E-4,-2.7342583052814007E-5,-2.0095810890197754,25.82204246520996,-38.823787689208984,0.5177857875823975,-0.5556088089942932,0.007106781005859375,0.057270408,-0.12846632,9.764828,-0.52846503,0.53552026,9.736816,0
7,988.12451171875,-4.4605019502341747E-4,-2.441850083414465E-4,-2.7332105673849583E-5,-1.891669750213623,25.721738815307617,-38.836090087890625,0.5103583931922913,-0.5432296991348267,-0.016211509704589844,0.057267874,-0.12369971,9.767195,-0.5216908,0.5418295,9.739145,0
7,988.1068725585938,2.3007974959909916E-5,9.889595676213503E-4,2.070149639621377E-4,-2.0728158950805664,26.289758682250977,-39.072364807128906,0.5319140553474426,-0.5500707030296326,-0.011155128479003906,0.045315802,-0.1308495,9.793234,-0.53346354,0.5329028,9.765144,0
7,988.1143188476562,-1.101252855733037E-4,-3.4262362169101834E-4,8.728151442483068E-4,-2.0131683349609375,26.187387466430664,-38.76763153076172,0.525119423866272,-0.5476553440093994,-0.015604019165039062,0.0453133,-0.12369959,9.783764,-0.5344305,0.53353345,9.755466,0
7,988.1370239257812,1.5621492639183998E-4,-0.0016742071602493525,3.4019388840533793E-4,-1.8166418075561523,26.160314559936523,-38.18045425415039,0.5221962332725525,-0.5403594374656677,0.008411407470703125,0.045310736,-0.14038248,9.76956,-0.5203259,0.523611,9.742749,0
7,988.1318969726562,2.3105996660888195E-5,7.226280285976827E-4,7.3968869401142E-4,-1.8811540603637695,25.626134872436523,-38.67814636230469,0.5101884603500366,-0.5378344655036926,-7.43865966796875E-4,0.054867834,-0.12608276,9.767193,-0.5173117,0.52639985,9.740239,0
7,988.1243286132812,2.313044387847185E-5,7.226239540614188E-4,-5.918802926316857E-4,-1.814577579498291,25.793500900268555,-38.15930938720703,0.5218232274055481,-0.5016374588012695,-3.948211669921875E-4,0.04291576,-0.14991547,9.760091,-0.5261883,0.4986436,9.734382,0
7,988.1093139648438,2.8947077225893736E-4,-6.089593516662717E-4,-3.255538467783481E-4,-1.8711810111999512,25.89881706237793,-38.61865234375,0.5003471970558167,-0.527539074420929,0.009415626525878906,0.05948499,-0.1356119,9.767178,-0.5068211,0.5119862,9.741698,0
7,988.1444702148438,4.23410558141768E-4,7.224931032396853E-4,-1.9206080469302833E-4,-2.084991455078125,26.27797508239746,-38.45392608642578,0.5121762156486511,-0.515502393245697,0.019197463989257812,0.052306414,-0.14276148,9.760076,-0.50581914,0.50693834,9.734955,0
7,988.1192626953125,1.573340268805623E-4,5.848199361935258E-5,7.553221075795591E-5,-1.7768025398254395,25.61849021911621,-38.69377899169922,0.5048978924751282,-0.5129713416099548,0.024244308471679688,0.047517717,-0.14037798,9.767176,-0.5153839,0.50024724,9.741859,0
7,988.1243286132812,4.237355897203088E-4,5.846802378073335E-5,-5.7589117204770446E-5,-1.64837646484375,25.422582626342773,-38.54813766479492,0.49770909547805786,-0.5009787082672119,0.010342597961425781,0.057068467,-0.14752759,9.769543,-0.50582856,0.48857152,9.745482,0
7,988.1217651367188,1.575051574036479E-4,-7.470371201634407E-5,7.41395284421742E-4,-1.9330310821533203,26.2620906829834,-38.245460510253906,0.5193303227424622,-0.5129691958427429,-0.02251434326171875,0.04272014,-0.13084443,9.776644,-0.51153207,0.51023567,9.750881,0
7,988.134521484375,-6.413570372387767E-4,-2.0787556422874331E-4,7.564225234091282E-5,-2.026590347290039,26.385961532592773,-39.47003936767578,0.5072267055511475,-0.49606603384017944,0.0014743804931640625,0.047491074,-0.14037742,9.781378,-0.50361925,0.49928617,9.75676,0
7,988.1041870117188,4.2399216908961535E-4,4.579001688398421E-4,-5.901109543628991E-4,-2.3282852172851562,26.577131271362305,-38.74187469482422,0.5035535097122192,-0.5015539526939392,0.0066814422607421875,0.0498721,-0.1356106,9.764806,-0.4904245,0.5076462,9.7403345,0
7,988.1014404296875,5.572357913479209E-4,-7.474544690921903E-5,-4.5691622653976083E-4,-1.9052305221557617,25.81439781188965,-38.839420318603516,0.5025506019592285,-0.5098451375961304,0.011554718017578125,0.03552383,-0.1308438,9.76954,-0.51176375,0.50111425,9.744193,0
7,988.0990600585938,2.468924503773451E-5,-3.410752397030592E-4,-8.563532610423863E-4,-1.9965639114379883,26.097673416137695,-38.918907165527344,0.49550536274909973,-0.4978923797607422,0.0118408203125,0.042684615,-0.13799341,9.76007,-0.4996303,0.49320602,9.735859,0
8,988.1119384765625,-5.078567191958427E-4,1.9154272740706801E-4,2.0894684712402523E-4,-1.6407666206359863,25.42994499206543,-38.934661865234375,0.47833016514778137,-0.509864866733551,0.007414817810058594,0.05701518,-0.13560988,9.762436,-0.49009112,0.4861674,9.73911,0
8,988.1192626953125,2.4860608391463757E-5,-7.478712359443307E-5,-3.2364827347919345E-4,-1.7091097831726074,26.261537551879883,-39.049774169921875,0.4904190003871918,-0.48844611644744873,-0.0017766952514648438,0.052226484,-0.14037628,9.771904,-0.49117595,0.48145896,9.74882,0
8,988.1343994140625,-3.745275316759944E-4,-3.411168872844428E-4,6.084940396249294E-4,-1.8873486518859863,26.72658348083496,-38.74158477783203,0.48335978388786316,-0.4909437894821167,0.022169113159179688,0.04504788,-0.13560952,9.7577,-0.49103412,0.48729274,9.734195,0
8,988.0965576171875,1.5818967949599028E-4,-4.7428871039301157E-4,3.422148001845926E-4,-1.572530746459961,25.7047061920166,-39.19220733642578,0.49080073833465576,-0.4977458119392395,-0.015415191650390625,0.04264912,-0.14752568,9.788473,-0.4997686,0.46734485,9.765736,0
8,988.1143188476562,8.240649476647377E-4,3.246451378799975E-4,-4.566960851661861E-4,-1.8155250549316406,26.63599967956543,-39.05529022216797,0.46921050548553467,-0.4907180070877075,0.008538246154785156,0.05458975,-0.13560905,9.755331,-0.47814333,0.48094845,9.732826,0
8,988.1469116210938,-1.0795507114380598E-4,3.2463116804137826E-4,-1.9034364959225059E-4,-1.8141412734985352,26.531553268432617,-38.43351364135742,0.485920786857605,-0.4930064082145691,0.027765274047851562,0.04024148,-0.13084225,9.757698,-0.48392248,0.48949754,9.734353,0
8,988.0966796875,-7.73659092374146E-4,-4.743303870782256E-4,3.4232489997521043E-4,-2.084991455078125,26.27797508239746,-38.45392608642578,0.46449658274650574,-0.4906107783317566,0.004370689392089844,0.0497922,-0.12845875,9.776634,-0.47727948,0.48664427,9.753817,0
8,988.104248046875,1.585320569574833E-4,-3.411862999200821E-4,3.423614543862641E-4,-1.9047942161560059,26.55245018005371,-39.11362838745117,0.47675633430480957,-0.4881138205528259,-9.250640869140625E-5,0.04978335,-0.13560833,9.783735,-0.4670677,0.48573923,9.76157,0
8,988.1093139648438,-1.0769849177449942E-4,-4.7435815213248134E-4,-8.560233400203288E-4,-2.3052945137023926,27.12544822692871,-38.777503967285156,0.47472238540649414,-0.46642810106277466,0.019121170043945312,0.054554284,-0.14275806,9.760063,-0.46350873,0.47014946,9.738907,0
8,988.1093139648438,-1.0769849177449942E-4,-4.7435815213248134E-4,-8.560233400203288E-4,-2.095369338989258,26.4794979095459,-39.310943603515625,0.47262030839920044,-0.48313724994659424,0.014646530151367188,0.042595863,-0.13084142,9.76243,-0.47200224,0.48124933,9.740102,0
8,988.09912109375,0.0012239665957167745,-6.075300043448806E-4,6.087507354095578E-4,-2.146458625793457,25.746736526489258,-39.106224060058594,0.4604516625404358,-0.47116410732269287,0.005469322204589844,0.059316307,-0.13799103,9.774264,-0.45177907,0.47391492,9.753467,0
8,988.0992431640625,2.5630812160670757E-5,-2.080699778161943E-4,-4.56476176623255E-4,-2.194748878479004,26.01735496520996,-38.729698181152344,0.4577467441558838,-0.46890729665756226,0.0010194778442382812,0.049747825,-0.14037408,9.781364,-0.46566063,0.46316662,9.7604265,0
8,988.1167602539062,-1.074416795745492E-4,9.903374593704939E-4,-3.232815652154386E-4,-1.8440604209899902,25.7134952545166,-38.61198425292969,0.4647667407989502,-0.4668140411376953,0.0012836456298828125,0.059298515,-0.13560726,9.783731,-0.44790086,0.47170347,9.7632065,0
8,988.1141967773438,-6.399879930540919E-4,5.908498424105346E-4,7.622901466675103E-5,-2.141594886779785,26.383291244506836,-38.91326904296875,0.4290883541107178,-0.4836716651916504,-0.0031957626342773438,0.06645936,-0.12130736,9.7813635,-0.43779895,0.4840979,9.760543,0
8,988.1065063476562,-6.399023113772273E-4,5.908359889872372E-4,-4.5636616414412856E-4,-2.1440963745117188,26.012060165405273,-38.66020965576172,0.4510730504989624,-0.47649508714675903,-0.012415885925292969,0.05211109,-0.12845708,9.7718935,-0.44469032,0.47877514,9.751007,0
8,988.134521484375,-1.0718486737459898E-4,-3.412836231291294E-4,-3.2317149452865124E-4,-2.3760318756103516,26.47945213317871,-38.26689910888672,0.4536641538143158,-0.4599553346633911,0.006773948669433594,0.047322392,-0.1332234,9.776627,-0.46140352,0.45865828,9.755981,0
8,988.1142578125,-3.734154161065817E-4,-7.407712982967496E-4,4.7581279068253934E-4,-1.6585946083068848,26.150327682495117,-38.281211853027344,0.466663122177124,-0.45284736156463623,0.021300315856933594,0.034595907,-0.14750399,9.774189,-0.47028303,0.44319266,9.75398,0
8,988.1142578125,2.614420372992754E-5,-2.081534476019442E-4,-9.88887855783105E-4,-1.7607421875,25.897069931030273,-38.94350814819336,0.4643317461013794,-0.4455609917640686,0.02631378173828125,0.04172635,-0.14273642,9.759982,-0.46158993,0.4431411,9.74012,0
8,988.1141967773438,4.2986118933185935E-4,-6.87168212607503E-5,-5.830923328176141E-4,-1.642533302307129,26.42889976501465,-38.53093719482422,0.4428293704986572,-0.45737266540527344,0.017122268676757812,0.051246643,-0.1403522,9.769447,-0.44281504,0.45112175,9.750118,0
8,988.1115112304688,1.6482191858813167E-4,4.6370772179216146E-4,-4.991350579075515E-5,-2.055668354034424,25.831754684448242,-39.12519073486328,0.45035263895988464,-0.4456246495246887,0.003162384033203125,0.041647732,-0.14273454,9.771811,-0.45155913,0.44556358,9.752331,0
8,988.1014404296875,6.978323799557984E-4,6.417243275791407E-5,-1.8290910520590842E-4,-1.964035987854004,26.18061637878418,-38.62083435058594,0.43878641724586487,-0.438579797744751,-0.006061553955078125,0.053557932,-0.14750011,9.778909,-0.43400642,0.44292092,9.7604885,0
8,988.1014404296875,2.9911630554124713E-4,-2.022664702963084E-4,-9.815319208428264E-4,-2.1248836517333984,25.187238693237305,-38.691890716552734,0.4415692090988159,-0.4649738073348999,0.017847061157226562,0.041569114,-0.13081624,9.76707,-0.44384962,0.45611107,9.747279,0
8,988.1117553710938,-8.989264606498182E-4,-0.001001275610178709,-1.8242202349938452E-4,-1.9157462120056152,25.910001754760742,-38.99736785888672,0.44784706830978394,-0.4477584958076477,-0.010211944580078125,0.041529834,-0.1379651,9.7718,-0.44608265,0.44302213,9.752619,0
8,988.1068725585938,-6.657704361714423E-4,2.5151047157123685E-4,-7.647997117601335E-4,-1.7452244758605957,26.543935775756836,-39.29168701171875,0.4326190650463104,-0.4610183835029602,0.013568878173828125,0.04866022,-0.13558088,9.767063,-0.43998596,0.4400814,9.748282,0
8,988.0990600585938,2.667140797711909E-4,-4.143406986258924E-4,-6.314794882200658E-4,-1.8786535263061523,25.997373580932617,-38.93120574951172,0.42573508620262146,-0.43477320671081543,0.009088516235351562,0.06057048,-0.14034642,9.762323,-0.42279598,0.43559116,9.744631,0
9,988.1091918945312,-2.6553875068202615E-4,2.513874787837267E-4,8.334203157573938E-4,-1.9128398895263672,25.807031631469727,-38.45289611816406,0.4320772588253021,-0.4359513521194458,0.0189361572265625,0.050971568,-0.14034544,9.769423,-0.42923775,0.43501395,9.751431,0
9,988.1268310546875,8.001033565960824E-4,-4.1446374962106347E-4,-4.979968653060496E-4,-2.273501396179199,25.83820152282715,-38.630096435546875,0.44533225893974304,-0.43465667963027954,0.014332771301269531,0.043762565,-0.14272775,9.769419,-0.4276948,0.4365279,9.751428,0
9,988.1217041015625,5.341661744751036E-4,-0.0016129466239362955,3.4797267289832234E-5,-1.7068843841552734,26.420942306518555,-37.90467834472656,0.41979241371154785,-0.4418143033981323,0.019292831420898438,0.06045255,-0.13557698,9.77415,-0.41914725,0.4321763,9.756721,0
9,988.1369018554688,-1.3124459655955434E-4,-1.5112862456589937E-5,3.495963755995035E-5,-1.8801746368408203,25.995893478393555,-38.85390090942383,0.4272453188896179,-0.4257490634918213,-0.0041675567626953125,0.05085361,-0.14034258,9.774146,-0.424161,0.42797142,9.756698,0
9,988.1016235351562,-2.640237216837704E-4,-2.814902109093964E-4,4.345958004705608E-4,-1.7351436614990234,25.71027183532715,-38.85953903198242,0.4205537736415863,-0.4471275806427002,-0.003926277160644531,0.05081433,-0.11889209,9.774142,-0.42486963,0.44445854,9.755641,0
9,988.1192016601562,8.016186184249818E-4,1.1792202712967992E-4,1.6844228957779706E-4,-1.8143019676208496,26.005334854125977,-39.557464599609375,0.4234733581542969,-0.4163070321083069,0.005767822265625,0.043605328,-0.1403407,9.771771,-0.4289321,0.42163965,9.754352,0
9,988.0762939453125,-2.632660907693207E-4,-1.4845532132312655E-4,3.544671926647425E-5,-1.902186393737793,25.81734275817871,-38.99403381347656,0.4161299765110016,-0.42814046144485474,0.024976730346679688,0.048345804,-0.13318987,9.757565,-0.418665,0.42778298,9.740219,0
9,988.1016845703125,3.4286058507859707E-6,6.504308548755944E-4,3.560897312127054E-5,-2.0040359497070312,26.196226119995117,-39.23146057128906,0.4139770269393921,-0.43100404739379883,0.03466320037841797,0.048306525,-0.12842228,9.759929,-0.41484112,0.4325032,9.74248,0
9,988.1016845703125,-2.6250857627019286E-4,5.172114470042288E-4,1.6892931307666004E-4,-1.874086856842041,26.00179100036621,-39.163124084472656,0.4112800359725952,-0.4289567470550537,0.0159759521484375,0.053047,-0.13795443,9.767027,-0.40980056,0.41936016,9.750533,0
9,988.0814819335938,-3.9528770139440894E-4,9.166236850433052E-4,5.6856544688344E-4,-1.9245796203613281,26.533300399780273,-38.10866165161133,0.4091646671295166,-0.4127936363220215,-0.0027484893798828125,0.053007722,-0.14033677,9.771757,-0.40605447,0.41721302,9.75555,0
9,988.1115112304688,-9.275406482629478E-4,0.0010497202165424824,-3.633777960203588E-4,-2.0462379455566406,26.47273063659668,-39.164154052734375,0.3971885144710541,-0.41050446033477783,-0.011967658996582031,0.052968442,-0.14033581,9.783589,-0.40278786,0.4169678,9.7675495,0
9,988.08642578125,9.370494517497718E-4,3.838689881376922E-4,9.68364009167999E-4,-2.0779242515563965,26.65363121032715,-38.93889617919922,0.40467700362205505,-0.4273359179496765,0.016668319702148438,0.060098857,-0.13318504,9.7717495,-0.39211655,0.42193764,9.755852,0
9,988.1091918945312,-6.604671361856163E-4,-2.819822111632675E-4,-2.2989517310634255E-4,-1.745798110961914,25.69996452331543,-38.31840133666992,0.421416312456131,-0.42058783769607544,0.0026922225952148438,0.0361605,-0.1308008,9.783583,-0.41330475,0.42400545,9.766591,0
9,988.09912109375,5.701498594135046E-6,0.0010495358146727085,8.355307509191334E-4,-2.0865135192871094,26.27650260925293,-38.37662124633789,0.40939125418663025,-0.432794988155365,0.021867752075195312,0.0480707,-0.13079984,9.764642,-0.40000015,0.4188652,9.7484455,0
9,988.091552734375,-1.2707762653008103E-4,0.0011826322879642248,3.674547770060599E-5,-1.9650154113769531,25.810853958129883,-38.4450798034668,0.39273273944854736,-0.4019511938095093,0.007902145385742188,0.052811205,-0.13794874,9.77174,-0.3924578,0.41066337,9.756334,0
9,988.0965576171875,1.39616837259382E-4,2.50465061981231E-4,1.7006570124067366E-4,-2.035722255706787,26.377126693725586,-39.00621032714844,0.4005790948867798,-0.4044327139854431,-0.0013532638549804688,0.048449516,-0.13795896,9.778879,-0.39618757,0.40803656,9.76342,0
9,988.1141357421875,1.3780820881947875E-4,-8.145047468133271E-4,3.024484612978995E-4,-1.97096586227417,25.910879135131836,-38.834938049316406,0.39755725860595703,-0.4023209810256958,0.03191852569580078,0.04889515,-0.13558657,9.767084,-0.3964403,0.404382,9.75172,0
9,988.1141357421875,1.3780820881947875E-4,-8.145047468133271E-4,3.024484612978995E-4,-1.7637863159179688,25.89411735534668,-38.78889465332031,0.40990838408470154,-0.40957051515579224,0.013197898864746094,0.041722924,-0.14035316,9.778919,-0.39594525,0.40415806,9.763636,0
9,988.091552734375,5.285395891405642E-4,-1.4015508349984884E-4,3.7334655644372106E-5,-2.113633155822754,26.461820602416992,-38.38328552246094,0.3840058445930481,-0.3980844020843506,0.003928184509277344,0.058449686,-0.14035301,9.774185,-0.3782341,0.4005943,9.75983,0
9,988.106689453125,1.2909021461382508E-4,-4.064748645760119E-4,-3.621287760324776E-4,-2.043332099914551,26.3697566986084,-38.61968231201172,0.39150944352149963,-0.4011407494544983,0.01831817626953125,0.046497643,-0.13558646,9.767083,-0.38601133,0.40502986,9.752097,0
9,988.1014404296875,-6.69832865241915E-4,2.5931093841791153E-4,-3.621182404458523E-4,-2.1551551818847656,26.475950241088867,-38.916603088378906,0.38484126329421997,-0.3989712595939636,0.004319190979003906,0.05605474,-0.13081978,9.778919,-0.38305104,0.40061945,9.7642355,0
9,988.0940551757812,-1.3717677211388946E-4,-8.05956544354558E-4,4.368398804217577E-4,-1.652505874633789,26.156217575073242,-38.590431213378906,0.3921703100204468,-0.38716644048690796,0.009276390075683594,0.048882484,-0.14273612,9.776552,-0.38477877,0.3893389,9.7623825,0
9,988.1267700195312,-2.703102654777467E-4,0.0011914086062461138,5.70008356589824E-4,-1.852076530456543,26.180341720581055,-39.02299499511719,0.38539576530456543,-0.4041067361831665,0.0378875732421875,0.046490014,-0.13796951,9.755247,-0.38546163,0.38959926,9.740928,0
9,988.1141967773438,0.0010612935293465853,3.924568882212043E-4,-2.2892880951985717E-4,-1.7691926956176758,25.625852584838867,-39.08030700683594,0.3786070644855499,-0.38765329122543335,0.019156455993652344,0.051267266,-0.13796945,9.774183,-0.37607515,0.39181608,9.760193,0
10,988.096435546875,-3.945373464375734E-6,-0.001205442356877029,5.700292531400919E-4,-1.9609928131103516,26.183565139770508,-38.77544403076172,0.3863236606121063,-0.39047884941101074,0.009873390197753906,0.04409504,-0.1355861,9.767082,-0.38079366,0.39219934,9.752815,0
10,988.1268310546875,-1.3707898324355483E-4,3.924490883946419E-4,3.740796819329262E-5,-1.9709653854370117,25.910879135131836,-38.834938049316406,0.3747362494468689,-0.378822922706604,0.010076522827148438,0.053652108,-0.14035262,9.776551,-0.3683399,0.38703486,9.763097,0
10,988.1192016601562,1.292614615522325E-4,-7.028866093605757E-6,-6.283711991272867E-4,-2.0466737747192383,25.73467445373535,-38.88994598388672,0.35868990421295166,-0.3816335201263428,0.033928871154785156,0.06798899,-0.14273582,9.759979,-0.35450017,0.37898183,9.747457,0
10,988.1115112304688,-4.033215227536857E-4,1.2612115824595094E-4,-2.2887642262503505E-4,-1.9413447380065918,26.096799850463867,-39.08133316040039,0.36195966601371765,-0.3987215757369995,0.010427474975585938,0.05364704,-0.13558592,9.781284,-0.3670211,0.38646835,9.767842,0
10,988.0814819335938,3.956506843678653E-4,-5.396724445745349E-4,-9.57080046646297E-5,-1.712590217590332,25.520536422729492,-38.62095642089844,0.369404673576355,-0.37758487462997437,0.005894660949707031,0.06081423,-0.13081928,9.774183,-0.36062694,0.38573134,9.760975,0
10,988.0965576171875,5.288330721668899E-4,1.261132420040667E-4,1.7061835387721658E-4,-2.1606998443603516,26.10176658630371,-38.50893020629883,0.35776668787002563,-0.3895597457885742,0.006107330322265625,0.063201606,-0.12128611,9.769448,-0.34837124,0.39941996,9.75602,0
10,988.0839233398438,2.625415218062699E-4,9.250569855794311E-4,-3.620029310695827E-4,-1.9680595397949219,25.80790901184082,-38.29047393798828,0.3556414544582367,-0.39229750633239746,0.02997875213623047,0.058419257,-0.13558574,9.762346,-0.35377985,0.38028878,9.749639,0
10,988.1192626953125,-0.001069013262167573,1.2610526755452156E-4,-6.28308451268822E-4,-2.1456174850463867,26.010583877563477,-38.58290481567383,0.36341431736946106,-0.3619360327720642,0.0064754486083984375,0.056026816,-0.15226854,9.781283,-0.3528581,0.3653828,9.769432,0
10,988.106689453125,2.62590532656759E-4,-5.396883352659643E-4,-6.282978574745357E-4,-2.2735018730163574,25.83820152282715,-38.630096435546875,0.35122421383857727,-0.3687111735343933,0.0019960403442382812,0.05841419,-0.1284358,9.769447,-0.34464118,0.3877375,9.756684,0
10,988.0865478515625,-4.0317472303286195E-4,-4.065343819092959E-4,4.369761445559561E-4,-1.975095272064209,26.644514083862305,-38.877227783203125,0.35975152254104614,-0.38229960203170776,0.011545181274414062,0.05602175,-0.13081895,9.771814,-0.3512433,0.38019055,9.759135,0
10,988.0990600585938,-6.694661569781601E-4,-5.396962515078485E-4,1.7067076987586915E-4,-1.8449020385742188,25.44965171813965,-39.135311126708984,0.3391289710998535,-0.39003193378448486,0.0117034912109375,0.070358634,-0.1260524,9.778915,-0.33760765,0.38163865,9.766699,0
10,988.0941772460938,-0.0010689154732972383,-2.733843866735697E-4,3.0383915873244405E-4,-2.1932268142700195,26.018827438354492,-38.8070068359375,0.36128342151641846,-0.369215726852417,0.007132530212402344,0.04884696,-0.13558538,9.776548,-0.35169253,0.3757509,9.764057,0
10,988.1041259765625,-9.447475895285606E-5,9.879510616883636E-5,-7.902168435975909E-4,-1.7206048965454102,25.98737907409668,-39.03196334838867,0.34961313009262085,-0.3672959804534912,0.012054443359375,0.06557372,-0.13320209,9.774181,-0.34010726,0.3690548,9.762417,0
10,988.1093139648438,-6.270820740610361E-4,9.879120625555515E-5,-5.238904268480837E-4,-2.4767956733703613,26.12175178527832,-38.30742263793945,0.36238786578178406,-0.3608947992324829,0.012203216552734375,0.056011558,-0.13558526,9.774181,-0.33595937,0.37627116,9.762259,0
10,988.0966796875,3.8732076063752174E-5,-0.0010996342170983553,-1.2440606951713562E-4,-2.2199416160583496,25.729936599731445,-38.01613998413086,0.3465820848941803,-0.3684479594230652,0.012366294860839844,0.058398962,-0.13320197,9.759977,-0.3350765,0.3726436,9.748188,0
10,988.1116943359375,-2.2755935788154602E-4,-1.6753259114921093E-4,-3.9071153150871396E-4,-1.8621864318847656,25.801740646362305,-38.38340759277344,0.34921717643737793,-0.3568875193595886,0.00308990478515625,0.051226735,-0.13320188,9.7765465,-0.3464754,0.36633393,9.764578,0
10,988.091552734375,1.7193902749568224E-4,7.645690347999334E-4,8.772796718403697E-6,-2.058849811553955,25.722890853881836,-38.271507263183594,0.34265345335006714,-0.3742797374725342,0.01746368408203125,0.051128924,-0.12843294,9.771804,-0.34120005,0.37218562,9.759729,0
10,988.0940551757812,-7.595713250339031E-4,7.644721772521734E-4,-6.567616946995258E-4,-2.2052650451660156,26.112958908081055,-38.88764190673828,0.35005563497543335,-0.3485409617424011,0.02711772918701172,0.04634279,-0.14511572,9.776538,-0.34259486,0.3556577,9.765247,0
10,988.11669921875,-9.33848787099123E-5,3.649340942502022E-4,-1.2395984958857298E-4,-2.0137104988098145,26.55567741394043,-38.86608123779297,0.33386561274528503,-0.3705478310585022,0.04622364044189453,0.06067586,-0.12843265,9.750498,-0.32792914,0.36619386,9.739135,0
10,988.1041870117188,-9.332364425063133E-5,-7.003393839113414E-4,-7.897234754636884E-4,-1.8678383827209473,26.533899307250977,-38.348392486572266,0.3273807466030121,-0.35467004776000977,0.017966270446777344,0.058279604,-0.13796557,9.769435,-0.33249018,0.35334158,9.75853,0
10,988.106689453125,-4.927364643663168E-4,8.975460659712553E-4,4.087242705281824E-4,-1.7993574142456055,25.808229446411133,-38.93235778808594,0.3446817994117737,-0.33863186836242676,0.008657455444335938,0.04393384,-0.14273198,9.771802,-0.34299755,0.34919626,9.760677,0
10,988.1117553710938,-2.263594651594758E-4,9.858841076493263E-5,-1.2388138566166162E-4,-1.9443883895874023,26.093847274780273,-38.92672348022461,0.33278152346611023,-0.341433048248291,0.004116058349609375,0.058266938,-0.14511512,9.786003,-0.32431626,0.34782195,9.775693,0
10,988.1115112304688,1.7317547462880611E-4,4.980523372069001E-4,4.0877662831917405E-4,-2.121105670928955,26.56036949157715,-38.695838928222656,0.3357442319393158,-0.34441351890563965,0.013747215270996094,0.060650498,-0.13558184,9.767066,-0.32426763,0.34988618,9.756538,0
10,988.104248046875,-2.2623734548687935E-4,6.312004989013076E-4,9.328941814601421E-6,-1.764329433441162,26.26241111755371,-38.88734817504883,0.33884018659591675,-0.35696113109588623,0.009164810180664062,0.053474486,-0.12843181,9.767065,-0.32987553,0.35515833,9.756022,0
10,988.104248046875,-2.2623734548687935E-4,6.312004989013076E-4,9.328941814601421E-6,-1.720743179321289,25.8814640045166,-38.3328857421875,0.332165390253067,-0.3264274597167969,0.03300952911376953,0.046298385,-0.14511462,9.755228,-0.32854953,0.3421765,9.744878,0
11,988.1393432617188,3.064556512981653E-4,-1.67757214512676E-4,-2.5696074590086937E-4,-2.1988792419433594,26.750986099243164,-38.77198791503906,0.3253554105758667,-0.3528794050216675,0.028461456298828125,0.055851668,-0.12604822,9.759962,-0.31888533,0.35708028,9.749187,0
11,988.1091918945312,7.059904746711254E-4,3.648647107183933E-4,-5.232504336163402E-4,-2.0372438430786133,26.375654220581055,-38.92890167236328,0.33807551860809326,-0.3225255012512207,0.01914215087890625,0.051065505,-0.14988084,9.778899,-0.32655895,0.32932907,9.769177,0
11,988.1345825195312,-4.92369756102562E-4,3.6485481541603804E-4,5.420392844825983E-4,-1.7719392776489258,26.25504493713379,-38.500823974609375,0.3409997522830963,-0.3445819616317749,0.02877044677734375,0.043889463,-0.13796435,9.759962,-0.3268003,0.34266815,9.749544,0
11,988.0940551757812,1.7348129767924547E-4,-1.6778698773123324E-4,-2.5688204914331436E-4,-2.0792016983032227,25.651731491088867,-39.18801498413086,0.3102112114429474,-0.3284456133842468,0.028942108154296875,0.06778216,-0.14511408,9.764696,-0.29947165,0.33493215,9.75567,0
11,988.091552734375,-3.590893466025591E-4,2.316769678145647E-4,-2.568558556959033E-4,-2.202221393585205,26.115903854370117,-39.04225158691406,0.3230949938297272,-0.3408282995223999,0.043292999267578125,0.046266675,-0.12604763,9.755226,-0.32627356,0.34509125,9.744586,0
11,988.1117553710938,3.0676135793328285E-4,4.979829536750913E-4,-6.563036004081368E-4,-1.6627779006958008,25.251394271850586,-39.074790954589844,0.32608142495155334,-0.3337247967720032,0.029273033142089844,0.046260357,-0.14511366,9.757592,-0.3152028,0.33309817,9.747999,0
11,988.1318969726562,8.394543547183275E-4,-8.336064056493342E-4,-5.23119349963963E-4,-2.3158411979675293,26.008790969848633,-37.86370849609375,0.33373022079467773,-0.3223571181297302,0.015231132507324219,0.041474164,-0.1355805,9.781263,-0.3186136,0.34208483,9.771114,0
11,988.1143188476562,0.0011058312375098467,6.311209872364998E-4,-6.562512135133147E-4,-2.3220901489257812,25.476682662963867,-38.678436279296875,0.3317800462245941,-0.32499247789382935,0.03908061981201172,0.039077938,-0.14273013,9.769426,-0.32286173,0.328468,9.7596855,0
11,988.0967407226562,3.069447120651603E-4,-3.467861097306013E-5,-5.230669630691409E-4,-2.057190418243408,25.83028221130371,-39.047889709472656,0.3206022381782532,-0.33745312690734863,0.025025367736816406,0.046241343,-0.13558014,9.769426,-0.31522375,0.3323807,9.759731,0
11,988.0842895507812,7.064796518534422E-4,8.974170777946711E-4,-9.225147077813745E-4,-1.9594707489013672,26.185041427612305,-38.852752685546875,0.3280526399612427,-0.32591331005096436,0.03940391540527344,0.04145518,-0.12366359,9.762324,-0.31423444,0.3449342,9.75204,0
11,988.1219482421875,1.7397012561559677E-4,8.973971707746387E-4,-2.566726179793477E-4,-2.1305360794067383,25.919401168823242,-38.65687561035156,0.31187912821769714,-0.3241302967071533,0.011150360107421875,0.051008463,-0.14272965,9.778894,-0.3044091,0.32427835,9.769951,0
11,988.1016235351562,1.7403112724423409E-4,2.3159751435741782E-4,-6.561202462762594E-4,-1.8415594100952148,26.08473777770996,-38.86505126953125,0.31026753783226013,-0.30809903144836426,0.01129150390625,0.051002085,-0.14034618,9.771793,-0.30644748,0.32084945,9.7628565,0
11,988.0967407226562,-4.916973412036896E-4,-7.00517906807363E-4,1.4285373617894948E-4,-1.8379735946655273,25.719392776489258,-38.92121124267578,0.3075356185436249,-0.3200764060020447,0.020972251892089844,0.050995767,-0.1379628,9.769424,-0.30436796,0.3216051,9.760492,0
11,988.0916137695312,-2.2532022558152676E-4,0.0010305253090336919,9.721959941089153E-6,-1.9860477447509766,26.002065658569336,-38.760963439941406,0.32049253582954407,-0.3185158967971802,0.030565261840820312,0.041429818,-0.13796262,9.759954,-0.30980897,0.32194132,9.750787,0
11,988.104248046875,-3.5841716453433037E-4,-8.336957544088364E-4,1.4290609396994114E-4,-2.1075453758239746,26.467710494995117,-38.6925048828125,0.3197714686393738,-0.30838191509246826,0.02115154266357422,0.039033532,-0.142729,9.759954,-0.30960464,0.31714803,9.751008,0
11,988.0789794921875,-2.251981059089303E-4,-1.6791600501164794E-4,9.774346835911274E-6,-2.3075504302978516,25.753782272338867,-38.85086441040039,0.31326112151145935,-0.31139034032821655,0.011827468872070312,0.046509862,-0.14035334,9.774187,-0.2979391,0.3209595,9.7654915,0
11,988.1016235351562,-4.91452869027853E-4,4.978638608008623E-4,-9.223050437867641E-4,-2.116975784301758,25.826738357543945,-38.653541564941406,0.29647132754325867,-0.31443190574645996,0.035587310791015625,0.06117487,-0.13797803,9.767114,-0.28359246,0.3186031,9.758963,0
11,988.1270141601562,1.6883952775970101E-4,4.965136758983135E-4,6.04183878749609E-6,-2.149747848510742,26.744218826293945,-38.62519454956055,0.30318182706832886,-0.29764169454574585,-0.01154327392578125,0.046854526,-0.14036168,9.78842,-0.2966063,0.31592983,9.779942,0
11,988.1041259765625,1.6865605721250176E-4,3.633855376392603E-4,5.963171133771539E-6,-2.2545347213745117,26.01380729675293,-38.335357666015625,0.2881038188934326,-0.3062465190887451,0.012195587158203125,0.05882305,-0.14274545,9.7742195,-0.28087658,0.31255522,9.766403,0
11,988.1318359375,-3.6415905924513936E-4,-0.001101322122849524,-0.0011925369035452604,-2.074772834777832,25.550230026245117,-38.720855712890625,0.2963622808456421,-0.3237208127975464,0.012311935424804688,0.04928246,-0.12606294,9.771854,-0.29085052,0.3257141,9.763031,0
11,988.0966796875,8.340791682712734E-4,6.297610234469175E-4,6.715956842526793E-4,-2.4073352813720703,25.765844345092773,-39.06714630126953,0.2991872727870941,-0.29319775104522705,0.0124664306640625,0.046911538,-0.13797982,9.778957,-0.28771868,0.316123,9.770697,0
11,988.12451171875,1.6810611123219132E-4,6.297907093539834E-4,-5.269043613225222E-4,-2.0056958198547363,26.088834762573242,-38.455078125,0.2976122200489044,-0.3103904724121094,0.02680683135986328,0.056490183,-0.1379803,9.776592,-0.28156933,0.3092397,9.768781,0
11,988.096923828125,4.342387546785176E-4,-1.6912724822759628E-4,-1.275090326089412E-4,-2.026322364807129,25.805837631225586,-37.97343444824219,0.305519163608551,-0.30393290519714355,0.0174713134765625,0.046949625,-0.13083093,9.776593,-0.28866088,0.31549934,9.768225,0
11,988.1270141601562,3.008973435498774E-4,-3.593950532376766E-5,1.3872826821170747E-4,-1.9730300903320312,26.277700424194336,-38.856082916259766,0.2753011882305145,-0.30230528116226196,0.03179931640625,0.061308056,-0.13321467,9.760024,-0.27349913,0.30930367,9.75239,0
11,988.0940551757812,5.6702975416556E-4,-0.001500647165812552,-6.602980429306626E-4,-1.7758240699768066,25.988256454467773,-38.869537353515625,0.29336094856262207,-0.3005039095878601,0.022446632385253906,0.058937162,-0.14274828,9.767128,-0.2776363,0.29621726,9.759909,0
12,988.1320190429688,-5.5122678168118E-4,-1.7108774045482278E-4,2.5343330344185233E-4,-1.8685731887817383,25.16370964050293,-38.499053955078125,0.291816771030426,-0.30405235290527344,0.013081550598144531,0.051786482,-0.1379822,9.776598,-0.28191066,0.30179065,9.768984,0
12,988.1016845703125,-4.182521952316165E-4,3.615737659856677E-4,7.859864854253829E-4,-1.979118824005127,26.27180290222168,-38.54685974121094,0.28531157970428467,-0.2974433898925781,0.017955780029296875,0.051805496,-0.1332161,9.783702,-0.27215692,0.31233937,9.775971,0
12,988.1220092773438,2.4735426995903254E-4,-4.3734407518059015E-4,1.2011826038360596E-4,-2.567150115966797,26.77479362487793,-38.56266403198242,0.2889505624771118,-0.30527371168136597,0.05594348907470703,0.049434602,-0.13321657,9.745829,-0.27195907,0.30924147,9.738161,0
12,988.1117553710938,-1.9145081751048565E-5,-3.0415633227676153E-4,-5.457500228658319E-4,-2.55609130859375,26.310895919799805,-38.306270599365234,0.273237407207489,-0.2944796681404114,0.03237152099609375,0.061403185,-0.14751671,9.769503,-0.26545817,0.28941852,9.762914,0
12,988.09912109375,3.8014526944607496E-4,2.2850523237138987E-4,-2.795127802528441E-4,-2.137028694152832,26.387712478637695,-39.14518737792969,0.27640804648399353,-0.2972297668457031,0.027777671813964844,0.051862597,-0.13321753,9.760035,-0.2760928,0.2984023,9.752613,0
12,988.132080078125,-1.9511906430125237E-5,-8.367285481654108E-4,-2.795914188027382E-4,-1.811532974243164,25.796445846557617,-38.31391906738281,0.28445449471473694,-0.28158843517303467,0.018418312072753906,0.056661427,-0.133218,9.7695055,-0.26493555,0.3020193,9.762315,0
12,988.0917358398438,-2.860110253095627E-4,-3.0406698351725936E-4,-5.459857638925314E-4,-2.227414131164551,25.828489303588867,-38.32869338989258,0.2831753194332123,-0.30375808477401733,0.032733917236328125,0.051900625,-0.1284519,9.771875,-0.2681342,0.3055812,9.764399,0
12,988.0917358398438,-2.860110253095627E-4,-3.0406698351725936E-4,-5.459857638925314E-4,-2.2658910751342773,25.84556770324707,-39.01662063598633,0.2770381271839142,-0.27849406003952026,0.04230976104736328,0.054309547,-0.1451353,9.764774,-0.2673314,0.28475362,9.758191,0
12,988.0892944335938,-5.525101441890001E-4,-5.703531205654144E-4,-0.0013450119877234101,-2.055668354034424,25.831754684448242,-39.12519073486328,0.28040796518325806,-0.2772490382194519,0.018735885620117188,0.049548805,-0.13798587,9.760042,-0.2704308,0.2904846,9.753073,0
12,988.121826171875,2.462540287524462E-4,-3.0400752439163625E-4,7.854363648220897E-4,-2.0382232666015625,26.005887985229492,-38.75314712524414,0.2687658965587616,-0.28067833185195923,0.03306293487548828,0.051957697,-0.1427529,9.764779,-0.26449037,0.28616083,9.758184,0
12,988.1295776367188,-0.0010855088476091623,6.281277164816856E-4,-1.4674779959023E-4,-2.18118953704834,25.924692153930664,-38.72636795043945,0.2623159885406494,-0.2790326476097107,0.037921905517578125,0.05436662,-0.13560353,9.769514,-0.26315105,0.28923652,9.762779,0
12,988.11181640625,2.4588743690401316E-4,8.944732835516334E-4,1.1948961764574051E-4,-1.9294443130493164,25.89674949645996,-38.30161666870117,0.28943681716918945,-0.28219401836395264,0.023838043212890625,0.04721594,-0.14037056,9.77425,-0.27321613,0.2792408,9.767562,0
12,988.1141967773438,-5.532435607165098E-4,-4.370762617327273E-4,3.857268893625587E-4,-1.574732780456543,25.965604782104492,-38.51427459716797,0.27409011125564575,-0.27578645944595337,0.03340625762939453,0.042455196,-0.13560449,9.760049,-0.27074063,0.28732473,9.753097,0
12,988.1069946289062,0.0010442849015817046,-3.754277713596821E-5,-2.802200033329427E-4,-2.2466259002685547,26.653310775756836,-38.29701232910156,0.26687151193618774,-0.2687898874282837,0.03831195831298828,0.056813598,-0.13322167,9.764785,-0.2520894,0.28897065,9.758327,0
12,988.1069946289062,0.0010442849015817046,-3.754277713596821E-5,-2.802200033329427E-4,-2.2466259002685547,26.653310775756836,-38.29701232910156,0.2661876082420349,-0.2731638550758362,0.028881072998046875,0.052052796,-0.140372,9.76242,-0.25620285,0.28167164,9.756141,0
12,988.1321411132812,-9.532675612717867E-4,-3.751309122890234E-5,-5.466144066303968E-4,-2.274587631225586,26.57478141784668,-38.826995849609375,0.2600054144859314,-0.27622711658477783,0.02899646759033203,0.053968817,-0.13082726,9.771845,-0.25006685,0.29222137,9.7653,0
12,988.1069946289062,-8.202928584069014E-4,-5.701150512322783E-4,6.517284200526774E-4,-2.475274085998535,26.123228073120117,-38.384727478027344,0.26876553893089294,-0.27467966079711914,0.033944129943847656,0.046295702,-0.14034803,9.767065,-0.26106444,0.2768681,9.760767,0
12,988.096923828125,-6.778337992727757E-4,4.936385666951537E-4,5.225567147135735E-4,-2.20029354095459,25.64316749572754,-38.32202911376953,0.27213895320892334,-0.2736910581588745,0.038768768310546875,0.048665285,-0.13796426,9.762329,-0.25512034,0.27974328,9.756081,0
12,988.0941772460938,2.5446759536862373E-4,-4.3849876965396106E-4,-2.763071097433567E-4,-1.8866991996765137,25.251951217651367,-38.270477294921875,0.2853845953941345,-0.2816186547279358,0.02467060089111328,0.041475296,-0.12843062,9.776529,-0.26484552,0.28525954,9.76971,0
12,988.1270141601562,-4.1112652979791164E-4,9.410118218511343E-5,9.22198174521327E-4,-1.6371793746948242,25.064603805541992,-38.990821838378906,0.25054919719696045,-0.275565505027771,0.010567665100097656,0.058184326,-0.12843008,9.778894,-0.25000814,0.28083172,9.772679,0
12,988.1019287109375,-1.4461507089436054E-4,-5.71720243897289E-4,3.8965034764260054E-4,-1.6375627517700195,25.9591121673584,-37.96532440185547,0.2634839415550232,-0.2691999673843384,0.03908729553222656,0.04621449,-0.13319619,9.757587,-0.2597294,0.2739927,9.751301,0
12,988.096923828125,-9.43367020227015E-4,-3.0543614411726594E-4,-1.4289753744378686E-4,-1.718080997467041,26.778921127319336,-37.461997985839844,0.2521650195121765,-0.2535654902458191,0.034465789794921875,0.05336392,-0.14511211,9.762321,-0.25027353,0.26169193,9.75683,0
12,988.1271362304688,9.21039842069149E-4,0.0010261115385219455,1.235022209584713E-4,-1.7122917175292969,26.152677536010742,-38.19608688354492,0.26042643189430237,-0.26632165908813477,0.02510547637939453,0.043783993,-0.1355785,9.774155,-0.2588381,0.27022684,9.768029,0
12,988.1170654296875,3.8860365748405457E-4,-5.718155880458653E-4,2.567439805716276E-4,-1.5237808227539062,26.592443466186523,-38.01991271972656,0.24492913484573364,-0.2792329788208008,0.04413795471191406,0.05093339,-0.12366159,9.748114,-0.25159267,0.2776283,9.741831,0
13,988.1145629882812,-8.096221135929227E-4,-0.0011044790735468268,-2.758039045147598E-4,-1.8938722610473633,25.982637405395508,-38.15815734863281,0.2772906422615051,-0.2589253783226013,0.011084556579589844,0.038963586,-0.13796075,9.776519,-0.2594118,0.26745105,9.770469,0
13,988.1246337890625,-5.431104218587279E-4,-1.724052708595991E-4,3.900697047356516E-4,-2.099231719970703,26.63300895690918,-37.85662841796875,0.26610466837882996,-0.26691025495529175,0.025404930114746094,0.043723047,-0.13319369,9.767048,-0.25045547,0.27212536,9.761049,0
13,988.116943359375,1.228750916197896E-4,6.265105912461877E-4,3.901536110788584E-4,-2.06504487991333,26.823347091674805,-38.334938049316406,0.2500411868095398,-0.25585341453552246,0.03025531768798828,0.050872505,-0.14272632,9.764679,-0.24241173,0.26021034,9.759379,0
13,988.129638671875,7.888604886829853E-4,2.2700510453432798E-4,2.5707948952913284E-4,-1.9918370246887207,26.62830924987793,-38.02687072753906,0.25350868701934814,-0.25912296772003174,0.04456329345703125,0.046072364,-0.13795932,9.767044,-0.24638292,0.26318103,9.761473,0
13,988.1121826171875,2.564244205132127E-4,-3.934267442673445E-5,-1.4231051318347454E-4,-1.7302799224853516,26.346830368041992,-38.66658020019531,0.2420649528503418,-0.2422276884317398,0.02105712890625,0.048441947,-0.13795878,9.781245,-0.24597988,0.25944132,9.775804,0
13,988.116943359375,9.224098175764084E-4,-1.725323381833732E-4,1.2408924521878362E-4,-1.6821279525756836,25.970304489135742,-38.344032287597656,0.2510529160499573,-0.26045024394989014,0.02584362030029297,0.04842168,-0.1308084,9.764673,-0.24448115,0.2637847,9.759046,0
13,988.1069946289062,1.2365775182843208E-4,-4.388800007291138E-4,1.2417323887348175E-4,-1.6761775016784668,25.870275497436523,-37.95417785644531,0.2500285506248474,-0.2541682720184326,0.030672073364257812,0.048401356,-0.14034106,9.759937,-0.24342823,0.25265795,9.754759,0
13,988.1345825195312,6.56485091894865E-4,-4.3891178211197257E-4,1.2425705790519714E-4,-1.8347678184509277,26.24855613708496,-37.951873779296875,0.24404001235961914,-0.25264137983322144,0.035506248474121094,0.055550754,-0.1331907,9.7765045,-0.23379856,0.26024994,9.77131,0
13,988.1347045898438,3.903650213032961E-4,-3.946974175050855E-5,-6.74606766551733E-4,-1.792428970336914,26.077970504760742,-38.71825408935547,0.2665824294090271,-0.2417399138212204,0.03560447692871094,0.038801163,-0.1403401,9.7623005,-0.24954206,0.25102365,9.756969,0
13,988.1295776367188,3.90560831874609E-4,-9.716070489957929E-4,-8.733128197491169E-6,-2.047898292541504,26.365339279174805,-38.38777160644531,0.24635306000709534,-0.2544400095939636,0.03570365905761719,0.043560624,-0.13080643,9.762299,-0.23912644,0.2628184,9.756804,0
13,988.1220703125,-8.717295713722706E-6,-4.390070971567184E-4,-8.649309165775776E-6,-2.192385673522949,26.28267478942871,-38.2836799621582,0.2406100332736969,-0.24348990619182587,0.031055450439453125,0.050710082,-0.13795574,9.757563,-0.23336297,0.25178885,9.75263,0
13,988.1398315429688,-6.743113044649363E-4,-0.0011048285523429513,2.577505074441433E-4,-1.9821624755859375,26.268857955932617,-38.392250061035156,0.24428194761276245,-0.2568318843841553,0.026393890380859375,0.04590994,-0.13080545,9.769398,-0.23761481,0.25815517,9.764079,0
13,988.1167602539062,-8.072734344750643E-4,-3.9596809074282646E-5,1.2467638589441776E-4,-1.9443883895874023,26.093854904174805,-38.926719665527344,0.24281316995620728,-0.25090116262435913,0.031219482421875,0.05066943,-0.13080494,9.778864,-0.23078072,0.25798953,9.773742,0
13,988.1167602539062,-8.072734344750643E-4,-3.9596809074282646E-5,1.2467638589441776E-4,-2.0267276763916016,26.280046463012695,-38.770957946777344,0.22674307227134705,-0.24966900050640106,0.040790557861328125,0.053039044,-0.13795431,9.752823,-0.2286249,0.24624191,9.748152,0
13,988.0994262695312,-4.0760403499007225E-4,7.59319169446826E-4,-5.410293815657496E-4,-1.7899274826049805,26.449201583862305,-38.97132110595703,0.2443186640739441,-0.2482161968946457,0.01722240447998047,0.045849025,-0.13557051,9.774126,-0.23382618,0.24910292,9.769202,0
13,988.132080078125,1.6309594502672553E-4,8.088552858680487E-4,-4.388142260722816E-4,-1.8627300262451172,26.170026779174805,-38.48185729980469,0.21921759843826294,-0.23741702735424042,0.03624725341796875,0.05777821,-0.13795324,9.771757,-0.22094542,0.244797,9.767337,0
13,988.1347045898438,3.0133698601275682E-5,4.093495663255453E-4,2.2705941228196025E-4,-1.8302021026611328,26.252973556518555,-38.18378829956055,0.23594221472740173,-0.21715818345546722,0.026739120483398438,0.047120363,-0.15228464,9.767139,-0.22926882,0.23093605,9.763019,0
13,988.12939453125,-6.354603101499379E-4,-6.559456815011799E-4,2.2714323131367564E-4,-1.9882502555847168,26.262968063354492,-38.083030700683594,0.24375295639038086,-0.23039250075817108,0.041029930114746094,0.047152042,-0.1427523,9.767143,-0.22919798,0.23744807,9.762724,0
13,988.1093139648438,-1.123688998632133E-4,5.393844330683351E-4,4.85529046272859E-4,-1.772918701171875,25.885282516479492,-38.32506561279297,0.22807049751281738,-0.23363877832889557,0.036388397216796875,0.054353476,-0.13560326,9.764779,-0.21745531,0.24547175,9.760365,0
13,988.132080078125,1.5210785204544663E-4,1.4020915841683745E-4,8.526700548827648E-5,-2.088876724243164,26.01118278503418,-38.822635650634766,0.2407619059085846,-0.25603097677230835,0.017548561096191406,0.04721546,-0.13560398,9.767149,-0.22224158,0.24511988,9.762599,0
13,988.1321411132812,1.8644437659531832E-5,5.397325148805976E-4,8.51360964588821E-5,-2.198878765106201,26.750986099243164,-38.77198791503906,0.22985756397247314,-0.23559556901454926,0.022370338439941406,0.04724717,-0.12845494,9.771887,-0.22247152,0.24952601,9.767125,0
13,988.1345825195312,4.1781278559938073E-4,4.0662428364157677E-4,-3.144688089378178E-4,-1.9687399864196777,26.070287704467773,-37.689842224121094,0.2190096080303192,-0.2484031766653061,0.012991905212402344,0.056838483,-0.12130593,9.774256,-0.21637951,0.25075725,9.769562,0
13,988.1143188476562,1.51191430632025E-4,8.061476983129978E-4,-4.4775777496397495E-4,-1.4910087585449219,25.674962997436523,-38.04826354980469,0.22749727964401245,-0.22775064408779144,0.04148387908935547,0.044920683,-0.14275618,9.767158,-0.2236902,0.23133971,9.763002,0
13,988.1019287109375,8.166756597347558E-4,-3.9222423220053315E-4,4.8421701649203897E-4,-1.911020278930664,26.440641403198242,-38.10533142089844,0.22130292654037476,-0.22169940173625946,0.04630279541015625,0.04973215,-0.14037372,9.769527,-0.21570837,0.23402587,9.765477,0
13,988.1044311523438,-2.49199743848294E-4,1.405067159794271E-4,2.1763917175121605E-4,-1.938981533050537,26.36211585998535,-38.63531494140625,0.23452350497245789,-0.22530688345432281,0.022701263427734375,0.044984043,-0.13560791,9.769531,-0.22082779,0.23628438,9.765222,0
14,988.1044311523438,1.6810663510113955E-5,7.398426532745361E-6,-4.880764754489064E-5,-1.513563632965088,25.86470603942871,-38.28684616088867,0.2140510380268097,-0.24314765632152557,0.022779464721679688,0.05935517,-0.12607558,9.771901,-0.20883812,0.24081905,9.767695,0
14,988.1094360351562,-3.829686320386827E-4,-5.251837428659201E-4,3.505352942738682E-4,-1.799196720123291,26.334447860717773,-37.80841064453125,0.2033504843711853,-0.21800796687602997,0.032324790954589844,0.06894648,-0.13322617,9.764803,-0.19535595,0.23424447,9.76119,0
14,988.0867919921875,-2.5011616526171565E-4,6.732871988788247E-4,8.40884167701006E-5,-2.0645017623901367,26.455053329467773,-38.23649215698242,0.21638578176498413,-0.22645126283168793,0.04660224914550781,0.05702868,-0.14276008,9.767172,-0.20408648,0.22612414,9.763632,0
14,988.1521606445312,-1.172636984847486E-4,-7.914004381746054E-4,2.1711539011448622E-4,-1.9043893814086914,26.078245162963867,-38.31610107421875,0.2153753638267517,-0.22512932121753693,0.01826763153076172,0.054670483,-0.13084449,9.781378,-0.20678523,0.23610172,9.7773695,0
14,988.0994262695312,2.819046494551003E-4,-2.587190247140825E-4,-4.933140007779002E-5,-1.8362903594970703,26.24708366394043,-37.87456512451172,0.2094440460205078,-0.21925149857997894,0.03253936767578125,0.052312255,-0.14037834,9.767178,-0.20854264,0.22449401,9.76352,0
14,988.1194458007812,-3.841905272565782E-4,7.646449375897646E-6,-7.152521284297109E-4,-1.799901008605957,26.1765193939209,-39.03081130981445,0.1987329125404358,-0.21317164599895477,0.0042095184326171875,0.064293504,-0.13561262,9.7813835,-0.19626927,0.22759525,9.777918,0
14,988.1270141601562,1.4813576126471162E-4,1.4085404109209776E-4,3.498805162962526E-4,-1.7253084182739258,25.877042770385742,-38.10096740722656,0.20166590809822083,-0.22559334337711334,0.018525123596191406,0.061935306,-0.13084675,9.771918,-0.19735342,0.2305254,9.768278,0
14,988.0892944335938,1.4783028746023774E-4,1.409035176038742E-4,-4.972430178895593E-5,-2.1356449127197266,26.28326988220215,-38.523414611816406,0.2011677622795105,-0.22008179128170013,0.04697132110595703,0.061966985,-0.1403807,9.760085,-0.19283727,0.22219822,9.756856,0
14,988.129638671875,-1.1879106750711799E-4,7.795228157192469E-6,-4.9855210818350315E-5,-2.244561195373535,26.2864933013916,-38.27586364746094,0.2044583261013031,-0.22374214231967926,0.03757953643798828,0.050049186,-0.12846507,9.771924,-0.2019816,0.23486422,9.767987,0
14,988.1145629882812,1.4061399269849062E-5,4.0731870103627443E-4,-1.8314406042918563E-4,-1.8583016395568848,26.068532943725586,-38.01469421386719,0.18900138139724731,-0.23235313594341278,0.018700599670410156,0.06681019,-0.13084914,9.767193,-0.1875884,0.22779596,9.763839,0
14,988.099365234375,-7.851925329305232E-4,-2.584214089438319E-4,-4.4959085062146187E-4,-1.5296249389648438,25.58612632751465,-38.03711700439453,0.1973588466644287,-0.21701408922672272,0.018766403198242188,0.06445202,-0.1332332,9.779032,-0.19204266,0.22242883,9.775735,0
14,988.1220703125,1.4660746091976762E-4,1.4110206393525004E-4,-5.024811252951622E-5,-1.7258515357971191,26.245332717895508,-38.19942092895508,0.20094230771064758,-0.2010057419538498,0.018856048583984375,0.062093794,-0.14515038,9.779034,-0.19198868,0.21025659,9.776162,0
14,988.147216796875,6.789337494410574E-4,0.0012064152397215366,8.277891902253032E-5,-2.0560503005981445,26.726266860961914,-38.099693298339844,0.18498221039772034,-0.23313169181346893,0.02840900421142578,0.07407498,-0.12608494,9.7743025,-0.17487423,0.22977813,9.77113,0
14,988.1167602539062,-2.534773084335029E-4,9.401488350704312E-4,-3.1682586995884776E-4,-2.062437057495117,26.088239669799805,-38.21534729003906,0.20267736911773682,-0.22269307076931,0.03320789337158203,0.057377398,-0.1332355,9.76247,-0.18988827,0.22219186,9.759172,0
14,988.1145629882812,-1.2062484165653586E-4,-1.2506506755016744E-4,-5.83272660151124E-4,-1.9625144004821777,26.18208885192871,-38.69813919067383,0.20185863971710205,-0.21657444536685944,0.01907062530517578,0.0550192,-0.12608649,9.771942,-0.19248192,0.22752397,9.768367,0
14,988.12451171875,6.780173280276358E-4,-1.2501547462306917E-4,-3.1708774622529745E-4,-1.9283580780029297,25.16016960144043,-38.10471725463867,0.18650928139686584,-0.21027325093746185,0.02388286590576172,0.066495836,-0.14037456,9.771898,-0.18043809,0.21143793,9.76918,0
14,988.1117553710938,5.469670868478715E-4,4.072741139680147E-4,-3.1618447974324226E-4,-1.885176658630371,25.2534236907959,-38.3477783203125,0.21489578485488892,-0.20423786342144012,0.052458763122558594,0.051653147,-0.13559563,9.757648,-0.1972642,0.21146932,9.754442,0
14,988.1398315429688,9.531409596092999E-4,-7.904120720922947E-4,-4.4496188638731837E-4,-1.5256013870239258,25.958837509155273,-38.36748504638672,0.1900046169757843,-0.21706025302410126,0.02886676788330078,0.07315338,-0.123679,9.778953,-0.16901463,0.22685389,9.775916,0
14,988.1295166015625,2.8743670554831624E-4,5.411534220911562E-4,-4.449253319762647E-4,-2.2254562377929688,26.56801414489746,-38.680206298828125,0.19377407431602478,-0.20632992684841156,0.04313850402832031,0.061195016,-0.13797845,9.762382,-0.18072869,0.21093708,9.759598,0
14,988.104248046875,-2.450236934237182E-4,2.7480971766635776E-4,-1.7853605095297098E-4,-2.2059459686279297,26.375333786010742,-38.28701400756836,0.19661280512809753,-0.19525273144245148,0.03850841522216797,0.05640632,-0.13321166,9.760014,-0.18282545,0.21465944,9.757013,0
14,988.104248046875,-2.450236934237182E-4,2.7480971766635776E-4,-1.7853605095297098E-4,-2.2059459686279297,26.375333786010742,-38.28701400756836,0.19619929790496826,-0.19969864189624786,0.019594192504882812,0.061177254,-0.13797803,9.77895,-0.17965427,0.20889352,9.776232,0
14,988.104248046875,-2.450236934237182E-4,2.7480971766635776E-4,-1.7853605095297098E-4,-2.029909133911133,26.17118263244629,-37.917274475097656,0.20014047622680664,-0.1989857703447342,0.038578033447265625,0.044439048,-0.13797785,9.767114,-0.19672818,0.20705399,9.764013,0
14,988.12451171875,-0.0014433595351874828,-3.9099378045648336E-4,-1.7849932191893458E-4,-1.8642520904541016,26.168554306030273,-38.4045524597168,0.1991732269525528,-0.2027135044336319,0.043374061584472656,0.049209952,-0.13559435,9.757645,-0.1901618,0.20836952,9.754634,0
14,988.1041259765625,-6.44326617475599E-4,-7.904815138317645E-4,-9.774102363735437E-4,-1.9299869537353516,26.26503562927246,-38.40007019042969,0.1978076845407486,-0.19709168374538422,0.038704872131347656,0.046811163,-0.14036067,9.767112,-0.19246466,0.20234242,9.764239,0
15,988.0890502929688,-3.7783937295898795E-4,8.0738594988361E-4,-1.7838925123214722E-4,-1.968602180480957,26.176198959350586,-38.388919830322266,0.18656547367572784,-0.2096772938966751,0.043541908264160156,0.05875182,-0.13321058,9.774212,-0.17752074,0.2086897,9.771457,0
15,988.0890502929688,-3.7783937295898795E-4,8.0738594988361E-4,-1.7838925123214722E-4,-1.968602180480957,26.176198959350586,-38.388919830322266,0.17644622921943665,-0.19945235550403595,0.03884601593017578,0.05874294,-0.1379769,9.764744,-0.17665775,0.2031539,9.762184,0
15,988.1217651367188,-1.114379265345633E-4,8.424394764006138E-6,2.211212122347206E-4,-2.012327194213867,26.451234817504883,-38.24430847167969,0.19957022368907928,-0.18397261202335358,0.0057659149169921875,0.05634415,-0.13559346,9.788414,-0.17984831,0.20431691,9.78573,0
15,988.1119384765625,5.72382879909128E-4,-2.56317260209471E-4,-2.3302860790863633E-4,-1.8672962188720703,26.16560935974121,-38.24994659423828,0.17014124989509583,-0.2068874090909958,0.04369163513183594,0.061115086,-0.12844343,9.769476,-0.1721656,0.21090333,9.766719,0
15,988.12939453125,-3.596370224840939E-4,-0.0011884367559105158,2.9963970882818103E-4,-2.0404257774353027,26.26679039001465,-38.07521438598633,0.17823855578899384,-0.21529750525951385,0.034297943115234375,0.05632639,-0.1260599,9.762373,-0.17732264,0.21034077,9.759473,0
15,988.1167602539062,1.730803051032126E-4,2.7628656243905425E-4,4.3283437844365835E-4,-1.770853042602539,25.518465042114258,-38.303924560546875,0.18155142664909363,-0.20447690784931183,0.0343780517578125,0.058707416,-0.13320951,9.762373,-0.17352788,0.20199051,9.759827,0
15,988.0966796875,4.000781336799264E-5,0.0014746941160410643,3.339722752571106E-5,-1.7881383895874023,25.870553970336914,-37.55201721191406,0.18489065766334534,-0.18920980393886566,0.029712677001953125,0.05391872,-0.14274241,9.767106,-0.17510693,0.19383271,9.764806,0
15,988.1369018554688,1.7333688447251916E-4,6.75718707498163E-4,-9.968742961063981E-5,-2.202902317047119,26.378278732299805,-38.441627502441406,0.18402226269245148,-0.19248773157596588,0.025051116943359375,0.05151996,-0.14274217,9.774206,-0.17614616,0.1933185,9.771885,0
15,988.1217041015625,4.3973844731226563E-4,1.430732081644237E-4,3.3507298212498426E-5,-1.772481918334961,26.623334884643555,-38.599273681640625,0.1686345934867859,-0.1820945292711258,0.020371437072753906,0.06346059,-0.14750858,9.771839,-0.16663665,0.18409881,9.770003,0
15,988.096435546875,-2.2596557391807437E-4,9.901297744363546E-6,3.3543852623552084E-5,-1.8140344619750977,25.42521095275879,-38.06085968017578,0.19160985946655273,-0.1955001801252365,0.048831939697265625,0.041942567,-0.1332087,9.760002,-0.18569526,0.19850278,9.757216,0
15,988.0940551757812,-9.272195165976882E-5,4.093611496500671E-4,6.993702845647931E-4,-2.0890140533447266,25.905263900756836,-38.123558044433594,0.18534067273139954,-0.1706996113061905,0.020493507385253906,0.05866301,-0.14274155,9.767103,-0.16605334,0.18936807,9.765076,0
15,988.1393432617188,4.052120493724942E-5,1.4303141506388783E-4,1.667752512730658E-4,-2.0704522132873535,26.555078506469727,-38.62635040283203,0.16529321670532227,-0.1791805773973465,0.034755706787109375,0.06582388,-0.13559152,9.767102,-0.15811914,0.19472142,9.765043,0
15,988.1017456054688,-2.2570887813344598E-4,9.859621059149504E-6,5.662857438437641E-4,-2.298694133758545,25.5507869720459,-37.91653823852539,0.17850226163864136,-0.1827109009027481,0.03955841064453125,0.05864528,-0.13797455,9.778937,-0.16225383,0.19375604,9.776822,0
15,988.134521484375,9.727981523610651E-4,6.756353541277349E-4,-2.3262528702616692E-4,-1.8547143936157227,25.70319175720215,-38.07085418701172,0.17266599833965302,-0.19085384905338287,0.03962993621826172,0.05385655,-0.13320775,9.7671,-0.16912742,0.19384724,9.76477,0
15,988.1393432617188,0.0013723575975745916,-3.89641965739429E-4,1.6688526375219226E-4,-1.9775972366333008,26.27327537536621,-38.624168395996094,0.1860361099243164,-0.1799641102552414,0.044432640075683594,0.04189819,-0.14274062,9.762365,-0.17974547,0.18389897,9.760112,0
15,988.1217041015625,-9.229412535205483E-5,9.817944373935461E-6,5.663958145305514E-4,-1.999608039855957,26.094724655151367,-38.76429748535156,0.16607345640659332,-0.1788603812456131,0.03028583526611328,0.049059033,-0.14035724,9.771833,-0.17167589,0.18536727,9.769698,0
15,988.096435546875,-9.220867650583386E-5,5.424358532764018E-4,5.664323689416051E-4,-2.162764549255371,26.46858787536621,-38.53007888793945,0.17460426688194275,-0.1874222308397293,0.01146697998046875,0.050900638,-0.12842728,9.793088,-0.16701962,0.19790956,9.790638,0
15,988.1041870117188,4.24971804022789E-5,6.812938372604549E-4,-3.5883497912436724E-4,-1.84832763671875,26.341215133666992,-37.9552001953125,0.16871647536754608,-0.18169806897640228,0.02573108673095703,0.05087021,-0.13319315,9.778882,-0.16810454,0.18973184,9.776636,0
15,988.1166381835938,1.778493169695139E-4,1.4830572763457894E-4,-4.910525167360902E-4,-2.0985512733459473,26.370634078979492,-38.45725631713867,0.173163041472435,-0.18519525229930878,0.049454689025878906,0.060399354,-0.12604262,9.75284,-0.15557045,0.19586003,9.750635,0
15,988.1090087890625,4.4445868115872145E-4,-9.170054108835757E-4,7.074946770444512E-4,-1.7819123268127441,25.982362747192383,-38.56031799316406,0.18163031339645386,-0.1793186515569687,0.04951953887939453,0.05319923,-0.1331916,9.76704,-0.16458316,0.18642601,9.764929,0
15,988.0890502929688,3.115942236036062E-4,2.813683240674436E-4,-4.90801059640944E-4,-2.077518939971924,26.179418563842773,-38.14137268066406,0.16644348204135895,-0.18758524954319,0.01644134521484375,0.050778866,-0.13557418,9.776506,-0.16424742,0.18514007,9.774446,0
15,988.1138916015625,7.113614119589329E-4,-5.176268750801682E-4,8.409040747210383E-4,-2.0653438568115234,26.191205978393555,-38.75981140136719,0.17968925833702087,-0.16745881736278534,0.03070831298828125,0.05791813,-0.13080691,9.776504,-0.15598227,0.18831514,9.774491,0
15,988.1290893554688,-3.5360874608159065E-4,6.80746918078512E-4,4.415560106281191E-4,-2.1447763442993164,26.274431228637695,-38.05958557128906,0.17449258267879486,-0.1809559315443039,0.021277427673339844,0.0483281,-0.13795592,9.774134,-0.16477638,0.18133068,9.772156,0
15,988.116455078125,-2.2015732247382402E-4,-0.0010503538651391864,1.753658289089799E-4,-2.1662445068359375,25.727590560913086,-38.101261138916016,0.15919041633605957,-0.1750587373971939,0.05447864532470703,0.060247183,-0.1379552,9.759928,-0.15126485,0.17941193,9.758266,0
15,988.0938720703125,3.1276780646294355E-4,-2.5145395193248987E-4,4.2333733290433884E-5,-1.6320171356201172,26.333295822143555,-38.37299346923828,0.1632949411869049,-0.18844036757946014,0.04505729675292969,0.05543691,-0.13318793,9.76466,-0.15725991,0.1819163,9.762764,0
16,988.1162719726562,-6.190442945808172E-4,-9.172912104986608E-4,-2.2385641932487488E-4,-1.9089546203613281,26.073827743530273,-38.08418273925781,0.1435878872871399,-0.16847924888134003,0.011961936950683594,0.062576175,-0.1427203,9.774126,-0.14993131,0.17168443,9.77271,0
16,988.1363525390625,3.1335465610027313E-4,-1.1839118087664247E-4,4.4205901212990284E-4,-1.9414820671081543,25.990880966186523,-38.38225555419922,0.16179382801055908,-0.18665580451488495,0.0404205322265625,0.06015581,-0.12841983,9.767021,-0.15245442,0.18344764,9.765139,0
16,988.1187133789062,-3.521416801959276E-4,-5.179126746952534E-4,-2.236049622297287E-4,-1.6905789375305176,25.6990909576416,-38.48082733154297,0.15637870132923126,-0.15209545195102692,0.054678916931152344,0.057735503,-0.14748533,9.76465,-0.15243074,0.16545078,9.763343,0
16,988.1187133789062,-3.521416801959276E-4,-5.179126746952534E-4,-2.236049622297287E-4,-2.081106185913086,26.544767379760742,-38.08521270751953,0.16995620727539062,-0.16550327837467194,0.035788536071777344,0.05292523,-0.1403348,9.769382,-0.15780598,0.1706109,9.767769,0
16,988.1214599609375,4.4709944631904364E-4,-1.1848652502521873E-4,-2.2347911726683378E-4,-1.8250937461853027,25.88910484313965,-38.31725311279297,0.16873888671398163,-0.16920866072177887,0.02164936065673828,0.05528471,-0.13556741,9.778849,-0.15610209,0.17282917,9.777172,0
16,988.1362915039062,3.142349887639284E-4,-3.8484999095089734E-4,3.092783153988421E-4,-1.5423431396484375,25.9426326751709,-37.517127990722656,0.1628846973180771,-0.1636480838060379,0.0169677734375,0.052864373,-0.13795002,9.776478,-0.16001484,0.16721042,9.774854,0
16,988.0609130859375,1.8137029837816954E-4,0.0012129975948482752,-2.232276601716876E-4,-1.1859722137451172,26.118879318237305,-38.50616455078125,0.17163071036338806,-0.1577947586774826,0.021757125854492188,0.040884376,-0.14271583,9.776476,-0.16681707,0.16605891,9.77477,0
16,988.1214599609375,1.8166378140449524E-4,-1.1862936662510037E-4,3.0952980159781873E-4,-1.8416976928710938,25.978818893432617,-38.16597366333008,0.15188533067703247,-0.16627754271030426,0.021806716918945312,0.052803457,-0.12603213,9.781207,-0.15177917,0.18295044,9.779273,0
16,988.0761108398438,4.879920743405819E-5,-7.844666833989322E-4,-3.5613414365798235E-4,-2.122084617614746,26.190610885620117,-38.52008056640625,0.14163640141487122,-0.18898572027683258,0.03606224060058594,0.06233263,-0.12364806,9.774103,-0.14128023,0.18351167,9.772342,0
16,988.0734252929688,1.82250514626503E-4,-3.8504053372889757E-4,-3.5600841511040926E-4,-2.1049375534057617,25.732606887817383,-38.572906494140625,0.1504572480916977,-0.15966583788394928,0.012432098388671875,0.057522416,-0.1403303,9.785936,-0.1492824,0.16418956,9.7845955,0
16,988.1213989257812,5.820177029818296E-4,1.4385674148797989E-5,-4.890406271442771E-4,-1.6746549606323242,25.871747970581055,-38.03147888183594,0.15883147716522217,-0.1679946631193161,0.036170005798339844,0.050322235,-0.12841316,9.77173,-0.15197344,0.1769446,9.76992,0
16,988.1389770507812,-4.8295222222805023E-4,4.1381182381883264E-4,4.371698014438152E-5,-2.030207633972168,25.539045333862305,-38.34214401245117,0.15816231071949005,-0.16227023303508759,0.012544631958007812,0.06463122,-0.1331789,9.783564,-0.1398458,0.16896437,9.782225,0
16,988.1085815429688,4.9972906708717346E-5,1.429050462320447E-5,1.7700059106573462E-4,-1.6951446533203125,25.694669723510742,-38.24891662597656,0.15302133560180664,-0.16133372485637665,0.0504608154296875,0.05982095,-0.13794477,9.769357,-0.14395484,0.16317652,9.76809,0
16,988.1011962890625,4.497402114793658E-4,-7.847048109397292E-4,1.7712637782096863E-4,-1.7521305084228516,26.694501876831055,-37.682762145996094,0.1614748239517212,-0.15582729876041412,0.02683734893798828,0.05023092,-0.13556077,9.778824,-0.15142027,0.16644077,9.777305,0
16,988.0985107421875,4.503269447013736E-4,6.799371330998838E-4,-6.215698085725307E-4,-1.8904237747192383,25.511381149291992,-37.515235900878906,0.14625512063503265,-0.16919191181659698,0.02215290069580078,0.06453991,-0.13079341,9.776453,-0.13580406,0.16970299,9.7751255,0
16,988.108642578125,-2.2583745885640383E-4,-6.563913193531334E-4,3.6735011963173747E-4,-1.7517480850219727,25.799985885620117,-38.70825958251953,0.14849497377872467,-0.15350423753261566,0.05049705505371094,0.058059394,-0.13557692,9.759947,-0.14268339,0.16270927,9.758661,0
16,988.0936279296875,-2.2554397583007812E-4,4.0882453322410583E-4,6.337917293421924E-4,-1.869659423828125,25.90028953552246,-38.695960998535156,0.14801956713199615,-0.1527063399553299,0.036324501037597656,0.06357211,-0.1332116,9.769482,-0.13561925,0.1645989,9.7682705,0
16,988.11083984375,-2.3809552658349276E-4,-9.234450408257544E-4,7.586815627291799E-4,-1.4923934936523438,25.779409408569336,-38.67003631591797,0.14743155241012573,-0.14751805365085602,0.022144317626953125,0.05643034,-0.14274539,9.776587,-0.14505401,0.15299515,9.775518,0
16,988.1058349609375,2.7951435185968876E-5,5.413361359387636E-4,-4.038139013573527E-5,-2.032815933227539,26.274152755737305,-38.46173858642578,0.1561436951160431,-0.15633516013622284,0.03638458251953125,0.056458235,-0.13797952,9.771854,-0.14063916,0.15989938,9.77067,0
16,988.13623046875,-5.049494793638587E-4,-6.570417317561805E-4,6.252930033951998E-4,-1.9575433731079102,25.71230125427246,-38.132530212402344,0.14583973586559296,-0.15092863142490387,0.05061912536621094,0.058876097,-0.14036353,9.760021,-0.13767461,0.15615283,9.758989,0
16,988.09814453125,-1.0574457701295614E-4,4.082655068486929E-4,2.2570384317077696E-4,-2.094964027404785,26.005285263061523,-38.51341247558594,0.13064461946487427,-0.16902916133403778,0.03172588348388672,0.07324344,-0.12129797,9.771858,-0.12104389,0.17446417,9.770577,0
16,988.143798828125,2.7144094929099083E-5,6.746250437572598E-4,3.5874638706445694E-4,-2.174260139465332,26.194433212280273,-38.51226043701172,0.15360219776630402,-0.13950411975383759,0.03650188446044922,0.04459253,-0.1427481,9.769495,-0.1494124,0.15391847,9.768285,0
16,988.0578002929688,2.687494270503521E-5,8.878996595740318E-6,-3.0715850880369544E-4,-1.7266931533813477,25.981489181518555,-38.722740173339844,0.1431492567062378,-0.1481793075799942,0.03180980682373047,0.056569934,-0.13321568,9.76713,-0.13889048,0.15939865,9.765915,0
16,988.1209106445312,2.9292190447449684E-4,-2.57393199717626E-4,2.2535782773047686E-4,-1.8922133445739746,26.090028762817383,-38.934539794921875,0.14230601489543915,-0.16145072877407074,0.046057701110839844,0.049428165,-0.1332164,9.771866,-0.1443215,0.15968001,9.770531,0
16,988.0907592773438,1.5949481166899204E-4,2.752823056653142E-4,9.208457777276635E-5,-1.9800972938537598,25.902040481567383,-38.37110900878906,0.14596916735172272,-0.15065239369869232,0.04611396789550781,0.054235876,-0.14036696,9.767136,-0.13803601,0.15150261,9.766143,0
17,988.1007690429688,0.0010913311270996928,-2.573058009147644E-4,4.914430901408195E-4,-1.708704948425293,25.787328720092773,-38.25225067138672,0.1120661199092865,-0.14977560937404633,0.027207374572753906,0.0638234,-0.13083448,9.7718725,-0.12940657,0.15845051,9.770817,0
17,988.1211547851562,4.25272504799068E-4,-7.89893907494843E-4,4.913277225568891E-4,-1.7864785194396973,25.977941513061523,-38.328399658203125,0.16374719142913818,-0.1487993746995926,0.031986236572265625,0.047122,-0.13083513,9.762405,-0.14462286,0.1582045,9.761043,0
17,988.0906982421875,-5.071022314950824E-4,1.4225533232092857E-4,6.243703537620604E-4,-1.6087818145751953,25.881181716918945,-38.735042572021484,0.13887427747249603,-0.1527874618768692,0.036757469177246094,0.059099436,-0.14036895,9.771877,-0.13337022,0.14672041,9.771054,0
17,988.1109619140625,-2.410555025562644E-4,-5.234905984252691E-4,-4.4100842205807567E-4,-2.011646270751953,26.188859939575195,-38.844932556152344,0.14796768128871918,-0.14267869293689728,0.050986289978027344,0.05912733,-0.14036967,9.76241,-0.13044864,0.14790812,9.761606,0
17,988.1083374023438,2.499145921319723E-5,-3.90289060305804E-4,-1.748078502714634E-4,-1.794929027557373,25.70673179626465,-38.46519470214844,0.1470053493976593,-0.14207763969898224,0.036815643310546875,0.05198556,-0.13322057,9.776617,-0.13773954,0.1541562,9.775476,0
17,988.1056518554688,-7.742253364995122E-4,4.087021807208657E-4,-1.749232760630548E-4,-2.017190933227539,25.81467628479004,-38.43726348876953,0.1463703215122223,-0.13669075071811676,0.027373313903808594,0.056793302,-0.14513756,9.767151,-0.13141218,0.14231215,9.766475,0
17,988.0906982421875,2.4453154765069485E-5,-7.896754541434348E-4,2.2443526540882885E-4,-2.340460777282715,26.56534767150879,-38.123435974121094,0.1266987919807434,-0.13597093522548676,0.0131988525390625,0.06399095,-0.13560511,9.781357,-0.12152997,0.15275335,9.78056,0
17,988.1007690429688,-3.7528970278799534E-4,4.087897250428796E-4,4.906358080916107E-4,-2.397064208984375,26.67066764831543,-38.58278274536133,0.13550953567028046,-0.14935563504695892,0.02744007110595703,0.05923903,-0.13798912,9.778992,-0.12866226,0.14712667,9.778193,0
17,988.057861328125,-3.755587385967374E-4,-5.232722614891827E-4,4.905204987153411E-4,-1.8537354469299316,26.072954177856445,-38.246612548828125,0.13922375440597534,-0.14880932867527008,0.04167652130126953,0.061656833,-0.12845673,9.762424,-0.12331021,0.15642315,9.761434,0
17,988.1256713867188,-1.0951189324259758E-4,6.751929176971316E-4,-3.0854245414957404E-4,-2.0359978675842285,26.165292739868164,-37.608055114746094,0.12929385900497437,-0.1576669067144394,0.04170036315917969,0.05690497,-0.1236908,9.762426,-0.12706369,0.16108234,9.761219,0
17,988.09033203125,-7.755708647891879E-4,-5.231847753748298E-4,-7.081316434778273E-4,-2.1310787200927734,26.287687301635742,-38.75532913208008,0.12838785350322723,-0.14722876250743866,0.022803306579589844,0.059322774,-0.12845804,9.781366,-0.12484739,0.15546666,9.780359,0
17,988.09033203125,-7.755708647891879E-4,-5.231847753748298E-4,-7.081316434778273E-4,-2.0232791900634766,25.80878257751465,-38.12804412841797,0.13719312846660614,-0.14632682502269745,0.02757549285888672,0.054570913,-0.13084202,9.779002,-0.12773275,0.15338434,9.777993,0
17,988.0979614257812,-1.1005019769072533E-4,4.089644644409418E-4,2.2385860211215913E-4,-2.2506489753723145,26.28059959411621,-37.966644287109375,0.11732128262519836,-0.1359395533800125,0.027609825134277344,0.06654829,-0.13560928,9.769536,-0.11460253,0.147235,9.768923,0
17,988.1056518554688,4.2231252882629633E-4,-6.562554626725614E-4,3.5690126242116094E-4,-2.374509811401367,26.480924606323242,-38.344200134277344,0.13099157810211182,-0.1544734388589859,0.04183769226074219,0.061796486,-0.12846015,9.767172,-0.12348463,0.14985871,9.766281,0
17,988.08544921875,-5.10062207467854E-4,1.4273589476943016E-4,4.899438936263323E-4,-1.4600038528442383,25.756437301635742,-37.672889709472656,0.1256290078163147,-0.1539556235074997,0.046596527099609375,0.06421429,-0.121310905,9.757705,-0.11710907,0.15841976,9.7566805,0
17,988.1105346679688,-5.103311268612742E-4,-3.89852182706818E-4,-4.2803294491022825E-5,-1.9775967597961426,26.27327537536621,-38.624168395996094,0.12997108697891235,-0.14342035353183746,0.02295684814453125,0.05946237,-0.12369491,9.774278,-0.12099504,0.15644303,9.77324,0
17,988.095458984375,-1.1112657375633717E-4,-6.561244372278452E-4,2.2339733550325036E-4,-2.0920581817626953,25.902318954467773,-37.96894836425781,0.11957187950611115,-0.1280948668718338,0.02773284912109375,0.06666002,-0.14514513,9.776648,-0.11375798,0.13408394,9.77637,0
17,988.1004638671875,2.8807809576392174E-4,2.760249190032482E-4,4.895979072898626E-4,-2.1903209686279297,25.91585350036621,-38.262535095214844,0.13338062167167664,-0.1323753148317337,0.06089496612548828,0.054738402,-0.14514585,9.762447,-0.12612976,0.132727,9.761963,0
17,988.1104125976562,1.546512357890606E-4,-7.891949499025941E-4,-8.420968079008162E-4,-2.010666847229004,26.558622360229492,-39.02069091796875,0.15140189230442047,-0.13175512850284576,0.041993141174316406,0.04998654,-0.14276321,9.767183,-0.13063383,0.13400476,9.766561,0
17,988.12060546875,1.5411304775625467E-4,-2.564758760854602E-4,-3.0969572253525257E-4,-1.923356533050537,25.902639389038086,-38.61083984375,0.12211176753044128,-0.14997707307338715,0.032555580139160156,0.06435385,-0.13084747,9.762451,-0.11448774,0.14480633,9.761794,0
17,988.0525512695312,-1.1247186921536922E-4,-3.895900445058942E-4,4.891366697847843E-4,-2.325676918029785,25.842023849487305,-38.62228012084961,0.11217130720615387,-0.1303316205739975,0.027840614318847656,0.057212055,-0.13323148,9.769556,-0.11919159,0.14434232,9.768839,0
17,988.0826416015625,-2.458988456055522E-4,-6.558623281307518E-4,-7.094001048244536E-4,-1.9719443321228027,25.54111671447754,-38.6591796875,0.12127357721328735,-0.13419272005558014,0.027872085571289062,0.06440967,-0.13323219,9.769558,-0.11357214,0.14142707,9.768996,0
17,988.1206665039062,2.014799974858761E-5,-2.563448215369135E-4,2.2259014076553285E-4,-2.0351791381835938,26.00883674621582,-38.90776062011719,0.12071214616298676,-0.14282257854938507,0.027904510498046875,0.054877996,-0.12608303,9.769561,-0.12202267,0.14829831,9.7686405,0
17,988.0978393554688,5.525104934349656E-4,-3.894590772688389E-4,-1.7699907766655087E-4,-2.15102481842041,25.7423152923584,-38.87431335449219,0.12497901916503906,-0.1325061172246933,0.027932167053222656,0.06446549,-0.14038332,9.779033,-0.11220494,0.13359334,9.778696,0
18,988.0626220703125,1.527676358819008E-4,-5.225733621045947E-4,4.886753158643842E-4,-2.0059938430786133,25.456701278686523,-38.879947662353516,0.11955422163009644,-0.13173092901706696,0.04216575622558594,0.06210354,-0.14038403,9.764832,-0.114431754,0.1319296,9.764477,0
18,988.0726318359375,-3.8013316225260496E-4,-2.5621376698836684E-4,8.908618474379182E-5,-2.1470022201538086,26.11503028869629,-39.20467758178711,0.12376786768436432,-0.13089977204799652,0.027993202209472656,0.050181925,-0.1356182,9.779037,-0.12527733,0.13736394,9.778339,0
18,988.0726318359375,8.180191507562995E-4,-0.0013214335776865482,-3.105028881691396E-4,-1.8159618377685547,25.897947311401367,-38.78108215332031,0.11853332817554474,-0.14404676854610443,0.023294448852539062,0.06215936,-0.12370248,9.776672,-0.11407407,0.14594172,9.775897,0
