Timestamp,Ax,Ay,Az,Gx,Gy,Gz,Mx,My,Mz,LiAx,LiAy,LiAz,P,Value,Type,GroupType
0.0,0.091793776,-0.14936808,9.752588000000001,-0.0004325878689996898,0.001403624890372157,0.00010695206583477557,3.746654272079468,20.033483505249023,-14.631654739379885,-0.7308993339538574,-0.05366581678390503,0.05541038513183594,990.5520629882812,0,0.0,0
0.04,0.08697209,-0.16605002,9.769155,-0.0004325878689996898,0.001403624890372157,0.00010695206583477557,0.6334424018859863,15.959510803222654,-14.221471786499025,-0.7084352970123291,-0.03863190114498138,0.02723979949951172,990.5520629882812,0,0.0,0
0.08,0.086930275,-0.16128245,9.771517999999999,0.0049653234891593465,4.628785245586186e-05,0.001096658525057137,0.9917407035827636,15.663022994995115,-14.490289688110352,-0.7236234545707703,-0.06229802966117859,-0.00090789794921875,990.3815307617188,0,0.0,0
0.12,0.09166831,-0.17081448,9.773881,0.0012373042991384866,0.0005788540584035218,-0.00036790594458580017,1.2462306022644043,15.005889892578125,-14.645021438598633,-0.7246289849281311,-0.057296976447105415,0.013544082641601562,990.428955078125,0,0.0,0
0.16,0.0892365,-0.15889707,9.77861,-0.0010259774280712008,-0.00022015902504790572,3.1740724807605154e-05,0.6644477844238281,16.040985107421875,-13.846094131469727,-0.7162922620773315,-0.056906342506408684,0.009050369262695312,990.4468383789062,0,0.0,0
0.2,0.09875432,-0.16366264,9.771504,0.0004395661817397921,0.0008449736633338034,-0.0012994932476431134,1.1677770614624023,15.458873748779295,-14.120546340942385,-0.7176717519760132,-0.046899691224098206,0.023481369018554688,990.4641723632812,0,0.0,0
0.24,0.086762965,-0.16842815,9.7738695,4.0495622670277946e-05,-8.719741890672594e-05,-0.00036721484502777457,0.7327909469604492,15.20939826965332,-13.730981826782227,-0.6996829509735107,-0.04662880301475525,0.01898384094238281,990.4517822265624,0,0.0,0
0.28,0.093890816,-0.15174416,9.759663,4.089876892976463e-05,-0.0003535787109285593,3.2431795261800296e-05,0.7141218185424805,15.66592788696289,-13.600851058959961,-0.7051843404769897,-0.051239013671875,0.014509201049804688,990.499755859375,0,0.0,0
0.32,0.08667928,-0.15412644,9.757291,-9.185602539218962e-05,-0.0008862759568728508,-0.0001005532976705581,0.8713283538818359,15.39208984375,-14.22492790222168,-0.701815128326416,-0.06506362557411194,0.03840446472167969,990.4794921875,0,0.0,0
0.36,0.09380716,-0.15650865,9.771491000000001,0.0003080210590269417,0.0007115539046935737,0.00016593531472608447,0.6284410953521729,15.217037200927734,-13.715349197387695,-0.7032108306884766,-0.07424445450305939,0.01968574523925781,990.499755859375,0,0.0,0
0.4,0.09137541,-0.15650764,9.76912,0.00030842432170175016,-8.745917875785379e-05,-0.00010020783520303668,0.8646976947784424,15.754487991333008,-14.014158248901367,-0.685612678527832,-0.05016517639160156,0.02462863922119141,990.4895629882812,0,0.0,0
0.44,0.093723506,-0.13982368,9.759647,-0.0007564359111711383,0.0005782650550827384,-0.000366350868716836,1.1143782138824463,16.093360900878903,-13.610551834106445,-0.6918709874153137,-0.07391367852687836,0.02956867218017578,990.4866943359376,0,0.0,0
0.48,0.08412203,-0.14935574,9.778580999999999,0.00030923073063604534,0.0009776733350008726,0.00029961171094328165,0.7657542228698729,16.030397415161133,-13.707117080688475,-0.6789076328277588,-0.06881308555603027,0.0013799667358398438,990.4994506835938,0,0.0,0
0.52,0.0793004,-0.16365448,9.771476,-0.0004893135046586393,0.00031181820668280125,-0.00036600511521101003,0.9380428791046144,15.66537094116211,-14.405168533325195,-0.6758062839508057,-0.054403841495513916,0.01577472686767578,990.4515380859376,0,0.0,0
0.56,0.09598786,-0.16127011,9.759636,-0.00035575233050622046,0.0007112265448085964,0.0009657471673563123,0.950080633163452,15.571239471435547,-14.324525833129885,-0.6866711378097534,-0.05412288010120392,0.030195236206054688,990.4864501953124,0,0.0,0
0.6,0.093556136,-0.15411928,9.778569000000001,4.412475391291082e-05,-0.0002209444501204416,3.3814372727647424e-05,0.671919584274292,15.94243621826172,-13.533540725708008,-0.6914736032485962,-0.05833977460861206,0.0020895004272460933,990.4689331054688,0,0.0,0
0.64,0.08634460000000001,-0.15650153,9.764362,0.0003108438977506012,0.000577937753405422,-0.0004986446583643557,1.0136141777038574,15.735658645629885,-13.651079177856445,-0.6685898303985596,-0.05797886848449708,0.02599525451660156,990.47119140625,0,0.0,0
0.68,0.088692635,-0.16841689,9.761991499999999,4.493104643188417e-05,-8.791747677605599e-05,3.415989340282977e-05,0.8000483512878418,15.114387512207033,-13.812772750854492,-0.6653035879135132,-0.04332426190376282,0.04040241241455078,990.4839477539062,0,0.0,0
0.72,0.09104073,-0.18033227,9.778558,0.00031165030668489635,0.0003114908759016544,0.0001674907107371837,0.4096591472625733,16.065986633300778,-14.116235733032227,-0.6685415506362915,-0.0337582528591156,0.002619743347167969,990.4585571289062,0,0.0,0
0.76,0.0957787,-0.14934862,9.766718,-0.00035373613354749983,-0.00035436433972790837,0.00016766352928243577,0.764775276184082,15.660634994506836,-13.531362533569336,-0.6795592904090881,-0.06659986078739166,0.03596782684326172,990.4813232421876,0,0.0,0
0.8,0.08378735,-0.15649739,9.750144,0.0004456145397853106,0.00044451793655753136,-0.00023163750302046537,0.6892046928405762,15.590347290039062,-14.28544807434082,-0.6523689031600952,-0.061729148030281074,0.04563426971435547,990.4963989257812,0,0.0,0
0.84,0.088525295,-0.15411308,9.771445,-0.0002197719004470855,-8.817932393867522e-05,-0.0008972544455900787,0.8742351531982422,15.289119720458984,-13.680459976196287,-0.6441662907600403,-0.05699439346790314,0.017426490783691406,990.4912719726562,0,0.0,0
0.88,0.09087336,-0.15411207,9.759604,4.6947243390604854e-05,-8.824474934954196e-05,0.00030133977998048067,0.43511962890625,15.773277282714846,-13.333185195922852,-0.6550239324569702,-0.061436429619789124,0.03184032440185547,990.4608154296876,0,0.0,0
0.92,0.09083158,-0.14696118,9.773804,-0.0004852812562603504,0.00044432154390960926,0.00016835468704812231,0.18489646911621094,15.802698135375975,-13.835241317749025,-0.6566087603569031,-0.06593738496303557,0.013093948364257812,990.4989624023438,0,0.0,0
0.96,0.09317961,-0.14219362,9.75723,-8.540428825654091e-05,-8.837571658659726e-05,3.536962321959436e-05,0.6189031600952148,15.682411193847654,-14.049051284790039,-0.6579549312591553,-0.07493621110916138,0.03223896026611328,990.5011596679688,0,0.0,0
1.0,0.09074786,-0.16125885,9.743022,0.0006926505593582988,-0.00035293630207888777,-7.38498056307435e-06,0.6388494968414307,16.227775573730472,-13.930070877075195,-0.6352424025535583,-0.05545096099376679,0.05612659454345703,990.468505859375,0,0.0,0
1.04,0.085926235,-0.15172467,9.77616,0.00016042203060351312,-8.6685897258576e-05,-0.0001403700734954327,0.5455584526062012,15.771524429321287,-13.658037185668945,-0.6417956352233887,-0.050220891833305366,0.01369953155517578,990.4934692382812,0,0.0,0
1.08,0.09544402,-0.14934036,9.773789,0.00042714117444120353,0.0003127225209027529,0.0003924344491679221,0.8471150398254395,15.474437713623047,-13.687124252319336,-0.6479626893997192,-0.05476869642734528,0.013895034790039062,990.47314453125,0,0.0,0
1.12,0.08823246,-0.16363904,9.761949000000001,-0.0006377191748470067,0.0004458149778656661,0.0003926071512978524,0.8179292678833008,16.026575088500973,-13.714937210083008,-0.6495376229286194,-0.05940774083137512,0.02828216552734375,990.4710083007812,0,0.0,0
1.16,0.088190675,-0.16840455,9.776149,0.00016163158579729497,0.00044574952335096896,-6.693851901218295e-06,0.9885582923889159,15.554161071777346,-13.636598587036133,-0.6323542594909668,-0.0589461475610733,0.009512901306152344,990.4808349609376,0,0.0,0
1.2,0.09053874,-0.16840354,9.773778,2.8876907890662548e-05,0.0001793681876733899,-0.00027283685631118715,0.6368918418884277,15.488250732421875,-13.578554153442385,-0.6335582733154297,-0.030214041471481327,0.03338623046875,990.4805908203124,0,0.0,0
1.24,0.08571708,-0.16601923,9.754836,2.8876907890662548e-05,0.0001793681876733899,-0.00027283685631118715,0.9514651298522948,15.466796875,-13.702756881713867,-0.6114073991775513,-0.0445757657289505,0.03355121612548828,990.4805908203124,0,0.0,0
1.28,0.09132552,-0.15412313,9.766747,-0.00023703582701273263,-0.0007528028800152242,-0.0006721379468217492,0.5703146457672119,15.320884704589846,-14.097391128540039,-0.6331174373626709,-0.06354723870754242,0.014704704284667969,990.4755859375,0,0.0,0
1.32,0.08891529,-0.16365579,9.78095,-0.0005029485328122972,0.0013776588020846248,0.0002601405722089112,0.8330113887786865,15.93539047241211,-13.788911819458008,-0.6297512054443359,-0.0537690669298172,0.014893531799316406,990.4855346679688,0,0.0,0
1.36,0.08172533,-0.16842186,9.785682000000001,0.00016046257223933935,-0.0002218408917542547,-4.235334927216172e-06,0.7762701511383057,15.934791564941404,-13.549173355102539,-0.6121772527694702,-0.04864835739135742,0.015076637268066406,990.470458984375,0,0.0,0
1.4,0.08409494,-0.14458856,9.766743,-0.00010978127829730512,-8.804526441963391e-05,-0.0006717086071148515,0.7458086013793945,15.485027313232422,-13.826105117797852,-0.5996284484863281,-0.058089405298233025,0.03417682647705078,990.4803466796876,0,0.0,0
1.44,0.084074646,-0.15650442,9.766739999999999,-0.00010958558414131404,-0.0006207088590599598,0.0005267967935651541,0.6222457885742188,16.317489624023438,-13.778787612915039,-0.6060353517532349,-0.06240944564342499,0.02962017059326172,990.4804077148438,0,0.0,0
1.48,0.08405435,-0.15650392,9.769105,0.0002902793930843472,-8.814056491246447e-05,-5.667301593348384e-06,0.5265903472900391,15.59592056274414,-13.952779769897461,-0.6015164852142334,-0.05692441761493682,0.02514171600341797,990.4551391601562,0,0.0,0
1.52,0.08642393,-0.16365328,9.776206,0.0002902793930843472,-8.814056491246447e-05,-5.667301593348384e-06,0.5265903472900391,15.59592056274414,-13.952779769897461,-0.5998783111572266,-0.05219145119190216,0.006289482116699219,990.4551391601562,0,0.0,0
1.56,0.09596327,-0.15650296,9.773837,-0.0007745928596705197,0.0007107435376383363,-0.0009376051602885127,0.6234686374664307,15.68682861328125,-14.280961990356445,-0.6067308187484741,-0.04737342894077301,0.03483867645263672,990.4652099609376,0,0.0,0
1.6,0.083993435,-0.14696935,9.766733,-0.0006412393413484098,-8.823586540529504e-05,-0.0002717316383495927,1.1025841236114502,15.187067031860352,-14.017610549926758,-0.6016390323638916,-0.05183446407318115,0.02564239501953125,990.4803466796876,0,0.0,0
1.64,0.08158323,-0.16841838,9.773833,0.00015790399629622698,-0.0006208994309417902,-0.0005379637586884202,0.7774944305419922,15.304126739501953,-14.051355361938475,-0.5889849662780762,-0.03732335567474365,0.0210723876953125,990.4672241210938,0,0.0,0
1.68,0.08156294,-0.16126797,9.764362,-0.0003745321882888675,-0.00022145730326883492,0.00012790979235433042,0.1818528175354004,15.799749374389648,-13.680627822875975,-0.5810174345970154,-0.05132347345352173,0.0354461669921875,990.4953002929688,0,0.0,0
1.72,0.09110227,-0.16126749,9.769094,0.0006909269141033293,-0.00022148902644403282,0.00012799364048987627,0.6388494968414307,16.227777481079098,-13.930063247680664,-0.5923422574996948,-0.051293790340423584,0.02139759063720703,990.4900512695312,0,0.0,0
1.76,0.07913244,-0.1636503,9.7572565,-0.0005072988569736482,4.4795095163863145e-05,-0.0002713963622227311,0.6309413909912109,15.588275909423828,-13.968412399291992,-0.5715979337692261,-0.05554692447185517,0.04516315460205078,990.4749145507812,0,0.0,0
1.8,0.09106168,-0.16841641,9.761989,0.00042500230483710766,-0.0002215525892097503,-0.0005376284243538977,0.6755070686340332,15.577089309692385,-13.589700698852539,-0.5830721855163574,-0.02695503830909729,0.03110504150390625,990.4696655273438,0,0.0,0
1.84,0.08865148,-0.15411618,9.776191,0.000292039941996336,0.00044420539052225655,-0.0002712286077439785,1.0757627487182615,16.004522323608402,-13.599405288696287,-0.5703907012939453,-0.0600958913564682,0.0123291015625,990.4746704101562,0,0.0,0
1.88,0.086241275,-0.16364875,9.771455,-0.00037355418317019934,-0.0006210898864082992,-0.0006706187268719077,0.7000193595886229,16.126876831054688,-13.702634811401367,-0.576754093170166,-0.0311947762966156,0.007761955261230469,990.4747314453124,0,0.0,0
1.92,0.08383107,-0.14696535,9.771453,0.00042558915447443724,0.0005772997974418104,-0.0002710610860958696,1.105926752090454,15.822149276733398,-13.747354507446287,-0.5582062005996704,-0.050167664885520935,0.022174835205078125,990.4846801757812,0,0.0,0
1.96,0.09337038,-0.15649799,9.77145,-0.0007726367330178617,-8.852160681271927e-05,-4.66126948595047e-06,0.9163305759429932,16.11895751953125,-14.120424270629885,-0.569810152053833,-0.040254101157188416,0.031787872314453125,990.491943359375,0,0.0,0
2.0,0.09812989999999999,-0.15411422,9.757245,-0.00023980927653610704,0.0005772362928837537,0.00026173845981247723,0.919236660003662,16.015987396240234,-13.575956344604492,-0.5730079412460327,-0.04959845542907715,0.04607200622558594,990.4871826171876,0,0.0,0
2.04,0.0981096,-0.16126361,9.766712,0.0005593340611085296,4.457280010683462e-05,0.00026182227884419257,0.9009501934051514,15.578006744384766,-14.471323013305664,-0.5687354803085327,-0.039613112807273865,0.03208732604980469,990.4718627929688,0,0.0,0
2.08,0.078970075,-0.16602954,9.771445,0.00016005581710487604,0.000843488669488579,0.0007945378310978413,0.8224959373474121,16.030994415283207,-13.946847915649414,-0.5576821565628052,-0.030054479837417606,0.0037527084350585938,990.4666748046876,0,0.0,0
2.12,0.0861195,-0.14934614,9.769076,-0.0005055381916463375,0.00017766721430234608,-0.0001374839339405298,0.6153159141540527,16.047752380371097,-13.992891311645508,-0.5499231815338135,-0.05852499604225159,0.032306671142578125,990.4716186523438,0,0.0,0
2.16,0.09087902,-0.14219579,9.764339,-0.0003721846733242273,-8.868042641552165e-05,-0.00027055799728259444,0.6559963226318359,15.769773483276367,-13.982892990112305,-0.5567543506622314,-0.06769001483917236,0.03717994689941406,990.4590454101562,0,0.0,0
2.2,0.08129910000000001,-0.15411171,9.766705,0.00029380060732364655,-0.0004881859349552542,-0.00027047412004321814,1.3598737716674805,15.533302307128904,-14.000539779663086,-0.5476202368736267,-0.0527997761964798,0.027930259704589844,990.4688720703124,0,0.0,0
2.24,0.08362174,-0.14934352,9.769066,0.0002939961850643158,0.0004438878386281432,-0.00013723236043006182,1.424224853515625,15.541267395019533,-14.626794815063475,-0.5413870811462402,-0.05746087431907654,0.02326679229736328,990.47412109375,0,0.0,0
2.28,0.083551615,-0.15649164,9.761958,0.0009618120966479181,0.00017605675384402275,0.0003980314359068871,1.1557388305664062,15.553009033203125,-14.201189041137695,-0.5370762348175049,-0.047372177243232734,0.047158241271972656,990.4736328125,0,0.0,0
2.32,0.09069726,-0.15887433,9.780894,0.0009618120966479181,0.00017605675384402275,0.0003980314359068871,1.1557388305664062,15.553009033203125,-14.201189041137695,-0.5548607110977173,-0.052205607295036316,0.023546218872070312,990.4736328125,0,0.0,0
2.36,0.0858933,-0.16125699999999998,9.776156,-0.0011683701304718852,0.0005754746380262077,-0.0002676105068530888,0.6355078220367432,15.592695236206055,-14.200326919555664,-0.5332297086715698,-0.047208622097969055,0.02366924285888672,990.4761352539062,0,0.0,0
2.4,0.083479345,-0.15410659,9.7761545,-0.00010264198499498887,0.0011080309050157666,0.0005315362941473721,0.9871740341186525,15.65860366821289,-14.258371353149414,-0.5434476733207703,-0.05630868673324585,0.019134521484375,990.47607421875,0,0.0,0
2.44,0.07628554,-0.15887254,9.769052,0.0006965380162000656,-0.0008893759222701193,0.0005316359456628561,0.4020493030548096,16.05862045288086,-13.729707717895508,-0.5307742357254028,-0.041495829820632935,0.03822517395019531,990.4532470703124,0,0.0,0
2.48,0.08821091,-0.17078838,9.771416,0.00015477355918847024,-0.0011338932672515512,-0.0003774655051529408,0.6831169128417969,15.584453582763672,-13.976228713989258,-0.5227538347244263,-0.027139037847518917,0.028906822204589844,990.4935913085938,0,0.0,0
2.52,0.083407044,-0.14695498,9.773781,0.00015477355918847024,-0.0011338932672515512,-0.0003774655051529408,0.6831169128417969,15.584453582763672,-13.976228713989258,-0.5214242935180664,-0.06478007137775421,0.019507408142089844,990.4935913085938,0,0.0,0
2.56,0.080993,-0.15887079,9.771412,-0.0003776261874008924,-6.866746116429566e-05,-0.00011105008888989687,0.7359721660614014,15.318260192871096,-14.584672927856445,-0.5219593644142151,-0.04064002633094788,0.02443981170654297,990.4658203125,0,0.0,0
2.6,0.09530836,-0.16602,9.759573,0.0005547119653783739,0.00019761068688239905,0.00015536529826931655,0.3239774703979492,15.61709976196289,-14.230733871459961,-0.5381579995155334,-0.030599385499954224,0.03404998779296875,990.4984741210938,0,0.0,0
2.64,0.083334714,-0.16363615,9.773774000000001,0.0005547119653783739,0.00019761068688239905,0.00015536529826931655,0.3239774703979492,15.61709976196289,-14.230733871459961,-0.5125261545181274,-0.030673474073410038,0.024656295776367188,990.4984741210938,0,0.0,0
2.68,0.092870235,-0.14218602,9.764304,0.0009544179192744195,-6.874292739666998e-05,2.2306863684207198e-05,0.2871823310852051,16.161869049072266,-13.872018814086914,-0.5238338708877563,-0.06380271911621094,0.01532745361328125,990.4855346679688,0,0.0,0
2.72,0.09045622,-0.16363496,9.771402,-0.00011061333498219028,-0.0016666759038344026,0.00015556439757347107,0.5022158622741699,15.152050018310547,-14.53892707824707,-0.5306023359298706,-0.039663925766944885,0.034394264221191406,990.4803466796876,0,0.0,0
2.76,0.092822015,-0.15171793,9.761931,-0.00011038096999982373,-0.0002019762177951634,-0.00024380977265536782,0.18503427505493164,15.908613204956055,-14.534318923950195,-0.5089004039764404,-0.03935419023036957,0.05344963073730469,990.4883422851562,0,0.0,0
2.8,0.080848426,-0.1517174,9.754828,0.00015616705059073865,0.0008632495300844313,-0.00011055229697376492,0.3602290153503418,15.440616607666016,-14.687898635864258,-0.496731698513031,-0.03903719782829285,0.04410171508789063,990.485595703125,0,0.0,0
2.84,0.07365465,-0.14456692,9.773763,0.0005561053403653204,0.00019738437549676743,0.00015596256707794964,-0.3605508804321289,15.134664535522461,-14.943849563598633,-0.4985118508338928,-0.05288632214069368,0.01583385467529297,990.4828491210938,0,0.0,0
2.88,0.08558002,-0.16124931,9.754824000000001,0.0005563379381783307,-0.0011342326179146767,-0.0005097275134176017,-0.03407621383666992,14.913158416748047,-14.288335800170898,-0.4897731840610504,-0.038485914468765266,0.05388069152832031,990.4727172851562,0,0.0,0
2.92,0.08794585,-0.16601527,9.773759,-0.0007750093354843558,0.0007299408316612244,2.300366759300232e-05,-0.0858159065246582,15.655035018920898,-14.554727554321287,-0.5028214454650879,-0.03827570378780365,0.020799636840820312,990.48779296875,0,0.0,0
2.96,0.09270152400000001,-0.15409827,9.769022999999999,0.00015732840984128416,6.411341018974781e-05,0.0002894192584790289,-0.31622934341430664,16.123905181884766,-14.238718032836914,-0.5002087354660034,-0.04754719138145447,0.03038501739501953,990.48779296875,0,0.0,0
3.0,0.09506732,-0.16363081,9.773755,-0.0003750708710867912,-6.90822344040498e-05,2.3202912416309118e-05,0.008562564849853516,15.374706268310547,-14.629850387573242,-0.5105150938034058,-0.042573243379592896,0.03055858612060547,990.48779296875,0,0.0,0
3.04,0.08548364,-0.14218068,9.77612,0.0002909509639721364,0.0008629857329651713,-0.0002430134918540716,-0.3468303680419922,15.568222045898438,-13.816568374633787,-0.4806047976016998,-0.05190572142601013,0.02587985992431641,990.4928588867188,0,0.0,0
3.08,0.08784941,-0.15647978,9.766648,0.0008238149457611144,0.00019715823873411864,0.0005560336867347361,-0.3111205101013184,15.760034561157227,-14.372182846069336,-0.4717081785202026,-0.046898990869522095,0.030790328979492188,990.4725341796876,0,0.0,0
3.12,0.08782536,-0.15886244,9.783216,-0.0007738479762338103,-0.0006018270505592228,-0.0002428144798614085,0.2012019157409668,15.080842971801758,-14.411386489868164,-0.4894655048847199,-0.037254735827445984,0.011911392211914062,990.4700317382812,0,0.0,0
3.16,0.08302143,-0.15647861,9.776113,2.5331937649752945e-05,-6.923307955730705e-05,0.000822548579890281,-0.13204002380371094,15.558830261230467,-14.157052993774414,-0.4629218578338623,-0.051295995712280266,0.030961990356445312,990.4598999023438,0,0.0,0
3.2,0.07821751,-0.15171143,9.757173,-0.0003739095118362457,-0.0008682183688506483,-0.0007752468809485434,0.12813282012939453,15.381793975830078,-15.418535232543945,-0.4697233140468597,-0.04648827016353607,0.03581047058105469,990.4873046875,0,0.0,0
3.24,0.087784946,-0.16601136,9.773744,2.579643478384241e-05,0.000463323260191828,-0.0006419895216822624,-0.2056536674499512,16.228069305419922,-15.262651443481445,-0.4814395308494568,-0.02722744643688202,0.0169830322265625,990.4796752929688,0,0.0,0
3.28,0.08540481,-0.15886170000000002,9.776113,2.587699418654665e-05,-0.0006019532447680831,-0.0009082710603252053,-0.1575007438659668,15.851539611816404,-14.940099716186525,-0.4787716567516327,-0.04142971336841583,0.017088890075683594,990.4796752929688,0,0.0,0
3.32,0.08538324,-0.15171137,9.764274,-0.001171008450910449,6.23398955212906e-05,-0.00037153242737986153,0.13256072998046875,15.280296325683596,-14.951372146606445,-0.4697265625,-0.03211839497089386,0.021988868713378903,990.4721069335938,0,0.0,0
3.36,0.08775160000000001,-0.15886068,9.776109,-0.0007713268860243262,-0.0010029574623331428,0.0005606621270999311,-0.04774332046508789,16.112163543701172,-14.664327621459961,-0.4733898043632507,-0.041327878832817085,0.03150749206542969,990.4797973632812,0,0.0,0
3.4,0.08773005,-0.15409360000000002,9.766638,2.7828667953144756e-05,-7.088546408340335e-05,-0.00037135442835278814,0.05921506881713867,15.36941146850586,-14.560358047485352,-0.465779036283493,-0.04127165675163269,0.026885986328125,990.4869995117188,0,0.0,0
3.44,0.0948782,-0.15885961,9.750065,0.0002943522413261235,-0.0003372350474819541,-0.0003712652542162687,-0.04651975631713867,15.481496810913086,-15.166505813598633,-0.4727440476417542,-0.031422019004821784,0.03646278381347656,990.4742431640624,0,0.0,0
3.48,0.09246671,-0.14932597,9.771367,0.0004277179832570255,6.220504292286932e-05,0.000560929242055863,-0.2091336250305176,15.487071990966795,-14.833833694458008,-0.4749765992164612,-0.0596669465303421,0.04130363464355469,990.4539794921876,0,0.0,0
3.52,0.09005529,-0.16124183,9.766631,-0.0006373378564603628,0.0003284871927462518,0.0005610183579847217,-0.22628068923950195,15.945075988769533,-14.781007766723633,-0.4630852341651917,-0.03114672005176544,0.0461273193359375,990.4767456054688,0,0.0,0
3.56,0.09003371,-0.15647474,9.776098,-0.0005039719981141387,-7.102037488948554e-05,-0.0006373140495270492,-0.3470969200134277,16.148347854614258,-15.313173294067385,-0.4464000463485718,-0.03575222194194794,0.027281761169433597,990.4788818359376,0,0.0,0
3.6,0.09957176400000001,-0.15885755,9.766627,0.00016202538972720504,-0.00020421195949893445,0.00042803847463801503,-0.5667510032653809,15.52118682861328,-15.165643692016602,-0.4675484895706177,-0.035518571734428406,0.032126426696777344,990.4686889648438,0,0.0,0
3.64,0.08282092,-0.15885696,9.771360000000001,2.9075126803945753e-05,6.207013211678715e-05,0.00042812753235921264,-0.4316930770874024,14.962879180908205,-15.230772018432615,-0.4506246447563171,-0.040377646684646606,0.013284683227539062,990.48388671875,0,0.0,0
3.68,0.08518922,-0.15647319,9.752419999999999,0.0005621224991045891,-0.0007369450759142637,-0.0006369579350575805,-0.3622097969055176,15.02727508544922,-14.16746711730957,-0.4421046376228333,-0.03980894386768341,0.05131244659423828,990.4686889648438,0,0.0,0
3.72,0.08994752,-0.15885589,9.759521000000001,0.0005621224991045891,-0.0007369450759142637,-0.0006369579350575805,-0.3622097969055176,15.02727508544922,-14.16746711730957,-0.4502873420715332,-0.0490436851978302,0.041899681091308594,990.4686889648438,0,0.0,0
3.76,0.09231585,-0.16600525,9.761886,0.0008286460652016102,-0.0006038207793608308,-0.00037055302527733147,-0.6294426918029785,15.620613098144533,-15.315767288208008,-0.43816131353378296,-0.029513463377952576,0.04673957824707031,990.4535522460938,0,0.0,0
3.8,0.08512458,-0.151705,9.764251,0.00016306416364386678,6.193514855112879e-05,0.0002953257062472403,-1.0157022476196291,15.83857536315918,-15.576936721801758,-0.4259367287158966,-0.034465402364730835,0.04209804534912109,990.4840087890624,0,0.0,0
3.84,0.07554343,-0.16600418,9.757147999999999,0.00029663770692422986,-0.00033760612132027745,-0.0002371279115322977,-0.6643328666687012,15.272346496582033,-16.059858322143555,-0.41272103786468506,-0.02446047961711884,0.04224205017089844,990.4660034179688,0,0.0,0
3.88,0.087471366,-0.16123709,9.778450999999999,0.00029663770692422986,-0.00033760612132027745,-0.0002371279115322977,-0.952467441558838,15.370853424072266,-15.328363418579102,-0.4390747547149658,-0.043713703751564026,0.03285408020019531,990.4660034179688,0,0.0,0
3.92,0.08267000000000001,-0.15885326,9.757143,-0.001034734072163701,0.00019499192421790207,-0.0005033547058701514,-1.3106274604797363,15.77326202392578,-15.758623123168945,-0.4170409142971039,-0.02459581196308136,0.028224945068359375,990.4887084960938,0,0.0,0
3.96,0.08025861,-0.16361931,9.773711,-0.001034734072163701,0.00019499192421790207,-0.0005033547058701514,-1.3106274604797363,15.77326202392578,-15.758623123168945,-0.4205377399921417,-0.029177278280258182,0.0282745361328125,990.4887084960938,0,0.0,0
4.0,0.08262691,-0.15170237,9.754771,0.000183510928764008,0.0001492456649430096,-0.0005802363157272339,-1.9889073371887207,15.822940826416016,-15.657007217407227,-0.4271179139614105,-0.05277465283870697,0.047324180603027344,990.4736328125,0,0.0,0
4.04,0.08738515,-0.15170184,9.761871000000001,-8.259703463409096e-05,0.0013476333115249872,-0.00044698908459395165,-2.265408992767334,16.301521301269528,-15.642404556274414,-0.41994452476501465,-0.03832206130027771,0.04741191864013672,990.4579467773438,0,0.0,0
4.08,0.07541412,-0.15646788,9.7642355,-0.0003487052163109184,-0.00025029561948031187,0.0006183633813634515,-1.7731385231018066,16.183307647705078,-16.173250198364258,-0.4030218720436096,-0.047785744071006775,0.03803443908691406,990.4756469726562,0,0.0,0
4.12,0.087342024,-0.15885064,9.7595,-0.0003487052163109184,-0.00025029561948031187,0.0006183633813634515,-1.7731385231018066,16.183307647705078,-16.173250198364258,-0.4545646011829376,-0.0712043046951294,0.033344268798828125,990.4756469726562,0,0.0,0
4.16,0.09449017,-0.12548417,9.783171000000001,5.0976392230950296e-05,-0.0003834873205050826,0.0003521364997141063,-1.9131979942321775,15.999141693115234,-15.60200309753418,-0.4377348124980927,-0.07585985958576202,0.02396392822265625,990.46826171875,0,0.0,0
4.2,0.09446865,-0.17076597,9.764232000000002,0.0004508657148107887,0.00014907708100508898,-0.000446633086539805,-2.249485492706299,16.47418212890625,-15.193056106567385,-0.4120340049266815,0.005340069532394409,0.028763771057128906,990.475341796875,0,0.0,0
4.24,0.08402269999999999,-0.16121110000000002,9.766517,0.0003179155755788088,0.00094799097860232,0.0008850353769958019,-1.5681624412536619,16.42745018005371,-15.449281692504885,-0.4182713031768799,-0.023167192935943604,0.019460678100585938,990.47802734375,0,0.0,0
4.28,0.08157694,-0.14691007,9.778348,-0.00033950887154787784,-0.00025672675110399723,-0.0005720729241147637,-1.9955382347106931,16.185338973999027,-15.446237564086914,-0.4150594174861908,-0.051368162035942085,0.0148468017578125,990.4804077148438,0,0.0,0
4.32,0.079131246,-0.15644178,9.766507,-7.063800876494497e-05,0.0005418061628006399,-3.8346246583387256e-05,-2.3700575828552246,15.67702865600586,-16.051645278930664,-0.4091885685920715,-0.0464109480381012,0.04802894592285156,990.4526977539062,0,0.0,0
4.36,0.07907539599999999,-0.15405717,9.77597,-0.00020325799414422363,0.0006748767336830497,-0.00030443156720139086,-2.03401517868042,16.202415466308597,-16.13416862487793,-0.39735347032547,-0.05579176545143128,0.01970386505126953,990.4855346679688,0,0.0,0
4.4,0.08618927,-0.15643904,9.773599,6.359607505146414e-05,-0.0007899480406194925,0.0010273786028847098,-1.5654163360595703,15.798259735107422,-16.02876091003418,-0.4045878052711487,-0.04125064611434937,0.024522781372070312,990.47509765625,0,0.0,0
4.44,0.07418391,-0.15167117,9.766492,0.00046360830310732126,-0.00012424569285940382,-0.00017081221449188888,-1.963308811187744,15.636146545410154,-15.573041915893555,-0.3869044482707977,-0.0502849668264389,0.02938079833984375,990.4474487304688,0,0.0,0
4.48,0.07412809,-0.16596943,9.766486,0.0003309883177280426,8.824892574921249e-06,-0.00043689741869457066,-1.4991378784179688,15.333488464355467,-15.934797286987305,-0.3945426046848297,-0.011929556727409365,0.04838752746582031,990.472412109375,0,0.0,0
4.52,0.09797126,-0.16596806,9.766481,0.00019836869614664462,0.0005413693143054843,0.0004954387550242245,-2.2850565910339355,16.388290405273438,-15.336519241333008,-0.4078989624977112,-0.026038691401481632,0.0389556884765625,990.462646484375,0,0.0,0
4.56,0.071626484,-0.16120014,9.764109,0.00019890700059477243,0.00040812406223267317,-3.696235944516957e-05,-1.716535568237305,16.077991485595707,-15.713907241821287,-0.3866297602653504,-0.02582754194736481,0.04376697540283203,990.4647216796876,0,0.0,0
4.6,0.07396054,-0.15643221,9.77594,0.0003326029982417822,0.0006743524572812022,-3.673162427730858e-05,-1.7759380340576172,15.179935455322266,-16.345064163208008,-0.37997156381607056,-0.030664414167404175,0.02015590667724609,990.4395141601562,0,0.0,0
4.64,0.09541386,-0.15881413,9.778302,-0.0001994904450839385,0.0005411072052083911,-0.0007022906793281437,-1.8228435516357424,15.346105575561525,-15.346757888793945,-0.40662556886672974,-0.025436460971832275,0.010764122009277344,990.4470825195312,0,0.0,0
4.68,0.08818829,-0.1468963,9.768828,0.00033367925789207215,0.0005410198355093597,-3.627038677223027e-05,-1.7651233673095703,15.71646499633789,-15.762250900268555,-0.3890995383262634,-0.03956443071365357,0.029808998107910163,990.4521484375,0,0.0,0
4.72,0.09291226,-0.14927828,9.771189999999999,-0.0003315722569823265,8.300732588395476e-06,-0.00030235564918257296,-1.7156949043273926,16.341835021972653,-15.190584182739258,-0.3928248882293701,-0.0393957793712616,0.034583091735839844,990.485107421875,0,0.0,0
4.76,0.08568674,-0.1540434,9.764083,0.00020159770792815834,0.0008071610354818404,-0.0004352828545961529,-1.646233081817627,15.98592758178711,-15.95030403137207,-0.381432831287384,-0.02483266592025757,0.03464698791503906,990.4546508789062,0,0.0,0
4.8,0.09041071,-0.15880868,9.766446,-6.418021803256124e-05,0.0006739157252013682,-3.5578530514612794e-05,-1.3109259605407717,15.141124725341795,-16.18349266052246,-0.402384340763092,-0.0383768230676651,0.04422569274902344,990.4572143554688,0,0.0,0
4.84,0.09274477,-0.15880725,9.764073,0.0011347795370966196,0.00040751247433945537,-3.5347911762073636e-05,-1.6808257102966309,16.269798278808597,-16.26951789855957,-0.4013049304485321,-0.038211047649383545,0.03479576110839844,990.459716796875,0,0.0,0
4.88,0.08312935,-0.15165612,9.77117,-0.00019626189896371216,0.0009400569251738489,-0.0005677490262314677,-1.5097928047180176,15.323177337646484,-15.39366340637207,-0.38009268045425415,-0.04303362965583801,0.03959560394287109,990.4669189453124,0,0.0,0
4.92,0.08068359,-0.1611878,9.775899,-0.00019572371093090626,0.0002741797943599522,0.00036458717659115786,-1.4931883811950684,15.233463287353516,-15.544939041137695,-0.3781642615795136,-0.033087655901908875,0.03966617584228516,990.4745483398438,0,0.0,0
4.96,0.07106817,-0.14927003,9.768792,0.0004706043982878328,0.0006735662464052439,-0.0008336035534739494,-1.6516413688659668,15.717660903930664,-16.241708755493164,-0.3619060814380646,-0.03275540471076965,0.0397329330444336,990.4795532226562,0,0.0,0
5.0,0.07818204,-0.16595164,9.76642,0.0008706161752343178,-0.00025862670736387367,0.00023189058993011713,-1.1701626777648926,15.483219146728516,-15.532342910766602,-0.36022454500198364,-0.01814752817153931,0.030323028564453125,990.4592895507812,0,0.0,0
5.04,0.09485552,-0.14926729,9.768783,0.00047168065793812275,0.0005402335664257407,-0.0005668264348059893,-1.3954682350158691,15.588220596313475,-15.349802017211914,-0.39140042662620544,-0.03691099584102631,0.03513526916503906,990.462158203125,0,0.0,0
5.08,0.08285022,-0.15641579,9.764043,-0.0004593487828969955,0.0008063747663982213,-0.00030004928703419864,-1.216930866241455,15.755306243896484,-15.233125686645508,-0.3695429265499115,-0.017844170331954956,0.035221099853515625,990.4490966796876,0,0.0,0
5.12,0.097133756,-0.15164779999999997,9.764037,-0.0004593487828969955,0.0008063747663982213,-0.00030004928703419864,-1.216930866241455,15.755306243896484,-15.233125686645508,-0.3780888617038727,-0.027285978198051453,0.03998851776123047,990.4490966796876,0,0.0,0
5.16,0.08273852,-0.16832945,9.764032,-0.0003256526542827487,0.0005399715155363083,0.0004991289461031556,-1.2249464988708496,16.222148895263672,-15.644121170043945,-0.36687520146369934,-0.017603635787963867,0.04951095581054688,990.4666137695312,0,0.0,0
5.2,0.078297675,-0.15880463,9.773532000000001,7.435913721565157e-05,0.0014719896716997027,-0.00016643005074001851,-1.4609055519104004,16.316837310791016,-14.920446395874025,-0.3650144338607788,-0.03659157454967499,0.021164894104003903,990.4590454101562,0,0.0,0
5.24,0.07866049,-0.14928039999999998,9.75226,0.0004734294489026069,-0.00012584000069182366,0.00023287069052457807,-1.1130166053771973,15.00960922241211,-14.974550247192385,-0.3682814538478851,-0.04093272984027863,0.054309844970703125,990.4512939453124,0,0.0,0
5.28,0.08819598,-0.16119623,9.77593,0.0004734294489026069,-0.00012584000069182366,0.00023287069052457807,-1.0237479209899902,15.093154907226562,-14.916208267211914,-0.3664432466030121,-0.031563714146614075,0.02595424652099609,990.4512939453124,0,0.0,0
5.32,0.0881719,-0.15404579,9.759357000000001,0.00020159728592261672,-0.0006593435537070036,-0.0004338360158726573,-0.7217545509338379,15.53411865234375,-15.219499588012695,-0.3641435205936432,-0.0267426073551178,0.05442714691162109,990.4843139648438,0,0.0,0
5.36,0.07380834,-0.15404520000000002,9.768825,-0.0009965922217816112,-0.0005262233316898347,0.0002320531930308789,-0.5812902450561523,15.244081497192385,-14.993219375610352,-0.3431050777435303,-0.035984575748443604,0.03555107116699219,990.4639282226562,0,0.0,0
5.4,0.08812368,-0.15881118,9.761721000000001,-6.425398169085383e-05,0.0002726865932345391,0.00023215290275402367,-0.5432181358337402,15.701210021972654,-15.102819442749025,-0.3602883219718933,-0.030808553099632263,0.04981708526611328,990.4843139648438,0,0.0,0
5.44,0.07376015,-0.1564273,9.780655,0.0003356843371875584,0.000672084977850318,-0.00043343764264136553,-0.5371303558349609,15.707103729248047,-15.412042617797852,-0.3387164771556854,-0.035350725054740906,0.02148532867431641,990.491943359375,0,0.0,0
5.48,0.09524518,-0.16357654,9.778286999999999,-6.35571195743978e-05,0.0005388893187046051,0.000498767476528883,0.3253383636474609,15.092351913452148,-15.431985855102539,-0.35553303360939026,-0.011654496192932129,0.02154731750488281,990.4716186523438,0,0.0,0
5.52,0.080881625,-0.1683425,9.775917,-0.0006719790399074553,-0.0009801326086744666,0.0002959325793199241,0.5875997543334961,14.968799591064453,-14.849298477172852,-0.3487400710582733,-0.016159474849700928,0.02160835266113281,990.466552734375,0,0.0,0
5.56,0.07846767,-0.15165895,9.778281,-0.0006719790399074553,-0.0009801326086744666,0.0002959325793199241,0.5875997543334961,14.968799591064453,-14.849298477172852,-0.3380633592605591,-0.030484065413475037,0.03110790252685547,990.466552734375,0,0.0,0
5.6,0.080833435,-0.15642491,9.787749,0.00026059127412736416,-0.0007138921646401286,0.00016297385445795953,0.4551496505737305,14.791999816894533,-14.664571762084961,-0.3456687033176422,-0.025426745414733887,0.0027608871459960933,990.44873046875,0,0.0,0
5.64,0.07841945,-0.1588076,9.764073,0.0003939815796911717,0.0006176495226100088,0.0005625472986139356,1.1683201789855957,15.090583801269533,-14.022096633911133,-0.3440495431423187,-0.03455902636051178,0.04068946838378906,990.46142578125,0,0.0,0
5.68,0.09034484599999999,-0.16834015,9.761704,0.0001278978306800127,0.0008839276852086185,0.00029633092344738543,0.7965989112854004,15.585651397705078,-14.455690383911133,-0.3459561765193939,-0.029543608427047733,0.036037445068359375,990.4512939453124,0,0.0,0
5.72,0.09510055,-0.16118970000000002,9.766437,0.00026128836907446384,-0.00018137358711101115,0.00016327254706993702,0.8352141380310059,15.674489974975586,-14.466836929321287,-0.3449274301528931,-0.02460196614265442,0.040802955627441406,990.4662475585938,0,0.0,0
5.76,0.080737054,-0.15165599999999999,9.764068,0.00012836256064474585,-0.0007140430388972162,0.0006960037862882018,1.4355826377868652,15.70950698852539,-13.945528030395508,-0.32837995886802673,-0.029112055897712708,0.04559993743896485,990.4487915039062,0,0.0,0
5.8,0.07832301,-0.17072165,9.7688,0.00039491080678999424,-0.000447764847194776,0.0001634715881664306,1.349357843399048,15.628908157348633,-14.158479690551758,-0.3265818655490875,-0.01462577283382416,0.021982192993164062,990.4686889648438,0,0.0,0
5.84,0.08546859,-0.1540381,9.771165,-0.00027064653113484377,8.482925477437675e-05,-0.0003690605517476797,1.2700624465942385,15.818050384521484,-14.157327651977539,-0.3530915379524231,-0.03388501703739166,0.03623867034912109,990.4711303710938,0,0.0,0
5.88,0.08544454,-0.15642077,9.761695,-0.0004035721067339182,-0.000847314135171473,-0.000235802901443094,1.2565021514892578,15.910711288452148,-14.16065788269043,-0.3319113254547119,-0.03350342810153961,0.04103374481201172,990.4412231445312,0,0.0,0
5.92,0.08781034,-0.16595331,9.768792999999999,0.00012929202057421207,8.475378854200244e-05,3.061245661228895e-05,1.6381964683532717,15.688329696655273,-13.667573928833008,-0.33514708280563354,-0.009806036949157715,0.055275917053222656,990.4609985351562,0,0.0,0
5.96,0.080616504,-0.16118616,9.766423,-3.6339115467853836e-06,0.0007505057728849351,-0.0006350778276100755,1.5187630653381348,15.787158966064453,-13.577966690063475,-0.3143404126167297,-0.023912638425827026,0.02691650390625,990.493896484375,0,0.0,0
6.0,0.080592394,-0.15165243,9.752219,0.00012975675053894523,0.0002178362919948995,-0.0005018202355131507,1.3705282211303709,15.543615341186525,-14.54167366027832,-0.3264158368110657,-0.028598010540008545,0.05538177490234375,990.4811401367188,0,0.0,0
6.04,0.090127945,-0.15403512,9.77352,-0.0002694850554689765,-0.0013800967717543244,-0.00010224687866866589,1.553630828857422,15.715124130249025,-14.65690803527832,-0.33384525775909424,-0.028367891907691963,0.041237831115722656,990.455810546875,0,0.0,0
6.08,0.078154325,-0.16595092,9.771152,-0.0005355684552341701,-0.00018171296687796712,3.1010713428258896e-05,1.4726758003234863,15.796875,-13.879373550415039,-0.3317079544067383,-0.023862570524215698,0.041286468505859375,990.4507446289062,0,0.0,0
6.12,0.07813018599999999,-0.15880051,9.766416,-0.0008016520878300071,-0.0012470142683014276,0.0013626896543428302,1.2540016174316406,15.539474487304688,-13.907602310180664,-0.3106900751590729,-0.02876809239387512,0.0460662841796875,990.4611206054688,0,0.0,0
6.16,0.078106076,-0.16594979,9.759311,-0.0002687879605218768,-4.863046342507005e-05,0.00029752572299912566,1.9058408737182615,15.412742614746096,-14.61650276184082,-0.3038127422332764,-0.01896326243877411,0.04138946533203125,990.4635009765624,0,0.0,0
6.2,0.08101183,-0.15642932,9.768827,0.0005303919315338135,-0.0001818261225707829,3.1309318728744984e-05,1.7742328643798828,15.499786376953125,-13.908456802368164,-0.32644450664520264,-0.03311721980571747,0.02245044708251953,990.4555053710938,0,0.0,0
6.24,0.08339918,-0.15642926,9.768827,-0.0004040637286379933,-0.00018144462956115603,-0.0006354876095429063,1.125436305999756,15.629467010498047,-13.354162216186525,-0.310483992099762,-0.03307214379310608,0.02722454071044922,990.4761352539062,0,0.0,0
6.28,0.08817643,-0.16357902,9.7688265,-0.00027203388162888587,-0.00018158109742216769,-0.0003681387170217931,1.200303554534912,15.54182243347168,-13.822473526000975,-0.3171886801719665,-0.018814742565155033,0.027291297912597656,990.465576171875,0,0.0,0
6.32,0.09056383,-0.15166256,9.7688265,-0.00027203388162888587,-0.00018158109742216769,-0.0003681387170217931,1.200303554534912,15.54182243347168,-13.822473526000975,-0.3210633993148804,-0.0282181054353714,0.041518211364746094,990.465576171875,0,0.0,0
6.36,0.08339161,-0.14689595,9.761725,0.0006600960623472929,-0.0004479009367059916,0.00016450363909825683,1.0513877868652344,15.560649871826172,-14.185556411743164,-0.3094760179519653,-0.03252911567687988,0.03683853149414063,990.4354248046876,0,0.0,0
6.4,0.09533852,-0.16119552,9.771193499999999,-5.6691023928578935e-06,-0.0005810628645122051,3.135611768811941e-05,0.8285832405090332,16.03688621520996,-14.256074905395508,-0.3216139078140259,-0.04188421368598938,0.01795482635498047,990.45068359375,0,0.0,0
6.44,0.078606725,-0.15166238,9.771193499999999,0.0005269871326163411,-0.0007142246467992662,0.00016452456475235522,1.1838371753692627,15.737451553344727,-14.370275497436525,-0.30069708824157715,-0.027718305587768555,0.03693199157714844,990.4838256835938,0,0.0,0
6.48,0.097723365,-0.16357869,9.768825999999999,0.0001275621762033552,0.0007505046669393778,-0.00010177039075642823,1.1316628456115725,15.741273880004885,-14.362459182739258,-0.3222721219062805,-0.013314157724380491,0.03225135803222656,990.4431762695312,0,0.0,0
6.52,0.10011077,-0.15642884,9.7569895,0.0001275621762033552,0.0007505046669393778,-0.00010177039075642823,1.1316628456115725,15.741273880004885,-14.362459182739258,-0.3209443688392639,-0.027535438537597656,0.041751861572265625,990.4431762695312,0,0.0,0
6.56,0.07620919,-0.15166214,9.783028999999999,-5.571313522523269e-06,-0.0008473945781588553,0.00029771393747068936,0.6334424018859863,15.959514617919922,-14.221471786499025,-0.29039034247398376,-0.046405062079429626,0.02285957336425781,990.4685668945312,0,0.0,0
6.6,0.09293598,-0.15642872,9.754621499999999,0.0003939267189707607,-0.0009805564768612383,-0.0005012232577428222,0.271939754486084,15.726837158203125,-14.921991348266602,-0.3074292540550232,-0.022422119975090027,0.05605030059814453,990.49365234375,0,0.0,0
6.64,0.08815363,-0.15881189999999998,9.759356,0.0003939515154343098,-0.0003147707902826369,-0.0006343707209452988,0.8107025623321533,15.124698638916016,-14.353906631469727,-0.2953509986400604,-0.031583741307258606,0.0513763427734375,990.460693359375,0,0.0,0
6.68,0.08576119,-0.1564286,9.778294,-0.00013865591608919203,-4.8458881792612374e-05,3.1429575756192214e-05,0.5086021423339844,15.790081024169922,-14.423273086547852,-0.2889366149902344,-0.016885951161384586,0.02301311492919922,990.44775390625,0,0.0,0
6.72,0.08575863,-0.15642849,9.7593565,-0.00013865591608919203,-4.8458881792612374e-05,3.1429575756192214e-05,0.5086021423339844,15.790081024169922,-14.423273086547852,-0.2881191670894623,-0.01679070293903351,0.04670333862304688,990.44775390625,0,0.0,0
6.76,0.07858639999999999,-0.16357827,9.756988,0.0003940002934541553,-0.00018162080959882587,-0.0011669815285131335,0.4432497024536133,14.992046356201172,-15.44428825378418,-0.27687153220176697,-0.026099756360054016,0.03727626800537109,990.4605712890624,0,0.0,0
6.8,0.08575356,-0.16596147,9.764089,0.0005271828267723322,-0.000181624767719768,-0.00010170746827498077,0.3538436889648437,14.80258560180664,-14.803552627563475,-0.29405340552330017,-0.025951281189918518,0.04205513000488281,990.460693359375,0,0.0,0
6.84,0.09053081,-0.16119486,9.773558,0.00012773319031111896,-0.00018162872584071008,0.0005640927120111883,0.30889463424682617,15.70828628540039,-14.156755447387695,-0.3066495358943939,-0.02148723602294922,0.03735065460205078,990.44287109375,0,0.0,0
6.88,0.09291822,-0.15642825,9.754621,-0.0005380073562264441,-4.847871605306864e-05,-0.00036799197550863033,0.3731081485748291,15.610330581665039,-14.083940505981445,-0.2945078611373901,-0.03103961050510406,0.051606178283691406,990.4580078125,0,0.0,0
6.92,0.07618636,-0.16119474,9.75462,-0.0005379831418395042,-4.848276148550213e-05,-0.000101665616966784,0.2262578010559082,15.262344360351562,-14.425870895385742,-0.2738131880760193,-0.016579940915107727,0.04690742492675781,990.4628295898438,0,0.0,0
6.96,0.07140398,-0.15881142,9.768823,-0.00027164272614754736,-0.00018164460198022425,-0.000900602783076465,0.8257846832275391,15.033512115478516,-14.427881240844727,-0.268381267786026,-0.016532570123672485,0.04218864440917969,990.457763671875,0,0.0,0
7.0,0.083351016,-0.14927822,9.773557,0.0005273295100778341,0.00035098314401693637,0.001096776919439435,0.9431517124176024,15.301502227783205,-14.538629531860352,-0.2850635349750519,-0.030506327748298645,0.03750896453857422,990.4625244140624,0,0.0,0
7.04,0.08812824,-0.16834441,9.775924,0.00016108504496514795,-5.695551226381213e-05,-0.00022810482187196607,0.8457303047180176,15.578882217407227,-14.308893203735352,-0.288756787776947,-0.0257166177034378,0.028062820434570312,990.4424438476562,0,0.0,0
7.08,0.10246515,-0.16357777,9.780658,-0.0006378380348905921,-0.0005895913345739245,0.00030453747604042286,1.0800299644470217,15.37680435180664,-14.256193161010742,-0.2920775413513184,-0.020925983786582947,0.02335834503173828,990.4805297851562,0,0.0,0
7.12,0.0881232,-0.1540446,9.752252,-0.00010518193448660897,-0.00032327932422049344,0.0004377058940008282,0.9439926147460938,15.565347671508787,-14.015314102172852,-0.2758851647377014,-0.020762637257575992,0.056538581848144524,990.4755249023438,0,0.0,0
7.16,0.08601254,-0.16596785,9.768847000000001,0.0005606322083622217,-0.00019012542907148602,-0.0006275472114793956,0.8713281154632568,15.39208984375,-14.224924087524414,-0.2743993699550629,-0.011199325323104858,0.03289604187011719,990.4324951171876,0,0.0,0
7.2,0.09347865,-0.16120857,9.761773,-0.00023829087149351835,0.0006088182562962173,0.00030456893728114665,0.4868888854980469,16.243659973144528,-14.138528823852539,-0.2725202441215515,-0.034951359033584595,0.05182933807373047,990.4856567382812,0,0.0,0
7.24,0.09110904,-0.15644249999999998,9.757041000000001,-0.00024309218861162665,-0.0005888238083571197,-0.0007627521990798414,0.9797015190124512,15.757160186767578,-14.570924758911133,-0.27111583948135376,-0.011128932237625122,0.047119140625,990.4552001953124,0,0.0,0
7.28,0.09351927,-0.16359279,9.766511,-0.0003771212650462985,0.0003434231912251562,0.00016897998284548518,1.0030975341796875,15.83126449584961,-13.809022903442385,-0.2791580557823181,-0.020607709884643555,0.02821063995361328,990.4778442382812,0,0.0,0
7.32,0.07442033,-0.16121009,9.759412,-0.00011100095434812828,0.000210297032026574,3.573816502466798e-05,1.0212240219116209,15.743022918701172,-14.037607192993164,-0.24961967766284945,-0.02033485472202301,0.047168731689453125,990.45751953125,0,0.0,0
7.36,0.088780046,-0.16359386,9.773616,0.0008209089282900095,0.0003434867539908737,-0.0006301353569142519,1.281259536743164,15.46006965637207,-14.600011825561525,-0.2675468921661377,-0.02022162079811096,0.032989501953125,990.445068359375,0,0.0,0
7.4,0.07685083,-0.16359434,9.768884,-0.0002445501741021872,7.720259600318968e-05,3.5570526961237185e-05,1.4206376075744631,15.906612396240234,-14.570634841918945,-0.26618003845214844,-0.02481837570667267,0.02828216552734375,990.4476318359376,0,0.0,0
7.44,0.08882061,-0.17551121,9.768886,2.1570136595983055e-05,7.723437738604844e-05,3.548670792952179e-05,1.1094064712524414,16.563148498535153,-14.176172256469727,-0.2834252119064331,-0.005701914429664612,0.03778553009033203,990.4631958007812,0,0.0,0
7.48,0.074501514,-0.15167889,9.759418,-0.00011178338172612712,-0.0011211553355678916,-0.0003640709328465164,1.1789734363555908,15.100894927978516,-14.563234329223633,-0.2621129155158997,-0.014997899532318115,0.03782749176025391,990.4625244140624,0,0.0,0
7.52,0.08886123,-0.16359589,9.761787,2.117886469932273e-05,-5.58600586373359e-05,-9.783892892301084e-05,0.9576907157897948,15.578605651855467,-14.711057662963867,-0.26158538460731506,-0.005345672369003296,0.052041053771972656,990.4527587890624,0,0.0,0
7.56,0.09366131,-0.15644649,9.764155,0.00042045710142701853,0.0006099614547565579,-0.000896870333235711,1.2444641590118408,16.004840850830078,-14.241296768188475,-0.2696231007575989,-0.01955989003181457,0.04260063171386719,990.4502563476562,0,0.0,0
7.6,0.08651191,-0.15644696,9.775994,2.0592131477314982e-05,0.0011426565470173955,0.0003013834066223353,1.3961257934570312,15.356822967529295,-14.457700729370115,-0.2581644058227539,-0.01906543970108032,0.037906646728515625,990.4650268554688,0,0.0,0
7.64,0.086532205,-0.15883073,9.759425,2.0592131477314982e-05,0.0011426565470173955,0.0003013834066223353,1.3961257934570312,15.356822967529295,-14.457700729370115,-0.25744044780731196,-0.028621643781661987,0.05685615539550781,990.4650268554688,0,0.0,0
7.68,0.0865525,-0.15168136,9.771264,-0.0003790772752836346,-0.000588364782743156,0.0004344575281720609,0.976520538330078,15.648292541503904,-13.71723747253418,-0.2557229995727539,-0.028387844562530518,0.03795051574707031,990.44482421875,0,0.0,0
7.72,0.0794031,-0.15168196,9.747594,0.000419674557633698,-0.00032201712019741535,0.00030121573945507407,0.960353136062622,16.476058959960938,-13.840166091918945,-0.24496077001094815,-0.023413151502609253,0.056912422180175774,990.478271484375,0,0.0,0
7.76,0.08420318,-0.15644899,9.761799,0.00015316309873014688,0.0012759099481627345,0.0012332374462857842,1.2133212089538574,15.817453384399414,-13.917596817016602,-0.25352218747138977,-0.02324573695659637,0.042728424072265625,990.44287109375,0,0.0,0
7.8,0.09139323,-0.15168291,9.768903,0.00041928340215235954,7.752017700113356e-05,0.0004342059837654233,1.3654193878173828,15.907485961914062,-14.408208847045898,-0.2568653225898743,-0.027760639786720283,0.052224159240722656,990.4376220703124,0,0.0,0
7.84,0.08902359,-0.16121653,9.771272,-0.00024670199491083617,-5.560604040510953e-05,-9.850965579971672e-05,0.8577685356140137,15.484748840332033,-14.22825813293457,-0.25996363162994385,-0.027654930949211117,0.03331470489501953,990.4730834960938,0,0.0,0
7.88,0.08665401,-0.1493006,9.75707,1.9418199372012168e-05,-0.0008545218734070659,-0.0004980672965757549,1.3022913932800293,15.26885986328125,-14.284128189086914,-0.2494763433933258,-0.027601972222328186,0.057003021240234375,990.4348754882812,0,0.0,0
7.92,0.08906418,-0.17075065,9.764174,-0.0007797250291332603,0.0020749846007674924,0.0003007965278811753,1.4431924819946291,15.716873168945312,-14.332052230834961,-0.2390056699514389,0.0008779764175415039,0.03807640075683594,990.4524536132812,0,0.0,0
7.96,0.08669454,-0.15645150000000002,9.75944,-0.00011413089669076726,0.0004771210660692304,0.0001675547391641885,1.6368112564086914,15.792774200439453,-14.289346694946287,-0.2517233490943909,-0.02320650219917297,0.03809738159179688,990.47021484375,0,0.0,0
8.0,0.08910474,-0.18028477,9.776013,-0.00011413089669076726,0.0004771210660692304,0.0001675547391641885,1.3415875434875488,15.095325469970705,-14.895898818969727,-0.2647232711315155,-0.003905713558197022,0.02391910552978516,990.47021484375,0,0.0,0
8.04,0.08912504,-0.16360226,9.768914,-0.00011432659084675835,0.00021083686442580077,-0.00023200287250801918,0.9260044097900392,15.75950813293457,-14.485803604125975,-0.2490184009075165,-0.022813513875007633,0.05234813690185547,990.4625244140624,0,0.0,0
8.08,0.086755455,-0.16121948,9.785486,-0.0006471538217738272,-0.00032176313106901944,-0.0006315605132840574,1.1657118797302246,15.825695037841795,-14.141695022583008,-0.2432234287261963,-0.013109341263771055,0.03342914581298828,990.4703369140624,0,0.0,0
8.12,0.08677572,-0.15883675,9.76655,0.0006842300062999129,0.00034405835322104394,-0.00023217062698677182,1.0401921272277832,15.918628692626953,-13.742868423461914,-0.23665519058704376,-0.017705261707305908,0.03819465637207031,990.4551391601562,0,0.0,0
8.16,0.07876739,-0.16358271,9.780677,0.0005508763715624808,-0.0001885417150333524,3.406155155971646e-05,1.5997188091278076,15.705408096313475,-14.355504989624025,-0.2404252737760544,-0.007815495133399962,0.01927661895751953,990.4727172851562,0,0.0,0
8.2,0.07787737,-0.15641096,9.766392,0.0009501546155661343,-0.00018850984633900225,0.00016713558579795063,0.7603468894958496,15.762134552001953,-13.998525619506836,-0.2322713732719421,-0.03137442469596863,0.038405418395996094,990.452392578125,0,0.0,0
8.24,0.096948385,-0.16117635,9.768754,3.540097532095388e-05,-0.0001930392754729837,4.2906554881483316e-05,1.3031325340270996,15.532707214355467,-13.760805130004885,-0.25022184848785395,-0.016775161027908325,0.047901153564453125,990.4677734375,0,0.0,0
8.28,0.08973049999999999,-0.16594186,9.780586,0.00016902352217584848,0.0004726750194095075,-0.0003563681966625154,0.9686431884765624,16.221052169799805,-14.82731819152832,-0.2394247502088547,-0.0073230862617492684,0.03845405578613281,990.4727172851562,0,0.0,0
8.32,0.08012271,-0.16117412,9.764012,-0.00036314385943114763,0.00020628368656616655,-0.0002230111858807504,0.6474080085754395,15.39264678955078,-13.420610427856445,-0.22342956066131592,-0.016753464937210083,0.04795360565185547,990.44482421875,0,0.0,0
8.36,0.09202403,-0.16355619,9.764008,0.0005694263381883503,-0.00045958138071000576,-0.00035597005626186734,1.117666244506836,15.09587860107422,-14.091585159301758,-0.2413391023874283,-0.01675635576248169,0.03377246856689453,990.4549560546876,0,0.0,0
8.4,0.08002633,-0.16117176,9.759269,-0.00036221486516296864,0.00033929088385775685,0.0003100187168456614,1.278758525848389,15.08883285522461,-14.346948623657227,-0.2254523485898972,-0.026226744055747986,0.048004150390625,990.4320678710938,0,0.0,0
8.44,0.07519835,-0.15163743,9.754529,-0.000361750484444201,-0.0004597322549670936,-8.925591828301549e-05,1.3644394874572754,15.537723541259766,-14.232450485229492,-0.20969873666763306,-0.0213678628206253,0.052765846252441406,990.4221801757812,0,0.0,0
8.48,0.08709964,-0.1540195,9.766361999999999,0.0003045037155970931,0.00047229795018211007,0.00044357476872392004,1.5130572319030762,14.886756896972654,-14.294244766235352,-0.2416660487651825,-0.02563300728797913,0.03386402130126953,990.47021484375,0,0.0,0
8.52,0.08466154,-0.15163505,9.773458,0.00030496821273118263,0.0007385385106317699,0.0004437738098204137,1.248892307281494,15.90334701538086,-13.774133682250975,-0.2266380935907364,-0.020917147397995,0.03861045837402344,990.4422607421876,0,0.0,0
8.56,0.094172984,-0.14686729999999998,9.773454,0.0002490162733010948,-7.01963381288806e-06,0.0005700432229787111,0.9820654392242432,16.022476196289062,-14.124910354614258,-0.2445278614759445,-0.035093724727630615,0.024431228637695312,990.4297485351562,0,0.0,0
8.6,0.09173486,-0.1492494,9.77345,-0.00014999292034190148,-7.0950709414319135e-06,0.0008365580579265952,1.0542943477630615,15.457679748535154,-13.641084671020508,-0.24277785420417786,-0.029966011643409732,0.033935546875,990.4856567382812,0,0.0,0
8.64,0.09407657400000001,-0.14924821,9.771077,0.000116787341539748,-0.0004066442779731005,-9.534851415082812e-05,0.8306481838226318,15.67007064819336,-14.234922409057615,-0.2408290058374405,-0.024938493967056274,0.01977062225341797,990.4828491210938,0,0.0,0
8.68,0.08685869,-0.15639687,9.763972,0.0002504097647033632,0.00012591204722411928,3.8008613046258695e-05,0.9019293785095216,15.947769165039062,-14.64708137512207,-0.22495557367801666,-0.025310486555099487,0.04346179962158203,990.4828491210938,0,0.0,0
8.72,0.08442059,-0.16354552,9.775803999999999,-0.001080704969353974,-0.0008062689448706807,0.0004376815049909055,1.5640091896057131,15.513599395751953,-13.799886703491213,-0.2195012867450714,-0.01104004681110382,0.02926921844482422,990.4295654296876,0,0.0,0
8.76,0.08915216,-0.15877779999999997,9.756862,-1.4976991224102676e-05,-0.0005400284426286817,-0.0004942250088788568,1.2714462280273438,15.71360969543457,-13.535554885864258,-0.23710837960243225,-0.02064141631126404,0.043496131896972656,990.46044921875,0,0.0,0
8.8,0.08671409,-0.15877661,9.766326,-0.0010797760915011168,-0.0002737879694905132,-9.455211693421006e-05,1.213757038116455,16.555503845214847,-14.191801071166992,-0.22128066420555115,-0.020919635891914368,0.034046173095703125,990.4677124023438,0,0.0,0
8.84,0.08427602,-0.14447573,9.775789999999999,-0.00041352194966748357,-0.00014070543693378568,-9.4353046733886e-05,1.2549800872802734,15.909236907958984,-14.083353042602539,-0.22003531455993647,-0.049346208572387695,0.04353904724121094,990.44482421875,0,0.0,0
8.88,0.08183789,-0.15639094,9.766316,-0.0005462152766995132,-7.622883458680008e-06,3.9003905840218074e-05,1.1692991256713867,15.460346221923828,-14.197851181030273,-0.20943745970726013,-0.016112223267555237,0.03408622741699219,990.46533203125,0,0.0,0
8.92,0.08656952,-0.15162319,9.759211,0.00025319698033854365,0.0007912493892945348,-0.00036027067108079786,1.1181025505065918,15.833934783935547,-14.365793228149414,-0.2131085991859436,-0.020545512437820438,0.053048133850097656,990.4802856445312,0,0.0,0
8.96,0.09369105,-0.16592172,9.766309,0.0002536614774726331,0.0003917001304216683,0.0005720339249819517,1.357809066772461,15.90011978149414,-14.021684646606445,-0.2260217219591141,-0.015344589948654175,0.03413963317871094,990.4727172851562,0,0.0,0
9.0,0.088863015,-0.15400413,9.771039,0.0007867577369324862,-7.849078428989744e-06,-0.0007593464688397943,0.9880156517028807,15.922452926635742,-13.735052108764648,-0.22497297823429108,-0.02005009353160858,0.03415966033935547,990.4827270507812,0,0.0,0
9.04,0.08642492,-0.16591933,9.775767,-0.00014488333545159549,-0.0002742404176387936,-0.0002265155198983848,1.3107423782348633,15.540069580078125,-14.147329330444336,-0.21871553361415866,-0.015076160430908203,0.03892135620117188,990.44482421875,0,0.0,0
9.08,0.07920706,-0.17068470000000002,9.761560000000001,0.000255519466008991,-0.00014123329310677946,0.00017335632583126426,1.1946523189544678,16.273983001708984,-13.78746223449707,-0.2166493684053421,-0.0101192444562912,0.03895759582519531,990.4573364257812,0,0.0,0
9.12,0.06959924,-0.15876713,9.773392999999999,0.000255519466008991,-0.00014123329310677946,0.00017335632583126426,1.1946523189544678,16.273983001708984,-13.78746223449707,-0.18717412650585172,-0.014956042170524597,0.03423309326171875,990.4573364257812,0,0.0,0
9.16,0.08714402,-0.15163732,9.768732,0.00025598396314308053,-0.0005407824646681547,-0.0007585500716231762,1.0478010177612305,15.925994873046875,-14.129392623901367,-0.2157963663339615,-0.02424758672714233,0.03417491912841797,990.4397583007812,0,0.0,0
9.2,0.091909885,-0.14925370000000002,9.771098,0.00025241717230528593,0.0006561186746694148,0.0001743421598803252,1.6122994422912598,15.242984771728516,-14.176416397094727,-0.2148526906967163,-0.0287703275680542,0.03892612457275391,990.4573974609376,0,0.0,0
9.24,0.08711612,-0.15640315,9.763995,0.000250672223046422,0.00012377016537357122,-0.001024827128276229,1.3202800750732422,15.074701309204102,-13.813631057739258,-0.21321658790111545,-0.014527857303619385,0.029478073120117188,990.44482421875,0,0.0,0
9.28,0.08949208,-0.16355264,9.756892,0.000250672223046422,0.00012377016537357122,-0.001024827128276229,1.0296754837036133,16.014236450195312,-13.900812149047852,-0.21699638664722445,-0.02374342083930969,0.0437002182006836,990.44482421875,0,0.0,0
9.32,0.08469832,-0.16116908,9.763993,0.000250672223046422,0.00012377016537357122,-0.001024827128276229,1.0296754837036133,16.014236450195312,-13.900812149047852,-0.19712179899215695,-0.014230355620384216,0.04371070861816406,990.44482421875,0,0.0,0
9.36,0.082294464,-0.16831854,9.778195,0.0002508065663278103,0.0002569062926340848,-0.0007584536797367036,1.086416721343994,16.014833450317386,-14.140542984008787,-0.20538276433944705,-0.014052450656890871,0.02479267120361328,990.4524536132812,0,0.0,0
9.4,0.08706030000000001,-0.16831818,9.768725,0.0005172571400180459,0.0002568844356574118,-0.0004920800565741956,1.0743782520294192,16.108966827392578,-14.22117805480957,-0.20439639687538147,0.00044952332973480235,0.02954387664794922,990.4750366210938,0,0.0,0
9.44,0.09182614,-0.15640143,9.759253999999999,0.00011791778524639085,-0.0006752429762855173,0.0003069251251872629,0.6554536819458008,16.138063430786133,-14.081342697143555,-0.21318227052688601,-0.023341700434684757,0.053226470947265625,990.4473876953124,0,0.0,0
9.48,0.09420210000000001,-0.163551,9.752152,0.0005175260594114661,0.0009226305410265924,0.00017382486839778719,1.3207154273986816,15.812755584716795,-14.087839126586914,-0.18826527893543246,-0.013529792428016664,0.0627126693725586,990.4269409179688,0,0.0,0
9.52,0.082238615,-0.15878406,9.763987,-1.497111952630803e-05,0.0002568189229350537,4.072458250448108e-05,1.1250319480895996,16.10367202758789,-14.151689529418945,-0.19654156267642972,-0.018338471651077267,0.03905773162841797,990.452392578125,0,0.0,0
9.56,0.09178427,-0.15640041,9.756884,0.00011832128075184299,0.0005231130635365844,0.00070657191099599,1.444033145904541,15.980720520019533,-13.808732986450195,-0.21432112157344815,-0.008754536509513855,0.04854297637939453,990.4700317382812,0,0.0,0
9.6,0.08460063,-0.16354993,9.761617,-0.00014772568829357624,-0.00027587832300923765,0.00030721342773176735,1.0036406517028809,15.462976455688475,-13.710573196411133,-0.2036195695400238,-0.017901822924613953,0.053299903869628906,990.4472045898438,0,0.0,0
9.64,0.07024723,-0.15163317,9.756881,0.00025188294239342207,0.0002567315532360226,-9.220273932442068e-05,1.2148432731628418,15.818925857543945,-13.994905471801758,-0.18348069489002228,-0.02244625985622406,0.04858112335205078,990.4625244140624,0,0.0,0
9.68,0.08935249,-0.15878269,9.75688,0.00011885923595400527,-0.00027592200785875315,0.00044048667768947786,0.9210033416748048,15.017032623291016,-13.979684829711914,-0.2059098184108734,-0.012778207659721376,0.04386711120605469,990.4752807617188,0,0.0,0
9.72,0.08216882,-0.15878233,9.782917999999999,0.0002521518617868424,0.0010556356282904744,0.00017422836390323934,1.2098722457885742,16.288711547851562,-14.560514450073242,-0.18607208132743835,-0.017709046602249146,0.020201683044433597,990.4498291015624,0,0.0,0
9.76,0.08454478,-0.16593185,9.766345,-0.00028034544084221125,-0.0006754394853487611,0.00030744398827664554,1.396263599395752,15.462738037109375,-15.156778335571287,-0.1989593505859375,-0.012878358364105223,0.024953842163085938,990.452392578125,0,0.0,0
9.8,0.09170049400000001,-0.1516318,9.773446,-0.00014705304056406018,-0.0005423033726401627,0.0007069754647091031,1.7101571559906006,15.703659057617188,-14.680356979370115,-0.187764585018158,-0.018154427409172055,0.02496433258056641,990.4374389648438,0,0.0,0
9.84,0.082126975,-0.15639806,9.761609,-0.0014784977538511155,-0.0005423252005130053,0.0003075592976529151,1.3272087574005127,15.344440460205078,-13.599527359008787,-0.1959296762943268,-0.022775515913963318,0.039185523986816406,990.4473876953124,0,0.0,0
9.88,0.07733321,-0.16116425,9.756872999999999,-0.00014678400475531816,-0.0005423469701781869,0.00044077489292249094,1.279599666595459,15.352680206298828,-13.823629379272461,-0.19520190358161926,-0.017893269658088684,0.04866504669189453,990.4852905273438,0,0.0,0
9.92,0.08209905,-0.15639737,9.761606,0.0003859823336824775,0.0006560525507666171,-0.0004912730655632913,1.0547299385070799,16.195732116699222,-13.915292739868164,-0.18508034944534305,-0.02751345932483673,0.039200782775878906,990.4548950195312,0,0.0,0
9.96,0.08447504,-0.15878028,9.763972,-0.000412830850109458,-0.0006755486247129737,4.1416322346776724e-05,1.0839147567749023,15.643596649169922,-13.887483596801758,-0.1838106215000153,-0.017913833260536194,0.03448295593261719,990.4677734375,0,0.0,0
10.0,0.09163076,-0.15163007,9.759236,0.0003862512530758977,-0.00027609665994532406,0.0008404216496273875,1.4460992813110352,15.613899230957033,-13.78758430480957,-0.19122689962387085,-0.02237054705619812,0.039246559143066406,990.4473876953124,0,0.0,0
10.04,0.08922689999999998,-0.15401307,9.778172999999999,-0.00014624593313783407,-0.0006755923386663197,4.1531689930707216e-05,1.3208534717559814,15.918672561645508,-14.786916732788086,-0.1765206754207611,-0.017396554350852966,0.034519195556640625,990.4472045898438,0,0.0,0
10.08,0.08443314,-0.15877926,9.759234,0.00026398675981909037,0.00029658901621587574,0.000550342258065939,1.1319608688354492,16.373409271240234,-13.937593460083008,-0.19401392340660092,-0.022020921111106876,0.0582122802734375,990.437255859375,0,0.0,0
10.12,0.07729685,-0.16831324,9.761604,-2.194668923038989e-06,-0.0002360645739827305,0.0005503998836502434,0.5912404060363771,16.236017227172848,-14.154165267944336,-0.1744755506515503,0.0016962885856628418,0.04874610900878906,990.4777221679688,0,0.0,0
10.16,0.09167251,-0.16593084,9.771075999999999,0.0001309846993535757,0.0002965637540910393,-0.000381696445401758,1.1421780586242676,15.645668029785154,-14.20451545715332,-0.19291460514068606,-0.012587442994117735,0.029808998107910163,990.4777221679688,0,0.0,0
10.2,0.072543144,-0.16116402,9.763974000000001,-0.0005354819586500525,0.0008293053251691163,-0.00011567072942852974,1.2344913482666016,15.732158660888672,-14.300786972045898,-0.17268434166908264,-0.012388452887535095,0.03929328918457031,990.4498901367188,0,0.0,0
10.24,0.079702735,-0.15401396,9.775808999999999,0.00039672141429036856,-0.00036913194344379013,0.0005501608829945326,1.0904388427734375,16.387542724609375,-14.470911026000975,-0.1761522889137268,-0.017016828060150146,0.020372390747070312,990.4701538085938,0,0.0,0
10.28,0.086862266,-0.14686385,9.763972,0.00013060122728347778,3.0310075089801106e-05,-0.0005150189390406013,1.4542512893676758,15.252975463867188,-14.075662612915039,-0.19897344708442688,-0.030856564640998837,0.03459453582763672,990.4422607421876,0,0.0,0
10.32,0.09163195,-0.16116318,9.771073,0.00013060122728347778,3.0310075089801106e-05,-0.0005150189390406013,1.4542512893676758,15.252975463867188,-14.075662612915039,-0.1869954764842987,-0.004360944032669067,0.015725135803222656,990.4422607421876,0,0.0,0
10.36,0.08445209,-0.15877968,9.771072,0.008519649505615234,-0.005029707215726376,-0.0003818189725279808,1.5925140380859375,15.223834991455078,-13.171449661254885,-0.18665744364261627,-0.01905059814453125,0.02519130706787109,990.4502563476562,0,0.0,0
10.4,0.079662085,-0.15401289,9.7545,-0.00612762663513422,0.003625542623922229,0.0005503285210579634,1.1604654788970947,16.083646774291992,-13.309152603149414,-0.17216482758522034,-0.0161362886428833,0.0583028793334961,990.6934814453124,0,0.0,0
10.44,0.07487213599999999,-0.16592905,9.749765,-0.0013338427525013685,0.0004297363047953695,-0.00011541927233338357,1.181497573852539,15.892435073852539,-12.993265151977539,-0.17152586579322815,-0.001829788088798523,0.04410743713378906,990.4548950195312,0,0.0,0
10.48,0.09159133,-0.16116223,9.801843,-0.00013532338198274374,0.0008291942067444324,0.0002840965171344578,1.0068459510803225,15.992141723632812,-12.741235733032227,-0.16461196541786194,5.483627319335938e-05,-0.003184318542480469,990.3533325195312,0,0.0,0
10.52,0.08919126,-0.15401217,9.7544985,0.005457407794892788,-0.003165559843182564,-0.000914282980374992,1.5302581787109375,16.061317443847653,-13.595781326293945,-0.18351349234580994,-0.020019948482513428,0.03940963745117188,990.3939819335938,0,0.0,0
10.56,0.08440131,-0.16592833,9.763966,-0.004263023845851421,0.0030928475316613913,1.7864513210952282e-05,1.2623147964477541,15.704769134521484,-13.071725845336914,-0.18277940154075625,-0.02056083083152771,0.029939651489257806,990.5848388671876,0,0.0,0
10.6,0.09395078,-0.15877825,9.775802,-0.0008008196018636228,0.00029651480144821113,-0.00011525151785463096,1.0817131996154783,15.904499053955078,-13.209550857543945,-0.18690058588981628,-0.02528245747089386,0.03941535949707031,990.4069213867188,0,0.0,0
10.64,0.09155074,-0.16116129999999998,9.763964,0.00013138365466147658,0.00016334097017534077,0.0005505800945684314,1.0871202945709229,16.17276382446289,-12.918142318725586,-0.17164269089698792,-0.011003941297531128,0.053627967834472656,990.3888549804688,0,0.0,0
10.68,0.07720116,-0.15877779999999997,9.771065,0.00013138365466147658,0.00016334097017534077,0.0005505800945684314,0.8438262939453125,16.471920013427734,-13.206094741821287,-0.1562987118959427,-0.01115599274635315,0.03943061828613281,990.3888549804688,0,0.0,0
10.72,0.08914053400000001,-0.17546040000000002,9.761595,-0.00013483432121574881,0.00029648304916918283,0.00041746406350284815,1.6058058738708496,15.7113037109375,-14.664724349975586,-0.17440173029899594,0.007874682545661926,0.048908233642578125,990.42431640625,0,0.0,0
10.76,0.09152031,-0.15162733,9.766328,-0.0005342104705050588,-0.0006356384255923331,0.0005506639136001468,1.2458486557006836,15.900398254394533,-13.619524002075195,-0.1876760721206665,-0.02520751953125,0.034720420837402344,990.4727172851562,0,0.0,0
10.8,0.08434045,-0.15877697,9.771061999999999,0.00013167725410312414,0.0005627670907415451,-0.0005145575851202012,1.4862356185913086,15.704212188720705,-13.876039505004885,-0.17208370566368106,-0.02990177273750305,0.034732818603515625,990.4752807617188,0,0.0,0
10.84,0.06999087,-0.15162688,9.763959,0.0007975645130500197,-0.00036935429670847947,0.0006839056732133031,1.544361591339111,15.600364685058596,-13.493997573852539,-0.15690112113952634,-0.019904777407646183,0.058421134948730476,990.4854125976562,0,0.0,0
10.88,0.08909994,-0.14924335,9.759224,-0.0008002327522262932,-0.0007688440382480621,-0.00011500000255182383,1.5589005947113037,15.877471923828125,-13.666421890258787,-0.15539544820785522,0.041285261511802666,0.04421710968017578,990.4498901367188,1,1.0,1
10.92,0.10342919999999999,-0.08251133599999999,9.775793,0.0013303919695317745,-0.00023622807930223644,-0.0006475899135693908,1.1641902923583984,15.82421875,-14.064386367797852,-0.15465837717056274,0.001924172043800354,0.034732818603515625,990.452392578125,1,1.0,1
10.96,-0.12362163,-0.018162549,9.870481,-0.004927835427224636,0.003225846914574504,0.0012167050736024974,1.3676447868347168,16.066886901855472,-13.263113021850586,0.21240052580833435,0.4775331318378449,0.2328691482543945,990.454833984375,1,1.0,1
11.0,0.296991,-0.41378656,9.811299,-0.03968196362257004,0.07766111940145493,-0.19612333178520205,1.440554141998291,15.23971939086914,-13.379915237426758,-0.4025099277496338,0.07265087962150574,-0.3126840591430664,990.404052734375,1,1.0,1
11.04,0.24918276,-0.18022504,9.83497,-0.16405139863491058,-0.10303421318531036,-0.10597535222768784,0.938746452331543,15.823299407958984,-13.182767868041992,-0.4524062871932984,-0.2625519633293152,-0.033904075622558594,990.32080078125,1,1.0,1
11.08,-0.11648238,-0.46621819999999997,9.801829,-0.11771231889724733,-0.006361572537571192,0.05048526450991631,0.8027098178863525,16.011844635009766,-12.94188117980957,0.0367828831076622,0.10682108998298644,0.03489875793457031,990.3456420898438,1,1.0,1
11.12,-0.3426759,-0.6259186,9.801907,-0.19574277102947235,-0.006228430662304163,0.05754267796874046,1.0439388751983645,16.079505920410153,-12.675081253051758,0.39930689334869385,-0.0108986496925354,-0.006855010986328125,990.3915405273438,1,1.0,1
11.16,0.09948009,-1.0930418,9.792439,-0.2579315304756165,0.0037590644787997007,-0.22182439267635345,0.8633365631103516,16.27923583984375,-12.812902450561525,-0.1624465435743332,1.0237314701080322,0.05779170989990234,990.411865234375,1,1.0,1
11.2,0.5511956,-0.46624014,9.894232,-0.3218515813350677,0.028527131304144863,-0.7053226232528687,0.27255868911743164,17.411413192749027,-12.249223709106445,-0.5904657244682312,-0.12759166955947876,-0.17009925842285156,990.3990478515624,1,1.0,1
11.24,0.4508438,-0.5472722,10.21144,-0.4511481821537018,-0.07706707715988159,-0.6210338473320007,-0.12533283233642578,17.24930191040039,-11.79350471496582,-0.688207745552063,-0.4407583475112915,-0.6075992584228516,990.4091796875,1,1.0,1
11.28,0.55602366,0.10812876,9.896604,-0.62851482629776,-0.3026365637779236,-0.10904163867235184,-0.7616553306579591,18.02289581298828,-11.432775497436525,-0.812083899974823,-1.339548110961914,-0.3227148056030273,990.4573974609376,1,1.0,1
11.32,0.5703871,-2.3680982999999998,10.741696000000001,-1.0847140550613403,-0.19464550912380216,0.4655348062515259,-0.6953225135803223,19.190689086914066,-10.587518692016602,-0.8436853289604187,0.2808142900466919,-0.7934055328369141,990.4623413085938,1,1.0,1
11.36,-0.2612746,-1.5887666,8.417107000000001,-0.7302478551864624,1.0196218490600586,0.2432940751314163,0.5044651031494141,20.10322570800781,-10.440874099731444,-0.9528270363807678,-0.10939657688140868,0.4199867248535156,990.449951171875,1,1.0,1
11.4,-1.0618676999999999,-2.8614377999999996,7.5838523,-0.0926879420876503,1.3639683723449707,0.41080668568611145,2.5653364658355717,20.505451202392575,-10.935953140258787,-0.12169653177261353,0.697479248046875,2.612739562988281,990.452392578125,1,1.0,1
11.44,-0.35204268,-2.6731596,10.147535000000001,-0.8815158605575562,-0.12899848818778992,0.351418137550354,2.322341203689575,21.436744689941406,-10.799036026000977,0.05489987134933472,0.33332109451293945,0.4980010986328125,990.5057373046876,1,1.0,1
11.48,-0.25403258,-2.6707767999999996,10.628079,-1.4695414304733276,-1.7082515954971311,0.5351759791374207,0.5628349781036377,23.370424270629886,-9.255331039428713,0.15301036834716794,-0.2960827350616455,-2.153615951538086,990.5157470703124,1,1.0,1
11.52,-0.27312770000000003,-2.8781226,8.357936,-0.7857757210731506,-0.24497897922992706,0.3496868908405304,0.3215222358703613,24.82941436767578,-8.071767807006836,0.07696104049682617,-0.4462909698486328,0.4136505126953125,990.4623413085938,1,1.0,1
11.56,-0.6148596,-3.2236986,8.713017,-0.4303773939609528,0.5217444896697998,0.006405602674931289,0.49397158622741705,24.9906005859375,-7.6458683013916025,0.3585093319416046,-0.5254631042480469,1.5800046920776367,990.4443969726562,1,1.0,1
11.6,0.86212385,-3.3619294,10.7156725,-0.5515513420104979,-0.5825342535972595,-0.15271824598312378,0.013196945190429688,25.382976531982425,-7.132835388183594,-1.1822746992111206,0.35192179679870605,-3.3977489471435547,990.47509765625,1,1.0,1
11.64,-0.47380716,-3.995882,8.973414,-0.5812457799911499,-0.07160725444555283,-0.276555210351944,-0.9537601470947266,25.899456024169922,-6.398176193237305,0.8887024521827698,0.21361541748046875,0.5010700225830078,990.4702758789062,1,1.0,1
11.68,0.15237123,-4.093597,8.637274,-0.9598141312599182,0.28805243968963623,-0.3794863820075989,-0.4743466377258301,26.03182983398437,-5.7099552154541025,-0.36351221799850464,-0.19351816177368164,0.01361846923828125,990.5028076171876,1,1.0,1
11.72,0.73314154,-4.715633400000001,8.755636,-1.1138780117034912,0.2599561214447021,-0.5712339282035828,-1.4552454948425293,27.53547668457031,-3.9531307220458975,-0.6422035694122314,-0.01082134246826172,-0.02049732208251953,990.5133056640624,1,1.0,1
11.76,0.5467533,-4.9611114999999995,8.021806,-0.9627440571784972,0.15662558376789093,-0.3154376745223999,-1.891998291015625,28.284954071044922,-3.1598415374755864,-0.4966576397418976,-0.06407356262207031,0.14847183227539062,990.4852905273438,1,1.0,1
11.8,0.34363574,-5.101725599999999,8.02891,-1.0952364206314087,-0.1262018382549286,0.22465085983276367,-2.006704807281494,28.91442108154297,-2.178201675415039,-0.5204541087150574,-0.032636165618896484,0.4186325073242188,990.5076293945312,1,1.0,1
11.84,-0.5334342,-3.7075082999999998,8.571000999999999,-0.2628665864467621,-0.7260782718658447,1.148900032043457,-1.1859259605407717,31.367095947265625,0.16927146911621094,0.008483394980430603,-1.8816728591918943,-0.2750473022460937,990.4873046875,1,1.0,1
11.88,0.6543711999999999,-3.7408748,8.36979,-0.2628665864467621,-0.7260782718658447,1.148900032043457,-1.1859259605407717,31.367095947265625,0.16927146911621094,-0.7674421072006226,-1.7610213756561282,-0.11377811431884766,990.4873046875,1,1.0,1
11.92,0.35087776,-6.831987400000001,9.667019999999999,0.7339534759521484,-0.14670805633068085,0.3451584875583649,-1.0754871368408203,31.36534881591797,-0.15558433532714844,-0.8614735603332521,1.2823491096496582,0.4069795608520508,990.528076171875,1,1.0,1
11.96,-1.4773731,-5.297156299999999,11.861419,1.655273199081421,-0.35856229066848755,-0.06030752509832382,-0.9805893898010254,30.296424865722656,-1.955282211303711,1.5284632444381714,2.1418185234069824,-3.792499542236328,990.5991821289062,1,1.0,1
12.0,0.26249957,-2.1726794,7.889255,2.0932292938232417,-0.18306010961532596,0.4313115179538727,-1.2563261985778809,28.985992431640625,-3.9916763305664062,0.31101784110069275,0.04798388481140137,0.11567974090576172,990.6651000976562,1,1.0,1
12.04,0.42503703,0.022319496,9.34272,2.0932292938232417,-0.18306010961532596,0.4313115179538727,-0.6871781349182129,26.780750274658203,-5.7209815979003915,-0.6500247716903687,-3.636634349822998,1.1259698867797852,990.6651000976562,1,1.0,1
12.08,-0.02424045,-3.7980762,12.7514925,2.2796502113342285,0.08858215063810349,1.1097511053085327,-1.382925510406494,26.235992431640625,-7.81443977355957,-0.0498354434967041,0.8645648956298828,-2.3649768829345703,990.5836181640624,1,1.0,1
12.12,-1.1355208,-3.4096026,11.551324000000001,0.8061242103576659,-0.5657559633255005,-0.1330120712518692,-2.9285364151000977,26.26387023925781,-7.885835647583008,1.589000940322876,1.6028685569763184,-2.8984498977661133,990.4389038085938,1,1.0,1
12.16,0.033165365,-1.5005972,10.658891,0.5235627889633179,-0.5614948868751526,-0.5467338562011719,-2.371701717376709,23.9409294128418,-8.29762077331543,0.2505596280097961,-0.24613070487976074,-1.0254745483398438,990.5835571289062,1,1.0,1
12.2,0.39645457,-1.1145067,11.283833999999999,0.6030578017234802,0.4375892281532288,0.10946834832429886,-1.8792943954467771,23.928630828857425,-9.527544021606444,-0.4205584228038788,-0.4897141456604004,-1.084676742553711,990.6217651367188,1,1.0,1
12.24,-0.052822873,-1.5434974,11.8567,0.7742987275123596,0.2438444644212723,0.6029515862464905,-1.2312335968017578,22.428762435913086,-10.232503890991213,-0.023906774818897247,0.15549027919769287,-2.585190773010254,990.4718627929688,1,1.0,1
12.28,-0.42562348,-1.1693232,10.694405999999999,0.8896130919456482,0.147438183426857,0.19162648916244507,-1.2960658073425293,20.842138290405273,-12.978094100952148,0.4836522340774536,0.582658052444458,-1.0551033020019531,990.4490356445312,1,1.0,1
12.32,-0.18660918,-0.15404722,10.474257000000001,1.1382187604904177,0.07713082432746887,0.2807090580463409,-1.5842766761779783,18.88778305053711,-14.820917129516602,0.3508907556533813,0.0264798104763031,-0.4615554809570313,990.415771484375,1,1.0,1
12.36,0.2745511,-0.30895814,11.146535,1.3454123735427856,-0.4276708662509918,0.3187921643257141,-1.635962963104248,16.890748977661133,-15.465944290161133,0.08419224619865417,0.4207568466663361,-1.3290643692016602,990.4032592773438,1,1.0,1
12.4,0.006785899399999999,0.08666852,10.261192999999999,1.257128357887268,-0.3885223865509033,0.17924250662326813,-2.48978853225708,15.143718719482422,-16.386907577514652,0.149215966463089,0.8403469324111938,-0.6811180114746094,990.4132690429688,1,1.0,1
12.44,-0.009926528,0.8683834,9.761714,1.1141175031661987,0.17327231168746948,0.18496699631214145,-2.1406455039978027,14.418094635009766,-18.01492118835449,0.12056611478328705,0.31554341316223145,0.07993793487548828,990.4080810546876,1,1.0,1
12.48,0.20040166,1.0900279,10.154672,1.099070429801941,0.09870389848947524,0.219321683049202,-2.0594754219055176,12.123653411865234,-18.047143936157227,0.032429128885269165,0.4274581670761109,-0.28472900390625,990.3877563476562,1,1.0,1
12.52,0.19324884,1.3474214,10.007907000000001,1.0255671739578247,0.02360284328460693,0.1878963261842728,-2.497666835784912,11.345008850097654,-18.626916885375977,0.034620478749275214,0.7571767568588257,-0.4210977554321289,990.3900756835938,1,1.0,1
12.56,0.31037086,1.6715468999999998,9.423209,1.165649175643921,0.07500184327363968,0.1741809993982315,-1.656038761138916,8.288478851318361,-20.04046058654785,-0.09438256919384004,0.8014651536941528,-0.30383968353271484,990.412841796875,1,1.0,1
12.6,0.36296558,2.4437287,8.426619,1.1942780017852783,0.13678713142871854,0.19708409905433652,-1.8404192924499512,7.115070343017577,-20.174341201782227,-0.17573831975460052,0.4807043075561523,1.0515079498291016,990.4205322265624,1,1.0,1
12.64,0.4036107,2.6105577999999996,9.967669500000001,0.6890765428543091,0.3093598783016205,0.2223840355873108,-1.1883339881896973,5.9879093170166025,-21.209665298461914,-0.4657752513885498,0.08732819557189941,-0.06893062591552734,990.387451171875,1,1.0,1
12.68,0.31520128,2.65584,10.372461999999999,0.16123832762241366,0.19990403950214386,0.08762812614440918,-0.6560654640197754,5.854093551635742,-21.129884719848636,-0.3003478646278381,0.4603917598724365,-1.5025691986083984,990.3391723632812,1,1.0,1
12.72,-0.02653791,2.8727176,8.715423,0.609580934047699,0.18432460725307465,-0.02955093421041965,-0.8367209434509277,4.421258926391602,-22.019006729125977,-0.018258258700370792,0.4828145503997803,0.3436508178710937,990.412841796875,1,1.0,1
12.76,-0.036080614,2.7535534,10.07183,0.6765592694282532,0.36821576952934265,-0.0993257611989975,-0.41755151748657227,3.3917331695556636,-22.485261917114254,-0.3709582984447479,0.7695205211639404,-1.0506858825683594,990.3923950195312,1,1.0,1
12.8,-0.098201245,3.0562296,8.814847,0.5204979181289673,0.18072938919067386,-0.006781065836548804,0.12243413925170897,2.158935546875,-22.41935157775879,-0.35879459977149963,0.7792794704437256,-0.3286876678466797,990.3389282226562,1,1.0,1
12.84,-0.36824334,3.5853167,7.366121000000001,0.8838858008384705,0.4069647490978241,0.05660204216837882,0.3298583030700684,1.141749382019043,-22.69973182678223,-0.13778063654899594,0.6815028190612793,1.5122222900390625,990.4097290039062,1,1.0,1
12.88,-0.38017598,3.866543,8.346144,1.0731030702590942,0.14451049268245694,0.09694883227348328,1.0882210731506348,-0.4657878875732422,-23.030466079711914,-0.01706346869468689,0.6987712383270264,1.1060867309570312,990.3943481445312,1,1.0,1
12.92,-0.32280149999999996,3.6758803999999996,9.016065,0.620099663734436,-0.07959429174661636,0.05753401294350624,0.5085868835449219,-1.3241548538208008,-23.66076469421387,-0.20210757851600647,0.7505488395690918,-0.8346891403198242,990.3341674804688,1,1.0,1
12.96,-0.59762335,3.9547236000000003,7.3542895,0.6220967769622803,0.27487218379974365,0.029570773243904117,1.1563735008239746,-3.035854816436768,-22.96756935119629,0.03073370456695557,1.1450145244598389,0.9184188842773438,990.38916015625,1,1.0,1
13.0,-0.63823485,4.450444999999999,7.756715299999999,0.8431388735771179,0.471280187368393,0.11226178705692293,1.7290244102478027,-4.079791069030762,-23.30266761779785,-0.06408035755157471,0.7916641235351562,1.0687842369079592,990.4119262695312,1,1.0,1
13.04,-0.7887818,4.1310854,8.663356,0.6150391101837158,0.20416533946990967,0.145151749253273,2.476327896118164,-5.223428726196289,-23.88979148864746,0.007315635681152344,1.1027631759643557,-0.4455699920654297,990.3740234375,1,1.0,1
13.08,-0.81266403,4.369413,7.1814884999999995,0.3298146426677704,0.6394586563110352,0.12704218924045566,2.6743760108947754,-5.249029636383057,-23.37992286682129,-0.2308411002159119,1.328895092010498,0.369290828704834,990.3739013671876,1,1.0,1
13.12,-1.0635868,5.1678104000000005,7.176755,0.5443319082260132,1.0262825489044192,0.35514166951179504,4.532548904418945,-7.670444965362549,-23.8325138092041,-0.17122197151184082,0.419097900390625,1.2431321144104004,990.3714599609376,1,1.0,1
13.16,-1.0277214,4.812701000000001,7.58865,0.5094444155693054,0.6128271818161011,0.3801752924919128,5.754593372344972,-7.579788208007812,-23.87216377258301,-0.3331823945045471,0.9283075332641602,-0.12909603118896484,990.3732299804688,1,1.0,1
13.2,-1.1448097,4.7841015,7.323525,0.4917342066764832,0.5639582276344299,0.3026773035526276,6.494585037231445,-8.09865665435791,-23.647890090942386,-0.17173278331756592,1.1888570785522459,0.6070795059204102,990.3935546875,1,1.0,1
13.24,-0.5042992000000001,5.837511,7.586286,0.4519198536872864,0.4413197934627533,0.4944246709346771,7.790761947631836,-9.465828895568848,-24.30652046203613,-0.5148407220840454,0.9064788818359376,0.03590965270996094,990.3731079101562,1,1.0,1
13.28,0.52576536,6.659741400000001,8.057362,0.46869757771492,0.4166855812072754,0.8161341547966003,7.932748794555664,-9.75439453125,-24.157548904418945,-1.818408489227295,-0.43718767166137695,-0.8152599334716797,990.39599609375,1,1.0,1
13.32,-0.78149414,5.8494263,6.509212000000001,0.43953582644462585,0.6491793990135193,0.563666582107544,8.316070556640625,-11.081644058227539,-23.36911201477051,-1.030903935432434,0.593907356262207,0.4293975830078125,990.3909912109376,1,1.0,1
13.36,-0.85243917,6.1950417,6.722110300000001,0.43953582644462585,0.6491793990135193,0.563666582107544,9.48039436340332,-11.361347198486328,-22.993268966674805,-0.5679618716239929,0.5866703987121582,0.4884395599365234,990.3909912109376,1,1.0,1
13.4,-0.7401631999999999,6.578750599999999,7.3470473,0.6547189354896545,0.7213510274887085,0.17631013691425326,10.453409194946287,-13.084196090698242,-22.965410232543945,-0.8276641964912415,0.38060998916625977,-0.1403827667236328,990.3883056640624,1,1.0,1
13.44,-0.87404716,6.726515299999999,6.636882300000001,0.4982641339302063,0.4824647307395935,0.37405216693878174,10.977663040161133,-12.75117015838623,-23.296640396118164,-0.8604649901390076,0.11712360382080078,-0.5137395858764648,990.3930053710938,1,1.0,1
13.48,-1.3018891000000001,6.8456807,5.401198,0.22823190689086914,0.5674149990081787,0.4522238671779633,12.428705215454102,-14.237197875976562,-23.202333450317386,-0.29464399814605713,0.3383350372314453,1.2657461166381836,990.4031982421876,1,1.0,1
13.52,-1.2852093,6.826615299999999,5.6947265,0.4773708879947662,0.6762049198150635,0.4211982786655426,12.36601448059082,-14.137774467468262,-23.35245704650879,-0.1247028112411499,0.4052553176879883,0.5749273300170898,990.4060668945312,1,1.0,1
13.56,-0.65910447,7.331871499999999,5.815449,0.6980140805244446,0.1808573454618454,0.37046533823013306,12.508108139038086,-15.532686233520508,-22.83082771301269,-0.523565411567688,0.3358030319213867,0.6784062385559082,990.3750610351562,1,1.0,1
13.6,-0.9411624,7.0077467,5.6473737,0.6127935647964478,-0.09344810247421263,0.3697997331619263,12.051517486572266,-16.43492317199707,-21.78386116027832,-0.541259765625,0.3071556091308594,0.2357988357543945,990.3751831054688,1,1.0,1
13.64,-1.0917757,7.2031765,4.6886516,0.23236218094825745,0.36528080701828,0.40135857462883,11.841402053833008,-17.527454376220707,-21.302637100219727,0.04062557220458984,0.6582126617431641,1.3365592956542969,990.3621826171876,1,1.0,1
13.68,-0.76918834,7.160278999999999,5.337260700000001,0.23822161555290225,0.3302602469921112,0.5277256369590759,11.708109855651855,-17.968097686767578,-21.6412296295166,-0.35569643974304205,0.5044178962707521,0.7363781929016113,990.3190307617188,1,1.0,1
13.72,-0.80986613,7.825214999999999,4.0660686,0.005728328134864569,0.30496013164520264,0.6125474572181702,12.221273422241213,-18.383440017700195,-21.157114028930664,-0.040607988834381104,0.05824136734008789,1.3276429176330566,990.3617553710938,1,1.0,1
13.76,-0.59960425,7.8133,4.326455999999999,0.020109862089157104,0.5088248252868652,0.670870840549469,12.738056182861328,-17.95186996459961,-21.80088996887207,-0.3836228847503662,-0.2570786476135254,2.4168636798858643,990.362060546875,1,1.0,1
13.8,-0.29374632,7.5964227,6.4545665,-0.4030655920505524,0.04663358628749848,0.4687372744083405,12.633161544799805,-17.575935363769528,-21.88371467590332,-0.3110545873641968,-0.08251333236694336,0.018052101135253903,990.3316650390624,1,1.0,1
13.84,-0.29618567,6.995838000000001,7.304387599999999,-0.5118551254272461,-0.16655233502388,0.298428475856781,11.746075630187988,-16.40462875366211,-22.123491287231445,-0.4306485652923584,0.3960566520690918,-0.7943859100341797,990.4151000976562,1,1.0,1
13.88,-0.13611174,7.2699156,6.838044,-0.2757656574249268,-0.0067629022523760796,0.13171495497226715,11.749555587768555,-15.663626670837402,-22.552309036254886,-0.41303133964538574,0.2229485511779785,-0.7415804862976074,990.4151000976562,1,1.0,1
13.92,-0.28672504,7.2746830000000005,6.4237795,0.07417389005422592,0.07273230701684953,0.1054830402135849,11.49835205078125,-16.003971099853516,-22.878602981567386,-0.39199531078338623,0.30600643157958984,-0.34597063064575195,990.41748046875,1,1.0,1
13.96,-0.3058937,7.6393266,6.040287999999999,0.09255016595125197,0.17726121842861176,0.076587975025177,12.380767822265625,-16.073354721069336,-22.77956581115723,-0.3272027671337128,-0.063995361328125,0.4019145965576172,990.4174194335938,1,1.0,1
14.0,-0.38003013,7.8228407,6.3858953000000005,0.02916746586561203,0.16394533216953278,0.05794606730341911,12.146469116210938,-15.8712797164917,-22.8322696685791,-0.3197041749954224,-0.2783522605895996,-0.08538007736206055,990.3895874023438,1,1.0,1
14.04,-0.32033208,7.758493400000001,6.736236,-0.11304473876953125,0.1880468726158142,0.0217273086309433,12.145488739013672,-16.24104118347168,-22.65651512145996,-0.4745483100414276,-0.3411793708801269,-0.3248434066772461,990.3995971679688,1,1.0,1
14.08,-0.48528475,7.5749816999999995,6.5799966,-0.08747794479131699,0.11947043985128405,-0.050310928374528885,12.84439468383789,-16.007720947265625,-23.23977470397949,-0.3056201338768005,-0.1654648780822754,-0.4873752593994141,990.4046020507812,1,1.0,1
14.12,-0.7099850000000001,7.319972,5.7254324,0.12877103686332705,0.11627456545829773,-0.07561074197292328,13.455278396606445,-16.068307876586914,-22.56051826477051,-0.18791109323501587,0.17121648788452148,0.4151687622070313,990.3842163085938,1,1.0,1
14.16,-0.50928277,7.3867054,6.1325864999999995,0.1956167966127396,0.05475552380084992,-0.08266790956258774,13.308971405029295,-16.784589767456055,-22.80400276184082,-0.17513060569763186,0.24903154373168945,0.24082040786743164,990.3914794921876,1,1.0,1
14.2,-0.38744724,7.555919599999999,6.101808,0.01718563213944435,-0.12074672430753708,0.00748022785410285,13.071788787841795,-16.059234619140625,-21.57814216613769,-0.47970196604728704,-0.05620002746582031,0.08460521697998047,990.3583984375,1,1.0,1
14.24,-0.60975754,7.446289500000001,6.1065383,-0.023693377152085304,-0.1071646884083748,-0.03659484535455704,12.547916412353516,-17.28676986694336,-22.272417068481445,-0.20340788364410398,0.06908941268920897,0.1538372039794922,990.3988037109376,1,1.0,1
14.28,-0.63609594,7.574988,6.471082,-0.05738185718655586,-0.15377002954483032,-0.0977141484618187,12.636238098144533,-16.360729217529293,-23.110055923461914,-0.07824057340621947,-0.018051624298095703,-0.15591812133789062,990.3683471679688,1,1.0,1
14.32,-0.4324733,7.672690400000001,6.3077893,0.026108644902706143,-0.31569018959999084,-0.09411866962909697,12.251224517822266,-16.353130340576172,-22.05037498474121,-0.24311038851737976,-0.15726470947265625,-0.018870830535888672,990.3961181640624,1,1.0,1
14.36,-0.41762054,7.584496499999999,6.7268314,0.004937008954584599,-0.26495710015296936,-0.12035057693719865,11.97844696044922,-16.133970260620114,-22.7910099029541,-0.3002115488052368,-0.1670513153076172,-0.4481792449951172,990.3681030273438,1,1.0,1
14.4,-0.6518371999999999,7.479632400000001,6.345711,-0.11491374671459198,-0.12673772871494293,-0.17681321501731873,11.62525749206543,-16.20135498046875,-22.655656814575195,-0.09842675924301147,0.027811527252197262,-0.17288923263549805,990.3982543945312,1,1.0,1
14.44,-0.65901333,7.2722880000000005,6.1516004,0.0022640344686806198,-0.14058595895767212,-0.20704060792922974,11.35897445678711,-16.450515747070312,-22.90798377990723,-0.0962199568748474,0.15909147262573242,0.2359929084777832,990.4085083007812,1,1.0,1
14.48,-0.57776296,7.31042,6.6842203,-0.017975911498069763,-0.2515065371990204,-0.17321845889091492,10.859231948852539,-16.233747482299805,-22.68968772888184,-0.0854455828666687,0.21462106704711914,-0.4113011360168457,990.3955688476562,1,1.0,1
14.52,-0.49651265,7.4391174,6.42146,-0.015046374872326853,-0.35217395424842834,-0.09145946800708772,10.826811790466307,-17.423036575317386,-22.615102767944336,-0.1214287281036377,0.04456233978271485,0.059978485107421875,990.4031982421876,1,1.0,1
14.56,-0.4989089,7.489166,6.468804,0.013982118107378485,-0.23219864070415494,-0.05577310547232628,10.67460823059082,-16.406730651855472,-22.49714469909668,-0.18523553013801572,-0.031248092651367188,-0.3062782287597656,990.4083251953124,1,1.0,1
14.6,-0.71878624,7.2389220000000005,6.3670135000000005,-0.001197827747091651,-0.1027691438794136,-0.06469466537237167,9.954262733459473,-15.97462558746338,-23.027299880981445,0.11404871940612793,0.17788219451904294,0.1982207298278809,990.4307250976562,1,1.0,1
14.64,-0.27905062,7.5749645,7.136353999999999,-0.10146570205688477,-0.10183705389499664,-0.05803673714399338,10.336637496948242,-16.459379196166992,-23.134843826293945,-0.2467541396617889,-0.1090235710144043,-0.7715950012207031,990.3726806640624,1,1.0,1
14.68,-0.48936832,7.3485537,6.7576003,-0.11185196042060852,-0.04764178395271301,0.033709108829498284,10.106223106384276,-15.990508079528807,-22.81883811950684,-0.1685275435447693,0.06626129150390625,-0.348268985748291,990.4153442382812,1,1.0,1
14.72,-0.3029623,7.524916,6.750498299999999,-0.11185196042060852,-0.04764178395271301,0.033709108829498284,10.26274871826172,-16.001972198486328,-22.842287063598636,-0.25913965702056885,-0.122222900390625,-0.510134220123291,990.4153442382812,1,1.0,1
14.76,-0.28384945,7.522533,6.942241,0.10373087227344513,0.11374561488628387,0.07125969976186752,10.475879669189453,-16.118757247924805,-22.406389236450195,-0.4352424740791321,-0.1190476417541504,-1.0386080741882324,990.374755859375,1,1.0,1
14.8,-0.30058506,7.818059,6.5445504,0.10373087227344513,0.11374561488628387,0.07125969976186752,10.475879669189453,-16.118757247924805,-22.406389236450195,-0.5179741382598877,-0.03708028793334961,-1.3431482315063477,990.374755859375,1,1.0,1
14.84,-0.8215899999999999,7.6536136,4.7738830000000005,0.007457741536200046,0.2530288100242615,0.04050024226307869,11.303211212158205,-16.08134651184082,-22.844003677368164,-0.10427546501159668,-0.4527678489685058,1.957892894744873,990.3519897460938,1,1.0,1
14.88,-0.9578208,7.613098,6.357540599999999,0.2641863226890564,0.5620883703231812,0.06566711515188217,12.243997573852539,-17.2550048828125,-22.689348220825195,0.1699497103691101,-0.05023860931396485,0.1573476791381836,990.3948974609376,1,1.0,1
14.92,-0.8741806000000001,7.458184700000001,6.942239,0.3271700739860535,-0.0035665580071508884,-0.17401713132858276,11.497480392456055,-17.480079650878903,-22.33018684387207,-0.12454003095626832,-0.13964223861694336,-0.5622682571411133,990.4152221679688,1,1.0,1
14.96,-1.0008516,7.3247222999999995,6.520876400000001,-0.3435463309288025,0.11654188483953475,-0.10344339162111282,12.312967300415039,-15.610055923461914,-22.79622840881348,0.054937958717346184,-0.013530731201171877,0.09346961975097656,990.3489379882812,1,1.0,1
15.0,-0.8479042999999999,7.503467999999999,5.926707700000001,0.042478587478399284,-0.02247501164674759,-0.02061912231147289,12.063150405883787,-16.054851531982422,-22.50075340270996,-0.0311816930770874,-0.10866975784301758,0.307340145111084,990.4096069335938,1,1.0,1
15.04,-0.9100482,7.4510355,5.749167,0.1514018476009369,-0.2812009155750275,0.008276177570223808,11.724063873291016,-16.583179473876953,-22.263620376586914,0.13170170783996582,0.01745128631591797,0.6358871459960938,990.4146728515624,1,1.0,1
15.08,-0.68062395,7.3557043,6.206036,-0.07523291558027267,-0.2929188013076782,0.012936732731759548,10.946840286254883,-16.257593154907227,-21.85496711730957,-0.00022351741790771484,-0.026101112365722656,0.3096485137939453,990.3865356445312,1,1.0,1
15.12,-0.6662908000000001,7.200791400000001,6.717351400000001,-0.3010687232017517,-0.2276714146137237,0.01333623193204403,10.713659286499023,-15.579839706420898,-22.78250312805176,0.005406618118286133,0.02446985244750977,0.013359546661376951,990.3767700195312,1,1.0,1
15.16,-0.5468021,7.084011,6.7007804,-0.3346244394779205,-0.19344983994960785,0.009607836604118349,9.753768920898438,-14.687702178955078,-22.532819747924805,-0.02507108449935913,0.28339290618896484,-0.21330976486206052,990.38916015625,1,1.0,1
15.2,-0.2624101,7.381922,6.4853644,-0.156059592962265,-0.09451351314783096,0.05528103187680245,10.01671028137207,-15.073625564575195,-22.55075645446777,-0.317708283662796,-0.18118810653686526,-0.05404329299926758,990.3866577148438,1,1.0,1
15.24,-0.41537017,7.1173773,6.414348,-0.060185812413692474,-0.0479082390666008,0.03384263813495636,9.914859771728516,-14.694746971130373,-22.78818702697754,-0.1773262619972229,0.0384068489074707,0.3697609901428223,990.3739624023438,1,1.0,1
15.28,-0.43210584,7.081628,6.591888000000001,-0.09786945581436156,-0.09517931193113327,-0.026611046865582463,10.236364364624023,-14.446466445922852,-22.69828224182129,-0.07431668043136598,0.017852306365966797,0.05926370620727539,990.3966064453124,1,1.0,1
15.32,-0.20575318,7.0053806,6.4616284,-0.10732360929250716,-0.12673775851726532,-0.0005120621644891797,9.375959396362305,-14.198530197143555,-22.657190322875977,-0.20060408115386966,0.2328033447265625,0.19163799285888672,990.3685913085938,1,1.0,1
15.36,0.02772826,7.1865273,6.5302105,-0.0740308165550232,-0.13299672305583954,0.027186205610632896,9.034402847290039,-13.885839462280273,-23.238733291625977,-0.4753194451332092,-0.09049177169799803,0.14829730987548828,990.40869140625,1,1.0,1
15.4,-0.19220361,6.9410515,5.997585,-0.06083546206355095,-0.1589680165052414,-0.03006243146955967,8.93850326538086,-13.606983184814453,-23.08630180358887,-0.2919348180294037,0.11783504486083984,0.7381954193115234,990.3838500976562,0,0.0,0
15.44,-0.22094333,6.92437,6.60595,-0.13247384130954742,-0.08519862592220306,-0.10116851329803468,9.121606826782227,-13.435479164123535,-23.20153999328613,-0.18424749374389648,0.1465005874633789,0.5011610984802246,990.404052734375,0,0.0,0
15.48,-0.032201976,6.9553537,7.103057000000001,-0.27774858474731445,-0.19904877245426175,-0.07906405627727509,8.827522277832031,-13.236942291259766,-22.859899520874023,-0.3397868275642395,0.0570840835571289,-0.3143434524536133,990.4140014648438,0,0.0,0
15.52,-0.12546903,6.8624077,7.088848,-0.2580406069755554,-0.16362884640693665,-0.07240590453147888,8.308270454406737,-12.827493667602539,-23.034799575805664,-0.26243650913238525,-0.01245737075805664,0.015860557556152344,990.40869140625,0,0.0,0
15.56,-0.08968136,6.8004436,7.015459,-0.2725542485713959,-0.13153786957263947,-0.12460356950759888,8.316423416137695,-13.188417434692385,-23.3228702545166,-0.29428982734680176,0.0011467933654785154,-0.04599809646606445,990.404052734375,0,0.0,0
15.6,-0.14232011,6.7146473,7.1338134,-0.21502941846847531,-0.13633166253566742,-0.14657437801361084,8.385639190673826,-12.543902397155762,-23.756166458129886,-0.2445507049560547,0.02435588836669922,-0.056399345397949226,990.3756103515624,0,0.0,0
15.64,-0.12326178,6.595485000000001,7.221394999999999,-0.18759827315807345,-0.19212493300437927,-0.17640149593353271,8.112724304199219,-12.430662155151367,-23.7977237701416,-0.2458285242319107,0.07874250411987305,0.03882122039794922,990.3809204101562,0,0.0,0
15.68,-0.18068032,6.5120716,7.543328999999999,-0.21529455482959747,-0.23420295119285586,-0.1859886199235916,7.721654415130615,-11.216694831848145,-23.50056266784668,-0.15978297591209412,0.07275056838989258,-0.2526531219482422,990.4181518554688,0,0.0,0
15.72,-0.24526857,6.450107599999999,7.4462676,-0.238729789853096,-0.22421617805957794,-0.18838520348072046,7.265231132507324,-10.800750732421877,-24.22441291809082,-0.09028252959251404,0.1600184440612793,-0.2022256851196289,990.3980712890624,0,0.0,0
15.76,-0.07803632,6.4310427,7.820280599999999,-0.17614494264125824,-0.22394995391368866,-0.1745365411043167,7.228978633880615,-10.624267578125,-23.767244338989254,-0.18860813975334167,0.011912345886230469,-0.40287208557128906,990.4205932617188,0,0.0,0
15.8,-0.30035809999999996,6.240382,7.519639999999999,-0.12061750143766405,-0.3287453353404999,-0.16734576225280762,6.348927021026611,-10.289567947387695,-23.420263290405273,-0.00282895565032959,0.2547922134399414,-0.29161739349365234,990.403076171875,0,0.0,0
15.84,-0.30041897,6.380997,7.349196000000001,-0.08346585184335709,-0.2010469883680344,-0.1636170893907547,5.953535079956055,-10.080442428588867,-23.217607498168945,0.1360892504453659,0.1082749366760254,0.03328275680541992,990.4027099609376,0,0.0,0
15.88,-0.17142515,6.4024487,7.330253,-0.015821032226085663,-0.2346028834581375,-0.10875576734542848,5.6089348793029785,-9.77069854736328,-23.64452934265137,-0.05081084370613098,0.041886329650878906,0.07577371597290039,990.4002685546876,0,0.0,0
15.92,-0.32921958,6.359551000000001,7.491217,-0.06668678671121597,-0.236334040760994,-0.11022023856639862,5.6336917877197275,-10.221338272094727,-24.08388710021973,0.23572254180908206,0.03461170196533203,0.02194833755493164,990.4027709960938,0,0.0,0
15.96,-0.3770785,6.290437,7.566961999999999,-0.1516403704881668,-0.16402944922447205,-0.10129815340042114,4.7517361640930185,-8.993595123291016,-22.63409996032715,0.342185378074646,0.03004217147827148,-0.01563739776611328,990.3975219726562,0,0.0,0
16.0,-0.2695938,6.2761393,7.439127,-0.1516403704881668,-0.16402944922447205,-0.10129815340042114,4.7517361640930185,-8.993595123291016,-22.63409996032715,0.237911194562912,0.03768444061279297,0.0828561782836914,990.3975219726562,0,0.0,0
16.04,-0.15015961,6.342872,7.462793400000001,-0.1516403704881668,-0.16402944922447205,-0.10129815340042114,4.694451332092285,-8.625904083251951,-22.49281883239746,0.1998016983270645,-0.0500483512878418,0.052936553955078125,990.3975219726562,0,0.0,0
16.08,0.086379796,6.323807700000001,7.434382,-0.12993504106998446,-0.19492219388484955,-0.048700518906116486,3.9541616439819336,-8.739173889160156,-23.141958236694336,0.02708087861537933,-0.030370712280273438,0.14582586288452148,990.3897094726562,0,0.0,0
16.12,0.28468072,6.3142757000000005,7.891246300000001,-0.04697705060243607,-0.301049143075943,-0.01913920417428017,3.700459480285645,-9.45075798034668,-23.21519660949707,-0.04277530312538147,-0.08427190780639647,-0.29050254821777344,990.3672485351562,0,0.0,0
16.16,0.22248244,6.1259985,7.772880000000001,-0.03259541094303131,-0.3709571361541748,-0.009285264648497105,3.016230583190918,-9.301054000854492,-23.50344276428223,0.02933737635612488,0.08020496368408203,-0.2321872711181641,990.4075317382812,0,0.0,0
16.2,0.14594468,6.047352,7.642678699999999,-0.13326223194599152,-0.337534636259079,-0.02300028316676617,2.936253547668457,-8.84953498840332,-22.90165901184082,0.1550600528717041,0.1279463768005371,-0.09090566635131836,990.389404296875,0,0.0,0
16.24,0.16022319,5.9877709999999995,7.387015299999999,-0.16015954315662384,-0.1991836279630661,-0.04230792820453644,2.397055387496948,-8.985456466674805,-23.195539474487305,0.21910294890403748,0.11876869201660155,0.2692370414733887,990.3968505859376,0,0.0,0
16.28,0.16255221,5.985389,7.6639724000000005,-0.13885368406772616,-0.1730847805738449,-0.019803987815976143,2.080415964126587,-8.597184181213379,-23.092477798461914,0.2831754982471466,0.13832902908325195,0.0849456787109375,990.3892822265624,0,0.0,0
16.32,0.32185159999999996,6.033016,8.080744000000001,-0.1794656664133072,-0.24605552852153775,0.0330602191388607,1.359935283660889,-8.271001815795897,-22.92355918884277,0.2823643684387207,0.013870716094970705,-0.2942037582397461,990.394287109375,0,0.0,0
16.36,0.4509101,6.018717,8.580224000000001,-0.21090006828308105,-0.23380352556705475,0.08805053681135178,0.5767624378204346,-7.8453922271728525,-22.90476417541504,0.1939111351966858,-0.11603164672851562,-0.6565570831298828,990.3993530273438,0,0.0,0
16.4,0.43896437,5.8876367,9.04893,-0.23221106827259064,-0.1895941197872162,0.09017860889434813,0.5001053810119629,-7.179096698760986,-23.85575294494629,0.24351048469543454,0.012018203735351562,-1.2270078659057615,990.4141235351562,0,0.0,0
16.44,0.345762,5.9805839999999995,8.506841,-0.1593737155199051,-0.059631969779729836,0.10695648938417436,0.2676258087158203,-6.343410015106201,-23.560888290405273,0.3400200605392456,-0.1156611442565918,-0.8273453712463379,990.3967895507812,0,0.0,0
16.48,0.3362062,6.0234833,8.38138,-0.01329950522631407,0.10641597956418992,0.13438701629638672,0.3704543113708496,-6.352520942687987,-23.499216079711914,0.33478307723999023,-0.1499185562133789,-0.5547623634338379,990.3988037109376,0,0.0,0
16.52,0.2979716,5.906702,8.36481,0.056874692440032966,0.1375749409198761,0.13891436159610748,0.32324981689453125,-6.8184871673583975,-22.9257869720459,0.3870790600776672,-0.04460668563842773,-0.4904108047485352,990.4038696289062,0,0.0,0
16.56,0.35294318,5.8089876,8.452396,0.08710150420665741,0.19456654787063601,0.1462380290031433,1.248004913330078,-7.05846118927002,-23.59313774108887,0.298444926738739,0.048709869384765625,-0.6317272186279297,990.3963623046876,0,0.0,0
16.6,0.37206614,5.6945906,8.4831705,0.10947199910879137,0.2591481506824493,0.18685120344161987,1.5344800949096682,-7.264362335205077,-23.548250198364254,0.16698235273361206,0.2919907569885254,-0.7370996475219727,990.4010009765624,0,0.0,0
16.64,0.18565762,6.071149,7.6806893,0.1950925439596176,0.32213187217712397,0.22986118495464325,1.81530237197876,-6.738099575042725,-23.468351364135746,0.3265133798122406,0.06436300277709961,-0.21135377883911133,990.3937377929688,0,0.0,0
16.68,0.19283113,6.2570440000000005,7.2522254,0.25274986028671265,0.4981666505336762,0.3000354468822479,2.4787442684173584,-7.697018146514893,-23.82240867614746,0.19416186213493347,-0.17142391204833984,0.4783620834350586,990.3428344726562,0,0.0,0
16.72,-0.01747644,5.949601,7.8132534,0.22372141480445865,0.4216008484363556,0.2867196202278137,2.848942756652832,-8.19355583190918,-23.31151008605957,0.3785828948020935,0.08670663833618164,-0.03761148452758789,990.3858032226562,0,0.0,0
16.76,0.09963256,5.9948835,8.2843275,0.08576975017786026,0.3638103306293488,0.2750017046928406,3.6346166133880615,-8.247930526733397,-23.5833683013916,0.3084660470485687,0.17833995819091794,-0.5852012634277344,990.3878784179688,0,0.0,0
16.8,0.24064058,6.130730000000001,8.225147,0.046354956924915314,0.37406349182128906,0.3779327869415283,3.9797921180725098,-7.713709831237793,-24.12972068786621,0.15262645483016968,0.06804990768432617,-0.6258716583251953,990.3882446289062,0,0.0,0
16.84,0.30039190000000004,6.202228,7.616776,0.17924654483795166,0.3841834962368012,0.4294648766517639,4.9867472648620605,-8.24578857421875,-24.25375556945801,-0.007068783044815064,0.02131509780883789,-0.2392797470092773,990.3832397460938,0,0.0,0
16.88,0.24542803,6.125963,7.730402499999999,0.26167124509811396,0.40282562375068665,0.39364537596702576,5.303822040557861,-7.896008491516112,-24.63102149963379,0.0777362585067749,0.1681046485900879,-0.0382232666015625,990.3751831054688,0,0.0,0
16.92,0.22870249,6.049698,7.9079432,0.18004542589187622,0.3286566734313965,0.3482384979724884,6.515318870544434,-8.922003746032715,-23.75687599182129,0.0044997334480285645,0.2679128646850586,-0.5569467544555664,990.3651733398438,0,0.0,0
16.96,0.121160716,6.166479,7.685426,0.13317379355430606,0.4105488061904907,0.3337242603302002,6.806061267852782,-9.755619049072266,-24.36877632141113,0.11403553187847135,0.2441720962524414,-0.18642807006835935,990.3624877929688,0,0.0,0
17.0,0.08053619,6.133113,7.557597599999999,0.1064090058207512,0.4813888370990753,0.3485047817230225,7.42455530166626,-9.808841705322266,-24.07604789733887,0.055749699473381036,0.25092267990112305,-0.1963791847229004,990.3750610351562,0,0.0,0
17.04,0.03752172,6.237977,7.363487200000001,0.14862003922462466,0.4586188197135925,0.3357216417789459,7.888481616973878,-9.111074447631836,-24.11138343811035,0.1042516678571701,0.2508525848388672,0.04727792739868164,990.3876953125,0,0.0,0
17.08,0.092493296,6.2403603,7.657021,0.1656641811132431,0.3274582624435425,0.31215262413024897,9.23615264892578,-10.21969223022461,-24.17719841003418,0.05416390299797058,0.33600378036499023,-0.374539852142334,990.36181640625,0,0.0,0
17.12,-0.13932341,6.178395,7.422667999999999,0.1656641811132431,0.3274582624435425,0.31215262413024897,9.23615264892578,-10.21969223022461,-24.17719841003418,0.20998942852020264,0.3915886878967285,-0.19484281539916992,990.36181640625,0,0.0,0
17.16,-0.15604886,6.3619069999999995,7.332714599999999,0.1865698993206024,0.4029588103294373,0.3409147262573242,9.651491165161133,-9.883451461791992,-24.26087760925293,0.21076330542564392,0.2342963218688965,-0.07378578186035156,990.359130859375,0,0.0,0
17.2,-0.06761873,6.4906044000000005,7.0439167000000005,0.1865698993206024,0.4029588103294373,0.3409147262573242,9.651491165161133,-9.883451461791992,-24.26087760925293,0.1395980417728424,0.2357325553894043,0.0680994987487793,990.359130859375,0,0.0,0
17.24,0.0040821433,6.5883183,7.211988000000001,0.1084061563014984,0.4676735699176788,0.3451757431030273,10.815515518188477,-10.7952880859375,-24.309911727905273,-0.08167774230241777,-0.005395889282226562,0.1295018196105957,990.3818969726562,0,0.0,0
17.28,-0.24273439,6.3571568,7.3728976,0.06992347538471222,0.3463667035102844,0.2571583390235901,11.32659149169922,-11.26411247253418,-25.669965744018555,0.15136200189590454,0.310117244720459,-0.2446436882019043,990.3745727539062,0,0.0,0
17.32,-0.195633,6.3619404,7.1029729999999995,0.05594185739755631,0.344901978969574,0.2140151411294937,11.267946243286133,-10.37167263031006,-24.32743263244629,0.1546054482460022,0.3132200241088867,-0.029581546783447262,990.3870849609376,0,0.0,0
17.36,-0.049898446,6.326192400000001,7.268672500000001,0.019338043406605717,0.3976278007030487,0.2453161180019379,11.94342803955078,-11.424729347229006,-24.60085487365723,-0.0802169144153595,0.3718409538269043,0.04746818542480469,990.3893432617188,0,0.0,0
17.4,-0.05711761,6.2832947,7.543264,0.019338043406605717,0.3976278007030487,0.2453161180019379,13.169492721557615,-10.961359024047852,-24.97087287902832,-0.18001747131347656,0.3093833923339844,-0.2206287384033203,990.3893432617188,0,0.0,0
17.44,-0.2005612,6.2427797,7.6379466,-0.10023730993270874,0.3879072368144989,0.2354626357555389,13.815948486328125,-10.936053276062012,-24.14815330505371,-0.11849528551101685,0.3757238388061523,-0.5181922912597656,990.4013671875,0,0.0,0
17.48,-0.30337647,6.2809134,7.1739707,-0.12260736525058745,0.3816486895084381,0.21508967876434326,13.956413269042967,-11.226097106933594,-23.92187309265137,0.001574397087097168,0.3812136650085449,0.005402088165283203,990.4093627929688,0,0.0,0
17.52,-0.27713698,6.3738627,7.1289897,-0.07160739600658418,0.4117423593997955,0.2350635528564453,14.56743621826172,-11.180765151977539,-23.94169807434082,-0.013266772031784058,0.2534332275390625,0.08652114868164062,990.3788452148438,0,0.0,0
17.56,-0.2724067,6.3547974,7.358604,0.0410446934401989,0.3182653486728668,0.2648911476135254,14.521646499633787,-10.53890895843506,-23.8182315826416,-0.0046810805797576896,0.2788243293762207,-0.043118953704833984,990.429443359375,0,0.0,0
17.6,-0.19597927,6.44298,7.3514976999999995,-0.09743861109018326,0.22611992061138156,0.2947188913822174,15.642383575439453,-10.437664031982422,-23.99685859680176,-0.12377437949180604,0.10388660430908203,0.005443572998046875,990.38623046875,0,0.0,0
17.64,-0.21275805,6.416765,7.51483,-0.09743861109018326,0.22611992061138156,0.2947188913822174,15.642383575439453,-10.437664031982422,-23.99685859680176,-0.09644070267677307,0.0819239616394043,-0.09892892837524414,990.38623046875,0,0.0,0
17.68,-0.30362383,6.3714843,7.410669,-0.16361714899539948,0.3049492835998535,0.2644924819469452,16.229625701904293,-9.571931838989258,-23.753084182739254,-0.047786712646484375,0.1455373764038086,-0.16923904418945312,990.3709106445312,0,0.0,0
17.72,-0.24870549,6.5216317,7.121865299999999,-0.02420031651854515,0.2759207785129547,0.26649007201194763,16.98690414428711,-10.442891120910645,-24.28072166442871,-0.04599502682685852,0.014515399932861328,0.2164769172668457,990.4033203125,0,0.0,0
17.76,0.021303922000000003,6.616964299999999,7.266260000000001,-0.011017199605703354,0.2780512273311615,0.2919234335422516,17.209165573120114,-10.550836563110352,-24.308656692504886,-0.2483905553817749,-0.09956026077270508,0.16353416442871094,990.3956909179688,0,0.0,0
17.8,0.24590522,6.5764494000000004,7.415389500000001,-0.04750199988484383,0.261672705411911,0.2827357351779938,17.49205207824707,-10.391389846801758,-24.20760536193848,-0.6048603653907776,-0.08530282974243164,-0.07731246948242188,990.3881225585938,0,0.0,0
17.84,0.14309001,6.4048553,7.640269,-0.07959259301424026,0.2797821164131165,0.2346659302711487,18.501510620117188,-10.552233695983887,-24.58470344543457,-0.5519557595252991,-0.011249065399169922,-0.2610011100769043,990.385498046875,0,0.0,0
17.88,0.08568287,6.25471,7.893555,-0.038845784962177284,0.2162656933069229,0.1656903177499771,17.905868530273438,-10.05661392211914,-24.213979721069336,-0.4267831146717072,0.21168088912963867,-0.4214324951171875,990.3701782226562,0,0.0,0
17.92,0.27204573,6.4072404,7.6236897,-0.007020554970949888,0.1792476922273636,0.19059103727340695,17.91043472290039,-10.052194595336914,-24.44589424133301,-0.5922533273696899,0.1065354347229004,-0.4815483093261719,990.4004516601562,0,0.0,0
17.96,0.29589534,6.3214440000000005,7.252034,0.06621678918600082,0.21959447860717773,0.2309381067752838,18.63243865966797,-10.376909255981444,-24.69212532043457,-0.6717735528945923,0.14011430740356445,0.1414623260498047,990.3902587890624,0,0.0,0
18.0,0.2791165,6.221347,7.4674454,0.0606246292591095,0.17498648166656494,0.19045828282833102,19.002094268798828,-10.505157470703123,-24.27967643737793,-0.6542679071426392,0.28299379348754883,-0.18844127655029294,990.3724975585938,0,0.0,0
18.04,0.19303054,6.2570977,7.391690299999999,0.02706930786371231,0.14742271602153778,0.17141693830490112,18.92997169494629,-11.046701431274414,-24.39084434509277,-0.5293014049530029,0.3016691207885742,-0.12552976608276367,990.3826904296876,0,0.0,0
18.08,0.16430229,6.347663400000001,7.0602775,0.028268206864595413,0.16553212702274325,0.18273556232452395,19.212018966674805,-11.151103973388672,-24.813119888305664,-0.5311235189437866,0.2023797035217285,0.21216630935668945,990.3899536132812,0,0.0,0
18.12,0.13796389,6.4477625,7.261484599999999,0.06888184696435927,0.12891362607479095,0.18699681758880612,19.4222412109375,-11.164920806884766,-24.92168617248535,-0.4661366045475006,0.14597368240356445,0.03888845443725586,990.3770751953124,0,0.0,0
18.16,0.269359,6.6551089999999995,7.0176587,0.020545998588204384,0.09309405088424684,0.1912580728530884,19.416261672973636,-12.277153968811035,-24.239809036254886,-0.5073142647743225,-0.027927875518798828,0.2652735710144043,990.3820190429688,0,0.0,0
18.2,0.35773593,6.7885732999999995,7.117076400000001,0.01908173970878124,0.10707556456327437,0.2117646038532257,19.18889045715332,-11.805336952209473,-24.07840919494629,-0.6926155090332031,-0.21819734573364255,0.12098407745361328,990.3896484375,0,0.0,0
18.24,0.26209038,6.831473399999999,6.965571000000001,0.04864327982068062,0.043958619236946106,0.16369476914405826,19.29987144470215,-12.17537784576416,-24.30481147766113,-0.4747611880302429,-0.1690845489501953,0.23963022232055664,990.3843383789062,0,0.0,0
18.28,0.31349438,6.991123700000001,7.039066,0.005367424339056015,0.08443854749202727,0.14452023804187775,18.8365421295166,-11.608871459960938,-23.419740676879886,-0.5552805066108704,-0.4231200218200684,0.3544149398803711,990.3871459960938,0,0.0,0
18.32,0.15098232,6.800461299999999,7.3586383,-0.054158248007297516,0.08403974026441574,0.12121586501598358,19.11554527282715,-11.71622085571289,-23.68740272521973,-0.4469806253910065,-0.28047895431518555,-0.02504253387451172,990.4046630859376,0,0.0,0
18.36,0.09840578,6.652698,7.507772,-0.03978464007377625,0.05874094367027283,0.0714116021990776,19.632869720458984,-11.652935028076172,-24.232728958129886,-0.3089331388473511,-0.10919427871704103,-0.23352956771850586,990.4043579101562,0,0.0,0
18.4,-0.0019688606,6.5811996,7.3302320000000005,-0.017547272145748142,0.09083200991153716,0.07593896985054016,19.543601989746094,-11.736480712890625,-24.29107093811035,-0.2749789357185364,-0.02909612655639648,-0.08696460723876953,990.3887939453124,0,0.0,0
18.44,0.05539006,6.619332000000001,7.391779400000001,-0.025803077965974808,0.16992782056331635,0.09311633557081224,20.0441837310791,-11.689398765563965,-23.986040115356445,-0.307843029499054,-0.053437232971191406,-0.06438159942626953,990.3687133789062,0,0.0,0
18.48,0.107969165,6.5478334,7.460428,-0.03219467028975487,0.13983413577079773,0.11069318652153017,20.51017570495605,-11.358448028564453,-24.00023078918457,-0.3517114222049713,-0.006815433502197266,-0.13859844207763672,990.4041137695312,0,0.0,0
18.52,0.10080075,6.585966,7.339701,0.02586217783391476,0.07964674383401871,0.11002738028764723,20.40430450439453,-11.35227870941162,-23.90729331970215,-0.37215420603752136,-0.0026831626892089844,-0.11868715286254886,990.3837890625,0,0.0,0
18.56,0.18922839,6.6407814,7.110083,-0.0030331057496368885,0.15275044739246368,0.1284031718969345,20.469356536865234,-11.186384201049805,-23.3111515045166,-0.4439008831977844,-0.07457685470581055,0.1748523712158203,990.376220703125,0,0.0,0
18.6,0.14621139,6.585966,7.3302320000000005,-0.009291540831327438,0.1559462547302246,0.15037423372268674,20.134838104248047,-11.710298538208008,-23.30592918395996,-0.4011645019054413,-0.03665494918823242,0.04236316680908203,990.3858032226562,0,0.0,0
18.64,0.33262503,6.6932135,7.294724499999999,-0.028865769505500793,0.09416097402572632,0.15929581224918365,20.43196678161621,-11.905889511108398,-23.80217933654785,-0.5361477732658386,-0.11045169830322266,-0.12462949752807614,990.3912353515624,0,0.0,0
18.68,0.27765852,6.655081299999999,7.1479583,0.03944423794746399,0.09123148769140244,0.1980447620153427,20.837875366210934,-12.210615158081055,-23.84689521789551,-0.5044957399368286,-0.0984954833984375,0.1929583549499512,990.3859252929688,0,0.0,0
18.72,0.24420118,6.655081,7.297092,0.03944423794746399,0.09123148769140244,0.1980447620153427,20.01456451416016,-11.87531280517578,-23.73964500427246,-0.4281633496284485,-0.04758405685424805,-0.027126789093017575,990.3859252929688,0,0.0,0
18.76,0.11753768,6.6526976,7.076942999999999,0.04197422787547112,0.0820435956120491,0.18259842693805692,20.469600677490234,-12.186811447143555,-23.63757133483887,-0.3370024859905243,-0.08729124069213867,0.10846233367919922,990.3807373046876,0,0.0,0
18.8,0.076910585,6.69798,7.105349,0.00828525796532631,0.10707729309797287,0.18486212193965912,20.722463607788086,-11.739076614379885,-24.087656021118164,-0.19198130071163175,-0.058482170104980476,0.2183198928833008,990.3856811523438,0,0.0,0
18.84,0.14860892,6.7551785,7.173998399999999,0.042773153632879264,0.12665151059627533,0.1768726110458374,20.818225860595703,-12.123851776123047,-23.54100608825684,-0.28193598985672,-0.15779829025268555,0.005342483520507813,990.3807373046876,0,0.0,0
18.88,0.18445867,6.7075130000000005,7.1574273,0.016541026532649994,0.11093887686729433,0.1985773742198944,20.738088607788086,-12.198558807373047,-24.06317710876465,-0.30069321393966675,-0.10590171813964844,0.15789365768432614,990.3854370117188,0,0.0,0
18.92,0.20596910000000002,6.628864999999999,7.3728433,0.010815221816301346,0.14342941343784332,0.19817788898944852,20.84436798095703,-12.678935050964355,-23.35858726501465,-0.2949126958847046,-0.023140907287597656,-0.14599895477294922,990.3778076171876,0,0.0,0
18.96,0.19641078,6.6407814,7.105349,0.011880474165081978,0.11173783242702484,0.17647314071655273,21.203208923339844,-13.343710899353027,-23.528947830200195,-0.3231201171875,0.010707378387451172,0.05278730392456055,990.4002685546876,0,0.0,0
19.0,0.21553123,6.793311,7.1171856,0.022799400612711903,0.16766417026519775,0.1780710071325302,21.745994567871094,-13.573138236999512,-23.29123115539551,-0.2812895774841309,-0.14394712448120114,0.13174915313720706,990.40283203125,0,0.0,0
19.04,0.12710613,6.7098960000000005,7.095880999999999,0.031987283378839486,0.1150667816400528,0.17767156660556793,21.61397933959961,-13.011879920959473,-23.380712509155273,-0.22324353456497192,-0.10153484344482422,0.12314701080322266,990.3975219726562,0,0.0,0
