Timestamp,Ax,Ay,Az,Gx,Gy,Gz,Mx,My,Mz,LiAx,LiAy,LiAz,P,Value,Type,GroupType,Activities
0.0,0.049799323,-0.16322383,9.741462,-0.00023109550238586957,0.0051206606440246105,-0.00033829838503152127,0.12515020370483398,22.17483711242676,-16.277467727661133,-0.3428724706172943,0.14056484401226044,0.057187080383300774,990.5623779296876,0,13.0,1,1
0.04,0.06892869,-0.15369100000000002,9.755666,-0.00023109550238586957,0.0051206606440246105,-0.00033829838503152127,0.9603600502014159,21.63949012756348,-15.605005264282227,-0.3514896035194397,0.12127900123596193,0.05247974395751953,990.5623779296876,0,13.0,1,1
0.08,0.07132876,-0.15369123,9.758035000000001,0.0004656324745155871,0.00015665781393181533,-6.315880455076695e-06,1.0921292304992676,22.078662872314453,-15.189096450805664,-0.3630043268203736,0.1344275325536728,0.03835582733154297,990.53662109375,0,13.0,1,1
0.12,0.068949014,-0.14892492,9.753300999999999,-6.709720037179069e-05,-0.0002428001316729933,0.0010589056182652712,0.9957935810089112,21.619464874267575,-14.762460708618164,-0.3574771881103516,0.12899506092071533,0.04784488677978516,990.5264282226562,0,13.0,1,1
0.16,0.05461973,-0.15369171,9.765138,-0.0004666689201258123,0.0009556373115628957,-6.399874109774828e-06,1.3301537036895752,21.61716079711914,-15.891630172729492,-0.3361557722091675,0.13346391916275024,0.03370380401611328,990.5067138671876,0,13.0,1,1
0.2,0.061799586,-0.16084179999999998,9.760405,0.0012642863439396026,-0.0006422422593459487,-0.00013959966599941254,1.069575548171997,22.26840209960937,-15.427682876586914,-0.3485559821128845,0.15681979060173035,0.04796028137207031,990.5167846679688,0,13.0,1,1
0.24,0.064199656,-0.1513089,9.7556715,0.000598398910369724,-0.00024275245959870517,0.00039299009949900215,0.6968765258789062,22.39370346069336,-15.685518264770508,-0.33243319392204285,0.12742306292057035,0.05274391174316406,990.5194091796876,0,13.0,1,1
0.28,0.07137954,-0.15130916,9.7533045,-0.00033380469540134067,0.00042305319220758975,-0.0002728415420278907,0.4293684959411621,22.775205612182614,-15.435663223266602,-0.3528419733047485,0.12158024311065675,0.05284023284912109,990.519287109375,0,13.0,1,1
0.32,0.052270472000000005,-0.14892611,9.750938,-0.0002007445436902344,-0.0009085104102268816,-6.567686796188355e-06,1.1614522933959959,21.61683654785156,-15.24974250793457,-0.3327246606349945,0.1259516179561615,0.03866291046142578,990.53466796875,0,13.0,1,1
0.36,0.06184023599999999,-0.15607616,9.75804,0.00046494713751599187,-0.0009084944613277912,0.0003928642545361072,1.1677007675170898,22.148950576782227,-14.435014724731445,-0.3307751715183258,0.13957302272319794,0.05291748046875,990.5648193359376,0,13.0,1,1
0.4,0.06185037,-0.14654335,9.760409,0.0003316915244795382,-0.0003758468956220895,-0.0002729673869907856,1.1458265781402588,22.076316833496094,-15.274221420288086,-0.3287834227085113,0.12014666199684144,0.05297088623046875,990.5447998046876,0,13.0,1,1
0.44,0.0618605,-0.1513102,9.767512,0.0007310673245228827,-0.00037583094672299916,-6.693531759083271e-06,0.5974965095520021,21.93155670166016,-15.104272842407227,-0.32203689217567444,0.12412233650684355,0.04355430603027344,990.5322265625,0,13.0,1,1
0.48,0.05709088,-0.15369370000000002,9.762777999999999,-0.0003342941054143012,0.00015681664808653295,0.00025958046899177134,0.7130439281463623,21.565937042236328,-15.562585830688475,-0.3157767653465271,0.13294000923633575,0.04832553863525391,990.5372314453124,0,13.0,1,1
0.52,0.064270765,-0.15369394,9.75331,-6.807602039771155e-05,0.0002899905666708946,0.0003926964709535241,0.5617871284484863,21.739749908447266,-14.548654556274414,-0.3328016996383667,0.1321386992931366,0.04837989807128906,990.539794921875,0,13.0,1,1
0.56,0.04994148,-0.14416108,9.769881,-6.817392568336801e-05,-0.0005089411861263216,0.0003926545032300055,0.6376338005065918,22.021869659423828,-15.192728042602539,-0.3265988528728485,0.1265183538198471,0.029478073120117188,990.5223999023438,0,13.0,1,1
0.6,0.06668097,-0.1489279,9.760414,-0.0003345877048559487,0.000955812050960958,-0.0005394931649789214,0.4365425109863281,22.04452133178711,-15.547983169555664,-0.3201670050621033,0.1257687211036682,0.04845619201660156,990.5303344726562,0,13.0,1,1
0.64,0.06430125,-0.1608445,9.758047999999999,-0.0003346854937262833,0.00015688026905991134,-0.0001400611363351345,1.2417259216308594,21.797462463378906,-15.42664909362793,-0.31375652551651,0.13424474000930786,0.06743431091308594,990.5020141601562,0,13.0,1,1
0.68,0.064311385,-0.16322803,9.758047999999999,-0.0008674152777530253,0.00029005410033278167,0.0005256865406408906,0.94970703125,21.62917709350586,-15.063871383666992,-0.3069456219673157,0.1381218284368515,0.02960968017578125,990.5223388671876,0,13.0,1,1
0.72,0.07149124,-0.14892858,9.765151,-0.00020172336371615532,-0.0005088776815682651,0.0006588025717064737,0.7570667266845703,21.92304229736328,-15.282327651977539,-0.3338261544704437,0.12777060270309448,0.024919509887695312,990.5375366210938,0,13.0,1,1
0.76,0.0669114,-0.15370008,9.769903999999999,-0.00020182126900181172,0.00042324382229708135,-0.0004065029788762331,0.5348052978515625,22.03098487854004,-15.254396438598633,-0.32736435532569885,0.12236860394477846,0.029694557189941406,990.5123291015624,0,13.0,1,1
0.8,0.069512755,-0.1656217,9.750985,-6.876124098198487e-05,0.00015694383182562888,-0.00014022894902154806,1.202430248260498,21.970996856689453,-14.814874649047852,-0.32127079367637634,0.12154139578342438,0.04863834381103516,990.571044921875,0,13.0,1,1
0.84,0.062368393,-0.1513226,9.767558,-0.0002052351483143866,0.00015748216537758708,-0.00014165008906275034,0.8499221801757812,21.6412410736084,-15.280153274536133,-0.3148903250694275,0.10194635391235353,0.048674583435058594,990.5427856445312,0,13.0,1,1
0.88,0.05761397,-0.16085637,9.758092,0.0002887596201617271,-4.30126856372226e-05,0.0003318094532005489,1.0893301963806152,21.07529067993164,-15.360910415649414,-0.2985929548740387,0.12964165210723874,0.0487213134765625,990.5179443359376,0,13.0,1,1
0.92,0.055249423,-0.16324025,9.762828,-0.00024411649792455137,-0.0008419206133112311,0.0007311785593628882,0.970876693725586,21.54388427734375,-15.447061538696287,-0.30145108699798584,0.13821867108345032,0.04402923583984375,990.5733032226562,0,13.0,1,1
0.96,0.062444538,-0.15847436,9.774666999999999,-0.00037751891068182886,-0.00030924921156838536,-6.787385791540146e-05,1.2468347549438477,21.433589935302734,-15.560113906860352,-0.3046504259109497,0.11367517709732056,0.020392417907714844,990.5455932617188,0,13.0,1,1
1.0,0.06963962,-0.14894179,9.760467,-0.00037776349927298725,0.00035658018896356225,-6.79786317050457e-05,0.6355690956115723,22.388687133789066,-15.213869094848633,-0.3123199939727783,0.11778712272644044,0.06304550170898438,990.5432739257812,0,13.0,1,1
1.04,0.060105383,-0.14894244,9.7628355,2.1465730242198333e-05,-0.0007086436380632223,0.0004645482113119215,1.0240304470062256,21.90982437133789,-15.630632400512695,-0.2914147675037384,0.11224254965782167,0.034679412841796875,990.53564453125,0,13.0,1,1
1.08,0.057740867,-0.15609291,9.746267,-0.0003782525600399822,-4.2814212065422914e-05,0.0004644434666261077,1.1721060276031494,21.627147674560547,-15.79088020324707,-0.30404266715049744,0.13036192953586578,0.05838871002197265,990.5279541015624,0,13.0,1,1
1.12,0.05776623,-0.16086009,9.762839,-0.000378496915800497,0.0002235413412563503,0.00033118083956651384,0.6517362594604492,21.56092071533203,-15.090944290161133,-0.3022857904434204,0.1155347377061844,0.04422378540039063,990.5380859375,0,13.0,1,1
1.16,0.06974107,-0.15132758,9.753373,0.00042020567343570287,-0.0005753664881922305,-6.839801790192723e-05,0.6416568756103516,22.39457893371582,-15.523088455200195,-0.314839243888855,0.11532141268253325,0.044264793395996094,990.5560913085938,0,13.0,1,1
1.2,0.06976646,-0.14894494,9.767579,0.0012189088156446815,-0.0005753268487751484,0.000730444910004735,0.9271521568298341,21.81891632080078,-15.302446365356445,-0.3083219528198242,0.10997836291790007,0.06323909759521484,990.5587768554688,0,13.0,1,1
1.24,0.06023228,-0.15132883,9.762847,-0.00024607285740785295,-0.0003089712699875236,-0.00046808121260255575,1.039655685424805,21.450347900390625,-15.606157302856445,-0.2825920283794403,0.11395446956157684,0.04907512664794922,990.56103515625,0,13.0,1,1
1.28,0.06264752,-0.1608626,9.760482000000001,-0.00011315950541757049,-0.00017577368998900056,0.0001976036000996828,0.9368276596069336,21.45946311950684,-15.667825698852539,-0.29044729471206665,0.12266672402620316,0.039641380310058594,990.5256958007812,0,13.0,1,1
1.32,0.05550316,-0.1584799,9.762852,-0.0003797200915869325,-0.0003088918456342072,-6.881722947582603e-05,0.9045982360839844,22.00865364074707,-15.541025161743164,-0.2886079549789429,0.12674298882484436,0.030211448669433594,990.5308227539062,0,13.0,1,1
1.36,0.060308367,-0.16086385,9.77469,0.0002858251391444355,-0.0003088522353209555,0.0004637098172679544,0.8859291076660156,22.465185165405273,-15.410890579223633,-0.30133000016212463,0.121437169611454,0.044447898864746094,990.5226440429688,0,13.0,1,1
1.4,0.05794382,-0.15609786,9.7581215,1.926501499838196e-05,-0.00017565452435519546,0.0004636050725821405,0.6943750381469727,22.02246856689453,-15.432455062866213,-0.2756906747817993,0.12070947885513306,0.05868721008300781,990.54833984375,0,13.0,1,1
1.44,0.0723086,-0.1608651,9.758124,-0.0003804537409450859,-0.0005750886630266905,-6.913160905241966e-05,1.1931381225585938,21.435935974121094,-15.474992752075195,-0.28815221786499023,0.11526137590408325,0.05872440338134765,990.5308227539062,0,13.0,1,1
1.48,0.06516424,-0.15609911,9.758125999999999,0.00015193354920484126,-0.0009745227289386094,0.0004633953794836998,1.2353401184082031,21.159433364868164,-15.542303085327148,-0.28589534759521484,0.1187787801027298,0.054035186767578125,990.53564453125,0,13.0,1,1
1.52,0.06279975,-0.15133321,9.769965,-0.0005141005385667086,0.0006234121974557638,0.0005964485462754965,1.1056361198425293,20.353439331054688,-15.93705940246582,-0.2898385524749756,0.113853320479393,0.030378341674804688,990.5537109375,0,13.0,1,1
1.56,0.072384715,-0.16563347,9.762866,0.0005509186303243041,-0.00030865371809341013,-0.0006020775763317943,1.040635347366333,21.820110321044922,-15.781915664672852,-0.2976923584938049,0.1182672306895256,0.044617652893066406,990.5159301757812,0,13.0,1,1
1.6,0.062850475,-0.15133446,9.755767,0.00028435795684345067,9.085984493140131e-05,0.00032992297201417387,0.6370904445648193,22.390159606933594,-15.291177749633787,-0.2721899151802063,0.10786689072847366,0.0635843276977539,990.5464477539062,0,13.0,1,1
1.64,0.065265775,-0.14656848,9.753402000000001,-0.0006479922449216247,-0.00017541632405482233,0.0003298182273283601,0.8680477142333984,21.55299949645996,-15.508733749389648,-0.2937507629394531,0.10201645642518996,0.054160118103027344,990.5382690429688,0,13.0,1,1
1.68,0.06051129,-0.13703603,9.746303,-0.00024876263341866434,-0.0003085346252191812,6.339760147966444e-05,0.7847294807434082,21.369430541992188,-15.177217483520508,-0.26800355315208435,0.09233327209949492,0.0731353759765625,990.546142578125,0,13.0,1,1
1.72,0.06292662,-0.16086942,9.765243,0.00041678236448206013,-0.0007079687202349305,-0.0004693388473242521,0.8810648918151855,21.82863044738769,-15.603853225708008,-0.2865062952041626,0.12027428299188615,0.0447378158569336,990.55126953125,0,13.0,1,1
1.76,0.07184282,-0.15370381,9.7722845,-0.00011609421926550569,0.0006236503832042217,-0.00046944373752921814,0.7389407157897949,22.011280059814453,-15.053750991821287,-0.2892946600914001,0.1004469394683838,0.04008769989013672,990.5514526367188,0,13.0,1,1
1.8,0.06467181400000001,-0.1608536,9.760448,-0.0006465894402936102,0.0004901455831713973,0.0003304194542579353,0.7320113182067871,21.74154281616211,-15.267847061157227,-0.2726457118988037,0.1088125854730606,0.03066253662109375,990.5484008789062,0,13.0,1,1
1.84,0.047941267,-0.16800341,9.76755,-0.0003763729182537645,9.003857849165797e-05,-0.00033369852462783456,0.7445926666259766,21.27911949157715,-15.088762283325195,-0.2611580789089203,0.11751319468021393,0.04016780853271485,990.5333862304688,0,13.0,1,1
1.88,0.047940015999999995,-0.13940406,9.755714,-0.000376360461814329,-0.001641016686335206,-6.737746298313141e-05,0.9805517196655272,21.18442916870117,-15.812440872192385,-0.2550405561923981,0.09295476973056792,0.06386470794677734,990.5258178710938,0,13.0,1,1
1.92,0.057498336,-0.15370366,9.760449000000001,-0.00024319064687006176,-4.312332384870388e-05,-0.0006000039866194129,0.8380217552185059,21.841289520263672,-16.05986213684082,-0.2686406672000885,0.10706086456775664,0.04967403411865234,990.5409545898438,0,13.0,1,1
1.96,0.055107175999999994,-0.15608689,9.765182000000001,-0.0005094817606732249,-0.0007089169812388718,-0.0003336776280775666,0.7058696746826172,22.2966251373291,-15.45026969909668,-0.2517143189907074,0.110627681016922,0.04025459289550781,990.5486450195312,0,13.0,1,1
2.0,0.06227559,-0.15370363,9.765182000000001,-0.0005094817606732249,-0.0007089169812388718,-0.0003336776280775666,0.7058696746826172,22.2966251373291,-15.45026969909668,-0.2606104612350464,0.10092002153396606,0.05920600891113281,990.5486450195312,0,13.0,1,1
2.04,0.055104584000000005,-0.14417049999999998,9.748611,-0.00037631180020980537,-4.312927558203228e-05,6.580146146006882e-05,0.7465496063232422,22.01864624023437,-15.440271377563475,-0.25424474477767944,0.09548785537481308,0.059234619140625,990.5333862304688,0,13.0,1,1
2.08,0.05271345400000001,-0.15132031,9.772283999999999,-0.0006426030304282904,0.00022318260744214058,-0.00033366191200912004,0.8985104560852051,22.002761840820312,-15.231805801391602,-0.2571130394935608,0.09452375769615172,0.04506492614746094,990.5258178710938,0,13.0,1,1
2.12,0.059881896,-0.1560868,9.755713,0.00042267251410521567,0.0002231806574855,0.0004652909410651773,1.1810998916625977,21.530071258544922,-15.555631637573242,-0.2460925728082657,0.10347830504179,0.05455875396728516,990.5537109375,0,13.0,1,1
2.16,0.069440246,-0.15132025,9.753346,0.00042267251410521567,0.0002231806574855,0.0004652909410651773,1.1810998916625977,21.530071258544922,-15.555631637573242,-0.2596113979816437,0.09373697638511658,0.04983997344970703,990.5537109375,0,13.0,1,1
2.2,0.07660866,-0.14893696,9.762814500000001,-0.0005094084190204741,0.0007558085490018129,0.000997933209873736,0.8454937934875488,21.74273681640625,-15.747316360473633,-0.2767188549041748,0.092819482088089,0.030939102172851562,990.5560913085938,0,13.0,1,1
2.24,0.055098295,-0.15370339,9.750979,0.00028955124435015023,0.0006226485129445791,-6.73251342959702e-05,0.9462568759918212,22.100439071655273,-15.706789016723633,-0.2515145540237427,0.09718823432922363,0.049897193908691406,990.5562744140624,0,13.0,1,1
2.28,0.05748692,-0.14893684,9.750978,2.3247350327437744e-05,0.00022317274124361572,-6.731983739882708e-05,0.607607364654541,22.31015968322754,-15.743860244750975,-0.23602060973644254,0.10121098160743712,0.06412029266357422,990.55126953125,0,13.0,1,1
2.32,0.05748564,-0.15846995,9.769916,-0.0007756877457723023,0.00022317067487165326,-0.0008662623586133122,0.6657326221466064,22.206314086914066,-15.361814498901367,-0.2538487613201141,0.10032624006271362,0.04046916961669922,990.5511474609376,0,13.0,1,1
2.36,0.052704573,-0.1513201,9.77465,-0.0007756877457723023,0.00022317067487165326,-0.0008662623586133122,0.6657326221466064,22.206314086914066,-15.361814498901367,-0.24359476566314694,0.0956323742866516,0.040482521057128906,990.5511474609376,0,13.0,1,1
2.4,0.062262893,-0.15370327,9.762814500000001,0.0007990233134478331,0.00023342651547864082,0.0001446792739443481,0.7314677238464355,22.109832763671875,-15.366296768188475,-0.2372463494539261,0.10475173592567444,0.04997825622558594,990.5232543945312,0,13.0,1,1
2.44,0.05270201,-0.15608656,9.7604475,0.00013324557221494618,-0.0001660493144299835,-0.0009205789538100363,1.0911502838134766,21.70890045166016,-15.013345718383787,-0.2453116625547409,0.09923429787158966,0.04053497314453125,990.5308227539062,0,13.0,1,1
2.48,0.06465030000000001,-0.16085312,9.7486105,0.0005327441031113267,-0.0010981588857248423,-0.00025477877352386713,0.7214946746826172,21.83714866638184,-15.425790786743164,-0.2426028996706009,0.10336559265851973,0.07372283935546875,990.53564453125,0,13.0,1,1
2.52,0.06703889,-0.15370321,9.755711999999999,0.0005327441031113267,-0.0010981588857248423,-0.00025477877352386713,0.7214946746826172,21.83714866638184,-15.425790786743164,-0.2510741651058197,0.09823770821094513,0.05953788757324219,990.53564453125,0,13.0,1,1
2.56,0.06942755,-0.15131989,9.77465,1.3675889931619167e-07,-3.289934829808772e-05,0.0002778634079732001,0.6889677047729492,21.754199981689453,-15.72386360168457,-0.24401512742042544,0.0971047580242157,0.03116607666015625,990.5382690429688,0,13.0,1,1
2.6,0.059866667,-0.1489366,9.7509775,1.3675889931619167e-07,-3.289934829808772e-05,0.0002778634079732001,0.9519093036651612,21.36827850341797,-15.741800308227539,-0.22897017002105716,0.08249396085739136,0.06431865692138672,990.5382690429688,0,13.0,1,1
2.64,0.06703511,-0.160853,9.758078999999999,-0.0010651143966242669,-0.0006986908847466111,0.0005441845860332251,0.8061981201171875,21.9162712097168,-15.135538101196287,-0.250666081905365,0.0961829274892807,0.0548858642578125,990.5308227539062,0,13.0,1,1
2.68,0.055084348,-0.16085294,9.758078999999999,0.00039963479503057897,-0.0002992191875819117,0.00027787391445599496,0.9547085762023926,22.37165069580078,-15.56999397277832,-0.2404187172651291,0.09577348828315736,0.0596303939819336,990.5406494140624,0,13.0,1,1
2.72,0.0624097,-0.15609017,9.767562,0.0002664891944732517,0.0004997265059500934,-0.0006542264018207787,0.9582953453063964,22.006305694580078,-15.62614631652832,-0.2340245991945267,0.09020164608955383,0.05016136169433594,990.553466796875,0,13.0,1,1
2.76,0.062574804,-0.15847749,9.769944,0.00013334371033124626,-0.0004323810280766338,0.00014472645125351846,1.1981396675109863,22.17841339111328,-15.981115341186525,-0.23352298140525815,0.09493526816368104,0.05490398406982422,990.5380859375,0,13.0,1,1
2.8,0.055416524,-0.151328,9.762843,0.00013107023551128805,0.0010327253257855773,-0.00012256373884156346,1.0662329196929932,21.633316040039066,-15.697938919067385,-0.21763162314891812,0.1035754531621933,0.04545688629150391,990.5608520507812,0,13.0,1,1
2.84,0.05303806,-0.15371153,9.758111,-0.0006687339628115296,-0.001363978604786098,0.0001433850557077676,1.134331464767456,21.802154541015625,-15.256410598754885,-0.220111146569252,0.08375030755996704,0.05969333648681641,990.5379638671876,0,13.0,1,1
2.88,0.07216865,-0.15609509,9.76758,-0.00026937018265016377,-0.000698170973919332,1.0179996024817227e-05,1.3114848136901855,22.073688507080078,-15.761499404907227,-0.2383972853422165,0.09301779419183732,0.045502662658691406,990.5484008789062,0,13.0,1,1
2.92,0.057840705,-0.15132883,9.769948,0.0005294674774631858,0.0006334262434393167,-0.00012302515096962452,1.1840062141418457,21.42709732055664,-15.011163711547852,-0.20817866921424866,0.08256043493747711,0.0407867431640625,990.5433349609376,0,13.0,1,1
2.96,0.062631875,-0.15609565,9.767583,0.0002630414383020252,-3.2345575164072216e-05,0.00027640149346552795,1.4332807064056396,22.24018096923828,-15.405088424682615,-0.22199712693691254,0.08240753412246704,0.045528411865234375,990.5182495117188,0,13.0,1,1
3.0,0.048303902,-0.15132937,9.762849000000001,-0.0006691742455586791,-3.2327705412171774e-05,0.00014319643378257751,1.157428741455078,21.24413299560547,-14.919378280639648,-0.21075022220611567,0.08679786324501038,0.055024147033691406,990.555908203125,0,13.0,1,1
3.04,0.053095102000000005,-0.15371293,9.758116000000001,0.00026282152975909406,-0.000964415492489934,0.00027630722615867853,1.4755895137786863,20.857330322265625,-15.099740982055664,-0.21436871588230133,0.0958118587732315,0.05030345916748047,990.5635375976562,0,13.0,1,1
3.08,0.045936822999999995,-0.16086301,9.767585,-0.00013676253729499876,0.0007666556630283594,9.944167686626317e-06,1.7328791618347168,21.20356750488281,-15.082666397094727,-0.20440627634525302,0.08590485900640488,0.03136920928955078,990.528076171875,0,13.0,1,1
3.12,0.060287654,-0.15371355,9.772321,0.0006620752392336726,0.0012993052368983624,-0.0002564189489930868,1.8107905387878416,21.11886978149414,-15.705587387084961,-0.21221283078193665,0.08985057473182677,0.03612613677978516,990.5506591796876,0,13.0,1,1
3.16,0.05790913,-0.17039672,9.772323,0.00012933331890963018,0.0002340596256544813,0.0008087975438684225,1.3655877113342283,21.59713363647461,-15.049097061157227,-0.2209046185016632,0.09879069030284883,0.03613567352294922,990.5355834960938,0,13.0,1,1
3.2,0.038801372,-0.13703105,9.769956,-0.0005365663673728704,0.0007667092140763997,-0.0006559869507327676,1.8226914405822756,20.918819427490234,-14.925874710083008,-0.1915775835514069,0.06991246342658998,0.04561328887939453,990.573486328125,0,13.0,1,1
3.24,0.04598251,-0.1608642,9.760488,-0.00027036064420826733,-0.00016537847113795578,0.00027607142692431813,2.577222347259521,20.67705535888672,-14.874029159545898,-0.2000412791967392,0.09808427095413208,0.031424522399902344,990.5406494140624,0,13.0,1,1
3.28,0.057943404000000004,-0.15609786,9.7675905,-0.00013742261216975746,-0.00029850067221559584,0.00027597713051363826,2.647928237915039,20.110788345336914,-14.312898635864258,-0.20768597722053528,0.09259102493524553,0.05512046813964844,990.5455932617188,0,13.0,1,1
3.32,0.05556494,-0.14418176,9.753388000000001,0.0006614149315282702,-0.00016532486188225448,0.0006754038040526211,2.3542799949646,21.0473747253418,-14.24547004699707,-0.2112150341272354,0.08273246139287949,0.05513763427734375,990.5352172851562,0,13.0,1,1
3.36,0.046016722999999995,-0.14179876,9.769959,0.0006614149315282702,-0.00016532486188225448,0.0006754038040526211,2.3542799949646,21.0473747253418,-14.24547004699707,-0.19626785814762115,0.06837256252765657,0.055146217346191406,990.5352172851562,0,13.0,1,1
3.4,0.04363823,-0.16563183,9.762858999999999,-4.4846965465694674e-06,0.00023416681506205353,9.566923836246131e-06,2.491976022720337,20.966222763061523,-15.262735366821287,-0.19957992434501648,0.09155865758657457,0.05042839050292969,990.5253295898438,0,13.0,1,1
3.44,0.050819337,-0.15133244,9.753392,-0.0001377527660224587,-0.001496868557296693,-0.0007894278969615697,2.658880710601806,20.75323486328125,-14.429162979125975,-0.19830961525440216,0.08647004514932632,0.050445556640625,990.540283203125,0,13.0,1,1
3.48,0.055610597000000005,-0.15371600000000002,9.760495,0.00052792695350945,-3.211335570085794e-05,0.0005421043606474996,3.0416600704193115,19.79427528381348,-13.739175796508787,-0.2209945917129517,0.08098617941141129,0.0362548828125,990.5353393554688,0,13.0,1,1
3.52,0.06518161,-0.15133297,9.760495,-0.0005374465836212039,0.0003673783212434501,0.0001425834198016673,3.331477165222168,20.223459243774414,-13.424028396606445,-0.2101377248764038,0.07607732713222504,0.05047607421875,990.5457763671876,0,13.0,1,1
3.56,0.043683915999999996,-0.16324976,9.772332,0.0010603386908769608,-0.0006978673627600074,0.0004088521236553788,2.9717953205108643,20.6243896484375,-13.776979446411133,-0.19488880038261414,0.09008443355560304,0.04575252532958984,990.5353393554688,0,13.0,1,1
3.6,0.050865024,-0.14180043,9.755763,-5.0348753575235605e-06,0.0009000457357615232,-0.00039014266803860654,3.3868343830108643,20.32849884033203,-14.285531997680664,-0.1844804883003235,0.08015680313110353,0.05049610137939453,990.5176391601562,0,13.0,1,1
3.64,0.041316867,-0.15133381,9.753396,0.0003943289339076728,0.00036743193049915135,-0.0002570319338701665,3.214247226715088,20.061389923095703,-14.012353897094727,-0.1932055503129959,0.0846073254942894,0.055240631103515625,990.5377197265624,0,13.0,1,1
3.68,0.05566767,-0.15371743,9.762867,-5.3650292102247485e-06,0.00010115174518432468,-0.0006565999938175082,3.2242205142974854,20.33407211303711,-13.952863693237305,-0.19626647233963013,0.07933392375707626,0.050525665283203125,990.512451171875,0,13.0,1,1
3.72,0.048888325999999996,-0.15134373,9.765269,-5.3650292102247485e-06,0.00010115174518432468,-0.0006565999938175082,3.2242205142974854,20.33407211303711,-13.952863693237305,-0.19629666209220886,0.06963565200567245,0.050495147705078125,990.512451171875,0,13.0,1,1
3.76,0.056084632999999995,-0.1584942,9.762903999999999,0.0001272310910280794,0.00010124300024472177,-0.0005236829165369271,3.4434378147125244,20.22317886352539,-13.82618522644043,-0.1858404874801636,0.08813855797052382,0.04576778411865234,990.548095703125,0,13.0,1,1
3.8,0.044161797,-0.14896172,9.753438000000001,-0.0001404161739628762,0.0003668850113172084,-0.0009256317280232906,3.38531231880188,20.3270263671875,-14.208223342895508,-0.18456627428531647,0.0828424021601677,0.050515174865722656,990.5255126953124,0,13.0,1,1
3.84,0.05135813400000001,-0.14419582,9.770011,-0.00014067310257814825,-0.00016570510342717168,6.3638726714998475e-06,3.45949935913086,20.501754760742188,-14.07591438293457,-0.1931103765964508,0.0777091234922409,0.03158760070800781,990.5455932617188,0,13.0,1,1
3.88,0.065724194,-0.15849617,9.770013,0.000258544139796868,-3.250542067689821e-05,0.00013941180077381432,3.191150188446045,20.619415283203125,-14.349382400512695,-0.22065715491771695,0.08213886618614198,0.031599998474121094,990.5048828125,0,13.0,1,1
3.92,0.06097102,-0.15611354,9.772383999999999,-0.00021603979985229668,-0.0006268830620683731,0.00019350339425727725,3.4615638256073,20.13494110107422,-14.054765701293945,-0.20009997487068176,0.08643350750207901,0.03634929656982422,990.5606079101562,0,13.0,1,1
3.96,0.046658248,-0.16088074,9.755816000000001,-0.00021603979985229668,-0.0006268830620683731,0.00019350339425727725,3.4615638256073,20.13494110107422,-14.054765701293945,-0.175444096326828,0.09063483774662018,0.06475830078125,990.5606079101562,0,13.0,1,1
4.0,0.053854585,-0.15373155,9.760552,-8.313856233144179e-05,0.00030526425689458847,-0.00047239632112905383,3.264900684356689,20.056095123291016,-13.942865371704102,-0.1883716881275177,0.08542802929878235,0.055301666259765625,990.5653076171876,0,13.0,1,1
4.04,0.053881227999999996,-0.16326532,9.75582,0.0007155522471293808,0.0007047797553241253,-0.00047250645002350217,3.490206003189087,19.95109367370605,-14.125406265258787,-0.18760257959365845,0.08479250967502594,0.05057239532470703,990.5274047851562,0,13.0,1,1
4.08,0.058687717,-0.16803256,9.770026,-8.365218673134223e-05,0.00043850555084645754,0.00032633121008984745,3.503222942352295,20.22672462463379,-14.220525741577148,-0.1870218813419342,0.09869739413261414,0.05057525634765625,990.4970092773438,0,13.0,1,1
4.12,0.061104267999999996,-0.14658368,9.753458,-0.0003502247564028948,0.0009711789898574351,0.0007256949902512133,3.23183012008667,20.3414363861084,-14.339387893676758,-0.18637523055076602,0.069610595703125,0.04584503173828125,990.5757446289062,0,13.0,1,1
4.16,0.04679143400000001,-0.15135089,9.76293,-0.000217323744436726,0.0015038524288684132,-7.336266571655871e-05,3.3180549144744877,20.42203521728516,-14.126436233520508,-0.17146535217761993,0.07433523237705231,0.05058479309082031,990.5375366210938,0,13.0,1,1
4.2,0.0539878,-0.16565123,9.762931,0.0007145251147449018,0.00017231471429113301,0.00019284308655187488,3.42849349975586,20.420284271240234,-14.451292037963867,-0.188679039478302,0.08779111504554749,0.045867919921875,990.5074462890624,0,13.0,1,1
4.24,0.044454812999999996,-0.15373549,9.760568,-0.00021783713600598278,-0.0010260650888085363,-0.00020674080587923527,3.17606782913208,20.710601806640625,-14.275411605834961,-0.16839280724525452,0.07313263416290282,0.05061149597167969,990.542724609375,0,13.0,1,1
4.28,0.044481516,-0.15850267,9.772406,-8.493613131577149e-05,-0.0003602337092161178,5.946509190835059e-05,3.0883212089538574,20.62853240966797,-14.41105842590332,-0.17243388295173645,0.08228057622909546,0.03641319274902344,990.530029296875,0,13.0,1,1
4.32,0.058847547,-0.14897022,9.765305999999999,4.796511348104104e-05,0.0003055976994801313,5.935499211773276e-05,3.572002410888672,20.133190155029297,-14.379621505737305,-0.19574545323848724,0.0726025402545929,0.05062198638916016,990.5478515625,0,13.0,1,1
4.36,0.051704495999999996,-0.15373743,9.767676,0.0005803399253636599,3.9323538658209145e-05,-7.391296094283462e-05,3.479146718978882,20.414989471435547,-14.381803512573242,-0.1898628771305084,0.07683205604553223,0.031691551208496094,990.5477294921876,0,13.0,1,1
4.4,0.054121017,-0.15373808,9.767678,0.0005800832295790316,0.0009714707848615943,-0.000207180914003402,2.9456534385681152,21.179473876953125,-13.959405899047852,-0.1797097474336624,0.08153677731752396,0.041167259216308594,990.5525512695312,0,13.0,1,1
4.44,0.04458806,-0.15373879999999998,9.770048,4.719467688119039e-05,-9.37510485528037e-05,0.0012574463617056608,2.8710310459136963,20.26668930053711,-13.817510604858398,-0.15942662954330444,0.07163437455892563,0.04117584228515625,990.5525512695312,0,13.0,1,1
4.48,0.05895412,-0.1537394,9.777152000000001,0.0004464118101168424,0.00043892237590625877,0.00045838864753022785,2.749671459197998,20.8382511138916,-14.448125839233398,-0.18725645542144773,0.06636086106300354,0.0269775390625,990.53466796875,0,13.0,1,1
4.52,0.04942116,-0.15612337,9.760585,-8.647677168482915e-05,0.0008384378743357956,5.880475509911776e-05,2.89440393447876,19.92049217224121,-14.878633499145508,-0.17690590023994446,0.08490581810474396,0.05065250396728516,990.542724609375,0,13.0,1,1
4.56,0.05422759,-0.15135741,9.770055000000001,-8.673370030010119e-05,-0.000226783929974772,5.869471351616085e-05,2.820920705795288,19.9036922454834,-13.788545608520508,-0.16699910163879395,0.07511274516582489,0.060124397277832024,990.5121459960938,0,13.0,1,1
4.6,0.04708451,-0.17042437,9.760589,-0.000353306153556332,3.9573569665662944e-05,-0.00034088914981111884,2.8303511142730717,20.544666290283203,-13.827508926391602,-0.1700696349143982,0.08890310674905777,0.04593467712402344,990.5499877929688,0,13.0,1,1
4.64,0.06145057,-0.15850857,9.779530000000001,0.000578542472794652,-9.354257781524211e-05,-0.0002078413381241262,2.8710312843322754,20.26668930053711,-13.817506790161133,-0.18803060054779053,0.07392039895057677,0.04120635986328125,990.5121459960938,0,13.0,1,1
4.68,0.059087336,-0.15612599,9.767695,-0.0007535505574196577,-9.345922444481404e-05,0.0003245703701395541,2.8164925575256348,20.00519180297852,-14.255708694458008,-0.1635739505290985,0.07314558327198029,0.04120445251464844,990.5499877929688,0,13.0,1,1
4.72,0.05569747,-0.16563454,9.76287,-0.0007535505574196577,-9.345922444481404e-05,0.0003245703701395541,2.8164925575256348,20.00519180297852,-14.255708694458008,-0.17202138900756836,0.08723452687263489,0.04603099822998047,990.5499877929688,0,13.0,1,1
4.76,0.050903738,-0.15610108,9.7534,-0.0007489455165341496,0.0019031623378396034,-0.000339245714712888,3.1941943168640137,20.622360229492188,-14.503995895385742,-0.16641604900360107,0.06772094964981079,0.06497478485107422,990.527099609375,0,13.0,1,1
4.8,0.04372009599999999,-0.15371743,9.758133,0.00045437438529916113,0.0005707877571694553,0.0001954852195922285,3.744589567184448,20.400299072265625,-14.652803421020508,-0.16036519408226013,0.08153348416090013,0.05078411102294922,990.539794921875,0,13.0,1,1
4.84,0.048485935,-0.15133381,9.765233,-0.00021114651462994519,-9.504567424301058e-05,-0.0002038732054643333,3.5428175926208496,20.68532371520996,-14.407434463500975,-0.16840696334838867,0.08112141489982605,0.05080127716064453,990.52197265625,0,13.0,1,1
4.88,0.048471987,-0.15848336,9.755763,0.00018846176681108773,0.00017124840815085918,6.250024307519196e-05,4.035492420196533,20.09290313720703,-14.140748977661133,-0.14845627546310425,0.06620969623327255,0.04133892059326172,990.5193481445312,0,13.0,1,1
4.92,0.06040752,-0.16324958,9.767597,0.00018846176681108773,0.00017124840815085918,6.250024307519196e-05,4.035492420196533,20.09290313720703,-14.140748977661133,-0.17155036330223086,0.08013167232275009,0.05554866790771485,990.5193481445312,0,13.0,1,1
4.96,0.046054125,-0.16086593,9.75576,-0.0008766672108322383,-0.0010271947830915449,0.00059518963098526,3.5765683650970463,20.13760757446289,-14.611539840698242,-0.15143951773643494,0.07485508918762207,0.0555572509765625,990.50927734375,0,13.0,1,1
5.0,0.04365033,-0.14894918,9.769962,0.000322023086482659,0.0001711829099804163,6.267311982810497e-05,3.5984420776367188,20.210241317749023,-13.772329330444336,-0.1645621657371521,0.06504730880260468,0.046100616455078125,990.52197265625,0,13.0,1,1
5.04,0.06753537,-0.16324854,9.767593,0.000322023086482659,0.0001711829099804163,6.267311982810497e-05,3.5984420776367188,20.210241317749023,-13.772329330444336,-0.18782228231430054,0.08377926051616669,0.04137229919433594,990.52197265625,0,13.0,1,1
5.08,0.06274164,-0.16563147,9.7865305,5.597623385256156e-05,-0.0016930720303207634,0.0003291042521595955,3.2368321418762207,21.083908081054688,-14.845510482788086,-0.1666429340839386,0.07834821939468384,0.01771831512451172,990.542236328125,0,13.0,1,1
5.12,0.057947874,-0.15133145,9.772326,5.597623385256156e-05,-0.0016930720303207634,0.0003291042521595955,3.2368321418762207,21.083908081054688,-14.845510482788086,-0.1566387265920639,0.0590699166059494,0.05559825897216797,990.542236328125,0,13.0,1,1
5.16,0.06510359,-0.16563076,9.772325,-0.0006096790311858058,3.7959485780447715e-05,0.00019600396626628933,3.6666781902313232,20.48499870300293,-14.029874801635742,-0.1656423807144165,0.0726182609796524,0.03666114807128906,990.526611328125,0,13.0,1,1
5.2,0.050750255999999994,-0.13703105,9.746284,-0.0007427023956552148,0.0015026750043034556,6.290368037298322e-05,3.9031808376312256,20.022016525268555,-14.655107498168945,-0.16486266255378726,0.057991787791252136,0.06033992767333984,990.5321044921876,0,13.0,1,1
5.24,0.065075696,-0.14894715,9.767586999999999,0.0004558534419629723,0.0005705475923605263,6.296121864579618e-05,3.3949873447418213,19.967575073242188,-14.573606491088867,-0.1830221712589264,0.06264741718769072,0.04141426086425781,990.5296020507812,0,13.0,1,1
5.28,0.05550217599999999,-0.16086319,9.760484,5.664864875143394e-05,0.0007036618771962821,-7.008138345554471e-05,3.3677291870117188,20.04697799682617,-13.881196975708008,-0.17260092496871948,0.07147631049156189,0.04615306854248047,990.4939575195312,0,13.0,1,1
5.32,0.05309829,-0.15132973,9.762851,5.664864875143394e-05,0.0007036618771962821,-7.008138345554471e-05,3.082914113998413,20.36026763916016,-14.702463150024414,-0.1570359468460083,0.056897684931755066,0.03196144104003906,990.4939575195312,0,13.0,1,1
5.36,0.05547422,-0.16562906,9.751013,-0.00034269082243554294,3.785033186431974e-05,-0.00020318169845268133,3.4185199737548833,20.147602081298828,-14.510782241821287,-0.1564854234457016,0.08515751361846924,0.05563735961914063,990.5219116210938,0,13.0,1,1
5.4,0.055460274000000004,-0.14894578,9.76995,-0.00034255601349286735,-0.0011605932377278805,0.00019634977797977624,3.3747963905334477,20.422632217407227,-14.366167068481445,-0.1603405922651291,0.0562334880232811,0.027237892150878903,990.4989624023438,0,13.0,1,1
5.44,0.055446357,-0.15132871,9.762847,0.0001995111961150542,0.00028516535530798137,0.00011450971942394973,3.4154763221740723,20.1446533203125,-14.356172561645508,-0.1495448350906372,0.060253039002418525,0.0509185791015625,990.5572509765624,0,13.0,1,1
5.48,0.06499201,-0.16086146,9.765212,-0.0004661439452320337,1.882758442661725e-05,0.00011456737411208452,3.2398457527160645,19.874595642089844,-13.928384780883787,-0.15824678540229795,0.07401975244283676,0.04618930816650391,990.5219116210938,0,13.0,1,1
5.52,0.060198247,-0.15847781,9.748641000000001,-6.653564923908561e-05,0.0009509113733656703,0.00011462499969638884,3.0390524864196777,20.529380798339844,-13.858774185180664,-0.1578206717967987,0.06901353597640991,0.07459831237792969,990.5344848632812,0,13.0,1,1
5.56,0.04823476,-0.14417779999999997,9.767577000000001,-0.0005990330828353763,-0.0005138478591106832,-0.0004179490788374096,3.5816774368286133,19.773733139038086,-14.745000839233398,-0.15614162385463715,0.049556173384189606,0.04620647430419922,990.516845703125,0,13.0,1,1
5.6,0.055390507,-0.16086048,9.760474,0.00033320719376206403,-0.00038071168819442386,-1.841771882027388e-05,2.9308164119720463,20.270233154296875,-14.211851119995115,-0.1605934351682663,0.06833261251449585,0.04620838165283203,990.5193481445312,0,13.0,1,1
5.64,0.060156375,-0.15132698,9.753371000000001,-0.00046560610644519334,0.00028505618683993816,-0.00028467588708736,2.6754848957061768,20.66352081298828,-14.580442428588867,-0.16389326751232147,0.05364382266998291,0.06989383697509766,990.5294799804688,0,13.0,1,1
5.68,0.05775237,-0.16324303,9.758105,0.0007329497020691633,-0.0002475974033586681,-1.8302438547834757e-05,2.8531806468963623,20.566761016845703,-14.987085342407227,-0.1586303859949112,0.058306574821472175,0.06516265869140625,990.5090942382812,0,13.0,1,1
5.72,0.06251809,-0.15609285,9.753368,6.729470624122769e-05,-0.00024761923123151064,-0.00041771857650019234,2.906877994537353,20.564414978027344,-15.072206497192385,-0.1572604477405548,0.06727730482816696,0.06990814208984375,990.5419311523438,0,13.0,1,1
5.76,0.05533439,-0.14417616,9.7604685,-0.0007315162802115082,-0.0015792208723723886,-0.00041765996138565237,2.4628980159759517,20.412015914916992,-14.917886734008787,-0.14639410376548767,0.05754600465297699,0.05098152160644531,990.5549926757812,0,13.0,1,1
5.8,0.052930564000000006,-0.14655906,9.758100500000001,0.0006001982837915419,-0.0003808213223237544,-1.8128339434042573e-05,2.3581111431121826,19.681604385375977,-14.628046035766602,-0.1502397358417511,0.05226163566112518,0.05098724365234375,990.5321655273438,0,13.0,1,1
5.84,0.057696402,-0.16324165,9.772302,-0.00046493089757859707,-0.00011452723992988467,-0.0009501761524006724,2.2923755645751958,19.7780876159668,-14.623559951782227,-0.16385206580162048,0.07084205746650696,0.02731800079345703,990.5216064453124,0,13.0,1,1
5.88,0.06485215,-0.15370819,9.760466000000001,-0.00033163803163915867,0.00028492472483776515,-1.8013030057772994e-05,2.464718580245972,21.045623779296875,-14.570322036743164,-0.14797064661979675,0.05568969249725342,0.04152965545654297,990.5139770507812,0,13.0,1,1
5.92,0.05527854,-0.15132454,9.7723,-0.0005978195695206523,-0.0002477289235685021,0.00011520262341946365,2.7215723991394043,20.65380859375,-14.27903938293457,-0.1285625398159027,0.06034992635250092,0.03679847717285156,990.511474609375,0,13.0,1,1
5.96,0.0576545,-0.15370753,9.765197,-0.0003313689958304167,1.856516973930411e-05,0.0005147341289557517,2.734291076660156,20.29730224609375,-14.799028396606445,-0.15176045894622806,0.05979282408952712,0.041534423828125,990.5243530273438,0,13.0,1,1
6.0,0.055250645,-0.14894062,9.748626,-0.0004643925931304693,0.0002848591248039156,-0.0005504715954884887,2.8974480628967285,19.923439025878906,-15.033243179321287,-0.13607776165008545,0.04074060171842575,0.05575084686279297,990.5341796875,0,13.0,1,1
6.04,0.07196599,-0.1584734,9.767562,0.0010004795622080564,-0.0015793738421052694,-0.00041725611663423484,2.351374387741089,21.15034484863281,-14.789934158325195,-0.1635793149471283,0.05467188358306885,0.03682136535644531,990.5244750976562,0,13.0,1,1
6.08,0.060002535999999995,-0.16323959999999998,9.767560000000001,-6.464948819484562e-05,-0.0002478162932675332,0.0002485912991687656,2.3439011573791504,21.248897552490234,-15.102487564086914,-0.14867478609085086,0.06849522888660431,0.051026344299316406,990.5369262695312,0,13.0,1,1
6.12,0.055208713,-0.15370616,9.765191999999999,-0.00046398863196372986,0.0008174253744073213,-0.0006834565429016948,1.9204108715057373,21.27357482910156,-14.730733871459961,-0.14311379194259646,0.06365734338760376,0.04629993438720703,990.5243530273438,0,13.0,1,1
6.16,0.04802507,-0.1560891,9.769925,0.0007345672929659486,0.0002847717551048845,0.00038186460733413696,2.2966973781585693,20.782930374145508,-14.529058456420898,-0.1230207085609436,0.058555275201797485,0.051041603088378906,990.5092163085938,0,13.0,1,1
6.2,0.057570725999999996,-0.16323858,9.777025,-6.424564344342798e-05,-0.0009136715671047568,0.0006482381722889841,2.917829990386963,21.206863403320312,-15.188470840454102,-0.14586886763572693,0.06316037476062775,0.01790904998779297,990.5369262695312,0,13.0,1,1
6.24,0.052776962999999996,-0.15370509,9.748617999999999,0.0007348364451900125,-0.0001147457369370386,-1.7493875930085778e-05,2.7437212467193604,20.938278198242188,-14.837984085083008,-0.13593721389770508,0.0577395111322403,0.05578136444091797,990.5243530273438,0,13.0,1,1
6.28,0.06471252400000001,-0.14893821,9.769921,-0.0008629241492599249,0.0010836538858711722,-0.0004169099556747824,2.447816610336304,20.50320053100586,-14.843915939331055,-0.149708092212677,0.0479419082403183,0.04631710052490234,990.5167846679688,0,13.0,1,1
6.32,0.05991873,-0.16085431,9.769919999999999,6.93157926434651e-05,1.836852970882319e-05,-0.00028369438950903714,2.4928174018859863,21.23006820678711,-14.739412307739258,-0.13889560103416446,0.0522744357585907,0.03685474395751953,990.5370483398438,0,13.0,1,1
6.36,0.059904754000000004,-0.14893755,9.765185,-0.0004631810588762164,-0.0009137589368037881,-0.0002836367639247328,2.2490875720977783,20.79117202758789,-14.753156661987305,-0.14766448736190796,0.056492581963539124,0.05106067657470703,990.5116577148438,0,13.0,1,1
6.4,0.052721082999999995,-0.15370375,9.7651825,-0.00046304659917950636,0.0006841144640929997,0.001048000412993133,2.434691905975342,21.33391571044922,-15.121454238891602,-0.14244979619979858,0.05143009871244431,0.03212547302246094,990.5167846679688,0,13.0,1,1
6.44,0.05987686,-0.15846995,9.750978,-6.343818677123636e-05,0.0008172505185939372,-1.7205544281750914e-05,2.60768461227417,21.126819610595703,-14.597101211547852,-0.14612650871276855,0.055849447846412666,0.05580425262451172,990.5218505859376,0,13.0,1,1
6.48,0.05269319,-0.16085294,9.769914,0.00020314684661570934,-0.0009138463647104801,0.00038238370325416327,2.243436098098755,21.52333068847656,-14.718141555786133,-0.1254553496837616,0.060083478689193726,0.032141685485839844,990.5266723632812,0,13.0,1,1
6.52,0.050289333,-0.15131947,9.753343,0.00020314684661570934,-0.0009138463647104801,0.00038238370325416327,2.243436098098755,21.52333068847656,-14.718141555786133,-0.11071806401014328,0.0599774569272995,0.055815696716308594,990.5266723632812,0,13.0,1,1
6.56,0.06939456,-0.13940272,9.767546000000001,-0.0013944790698587894,-0.00024810028844513,-0.0001501327205915004,2.399121046066284,21.248023986816406,-15.264917373657227,-0.22440814971923828,0.06397131085395813,-0.2329816818237305,990.5343627929688,0,13.0,1,1
6.6,0.04787147,-0.15846857,9.743872,-0.0013944790698587894,-0.00024810028844513,-0.0001501327205915004,2.399121046066284,21.248023986816406,-15.264917373657227,-0.07593753933906555,0.06379953771829605,0.11736583709716795,990.5343627929688,0,13.0,1,1
6.64,0.047857523,-0.1513184,9.784113,-0.00032908120192587376,0.0012166152009740472,0.00024939881404861813,2.481322765350342,20.955909729003906,-14.721597671508787,-0.12801498174667358,0.02558697015047073,-0.005723953247070313,990.5294799804688,0,13.0,1,1
6.68,0.059729934000000005,-0.1560831,9.762801,0.0007363170152530074,0.000151329833897762,-1.6859383322298527e-05,2.471349239349365,20.683223724365234,-14.781087875366213,-0.13140398263931274,0.07234599441289903,0.03689384460449219,990.5393676757812,0,13.0,1,1
6.72,0.059713483,-0.15608263,9.769900999999999,-0.0009943769546225667,-0.00038136026705615217,-0.0006824949523434043,2.389009952545166,20.86941909790039,-14.625329971313475,-0.12612754106521604,0.053298689424991615,0.0511016845703125,990.511474609375,0,13.0,1,1
6.76,0.057307094,-0.15131572,9.777001,0.00033582490868866444,-0.00011384160461602733,-0.000281867542071268,3.0371251106262207,21.002117156982425,-14.578996658325195,-0.120373897254467,0.048164062201976776,0.017966270446777344,990.5218505859376,0,13.0,1,1
6.8,0.05968049,-0.15846515,9.746226,0.0003359838156029582,-0.0007796571590006351,0.0005171481752768159,2.480641841888428,21.218284606933594,-14.120973587036133,-0.13297319412231445,0.047800980508327484,0.07005596160888672,990.5167846679688,0,13.0,1,1
6.84,0.057274133,-0.15846473,9.765162,0.0004693006630986929,-0.0007796828867867589,0.00011774245649576188,2.6498866081237797,20.85031509399414,-14.664407730102539,-0.13267070055007935,0.05264190584421158,0.05112171173095703,990.5344848632812,0,13.0,1,1
6.88,0.076376885,-0.15369782,9.767529,0.00033630151301622385,-0.0001139189917012118,0.00011781050125136973,2.2731640338897705,20.6029052734375,-14.591882705688475,-0.1507008969783783,0.05668231099843979,0.03218650817871094,990.526611328125,0,13.0,1,1
6.92,0.050071477999999996,-0.16561374,9.758058,-0.0007288031047210097,0.0005518449470400809,0.00025103657389990985,2.3950979709625244,20.87531280517578,-14.934549331665039,-0.135710209608078,0.06154435873031616,0.05113124847412109,990.5520629882812,0,13.0,1,1
6.96,0.05722469,-0.15608028,9.760423,0.0004697770345956087,1.9187435100320727e-05,-0.00028152720187790686,2.4930620193481445,20.229644775390625,-15.065832138061525,-0.1395302414894104,0.056416794657707214,0.04166793823242188,990.53662109375,0,13.0,1,1
7.0,0.061987996,-0.16084641,9.755687,7.046200335025787e-05,-0.0014455757336691024,-1.5143246855586767e-05,2.601978302001953,20.226417541503906,-15.313379287719727,-0.12422984838485718,0.06537220627069472,0.06060791015625,990.5343627929688,0,13.0,1,1
7.04,0.073921084,-0.15607944,9.762788,7.062102667987348e-05,0.0002854516787920147,0.00011808279668912293,2.805976390838623,20.10079574584961,-14.413652420043945,-0.13748088479042053,0.04153648018836975,0.046413421630859375,990.5244750976562,0,13.0,1,1
7.08,0.064345,-0.15607908,9.755685,0.00033709558192640543,-0.0005135216633789241,-0.00028132300940342253,2.680891752243042,20.931785583496094,-14.289033889770508,-0.13188280165195465,0.050749100744724274,0.046416282653808594,990.5218505859376,0,13.0,1,1
7.12,0.05715877,-0.15369532,9.767519,-0.0001953772734850645,0.00015224222443066535,-0.0004144129634369165,2.651408672332764,20.85178565979004,-14.741716384887695,-0.13589420914649966,0.050552628934383385,0.03695201873779297,990.5218505859376,0,13.0,1,1
7.16,0.06431201,-0.15607825,9.769885,7.109751459211111e-05,-0.0007798891165293753,-1.487092231400311e-05,2.474691390991211,21.318309783935547,-14.510831832885742,-0.12588834762573242,0.05992579460144042,0.027486801147460938,990.5216064453124,0,13.0,1,1
7.2,0.057125837,-0.16084442,9.774617,0.0006038878345862031,-0.00038044110988266766,-0.001213224371895194,2.562139749526977,20.76824188232422,-14.800054550170898,-0.11525431275367735,0.059794694185256965,0.03696250915527344,990.5393676757812,0,13.0,1,1
7.24,0.057109325999999995,-0.14654431,9.774614999999999,0.0006040468579158188,-0.00024730898439884186,-0.0005473664496093988,2.6118144989013667,20.393184661865234,-14.554811477661133,-0.1339050531387329,0.031117506325244907,0.04643440246582031,990.5244140625,0,13.0,1,1
7.28,0.06187269,-0.15846029,9.765145,7.157400250434875e-05,0.0009510867530480027,-0.0009467722848057748,2.6819777488708496,20.195209503173828,-14.092130661010742,-0.13745227456092834,0.045435406267642975,0.0322418212890625,990.53173828125,0,13.0,1,1
7.32,0.06424612,-0.14892676,9.755675,0.0007375222630798818,-0.0002473605272825808,-0.0002809146244544536,2.631760597229004,20.938552856445312,-14.435831069946287,-0.11319874972105025,0.04980608820915222,0.051177024841308594,990.5243530273438,0,13.0,1,1
7.36,0.054669975999999995,-0.15607622,9.746205,-0.00032758223824203014,-0.0007800180464982986,-0.00041400434565730393,2.660403251647949,20.75470733642578,-14.506471633911133,-0.11225451529026033,0.04018828272819519,0.05118465423583984,990.5340576171876,0,13.0,1,1
7.4,0.05943334,-0.15369251,9.769876,0.0004715241957455874,-0.0006468858919106424,0.00038501128437928855,2.615837812423706,20.765892028808594,-14.885175704956055,-0.1260378360748291,0.04985791444778442,0.046456336975097656,990.5116577148438,0,13.0,1,1
7.44,0.064196676,-0.15130886,9.765139999999999,0.0011374726891517641,0.0006846677279099822,0.00011876347707584499,2.0799803733825684,21.26505851745605,-14.908796310424805,-0.12523680925369265,0.04026758670806885,0.05119609832763672,990.5296020507812,0,13.0,1,1
7.48,0.061790287,-0.15130845,9.758037,-0.0003271058667451143,-0.0005137795233167708,0.00025198949151672423,2.34680700302124,21.14592742919922,-14.558019638061525,-0.12011731415987015,0.04003491252660751,0.0654001235961914,990.5216064453124,0,13.0,1,1
7.52,0.054604112999999996,-0.16084114,9.765136,0.0007383164484053849,0.0013504057424142955,-0.000546890078112483,2.546078681945801,20.489665985107425,-14.550325393676758,-0.10982783138751984,0.05871284753084183,0.03226184844970703,990.5216064453124,0,13.0,1,1
7.56,0.054587603,-0.1441578,9.755666999999999,-0.0005931040504947305,-0.0002475152432452888,-1.419027103111148e-05,2.0167162418365483,20.52051544189453,-14.085634231567385,-0.11387936770915985,0.03424232453107834,0.04172897338867188,990.5372314453124,0,13.0,1,1
7.6,0.06413075,-0.15845707,9.774602,-0.0007261029677465558,1.877485919976607e-05,-0.000413596018915996,2.1838955879211426,20.519363403320312,-14.65022087097168,-0.13218173384666446,0.04831795394420624,0.032263755798339844,990.5266723632812,0,13.0,1,1
7.64,0.071754456,-0.1513184,9.767543,-0.0016578910872340202,-0.0006470663938671349,0.0005186457419767977,2.101012706756592,21.0738468170166,-14.592912673950195,-0.12209613621234895,0.04253033548593521,0.03217792510986328,990.5092163085938,0,13.0,1,1
7.68,0.06745714,-0.16801316,9.769953999999998,0.00019962573423981667,0.0009519156301394104,-0.00028317098622210324,2.4892306327819824,21.59541320800781,-14.683252334594727,-0.13139986991882324,0.056515693664550774,0.022704124450683597,990.5344848632812,0,13.0,1,1
7.72,0.069868565,-0.16563043,9.751019,0.00019962573423981667,0.0009519156301394104,-0.00028317098622210324,2.4892306327819824,21.59541320800781,-14.683252334594727,-0.11210580170154573,0.061064444482326515,0.051108360290527344,990.5344848632812,0,13.0,1,1
7.76,0.06272042,-0.15371454,9.7675905,-6.913649849593641e-05,-0.0001129507363657467,-0.000550535274669528,2.797961711883545,20.567636489868164,-14.824655532836914,-0.12105415761470795,0.041648238897323615,0.03216838836669922,990.5419311523438,0,13.0,1,1
7.8,0.060352147,-0.14894852,9.7746935,-6.955221761018038e-05,-0.000379199133021757,0.0007808659574948251,2.592846632003784,20.217578887939453,-14.849550247192385,-0.10564200580120088,0.03645719587802887,0.04163646697998047,990.5193481445312,0,13.0,1,1
7.84,0.06276357,-0.15371561,9.772328,-6.976013537496328e-05,0.0005529401823878288,0.00038130304892547434,2.705649375915528,20.48114776611328,-14.728387832641602,-0.11944879591464995,0.05053230375051498,0.02743244171142578,990.5142822265624,0,13.0,1,1
7.88,0.067564964,-0.14418295,9.75576,-0.0010020736372098329,0.00041981597314588726,-0.0001514177129138261,2.5319759845733643,20.95061683654785,-14.652109146118164,-0.12855537235736847,0.035903312265872955,0.04163265228271485,990.5294799804688,0,13.0,1,1
7.92,0.06519663,-0.14418355,9.73209,0.0007287719054147601,-0.00011278205056441948,-0.0004178227682132274,2.669534683227539,20.763545989990234,-14.970300674438475,-0.12801238894462585,0.03599665313959122,0.07477569580078125,990.5194091796876,0,13.0,1,1
7.96,0.060438335,-0.15371713,9.772333999999999,0.0007287719054147601,-0.00011278205056441948,-0.0004178227682132274,2.669534683227539,20.763545989990234,-14.970300674438475,-0.11815766245126726,0.04065898060798645,0.03216552734375,990.5194091796876,0,13.0,1,1
8.0,0.055680155999999995,-0.15848431,9.777072,0.0004622481064870953,0.0008193572284653782,0.0002478779060766101,2.577222347259521,20.67705535888672,-14.874025344848633,-0.12251720577478407,0.04545297473669052,0.032164573669433594,990.5244140625,0,13.0,1,1
8.04,0.055701732999999996,-0.14895165,9.774706,0.000861514126881957,0.00028675925568677485,-0.0006843166192993523,2.501811981201172,21.13298797607422,-14.504167556762695,-0.10260438174009323,0.04061001539230347,0.04163551330566406,990.5067138671876,0,13.0,1,1
8.08,0.072452605,-0.15133551,9.765239999999999,0.00032867456320673233,-0.0006453125970438122,-1.8616148736327887e-05,2.283679962158203,20.507301330566406,-14.433938980102539,-0.12114164233207705,0.04479777812957764,0.05109882354736328,990.5244750976562,0,13.0,1,1
8.12,0.055744827000000004,-0.14895272,9.767608000000001,-0.000736796879209578,0.00015366877778433263,0.00011445273412391543,2.3163444995880127,20.696165084838867,-14.834943771362305,-0.10108190774917604,0.039519309997558594,0.041626930236816406,990.544677734375,0,13.0,1,1
8.16,0.055766374,-0.14895323,9.769978,-0.0007370047969743608,-0.0006452451925724745,-0.0013503736117854714,2.7673611640930176,20.011959075927734,-14.402505874633787,-0.11014777421951294,0.03457745909690857,0.02742290496826172,990.5369262695312,0,13.0,1,1
8.2,0.06534755,-0.15610364,9.7699795,0.00019489310216158628,0.00015373626956716183,0.00024743253015913064,2.49336051940918,20.861778259277344,-14.640962600708008,-0.11429280042648315,0.0394064337015152,0.03689289093017578,990.4761962890624,0,13.0,1,1
8.24,0.05341965,-0.15848747,9.772349,0.0008604747708886862,2.0612038497347385e-05,-1.897246693260968e-05,2.42458176612854,20.95531272888184,-14.481870651245115,-0.09444835782051086,0.04852303862571716,0.05582904815673828,990.527099609375,0,13.0,1,1
8.28,0.07017052,-0.16563782,9.767616,-0.0007376282010227443,-0.0005119859124533832,0.00011409641592763364,2.6138792037963867,20.0263671875,-14.533666610717773,-0.1267317235469818,0.03843864798545837,0.03215217590332031,990.5015258789062,0,13.0,1,1
8.32,0.05585265,-0.14895537,9.760516,-0.00047152023762464523,-0.00011247842485317959,-0.0005517823155969381,2.350257396697998,20.674665451049805,-13.915102005004885,-0.10739971697330476,0.04288087785243988,0.04161834716796875,990.5520629882812,0,13.0,1,1
8.36,0.0558742,-0.15610576,9.762885,-7.225433364510536e-05,2.0713232515845448e-05,-1.9239698303863406e-05,2.5885801315307617,20.84529685974121,-14.19276237487793,-0.10674163699150084,0.042593248188495636,0.04635047912597656,990.5244140625,0,13.0,1,1
8.4,0.07023519,-0.15610623,9.767622,-0.00020562007557600734,-0.0006450426881201565,0.0006464609177783133,2.3283839225769043,20.60202980041504,-14.754308700561525,-0.1203334778547287,0.042582444846630096,0.032149314880371094,990.4937744140624,0,13.0,1,1
8.44,0.07025677,-0.1465737,9.777092999999999,0.00032680376898497343,-0.00037869307561777527,-0.0002857337531168014,2.46069598197937,20.672914505004886,-14.239953994750975,-0.11464421451091765,0.042502984404563904,0.02267932891845703,990.5321044921876,0,13.0,1,1
8.48,0.05593893,-0.15134075,9.765259,0.0004321468586567789,8.769137639319524e-05,0.0002638070727698505,2.0544896125793457,20.34550666809082,-14.620107650756836,-0.1094052791595459,0.05172641575336456,0.04634952545166016,990.5269775390624,0,13.0,1,1
8.52,0.05118069,-0.15849116,9.751058,0.0001656230742810294,0.00035404099617153406,0.0005300338962115346,2.34735107421875,20.77763557434082,-14.459569931030273,-0.0904003456234932,0.046830423176288605,0.05107975006103516,990.5393676757812,0,13.0,1,1
8.56,0.053592086,-0.15849164,9.755794,-0.00023405866522807628,0.0011530224001035096,0.0001304709876421839,2.360911130905152,20.68497467041016,-14.456239700317385,-0.0993404984474182,0.04685052484273911,0.046347618103027344,990.52197265625,0,13.0,1,1
8.6,0.053613693,-0.14895913,9.765265,0.0009641550132073463,-0.0007111550658009946,-0.0001359339221380651,2.516458034515381,20.303749084472656,-14.303930282592773,-0.08905085921287538,0.037154369056224816,0.03687667846679688,990.5065307617188,0,13.0,1,1
8.64,0.055362284000000005,-0.15609321,9.767572999999999,-0.00023447438434232026,-4.533156607067213e-05,0.000529766664840281,2.5606179237365723,20.766769409179688,-14.722749710083008,-0.09801769256591797,0.012709327042102814,0.04166316986083984,990.4963989257812,0,13.0,1,1
8.68,0.055357248,-0.1632429,9.755737,-0.0010328394128009675,0.0010198373347520828,-0.00040208915015682584,2.3358559608459477,20.50347900390625,-14.441755294799805,-0.0925116315484047,0.04554428905248642,0.06533145904541016,990.49951171875,0,13.0,1,1
8.72,0.052962244000000006,-0.16324279,9.755736,-0.0002284209040226415,-0.0003126302035525441,-0.00013342872262001038,2.4478158950805664,20.50320053100586,-14.843915939331055,-0.08759467303752899,0.04538952559232712,0.0558624267578125,990.5498046875,0,13.0,1,1
8.76,0.055347115,-0.15847611,9.774673,0.00030425985460169613,0.0007526254048570992,0.000798697816208005,2.5495586395263667,21.23066711425781,-14.979143142700195,-0.11070513725280763,0.044971078634262085,0.022721290588378903,990.542236328125,0,13.0,1,1
8.8,0.060121804,-0.15132615,9.765203999999999,0.00030435752705670893,-0.0008452857146039605,0.00013295002281665802,2.4818661212921143,20.58761978149414,-14.623147964477539,-0.0952063500881195,0.02550029009580612,0.055861473083496094,990.5321655273438,0,13.0,1,1
8.84,0.07684606,-0.15609261,9.767571,0.00030435752705670893,-0.0008452857146039605,0.00013295002281665802,2.4818661212921143,20.58761978149414,-14.623147964477539,-0.10948826372623444,0.0350988432765007,0.04165935516357422,990.5321655273438,0,13.0,1,1
8.88,0.067281365,-0.16085896,9.772305000000001,-0.00036133415414951736,0.0006194356828927994,-0.0006659556529484688,2.48933744430542,20.48906898498535,-14.31059455871582,-0.10371160507202147,0.053591422736644745,0.041657447814941406,990.5472412109376,0,13.0,1,1
8.92,0.057716668,-0.16324213,9.76757,-0.00036133415414951736,0.0006194356828927994,-0.0006659556529484688,2.48933744430542,20.48906898498535,-14.31059455871582,-0.09376780688762663,0.043939515948295586,0.03692340850830078,990.5472412109376,0,13.0,1,1
8.96,0.0577116,-0.16085875,9.777038000000001,3.818845652858727e-05,-0.0005789937567897142,0.0007988025899976492,2.80336856842041,20.83590316772461,-14.53325080871582,-0.09351512044668198,0.04844119399785996,0.017984390258789062,990.5343627929688,0,13.0,1,1
9.0,0.05292678,-0.1632419,9.758100500000001,-9.492058597970754e-05,0.0007525777327828108,0.00026619181153364485,2.2263965606689453,20.87499237060547,-14.292657852172852,-0.0880751982331276,0.0482042208313942,0.051125526428222656,990.5422973632812,0,13.0,1,1
9.04,0.0672611,-0.15132537,9.767569,-9.487169154454024e-05,-0.00017953579663299024,-1.0308576747775078e-07,2.3087358474731445,20.688796997070312,-14.448419570922852,-0.10188321769237517,0.038657888770103455,0.060597419738769524,990.5194091796876,0,13.0,1,1
9.08,0.06008625,-0.15847513,9.762834,3.838426709990017e-05,8.676414290675893e-05,0.00013309679343365133,2.2611258029937744,20.697036743164066,-14.672517776489258,-0.09616148471832277,0.038625061511993415,0.05113124847412109,990.5447998046876,0,13.0,1,1
9.12,0.06247112,-0.14894184,9.767567999999999,3.838426709990017e-05,8.676414290675893e-05,0.00013309679343365133,2.2611258029937744,20.697036743164066,-14.672517776489258,-0.09571680426597597,0.03376840054988861,0.032195091247558594,990.5447998046876,0,13.0,1,1
9.16,0.06485593,-0.14417520000000003,9.765201,0.0005710647092200817,-0.0007121913367882371,-4.0221493691205985e-08,2.27522873878479,20.23609161376953,-14.570737838745115,-0.10466864705085754,0.033601924777030945,0.04639911651611328,990.516845703125,0,13.0,1,1
9.2,0.07202059,-0.15609148,9.769934,0.0003047978098038584,-0.00031272551859728987,0.0003994545841123909,2.383059501647949,20.969444274902344,-15.01518440246582,-0.1039709970355034,0.024115420877933502,0.05113697052001953,990.519287109375,0,13.0,1,1
9.24,0.06723571,-0.14894149,9.765199,0.00030484682065434754,-0.00017957549425773325,0.0001331596577074379,2.2279179096221924,20.87646484375,-14.369966506958008,-0.0984662026166916,0.033519789576530463,0.05587100982666016,990.5372314453124,0,13.0,1,1
9.28,0.06006092,-0.1417915,9.755728999999999,3.857984484056942e-05,8.673247793922201e-05,-0.0010652407072484493,2.2871601581573486,21.24829864501953,-14.862756729125975,-0.09341886639595033,0.03324931114912033,0.046402931213378906,990.527099609375,0,13.0,1,1
9.32,0.05049622,-0.14894122,9.748628,3.8628739275736734e-05,0.0003530403773766011,4.365574568510056e-08,2.567003965377808,21.40479850769043,-14.607099533081055,-0.07867112010717392,0.037772588431835175,0.046401023864746094,990.4893188476562,0,13.0,1,1
9.36,0.05527094,-0.16085753,9.760463,-0.00022763824381399902,8.671655814396217e-05,0.0003995384613517672,2.6504297256469727,20.482023239135746,-14.565961837768555,-0.09252344071865083,0.03290905803442001,0.0464019775390625,990.4893188476562,0,13.0,1,1
9.4,0.064825475,-0.15609083,9.762830000000001,3.872652814607136e-05,-0.00017960727564059198,-0.00026623025769367814,2.7888295650482178,20.558799743652344,-14.36082649230957,-0.09205637872219086,0.032838374376297004,0.05113697052001953,990.52197265625,0,13.0,1,1
9.44,0.07199013,-0.15370741,9.772298,0.000438249233411625,0.0006193324807099997,0.0010653701610863207,2.4240386486053467,21.32360076904297,-14.580316543579102,-0.11057671904563904,0.022528313100337986,0.03219318389892578,990.5147094726562,0,13.0,1,1
9.48,0.062425435,-0.16085714,9.762829,-0.0010264391312375665,0.00021985071361996236,0.00013328553177416322,2.4973835945129395,21.234487533569336,-14.97132682800293,-0.09599899500608444,0.04131744801998138,0.04639339447021485,990.52197265625,0,13.0,1,1
9.52,0.057640553,-0.16085705,9.758094,-0.00036060050479136413,0.0003530006797518581,-0.00013300933642312884,2.6281731128692627,21.30389976501465,-14.379667282104492,-0.08135982602834703,0.05065779387950897,0.04639339447021485,990.5325317382812,0,13.0,1,1
9.56,0.07675472,-0.1489405,9.779399,3.892222230206244e-05,0.0006193087319843472,-0.0005324623198248446,2.274548053741455,20.498462677001953,-13.970109939575195,-0.11435645073652267,0.021812759339809414,0.02745342254638672,990.5067138671876,0,13.0,1,1
9.6,0.060020328,-0.16324008,9.753359,-9.41869366215542e-05,8.66689588292502e-05,0.0005328222177922727,2.6785287857055664,20.666465759277344,-14.735052108764648,-0.08523362874984741,0.03591952472925186,0.06059360504150391,990.51416015625,0,13.0,1,1
9.64,0.06514788,-0.1560987,9.779428999999999,-0.00022729574993718413,0.00048613481339998543,0.0006660011131316422,2.617359161376953,20.76736831665039,-14.962480545043945,-0.08989357948303223,0.035599201917648315,0.02268505096435547,990.5625610351562,0,13.0,1,1
9.68,0.060377,-0.15371567,9.755759,0.0003037138667423278,0.001152187935076654,-0.0005331156426109374,2.568228483200073,20.774133682250977,-15.109277725219727,-0.08015203475952147,0.02599634975194931,0.060558319091796875,990.5172119140624,0,13.0,1,1
9.72,0.060385883,-0.15133262,9.769963,-0.00023064094420988115,-0.0007117435452528298,0.00013193566701374948,2.8005690574646,19.8325309753418,-14.705060958862305,-0.09859157353639604,0.026030555367469788,0.032154083251953125,990.4994506835938,0,13.0,1,1
9.76,0.06995433599999999,-0.16801581,9.769963,0.0008345367969013751,0.0002203758922405541,0.000265056878561154,2.726138114929199,20.658226013183594,-14.510950088500975,-0.10729306936264038,0.049526378512382514,0.03688526153564453,990.539794921875,0,13.0,1,1
9.8,0.0651834,-0.14894983,9.762862,-0.0003639701462816447,-0.000711715838406235,0.00039817817742004985,2.54097056388855,20.85353660583496,-14.416864395141602,-0.09736108034849167,0.034850001335144036,0.04634952545166016,990.5296630859376,0,13.0,1,1
9.84,0.06519231,-0.15609977,9.751027,3.541800469974987e-05,0.0004867195093538612,-1.3323151506483557e-06,2.534584045410156,20.215511322021484,-14.532510757446287,-0.10160428285598756,0.04414117336273194,0.04634666442871094,990.5198974609376,0,13.0,1,1
9.88,0.050861776,-0.1561,9.777068,-0.000230983438086696,-4.589831951307133e-05,-0.00026768498355522746,2.5546681880950928,20.86679458618164,-15.112607955932615,-0.07747882604598999,0.02970914542675018,0.03687763214111328,990.5147094726562,0,13.0,1,1
9.92,0.06282014,-0.15610024,9.758131,-9.791106276679784e-05,0.000220431451452896,-0.0002677215379662812,2.785242795944214,20.924144744873047,-14.304666519165039,-0.08666864037513733,0.024805046617984768,0.06528091430664062,990.5606079101562,0,13.0,1,1
9.96,0.06043917,-0.17278346,9.760499000000001,0.0003014772955793888,0.0011525509180501106,0.00026487349532544613,2.8000264167785645,20.20082092285156,-14.803510665893555,-0.09581059962511064,0.048660211265087135,0.0416107177734375,990.5147094726562,0,13.0,1,1
10.0,0.06522781,-0.15371743,9.760499000000001,0.0005527951288968325,-0.0007371287210844457,-0.0004701242432929576,2.9849495887756348,21.005939483642575,-14.57118034362793,-0.09053384512662888,0.0291501060128212,0.055808067321777344,990.517333984375,0,13.0,1,1
10.04,0.06284678,-0.17755046,9.7534,-0.0007788698421791196,6.183281220728531e-05,0.00019562870147638026,2.742199182510376,20.936803817749023,-14.760683059692385,-0.08067931979894638,0.05728122591972351,0.060536384582519524,990.52490234375,0,13.0,1,1
10.08,0.060465782999999995,-0.15133458,9.760501,-0.00037948149838484813,0.0005944785079918803,6.243409006856382e-05,2.6629037857055664,21.12594223022461,-14.759531021118164,-0.0806029886007309,0.023873046040534973,0.04633235931396485,990.5223999023438,0,13.0,1,1
10.12,0.060474694,-0.15133476,9.767603999999999,0.00028613695758394897,0.0004613482451532036,-0.00033711304422467947,2.76725435256958,21.11830139160156,-14.77515983581543,-0.08498305827379228,0.03314262628555298,0.06526565551757812,990.5067749023438,0,13.0,1,1
10.16,0.06765324,-0.16086814,9.758136,0.00028613695758394897,0.0004613482451532036,-0.00033711304422467947,2.76725435256958,21.11830139160156,-14.77515983581543,-0.1040317639708519,0.03289090096950531,0.05105972290039063,990.5067749023438,0,13.0,1,1
10.2,0.060492396,-0.14895195,9.758136,-0.0005128962220624089,0.000993993948213756,0.00046179784112609923,2.5108063220977783,21.03590965270996,-14.268915176391602,-0.08007968217134476,0.02333355695009232,0.06052970886230469,990.5375366210938,0,13.0,1,1
10.24,0.06528112,-0.15371874,9.765239,0.00041912365122698253,0.0007276920368894935,-7.08705629222095e-05,2.2780282497406006,21.23946189880371,-14.398927688598633,-0.08905518054962157,0.02778524160385132,0.05579185485839844,990.54736328125,0,13.0,1,1
10.28,0.055730342999999995,-0.14895242,9.762872999999999,0.00028579469653777784,-0.00033754372270777816,0.00019537194748409087,2.702062129974365,20.84649085998535,-14.67222785949707,-0.09318051487207413,0.01346675306558609,0.06525897979736328,990.5274658203124,0,13.0,1,1
10.32,0.05573928400000001,-0.14895260000000002,9.777077,0.00028579469653777784,-0.00033754372270777816,0.00019537194748409087,2.702062129974365,20.84649085998535,-14.67222785949707,-0.08361203968524933,0.018184438347816467,0.027383804321289062,990.5274658203124,0,13.0,1,1
10.36,0.06291786,-0.14895278,9.77471,0.0005520249251276255,0.0011272075353190305,-7.098057540133595e-05,2.6814351081848145,20.563495635986328,-14.190584182739258,-0.09738723933696747,0.027656376361846924,0.041586875915527344,990.5427856445312,0,13.0,1,1
10.4,0.07248628,-0.16086942,9.772344,0.00015246550901792943,-0.0004706739273387939,-0.0002041751868091524,2.6260552406311035,20.03815269470215,-15.152109146118164,-0.09677140414714812,0.03253423422574997,0.04158878326416016,990.504638671875,0,13.0,1,1
10.44,0.060545682999999996,-0.16086966,9.769978,0.0005518537946045399,-0.00047066001570783566,-0.0008700015605427325,2.8796205520629883,20.643817901611328,-14.379793167114258,-0.07694011926651001,0.05155067890882492,0.036853790283203125,990.5023193359376,0,13.0,1,1
10.48,0.060554564000000005,-0.15610334,9.743939,0.0006849262863397597,-0.00047064610407687724,0.00019522526417858896,2.300283908843994,20.41758728027344,-14.585214614868164,-0.0765082836151123,0.027629509568214417,0.06525897979736328,990.5198364257812,0,13.0,1,1
10.52,0.0557836,-0.151337,9.762877,1.905064709717408e-05,-7.115842163329944e-05,0.0001951885933522135,2.559096336364746,20.76529693603516,-14.645444869995115,-0.07555226981639862,0.031884655356407166,0.03684806823730469,990.5223388671876,0,13.0,1,1
10.56,0.05818242,-0.15372047,9.7699795,-0.0005136664258316159,-0.0011364080710336564,0.0005946257151663302,2.7393999099731445,19.933429718017575,-14.932489395141602,-0.07960513234138489,0.036592692136764526,0.04631710052490234,990.5299682617188,0,13.0,1,1
10.6,0.060359715999999994,-0.16324836,9.762858,-0.00038067987770773465,-0.00020427466370165348,-0.0008701849146746099,2.5394480228424072,20.852066040039066,-14.339555740356445,-0.07833162695169449,0.050444282591342926,0.03688335418701172,990.5074462890624,0,13.0,1,1
10.64,0.055353999999999993,-0.156093,9.765205,-0.00038067987770773465,-0.00020427466370165348,-0.0008701849146746099,2.5394480228424072,20.852066040039066,-14.339555740356445,-0.07345496118068695,0.03118497878313065,0.05108356475830078,990.5074462890624,0,13.0,1,1
10.68,0.055345148,-0.15847608,9.7723055,-0.00011069492757087571,0.00032776154694147413,-0.0003359808470122516,2.477597713470459,21.21533966064453,-13.966360092163086,-0.06728091835975647,0.03724852204322815,0.04637050628662109,990.5123291015624,0,13.0,1,1
10.72,0.069675654,-0.15132597,9.765203,0.004816759843379259,-0.003134444123134017,-6.940303137525916e-05,2.4686038494110107,21.31241607666016,-14.201608657836914,-0.1002487689256668,0.02791841328144073,0.03217124938964844,990.5352172851562,0,13.0,1,1
10.76,0.06249708,-0.15847561,9.7699375,-0.002906228881329298,0.001526055857539177,0.0003301441902294755,2.7085552215576167,20.378177642822266,-14.183919906616213,-0.062121134251356125,0.030886784195899963,0.027414321899414062,990.5121459960938,0,13.0,1,1
10.8,0.06248817,-0.14894223,9.769936999999999,-0.00037614282337017363,0.0003276205679867417,-0.0004687668406404555,2.851520776748657,20.459373474121094,-14.210699081420898,-0.06676889955997467,0.030854269862174988,0.04161739349365234,990.4384155273438,0,13.0,1,1
10.84,0.055309622999999995,-0.15847525,9.762834,-0.00037614282337017363,0.0003276205679867417,-0.0004687668406404555,3.0753042697906494,20.352901458740234,-14.315938949584961,-0.0565914697945118,0.035583153367042535,0.0652914047241211,990.4384155273438,0,13.0,1,1
10.88,0.06008053,-0.16085827,9.74863,0.0009555221768096088,-0.0010039727203547957,-0.00020241417223587632,2.9598944187164307,20.824440002441406,-14.556699752807615,-0.08416195958852768,0.03581954538822174,0.05582809448242188,990.4972534179688,0,13.0,1,1
10.92,0.060071617,-0.16324129999999998,9.769935,0.0005561342695727943,-0.001003986690193415,-0.0007350091473199428,2.5909423828125,21.110618591308594,-13.746747970581055,-0.06918513774871826,0.04016885161399841,0.041622161865234375,990.5430297851562,0,13.0,1,1
10.96,0.05528289,-0.15847453,9.7723,0.0002899038081523031,-0.00020505290012806654,0.0003302909608464688,2.676326036453247,20.9273681640625,-14.057119369506836,-0.06899431347846985,0.02099251747131348,0.03688621520996094,990.514892578125,0,13.0,1,1
11.0,0.05288419,-0.16800739999999997,9.767565,-0.0005089582409709691,6.124910578364505e-05,-6.914610275998712e-05,2.704831123352051,20.637603759765625,-13.428682327270508,-0.06840793043375015,0.03977005183696747,0.051087379455566406,990.4791870117188,0,13.0,1,1
11.04,0.050485373,-0.16085732,9.762830000000001,-0.00024255670723505324,-0.000604554486926645,0.00046352233039215207,2.814427614212036,20.37200736999512,-14.276857376098633,-0.05845806002616882,0.03911221027374268,0.05107975006103516,990.4822387695312,0,13.0,1,1
11.08,0.055256248,-0.16324049,9.758094999999999,-0.0007751026423648,-0.0002050946350209415,-0.0010011782869696617,2.586078643798828,20.47406005859375,-13.939702987670898,-0.0674862340092659,0.04362159967422485,0.055812835693359375,990.517333984375,0,13.0,1,1
11.12,0.05285749,-0.14417401,9.772298,-0.00024238546029664576,6.120738544268534e-05,-0.00033535191323608165,2.46458101272583,20.9397087097168,-13.871244430541992,-0.07680599391460419,0.019549936056137085,0.017935752868652344,990.5477294921876,0,13.0,1,1
11.16,0.06001833,-0.15609017,9.760461,0.00015717404312454164,0.0005938253016211092,-0.00020215718541294336,2.736654281616211,20.562620162963867,-14.353010177612305,-0.06670968979597093,0.024316102266311646,0.055812835693359375,990.56298828125,0,13.0,1,1
11.2,0.07195896,-0.14179024,9.765195,-0.00010905614908551796,-0.0007377680158242582,0.00033051116042770445,2.792416572570801,20.193458557128906,-14.416986465454102,-0.07060959935188292,0.009686440229415894,0.05107593536376953,990.5020141601562,0,13.0,1,1
11.24,0.055220723,-0.1537064,9.760458999999999,-0.00024212864809669557,-0.0012704137479886413,0.00046370580093935127,3.0126132965087886,20.452327728271484,-14.466062545776367,-0.060940153896808624,0.028780847787857056,0.03687286376953125,990.494873046875,1,1.0,2,2
11.28,0.050432055999999996,-0.15370616,9.774661,0.0004237468529026955,0.0009932572720572352,-6.888917414471507e-05,3.247210502624512,20.88238525390625,-13.988489151000975,-0.055214032530784614,0.014481887221336363,0.04634571075439453,990.504638671875,1,1.0,2,2
11.32,0.059982777,-0.16323918,9.760457,0.0005569905042648315,-0.0006046518101356924,-0.00020201044389978048,3.0829372406005864,20.780567169189453,-12.879434585571287,-0.07857591658830643,0.028755351901054382,0.04634571075439453,990.5325317382812,1,1.0,2,2
11.36,0.06475371,-0.14417270000000001,9.769925,2.4444285372737795e-05,-0.0010041395435109737,0.00033065796014852816,3.26990270614624,20.798564910888672,-14.44898796081543,-0.08259250223636627,0.014509066939353945,0.04634857177734375,990.5176391601562,1,1.0,2,2
11.4,0.057575107,-0.14893901,9.762822,0.0006903195753693581,-0.0007378375739790499,-0.00033509504282847047,2.785785436630249,20.55585479736328,-14.206216812133787,-0.05835920572280884,0.009560555219650269,0.05108165740966797,990.5452880859376,1,1.0,2,2
11.44,0.06712586,-0.14893878,9.767555999999999,-0.0003748581802938134,-0.00020521972328424454,-0.00046821619616821414,2.4862940311431885,20.486122131347656,-14.155984878540039,-0.08654112368822098,0.00969882309436798,0.0368804931640625,990.5328369140624,1,1.0,2,2
11.48,0.05277753,-0.16562152,9.772289,0.0006904909387230872,-7.207567250588909e-05,0.00046392602962441737,2.4184937477111816,20.949420928955078,-14.172647476196287,-0.06232554093003272,0.033081397414207465,0.04634571075439453,990.5375366210938,1,1.0,2,2
11.52,0.0503788,-0.15132159,9.777023,-0.0005780101637355982,0.0002262829948449508,-0.0002259337925352156,2.4725966453552246,20.47286605834961,-13.460237503051758,-0.05731625854969025,0.02331249415874481,0.017935752868652344,990.4972534179688,1,1.0,2,2
11.56,0.06709921,-0.15608796,9.779389,-0.0003116083680652082,9.311115718446672e-05,0.00030673478613607585,2.455449104309082,20.930870056152344,-13.407411575317385,-0.07581856101751328,0.027646154165267944,0.05107212066650391,990.5377197265624,1,1.0,2,2
11.6,0.06074822,-0.14657494,9.772363,-0.0007109966245479883,-0.00043953454587608576,4.045566311106086e-05,2.444389820098877,21.39476585388184,-13.663808822631836,-0.05204608291387558,0.017770782113075256,0.046260833740234375,990.5226440429688,1,1.0,2,2
11.64,0.065552115,-0.15372539,9.772364999999999,-0.0008470159373246133,-0.0007053858134895562,0.00017238740110769868,2.3819429874420166,20.493764877319336,-14.140352249145508,-0.06592123955488205,0.03185223042964935,0.04625511169433594,990.5430297851562,1,1.0,2,2
11.68,0.05123681,-0.14419284,9.777102000000001,-0.0008522917632944883,0.0010265238815918565,-9.61895566433668e-05,2.0505199432373047,21.60536193847656,-13.538450241088867,-0.04638172686100006,0.016958236694335938,0.05097770690917969,990.5226440429688,1,1.0,2,2
11.72,0.06799018400000001,-0.16325971,9.777103,-0.0008522917632944883,0.0010265238815918565,-9.61895566433668e-05,2.0505199432373047,21.60536193847656,-13.538450241088867,-0.07500925660133362,0.04061001539230347,0.03203773498535156,990.5226440429688,1,1.0,2,2
11.76,0.06084457,-0.15372717,9.767638,-0.0005862081306986512,-0.00017185999604407698,-0.00036260514752939343,2.62621545791626,20.56437110900879,-14.028154373168945,-0.055059831589460366,0.017579972743988037,0.05571746826171875,990.5150756835938,1,1.0,2,2
11.8,0.005900919399999999,-0.08937922,9.772374000000001,0.0016772450180724265,-0.0012370857875794172,-0.0008953364449553194,2.5128707885742188,20.66909408569336,-14.247770309448242,-0.05469242855906487,0.021851450204849243,0.05097484588623047,990.5150756835938,1,1.0,2,2
11.84,0.046553344,-0.1918608,9.770009,-0.0003203567466698587,-0.00043810042552649975,-0.002227015327662229,2.35123610496521,21.0444278717041,-14.090856552124025,0.5888515114784241,-0.41635477542877203,0.003631591796875,990.5074462890624,1,1.0,2,2
11.88,-0.037069127,-0.16802862,9.848127999999999,-0.005247432738542557,0.004222465213388205,-0.23378875851631165,2.181585788726806,21.886606216430664,-14.344949722290039,-0.1472102403640747,0.028090491890907288,0.012845993041992188,990.530029296875,1,1.0,2,2
11.92,0.11112881,-0.5231377,10.335774,-0.16317321360111234,-0.013886937871575356,-0.2154131978750229,2.429116725921631,19.74747085571289,-13.642045974731445,-0.328823983669281,0.5526160597801208,-0.6472740173339844,990.4459838867188,1,1.0,2,2
11.96,0.022726595,-0.33485928,9.65639,-0.16317321360111234,-0.013886937871575356,-0.2154131978750229,2.429116725921631,19.74747085571289,-13.642045974731445,-0.08994325250387193,0.44556212425231934,0.20364761352539065,990.4459838867188,1,1.0,2,2
12.0,-0.29988605,0.33722470000000004,9.263436,-0.17502449452877045,0.2811911106109619,-0.0716027021408081,2.952147483825684,20.711156845092773,-13.471094131469727,-0.0865984559059143,-1.1350284814834597,0.13852977752685547,990.49951171875,1,1.0,2,2
12.04,0.5652825,-1.1189592,10.252929,-0.18700894713401794,0.27479955554008484,-0.029524890705943108,2.8592915534973145,20.992956161499023,-13.473276138305664,-0.5329398512840271,0.6874938607215881,-0.17119693756103516,990.4998168945312,1,1.0,2,2
12.08,-0.05367802,-0.7733842,9.900219,-0.7482701539993286,-0.18725845217704773,0.11428549140691754,2.028562307357788,23.05937385559082,-12.927289962768555,0.08111812174320221,-0.12912452220916748,0.02356243133544922,990.4896850585938,1,1.0,2,2
12.12,0.13753825,-0.6089386999999999,9.864713,-0.7482701539993286,-0.18725845217704773,0.11428549140691754,2.028562307357788,23.05937385559082,-12.927289962768555,0.043400131165981286,-0.4241142272949219,-0.1508808135986328,990.4896850585938,1,1.0,2,2
12.16,-0.6534951999999999,-1.6218326,10.018582,-0.7570587992668152,-0.0379883386194706,0.038385361433029175,1.32098388671875,23.975574493408203,-10.331380844116213,0.7404692769050598,-0.3205859661102295,-0.07939434051513672,990.4990844726562,1,1.0,2,2
12.2,0.36223716,-2.2319527000000003,9.043298,-0.8464081287384033,0.05162699148058891,-0.19131219387054446,1.489441156387329,24.976318359375,-10.646852493286133,-0.7966291904449463,0.5641870498657227,-0.07249832153320312,990.5447998046876,1,1.0,2,2
12.24,-0.20175554,-2.1247053,8.62904,-0.20019274950027466,0.8018388748168945,-0.5664182305335999,2.1441869735717773,24.74661636352539,-10.811288833618164,-0.3762023150920868,0.6460046768188477,0.8929071426391602,990.4939575195312,1,1.0,2,2
12.28,-0.55304706,-1.3477573,9.263452000000001,-0.19300244748592374,0.3732035458087921,-0.11421392858028412,1.9197225570678709,25.115463256835934,-10.10542106628418,0.1869817525148392,-0.26639854907989496,0.7607746124267578,990.517333984375,1,1.0,2,2
12.32,-0.23277608,-2.365418,10.252945,-0.4257627129554749,-0.5229493975639343,0.13505762815475464,1.2648701667785645,26.45150756835937,-10.313642501831056,0.09222018718719482,0.3578677177429199,-1.1598396301269531,990.5549926757812,1,1.0,2,2
12.36,0.17831108,-1.8601631999999997,10.136954,-0.1972639560699463,-0.4956520199775696,-0.2514999806880951,0.3276405334472656,26.04756164550781,-9.452722549438477,0.4363599717617035,-0.13276410102844238,-0.2545194625854492,990.5676879882812,1,1.0,2,2
12.4,0.86662686,-2.2724712000000005,9.426795,-0.01630255952477455,0.08438403159379959,-0.7464481592178345,-0.010466575622558594,25.888996124267575,-9.39134407043457,-1.180355668067932,0.008627653121948242,-0.11951255798339845,990.5752563476562,1,1.0,2,2
12.44,-0.15622696,-2.4416847,9.658783999999999,-0.6049940586090088,0.17652937769889832,-0.5696145296096802,-0.34979677200317383,26.361083984375,-8.827787399291992,0.3007698655128479,-0.09288954734802246,-0.18837928771972656,990.5676879882812,1,1.0,2,2
12.48,0.08995706,-2.792027,9.523855000000001,-0.6778317093849182,-0.026536453515291214,0.11175459623336792,-0.36968994140625,27.448280334472656,-8.195478439331055,-0.10109606385231018,-0.06262683868408203,-0.1212472915649414,990.557373046875,1,1.0,2,2
12.52,0.073251784,-3.2114849999999997,9.062253,-0.8647856712341309,0.003823594655841589,-0.011150289326906204,-0.04291725158691406,27.858917236328125,-7.115095138549805,-0.09186650067567824,-0.07041096687316895,0.04710865020751953,990.54736328125,1,1.0,2,2
12.56,0.05573085,-3.5641904,8.844398,-1.053071141242981,0.009549424052238464,-0.02393354848027229,-0.8964757919311523,29.90323638916016,-5.40953254699707,0.04116741567850113,-0.007931232452392578,0.4259700775146485,990.511474609375,1,1.0,2,2
12.6,0.17199498,-3.8287134,8.995822,-0.8935482501983643,0.022465780377387997,-0.05562523752450943,-0.7822890281677246,30.062355041503906,-4.666595458984375,-0.13812170922756195,-0.052338838577270515,-0.13961219787597656,990.5291748046876,1,1.0,2,2
12.64,0.07157722,-4.1194725,8.550784,-0.6919354796409607,0.03151862695813179,-0.07692550867795944,-1.0398240089416504,30.716552734375,-4.357252120971681,-0.01902983710169792,0.07426595687866211,0.521240234375,990.5216064453124,1,1.0,2,2
12.68,0.32964479999999996,-4.245785700000001,8.823008999999999,-0.6270832419395447,0.0015573977725580337,0.0007073985179886223,-0.8740048408508301,31.240142822265625,-3.7205829620361333,-0.2280710488557816,0.0494847297668457,0.0004177093505859375,990.4783325195312,1,1.0,2,2
12.72,0.17664918,-4.3363485,8.749621000000001,-0.3591690957546234,-0.01522056758403778,0.031067581847310063,-1.0357780456542969,31.509559631347656,-2.8645915985107417,-0.3217763304710388,0.06322765350341797,0.12823486328125,990.5065307617188,1,1.0,2,2
12.76,-0.36829029999999996,-3.642814,8.569711,-0.3549076020717621,-0.14425069093704224,0.30244362354278564,-0.7124547958374023,32.39145278930664,-2.4271278381347656,0.20877766609191892,-0.44838905334472656,0.15383338928222656,990.4884643554688,1,1.0,2,2
12.8,0.0021026134,-3.5975303999999997,8.122305,-0.3137614130973816,-0.23053710162639615,0.4611680805683136,-0.2204298973083496,33.273666381835945,-2.631551742553711,-0.10726217925548552,-0.8034648895263672,0.7894697189331055,990.5416259765624,1,1.0,2,2
12.84,0.23149139,-4.5222416,9.296433,0.33591657876968384,-0.2515760958194733,0.5356035232543945,0.4525494575500488,31.849380493164066,-2.65191650390625,-0.16633722186088562,0.8370120525360107,-1.2351655960083008,990.6713256835938,1,1.0,2,2
12.88,-0.04338923,-4.0503516,11.02212,0.9769397377967834,-0.9048492312431335,0.1406574249267578,-0.04781198501586914,30.38156890869141,-5.106389999389648,0.7219635248184204,0.4061741828918457,-0.8651342391967773,990.788330078125,1,1.0,2,2
12.92,-0.47600338,-2.6489825000000002,9.069175,0.16960352659225464,0.6112871766090393,0.09391917288303377,0.7299532890319824,29.68769073486328,-5.416593551635742,0.6511252522468567,-0.7080409526824951,0.2079429626464844,990.6409301757812,1,1.0,2,2
12.96,0.6806674,-3.166153,7.708029,0.8340620994567871,-0.34292271733284,0.09604986757040024,-0.26969099044799805,29.595001220703125,-6.10395622253418,-0.5858715772628784,-0.03279948234558105,1.8127913475036619,990.5056762695312,1,1.0,2,2
13.0,1.5887882,-1.7004359,9.736718,0.8340620994567871,-0.34292271733284,0.09604986757040024,-0.26969099044799805,29.595001220703125,-6.10395622253418,-0.7030014991760254,-1.136316418647766,0.3391294479370117,990.5056762695312,1,1.0,2,2
13.04,1.4859805,-2.6561293999999998,11.561828,0.7632223963737488,-1.1509251594543457,0.11988531798124312,-1.1638989448547363,28.75809097290039,-6.6100502014160165,-0.7419582605361938,-0.333298921585083,-2.54412841796875,990.53369140625,1,1.0,2,2
13.08,0.68054175,-2.541731,10.844562,0.19410620629787445,0.546305775642395,-0.2943686544895172,-2.0056872367858887,26.91693115234375,-7.450380325317383,0.16903334856033325,-0.20138072967529294,-1.552133560180664,990.5994873046876,1,1.0,2,2
13.12,0.8979809000000001,-1.9625936000000002,10.804314999999999,0.3460398316383362,0.5568252205848694,-0.08544372022151947,-1.3488450050354004,27.53266906738281,-8.665407180786133,-0.4398483633995056,-0.6730954647064209,-1.2931337356567385,990.546142578125,1,1.0,2,2
13.16,0.71630657,-1.3906053999999999,10.809045,0.3460398316383362,0.5568252205848694,-0.08544372022151947,-1.3488450050354004,27.53266906738281,-8.665407180786133,-0.2928108274936676,-0.9198783636093141,-1.2440652847290041,990.546142578125,1,1.0,2,2
13.2,0.44381583,-1.5431342,10.678844999999999,0.5002370476722717,0.4589540660381317,-0.08504406362771988,-1.2396836280822754,26.52901840209961,-9.239374160766602,-0.1468629539012909,-0.3784562349319458,-1.2368316650390625,990.5302734375,1,1.0,2,2
13.24,0.25975156,-0.9544635,10.356902,0.7610938549041748,0.21447603404521945,-0.12765443325042725,-1.992745876312256,25.13969421386719,-10.119813919067383,0.217386394739151,-0.4489883184432984,-0.9182043075561525,990.471923828125,1,1.0,2,2
13.28,0.4341725,-0.20134643,9.360307,0.7545695900917053,0.02525852993130684,-0.09543003886938096,-1.843745708465576,23.594221115112305,-11.207113265991213,-0.22280043363571167,-1.3271842002868652,-0.08153343200683594,990.5302734375,1,1.0,2,2
13.32,-0.25894088,-1.1761063,9.838477000000001,-0.4779394567012787,0.6118191480636597,-0.6046256422996521,-1.4909939765930176,22.92354965209961,-11.068254470825195,0.6224057674407959,-0.16195690631866455,-0.9699039459228516,990.428466796875,1,1.0,2,2
13.36,0.1735895,-2.5274243,12.037604,-0.4779394567012787,0.6118191480636597,-0.6046256422996521,-1.4909939765930176,22.92354965209961,-11.068254470825195,0.4726009964942932,0.7527109384536743,-2.5560617446899414,990.428466796875,1,1.0,2,2
13.4,-0.2422953,-2.0340843,11.097821000000001,0.522875964641571,-1.144134521484375,-0.707956075668335,-2.969102382659912,21.85598945617676,-11.547861099243164,0.9136371612548828,1.358639121055603,-0.7325420379638672,990.5224609375,1,1.0,2,2
13.44,0.46268392,-1.7480901000000002,13.199893,1.1427266597747805,-0.7573109865188599,-0.5998316407203674,-4.827820301055908,20.274227142333984,-12.323648452758787,0.6847819089889526,1.0880672931671145,-3.6193218231201167,990.608642578125,1,1.0,2,2
13.48,-0.20892042,-1.4334964,11.38898,0.6662878394126892,-0.2545066773891449,-0.20248815417289734,-6.210031032562256,18.927812576293945,-12.955682754516602,0.7755154967308044,0.9430662989616394,-1.9648208618164065,990.5252075195312,1,1.0,2,2
13.52,-0.6224153,-1.3238645,10.674081,0.9532435536384584,0.7068936228752136,-0.18637587130069733,-4.5828890800476065,15.290685653686525,-15.765031814575195,1.0119556188583374,1.469846487045288,-1.0688419342041016,990.598388671875,1,1.0,2,2
13.56,-0.79692,-1.0164205,10.728522,0.91822350025177,0.8893198966979979,-0.12325884401798247,-4.319129467010498,14.748306274414062,-17.082674026489258,0.7899804711341858,1.2400271892547607,-0.8688364028930664,990.4716186523438,1,1.0,2,2
13.6,-0.9977136999999999,-0.7065933000000001,9.885795,0.9981186985969543,0.634189248085022,0.04225664958357811,-3.143661975860596,12.47806167602539,-17.90081214904785,0.9349355101585388,1.6838946342468262,-0.516901969909668,990.4535522460938,1,1.0,2,2
13.64,-1.0025353000000001,-0.17750439,10.058597,0.993591606616974,0.6596223711967468,0.17488214373588562,-1.8834624290466309,11.499200820922852,-19.500429153442386,0.5095284581184387,1.1974828243255615,-1.4147787094116209,990.4637451171876,1,1.0,2,2
13.68,-0.7205688,-0.19418633,11.663556,0.6132930517196655,0.5787954330444336,0.2864686548709869,-1.0919985771179201,10.818580627441406,-20.50637626647949,0.13613063097000122,1.3059500455856323,-2.623218536376953,990.450439453125,1,1.0,2,2
13.72,-1.0886555,-0.26568365,8.865518,0.6094318628311157,0.4781280159950256,0.2217540740966797,-0.28048229217529297,9.576988220214844,-21.02068519592285,0.11923229694366455,2.287937641143799,0.6294689178466797,990.4300537109376,1,1.0,2,2
13.76,-1.463912,0.32060388,8.856046000000001,1.6153074502944946,0.4706710278987885,0.09059368073940276,-0.3285813331604004,7.214609146118164,-21.721864700317386,0.7749969959259033,2.1642751693725586,0.3856925964355469,990.5089721679688,1,1.0,2,2
13.8,-1.1293674999999999,1.1190031999999999,9.312913,1.585879921913147,0.12472667545080185,0.20457705855369568,0.6221230030059814,4.681076049804688,-22.25901222229004,0.3631706237792969,2.0669448375701904,0.6215486526489258,990.4275512695312,1,1.0,2,2
13.84,-1.6862564999999998,0.90450907,9.689294,0.9877346158027648,0.29863086342811584,0.4469246864318848,0.8361778259277344,3.3014926910400386,-22.75016212463379,0.3996480703353882,1.8389979600906368,-0.9314804077148438,990.4276123046876,1,1.0,2,2
13.88,-2.126579,1.1928413999999998,9.272831,0.6954535245895386,0.530059278011322,0.5519863963127136,2.398232936859131,2.6576881408691406,-23.95399284362793,0.8323419094085693,2.1044447422027592,-0.4082221984863281,990.4577026367188,1,1.0,2,2
13.92,-1.2518604,2.3105986,9.74864,0.8275421261787415,0.627265214920044,0.8237599730491638,3.5896239280700684,0.5601015090942383,-24.32277870178223,0.3419439792633057,1.8148367404937744,-0.6566314697265625,990.4830322265624,1,1.0,2,2
13.96,-0.986567,3.0827806,9.37699,0.9874516129493712,0.5581584572792053,1.1245582103729248,4.418723106384277,-0.4014430046081543,-25.16411781311035,-0.327450156211853,1.0981552600860596,-0.9519424438476562,990.46533203125,1,1.0,2,2
14.0,-1.4812623,3.3258748,8.617121000000001,1.3264716863632202,0.5712079405784607,0.9732906818389891,5.408884048461914,-2.5822958946228027,-25.1890926361084,0.2093183994293213,1.5631189346313477,-0.14510154724121094,990.4624633789062,1,1.0,2,2
14.04,-1.1777303,4.2434363,7.7081156,1.205164670944214,0.8268711566925049,0.8166969418525696,6.89936113357544,-4.1359381675720215,-26.40563774108887,-0.044920682907104485,1.3002707958221436,0.5464334487915039,990.4701538085938,1,1.0,2,2
14.08,-0.7284143,4.619994,8.198129,0.9851875901222228,0.981334388256073,0.8539810776710509,8.401218414306639,-5.101043701171875,-25.11789894104004,-0.9404960870742798,0.7544918060302734,-0.33917951583862305,990.4269409179688,1,1.0,2,2
14.12,-1.0486467,4.7463074,7.1541924,0.7090178132057191,0.9846633076667786,0.8041800260543823,10.039632797241213,-7.043281555175781,-25.795610427856445,-0.7256085872650146,1.1578645706176758,0.3127074241638184,990.3909301757812,1,1.0,2,2
14.16,-0.72360563,5.551855000000001,6.3256736,0.9472372531890868,0.986927092075348,0.7262824773788452,11.919816970825195,-9.286148071289062,-26.10807228088379,-1.0958755016326904,0.7881131172180176,0.9943790435791016,990.4141235351562,1,1.0,2,2
14.2,-1.0032097,5.785416000000001,6.1812754,0.7138112187385559,1.144586205482483,0.8264171481132507,13.645999908447266,-10.726011276245117,-24.82711601257324,-1.0744045972824097,0.5732836723327637,1.0409522056579592,990.4212036132812,1,1.0,2,2
14.24,-1.12986,5.902196,6.673655,0.640973687171936,0.8697481155395508,0.7944592833518982,14.88323211669922,-11.832881927490234,-24.568078994750977,-0.7002018690109253,0.7094845771789551,0.4766626358032226,990.4082641601562,1,1.0,2,2
14.28,-0.76180077,6.340719,7.109222,0.6786572337150574,0.3678759038448334,0.7688928842544556,15.129816055297852,-13.129518508911133,-24.761159896850586,-0.8230766654014587,0.6930794715881348,-0.17040109634399414,990.4060668945312,1,1.0,2,2
14.32,-0.4702183,6.7291929999999995,7.400389,0.4289860129356384,0.4585564732551575,0.8987217545509338,15.786052703857422,-14.570009231567385,-23.93116950988769,-1.2813730239868164,0.1788930892944336,-0.7723827362060547,990.4415283203124,1,1.0,2,2
14.36,-0.7904507,6.6124125,6.6452527,0.27399006485939026,0.7674829363822937,0.9278833270072936,16.676214218139652,-14.52610969543457,-24.917734146118164,-0.8535819053649902,0.5247964859008789,-0.2626595497131348,990.4613647460938,1,1.0,2,2
14.4,-0.577735,6.700593,6.1173673,0.5669373273849487,0.8139550089836121,0.8443932533264159,17.380359649658207,-15.342706680297852,-23.43876838684082,-0.9465991258621216,0.7739272117614746,-0.019575119018554688,990.4461669921876,1,1.0,2,2
14.44,-0.41520724,7.208231,5.501896400000001,0.8343183398246765,0.5945107936859131,0.8173621892929077,17.50791358947754,-17.014719009399414,-22.74471473693848,-1.0181750059127808,0.5770764350891113,0.30213212966918945,990.4127197265624,1,1.0,2,2
14.48,-0.47733027,7.508524,5.071067,0.619401216506958,0.8239420056343079,0.8312104940414429,18.391521453857425,-18.927026748657227,-22.076120376586914,-1.0603758096694946,0.32326555252075195,0.7128558158874512,990.430419921875,1,1.0,2,2
14.52,-0.9313971999999999,7.2344465,5.693642,0.4948985278606415,0.8456467390060425,0.7081724405288696,19.510164260864254,-19.671222686767575,-21.20415687561035,-0.6940112113952637,0.5398716926574707,-0.027115345001220703,990.42529296875,1,1.0,2,2
14.56,-1.024589,7.351227000000001,4.6591762999999995,0.4468283653259277,0.7650862336158752,0.5585029125213623,20.56138610839844,-20.846630096435547,-21.37435340881348,-0.35640764236450195,0.8987154960632324,0.3989372253417969,990.4276123046876,1,1.0,2,2
14.6,-0.9672168999999999,7.7468509999999995,4.4484962999999995,0.4311155676841736,1.0777411460876465,0.6253480911254883,20.980716705322266,-21.34993553161621,-20.71666145324707,-0.60093092918396,0.4048004150390625,0.8997478485107422,990.4251098632812,1,1.0,2,2
14.64,-1.27072,7.5037556,4.76807,0.3678653836250305,0.952838897705078,0.6518464684486389,22.10585021972656,-22.562442779541016,-19.35638999938965,-0.27902841567993164,0.7245798110961914,0.2664346694946289,990.4097900390624,1,1.0,2,2
14.68,-0.77121603,7.882697,4.673383,0.21526627242565155,0.8371247053146362,0.6449222564697266,23.043048858642575,-23.37075233459473,-19.14557456970215,-0.2194591760635376,0.7163186073303223,0.4637846946716309,990.4195556640624,1,1.0,2,2
14.72,-0.20001508,8.199672,5.4592957,0.1870366632938385,0.7965115904808044,0.7897979617118835,23.347373962402344,-23.87672996520996,-17.931116104125977,-1.1358460187911987,0.13885498046875,-0.5649800300598145,990.4225463867188,1,1.0,2,2
14.76,-0.35056445,8.063825,4.929044,0.123520165681839,0.6320614814758301,0.7915290594100952,23.95657539367676,-24.46500587463379,-18.29850196838379,-0.6507694721221924,0.4568405151367188,-0.30127382278442383,990.4251098632812,1,1.0,2,2
14.8,-0.099610314,8.192521000000001,4.424831,0.2529495358467102,0.7437810301780701,0.7017804384231567,24.113510131835934,-24.95067596435547,-17.524423599243164,-0.9073069095611572,0.3786888122558594,0.17725658416748047,990.4447631835938,1,1.0,2,2
14.84,0.033715963,8.11627,4.2851195,0.09702145308256148,0.9122257828712464,0.7379994392395021,24.35041618347168,-25.88786125183105,-17.352121353149414,-0.8756455779075623,0.4711885452270508,0.25296878814697266,990.4069213867188,1,1.0,2,2
14.88,0.21002877,8.23068,4.027045200000001,0.151222825050354,0.5265994668006897,0.744659960269928,25.34658050537109,-26.536174774169922,-16.235944747924805,-0.9608084559440612,0.3534412384033203,0.34606075286865234,990.43701171875,1,1.0,2,2
14.92,0.3581748,8.066235,5.130159,0.151222825050354,0.5265994668006897,0.744659960269928,24.94923210144043,-27.066577911376953,-15.681772232055664,-1.0052046775817869,0.43007469177246094,-0.4068937301635742,990.43701171875,1,1.0,2,2
14.96,0.5708482,7.7778587,5.326633999999999,0.14110682904720304,0.16347713768482208,0.6621037125587463,24.657752990722656,-27.60314750671387,-15.220537185668945,-0.6546497941017151,1.176525592803955,-0.91485595703125,990.4368286132812,1,1.0,2,2
15.0,1.259112,8.418961999999999,4.5809627,0.22459712624549866,0.31514400243759155,0.6108380556106567,24.7198486328125,-28.96685218811035,-15.920156478881836,-1.5040603876113892,0.26163673400878906,-0.5136451721191406,990.4470825195312,1,1.0,2,2
15.04,0.9460069999999999,8.116286,3.5370239999999997,0.2525605857372284,0.7014350891113281,0.6505191922187805,24.964527130126953,-29.37045288085937,-15.010431289672852,-1.0928114652633667,0.5787515640258789,0.9533672332763672,990.4342651367188,1,1.0,2,2
15.08,1.3976706,8.542893,3.3239732,0.16893765330314636,0.9652209877967834,0.5041787028312683,25.211162567138672,-29.034521102905273,-14.452219009399414,-1.3420981168746948,0.1828632354736328,1.0076210498809814,990.4111328125,1,1.0,2,2
15.12,2.0692048,8.735939,3.8068800000000005,0.05255787074565888,0.6813281774520874,0.5874025821685791,25.42926406860352,-29.6210994720459,-13.450708389282227,-2.0048599243164062,0.18942546844482425,0.5318493843078613,990.4237670898438,1,1.0,2,2
15.16,1.5935866,8.554811,3.7524318999999995,0.0236628707498312,0.199695885181427,0.4121668338775635,25.25735855102539,-30.15057945251465,-13.778154373168945,-1.7241308689117432,0.2791719436645508,0.3701629638671875,990.3906860351562,1,1.0,2,2
15.2,1.1227483,8.914686999999999,3.6459050000000004,-0.2134911417961121,0.4400459229946137,0.15490582585334778,26.01729393005371,-30.124080657958984,-13.434907913208008,-1.311619758605957,-0.036426544189453125,1.036428451538086,990.4234619140624,1,1.0,2,2
15.24,0.98649585,9.164931,4.992841,-0.4013767242431641,0.6240701675415039,0.14638382196426392,26.384479522705078,-29.411306381225586,-13.841131210327148,-0.9729040265083312,-0.477142333984375,-0.2358436584472656,990.4158935546876,1,1.0,2,2
15.28,0.49414814,8.9289875,4.498093,-0.3401238322257996,0.2191368192434311,0.123214453458786,26.3217887878418,-29.311878204345703,-13.99125862121582,-0.740126371383667,-0.3585205078125,-0.12201833724975585,990.4208984375,1,1.0,2,2
15.32,0.88128436,9.00287,5.004671599999999,-0.25876402854919434,0.43911370635032654,0.0754108652472496,27.25224876403809,-28.651447296142575,-13.942331314086914,-0.656972348690033,-0.30920886993408203,0.3612174987792969,990.4336547851562,1,1.0,2,2
15.36,0.91232526,9.193533,5.740869,-0.33812591433525085,0.5475042462348938,0.17940732836723328,28.23154067993164,-28.629920959472656,-14.171480178833008,-1.5365720987319946,-0.737884521484375,-1.2644195556640625,990.4158935546876,1,1.0,2,2
15.4,-0.4738458,9.095819,2.92863,-0.1963124126195908,0.4600194096565247,0.0928547829389572,28.39499664306641,-28.37164306640625,-13.980829238891602,0.2914120852947235,-0.29851531982421875,0.8485794067382812,990.48876953125,1,1.0,2,2
15.44,-0.062810555,8.428502,5.262689,0.16281481087207794,0.6464404463768005,-0.18531204760074613,28.8774528503418,-28.23632431030273,-13.447214126586914,-0.29471373558044434,0.16148853302001953,0.7670047283172607,990.4585571289062,1,1.0,2,2
15.48,0.09967488,8.395137,6.718516,0.05482396855950356,-0.6696926355361938,-0.204619824886322,28.212871551513672,-28.17338943481445,-14.041345596313475,-0.5253022909164429,-0.060269355773925774,-2.5033206939697266,990.6264038085938,1,1.0,2,2
15.52,-0.3831132,8.480935,4.91944,-0.628275990486145,-0.06688671559095383,-0.09596282243728638,28.382308959960934,-26.80287933349609,-14.532575607299805,-0.04071998596191406,-0.15346240997314453,0.4904017448425293,990.5221557617188,1,1.0,2,2
15.56,-0.12503171,8.345089999999999,6.3657975,-0.4831335544586182,0.2263270318508148,-0.11353955417871475,28.839168548583984,-26.480770111083984,-14.08293342590332,-0.17077195644378662,-0.1392993927001953,-0.9468274116516112,990.366943359375,1,1.0,2,2
15.6,0.13304985,8.318873,6.417873999999999,-0.33386322855949396,-0.3466516137123108,-0.09210101515054704,28.76329803466797,-27.18319320678711,-15.26188850402832,-0.5331844091415405,-0.068817138671875,-1.1844978332519531,990.389404296875,1,1.0,2,2
15.64,-0.32344934,8.013815,5.556209,-0.21348819136619568,-0.11016316711902617,-0.05428404733538628,28.51573944091797,-26.25631523132324,-14.89305305480957,-0.1828777641057968,0.10300922393798828,-0.4178881645202637,990.4149169921876,1,1.0,2,2
15.68,-0.039078936,8.249761,5.1632514,0.02699531428515911,0.05228947475552559,-0.0823802575469017,28.522804260253906,-25.88066101074219,-15.378030776977539,-0.1082451343536377,0.1632862091064453,0.15659713745117188,990.4022827148438,1,1.0,2,2
15.72,0.27875018,8.218779,5.5491023,0.17240405082702634,-0.09698061645030977,0.021483054384589195,28.62509155273437,-25.521488189697266,-15.414804458618164,-0.6225433349609375,0.08155059814453125,-0.3525390625,990.4097900390624,1,1.0,2,2
15.76,0.41255677,8.483322,4.9501976999999995,0.12673115730285645,-0.13293331861495972,0.039858963340520866,28.89604949951172,-26.374252319335934,-15.021745681762695,-0.7071176767349243,-0.2471504211425781,0.1395726203918457,990.4298095703124,1,1.0,2,2
15.8,0.15680933,8.306961,4.959664,0.15030038356781006,0.00035774661228060717,0.02095065079629421,28.45608901977539,-26.15394592285156,-15.197786331176758,-0.5665451288223267,0.03060626983642578,0.2442288398742676,990.4525756835938,1,1.0,2,2
15.84,0.22124511,8.249764,5.130094000000001,0.03578481450676918,0.014605602249503137,-0.054549787193536765,28.57758712768555,-26.619586944580078,-15.266244888305664,-0.4511749446392059,0.1387939453125,0.08823108673095703,990.4422607421876,1,1.0,2,2
15.88,0.5773100999999999,8.3546295,5.3810150000000005,-0.027333883568644524,-0.0691489651799202,-0.015665829181671143,28.506309509277344,-26.89729118347168,-14.854089736938475,-0.8417186737060547,0.05191612243652344,-0.22106599807739255,990.4752197265624,1,1.0,2,2
15.92,0.041941583,8.05672,5.236612999999999,-0.027333883568644524,-0.0691489651799202,-0.015665829181671143,28.506309509277344,-26.89729118347168,-14.854089736938475,-0.5137003064155579,0.2191734313964844,-0.016664505004882812,990.4752197265624,1,1.0,2,2
15.96,-0.11343253,8.2164,5.061437000000001,-0.03718727454543114,0.039641022682189934,-0.0924978330731392,28.62603759765625,-26.363983154296875,-14.518827438354492,-0.18445158004760745,0.1829547882080078,0.02439737319946289,990.475341796875,1,1.0,2,2
16.0,0.10640797,8.326032000000001,5.118247,-0.00589457293972373,-0.026804883033037186,0.04864983633160591,28.849279403686523,-26.102169036865234,-14.72252082824707,-0.4824043810367584,-0.02082347869873047,-0.012897491455078123,990.4522094726562,0,0.0,0,1
16.04,0.17807463,8.48333,5.220034,-0.00589457293972373,-0.026804883033037186,0.04864983633160591,28.849279403686523,-26.102169036865234,-14.72252082824707,-0.5172841548919678,-0.16201400756835938,-0.024433612823486328,990.4522094726562,0,0.0,0,1
16.08,-0.20911996,8.254535,5.122976,0.004625197499990463,-0.022277561947703358,0.054242592304944985,28.94601821899414,-26.117172241210934,-14.351625442504885,-0.21167199313640594,0.015158653259277344,0.00806427001953125,990.4523315429688,0,0.0,0,1
16.12,-0.20437062,8.2116375,5.130075,-0.047439265996217735,0.053888730704784386,0.005773228593170643,28.801128387451172,-25.72563934326172,-15.045068740844727,-0.08349427580833435,0.07925796508789062,0.31665706634521484,990.421630859375,0,0.0,0,1
16.16,0.14452457,8.297437,5.6768956,-0.09071500599384308,-0.024141917005181316,0.09112772345542908,28.36932182312012,-25.866249084472656,-15.509187698364258,-0.4629884660243988,-0.017233848571777344,-0.346956729888916,990.4241333007812,0,0.0,0,1
16.2,-0.113615245,8.018593,5.5703692,-0.09071500599384308,-0.024141917005181316,0.09112772345542908,28.36932182312012,-25.866249084472656,-15.509187698364258,-0.27059459686279297,0.1700725555419922,-0.2469682693481445,990.4241333007812,0,0.0,0,1
16.24,-0.26420957,8.152058,5.4141307,-0.031725749373435974,0.03458068519830704,0.032937824726104736,28.60500717163086,-26.17277526855469,-14.834711074829102,0.056044220924377434,0.2124614715576172,-0.2480907440185547,990.4287109375,0,0.0,0,1
16.28,-0.03480944,8.476184,5.1418996,0.03605194017291069,-0.003635689383372665,0.05557480081915856,28.123390197753906,-26.044246673583984,-14.845003128051758,-0.18184293806552887,-0.16453075408935547,0.16453838348388672,990.4593505859376,0,0.0,0,1
16.32,-0.1901835,8.314122,5.170304,0.07413541525602341,-0.02813679724931717,0.07994283735752106,28.6245174407959,-26.36545753479004,-14.441522598266602,-0.07208660244941711,-0.04595375061035156,0.045119285583496094,990.4287109375,0,0.0,0,1
16.36,-0.35750708,8.102012,5.326536,-0.03878223523497582,0.04496686160564423,0.011899249628186226,28.254018783569336,-26.50105285644531,-15.377290725708008,0.053949058055877686,0.04822921752929688,0.038324832916259766,990.4440307617188,0,0.0,0,1
16.4,-0.37904668,7.968547999999999,5.4732995,-0.1034967005252838,0.02446049265563488,-0.018726950511336327,28.725120544433594,-26.533973693847656,-15.524946212768555,0.2452605813741684,0.2496609687805176,-0.0772542953491211,990.43115234375,0,0.0,0,1
16.44,-0.030151471000000003,8.078178999999999,5.859151,-0.1519659012556076,-0.014022198505699636,0.03986266627907753,28.53150177001953,-26.609878540039066,-15.567651748657227,-0.1418711096048355,0.0852060317993164,-0.5619049072265625,990.4386596679688,0,0.0,0,1
16.48,-0.20942456,7.8398523,5.7620926,-0.18445613980293274,-0.050507523119449615,0.12841282784938812,28.14111137390137,-25.65827941894531,-15.871114730834961,-0.052331820130348206,0.3374886512756348,-0.5304417610168457,990.4639282226562,0,0.0,0,1
16.52,-0.3050511,7.949484,5.402275,-0.13651899993419647,0.0557524636387825,0.08819925785064697,28.04977798461914,-25.37500762939453,-15.950601577758787,0.17064963281154633,0.2443699836730957,0.05391263961791992,990.4766845703124,0,0.0,0,1
16.56,-0.3791685,7.9089694,5.8946505,-0.06035235524177551,0.02699030376970768,0.08407148718833922,28.274402618408203,-25.217632293701172,-15.532514572143555,0.272902250289917,0.1876373291015625,-0.23563337326049805,990.4508056640624,0,0.0,0,1
16.6,-0.34813026,8.02575,5.8307332999999995,-0.1495678871870041,-0.08233241736888885,0.041993696242570884,27.670448303222656,-24.887310028076172,-15.99766731262207,0.32482248544692993,0.13805818557739258,-0.3349771499633789,990.4508056640624,0,0.0,0,1
16.64,-0.2501747,8.185431,5.9443564,-0.09856809675693512,-0.08486246317625046,0.027479611337184903,27.825153350830078,-25.532379150390625,-16.368684768676758,0.19306625425815585,-0.08852481842041016,-0.2919888496398926,990.4381713867188,0,0.0,0,1
16.68,-0.52026415,8.044818,5.783384,-0.12093833088874816,-0.0762072429060936,-0.0060760658234357825,27.86528778076172,-25.442066192626953,-16.457136154174805,0.30498385429382324,-0.09848690032958984,-0.1749897003173828,990.4584350585938,0,0.0,0,1
16.72,-0.8238120999999999,7.8517733,6.041405999999999,-0.1233348697423935,-0.039455700665712364,-0.09049807488918304,28.206876754760746,-24.542503356933594,-16.947336196899414,0.7762396931648254,0.0667123794555664,-0.32958555221557617,990.4354248046876,0,0.0,0,1
16.76,-0.7378061,7.978088400000001,5.9277773,-0.1503656506538391,-0.058364175260066986,-0.09928636997938156,27.826324462890625,-23.42413711547852,-16.49222755432129,0.6785154938697815,0.05270528793334961,-0.16216802597045898,990.4378051757812,0,0.0,0,1
16.8,-0.66135967,7.918506599999999,6.4698644,-0.1117495596408844,-0.08832476288080215,-0.01100253313779831,27.57109832763672,-24.13719367980957,-16.488157272338867,0.6552523374557495,0.06500816345214844,-0.8046736717224121,990.450439453125,0,0.0,0,1
16.84,-0.58934045,7.670637599999999,6.919662,-0.15515875816345215,-0.18925851583480835,0.011101809330284595,27.46123504638672,-23.291473388671875,-17.136590957641598,0.6416738033294678,0.186373233795166,-0.9410929679870604,990.4678344726562,0,0.0,0,1
16.88,-0.44835275,7.5753070000000005,7.0972004,-0.17739750444889069,-0.1439846158027649,0.029077542945742607,27.302345275878906,-23.54532814025879,-17.55915641784668,0.5109593868255615,0.2852702140808105,-1.387430191040039,990.470458984375,0,0.0,0,1
16.92,-0.37189236,7.816019,6.010653,-0.04743683338165283,-0.05183906480669975,0.08966377377510071,27.117420196533203,-24.350444793701172,-17.79149055480957,0.4450689852237701,0.10731029510498047,-0.016514301300048828,990.4729614257812,0,0.0,0,1
16.96,-0.22851476,7.906583,5.8425803,0.20582972466945648,0.060013581067323685,0.10937122255563736,27.06869506835937,-24.81788444519043,-17.140748977661133,0.3891146183013916,0.09131574630737303,-0.11452054977416992,990.4549560546876,0,0.0,0,1
17.0,-0.23570092,8.035281,5.314693,0.3107583224773407,-0.05357017368078232,0.08433759212493896,26.357749938964844,-24.95706558227539,-16.638132095336914,0.28144046664237976,0.03425121307373047,0.07259130477905272,990.4448852539062,0,0.0,0,1
17.04,-0.18313959,8.137762,4.715789,0.262555330991745,0.05761668086051941,0.031740274280309684,26.63607406616211,-24.80204200744629,-16.305170059204098,0.33216357231140137,-0.0018396377563476558,0.8440704345703125,990.4295654296876,0,0.0,0,1
17.08,-0.049321562,7.9757004,5.4401517,-0.05475972592830658,-0.035593930631875985,-0.07571804523468018,26.93580818176269,-25.73273849487305,-16.681821823120114,0.15861466526985168,0.20403099060058594,-0.07878255844116211,990.4216918945312,0,0.0,0,1
17.12,-0.29071817,7.813637700000001,5.7194796,-0.05475972592830658,-0.035593930631875985,-0.07571804523468018,26.93580818176269,-25.73273849487305,-16.681821823120114,0.3169633448123932,0.2416682243347168,-0.12846708297729492,990.4216918945312,0,0.0,0,1
17.16,-0.27400532,7.894669,5.283913,-0.14291012287139893,0.014340275898575785,-0.10381431132555008,26.75672721862793,-25.53153419494629,-16.89695167541504,0.2617960274219513,0.2058711051940918,0.2611794471740723,990.4549560546876,0,0.0,0,1
17.2,-0.16408633,7.885136599999999,5.660297,0.021540092304348942,-0.04464872181415558,-0.05707580223679544,27.07616806030273,-24.91643524169922,-16.82819938659668,0.2369628995656967,0.13709163665771484,0.11676311492919922,990.4547119140624,0,0.0,0,1
17.24,0.03425902,8.066266,5.7833896,-0.07087136059999466,-0.04451558366417885,-0.027514668181538585,26.820697784423828,-24.629060745239254,-16.497713088989258,-0.0053648706525564185,-0.044922828674316406,-0.13422489166259766,990.4671020507812,0,0.0,0,1
17.28,0.027072847,8.001919000000001,5.906482700000001,-0.07819488644599915,-0.03306403011083603,-0.021256176754832268,27.132770538330078,-25.02175521850586,-16.368852615356445,-0.02677917666733265,-0.02282094955444336,-0.09821510314941406,990.4644775390624,0,0.0,0,1
17.32,0.05573517,7.7898064,6.420164,-0.12293579429388045,-0.017617736011743546,-0.06999191641807556,26.57131576538086,-24.335796356201172,-16.476442337036133,-0.13925941288471222,0.08627843856811522,-0.5728707313537598,990.4669189453124,0,0.0,0,1
17.36,-0.24540898,7.711158800000001,6.105325,-0.18085932731628415,-0.04291777312755585,-0.10221607238054277,27.05002593994141,-24.361351013183594,-17.010622024536133,0.1243448480963707,0.28804874420166016,-0.6070394515991211,990.45947265625,0,0.0,0,1
17.4,0.09633052,8.209265,5.3975290000000005,-0.08285494148731233,0.019799595698714256,-0.08716915547847748,27.20655059814453,-24.372817993164066,-17.034067153930664,-0.008626170456409454,-0.24065542221069336,0.5469365119934082,990.4517822265624,0,0.0,0,1
17.44,0.19191012,8.1187,6.3254714000000005,0.05802632495760918,-0.010560440830886364,0.00244620768353343,26.91108322143555,-24.069839477539066,-17.314203262329098,-0.29886260628700256,-0.29244327545166016,-0.4456300735473633,990.45166015625,0,0.0,0,1
17.48,0.14409560000000002,7.973321,6.2284144999999995,-0.09164304286241533,-0.08592785894870758,-0.051482688635587685,26.86279106140137,-23.799224853515625,-16.937677383422848,-0.19650068879127505,-0.03963470458984375,-0.4521398544311523,990.4591674804688,0,0.0,0,1
17.52,0.12734973,7.9780880000000005,6.005896,-0.016541806980967518,-0.02281102165579796,-0.10554474592208862,27.217365264892575,-23.836284637451172,-16.45125389099121,-0.2847775220870972,-0.14097881317138672,-0.2367825508117676,990.448974609375,0,0.0,0,1
17.56,-0.12599632,7.901822999999999,5.9325113,0.03552310541272164,0.010744752362370493,-0.1196594163775444,27.290306091308594,-23.451194763183594,-17.63979148864746,-0.10729281604290007,-0.01379108428955078,-0.15580177307128906,990.4537963867188,0,0.0,0,1
17.6,-0.111673415,7.7945757,5.8922677000000006,0.05323342978954315,-0.005633726716041565,-0.13590455055236814,27.764312744140625,-23.587085723876953,-17.242982864379886,-0.07634575664997101,0.16229915618896484,-0.13689327239990234,990.4584350585938,0,0.0,0,1
17.64,-0.12841922,7.825558999999999,5.693421,0.05323342978954315,-0.005633726716041565,-0.13590455055236814,27.682514190673828,-23.76917839050293,-16.988763809204098,-0.19480931758880612,0.09681844711303712,-0.02228832244873047,990.4584350585938,0,0.0,0,1
17.68,-0.15472463,7.849392,5.593996499999999,0.07054412364959718,0.0154052022844553,-0.09356025606393814,27.3904972076416,-23.937463760375977,-16.625982284545902,-0.0648953914642334,0.07353782653808594,0.2259979248046875,990.4508056640624,0,0.0,0,1
17.72,-0.042415738,7.882758,6.0555997,0.06295427680015564,-0.009495358914136888,-0.06919228285551071,27.59781265258789,-23.84830474853516,-17.279016494750973,-0.2726942002773285,0.09107160568237303,-0.380584716796875,990.443115234375,0,0.0,0,1
17.76,0.03882444,8.001923,5.8023076,0.012620736844837666,-0.033197499811649316,-0.05108274519443512,28.13657569885254,-24.450439453125,-16.710931777954098,-0.3276098370552063,0.030386447906494137,-0.1670856475830078,990.4278564453124,0,0.0,0,1
17.8,0.08841210599999999,7.9757214,5.975058,0.04218195751309395,0.0347130261361599,-0.05148214474320412,27.83667755126953,-24.04596519470215,-17.45823097229004,-0.4143700897693634,0.018833637237548828,-0.38188791275024414,990.43798828125,0,0.0,0,1
17.84,0.14274433,8.052002,5.9016166,0.05536475032567978,-0.031732812523841865,-0.08876629918813705,27.86463928222656,-23.967437744140625,-16.928247451782227,-0.4577082097530365,-0.016559123992919922,-0.3128089904785156,990.450439453125,0,0.0,0,1
17.88,0.19047898,8.173551,5.5631013,0.06575722247362137,0.012476555071771143,-0.08290128409862517,27.85162353515625,-24.24307060241699,-16.833124160766598,-0.5798507332801819,-0.1983957290649414,0.0245661735534668,990.4580078125,0,0.0,0,1
17.92,0.04702142,8.061538,5.591501999999999,0.13207188248634338,0.01647097058594227,-0.09781412035226822,27.921241760253906,-24.072757720947266,-16.468896865844727,-0.4540241658687592,-0.06406879425048828,-0.10831165313720703,990.4330444335938,0,0.0,0,1
17.96,-0.27806859999999994,7.9662085000000005,5.5962305,0.10863668471574783,-0.006831768900156021,-0.16332755982875824,28.163015365600586,-24.37338447570801,-16.103639602661133,-0.32416248321533203,0.034157752990722656,-0.18195152282714844,990.4296264648438,0,0.0,0,1
18.0,-0.41913623,7.9066285999999995,5.0494010000000005,0.04831674322485924,0.03458024933934212,-0.193554162979126,28.90466690063477,-24.78486251831055,-16.655759811401367,-0.07950055599212646,0.16930627822875974,0.5608949661254883,990.4100341796876,0,0.0,0,1
18.04,-0.2758055,8.028176,5.804533,0.08440316468477249,0.005152248777449131,-0.16319388151168826,28.715368270874023,-23.85592269897461,-16.603960037231445,-0.3133639693260193,-0.01228618621826172,-0.02073383331298828,990.4119873046876,0,0.0,0,1
18.08,-0.44794184,8.063927,5.6175180000000005,-0.01107046939432621,-0.14664790034294128,-0.09288623929023744,28.72297668457031,-23.848552703857425,-16.990484237670902,-0.1177164614200592,0.09989023208618164,-0.2937788963317871,990.4221801757812,0,0.0,0,1
18.12,-0.33806974,8.414271000000001,4.9831023000000005,-0.007874066010117529,-0.05423639342188835,-0.00460225623100996,28.127338409423828,-23.35293197631836,-16.61976432800293,-0.12060993909835815,-0.3078145980834961,0.5829758644104004,990.4600219726562,0,0.0,0,1
18.16,-0.14694095,8.390441000000001,5.705093,0.09985131025314332,-0.1172201931476593,0.1210991069674492,28.60699462890625,-24.220989227294922,-16.257959365844727,-0.2250734567642212,-0.3153038024902344,0.08867406845092772,990.4065551757812,0,0.0,0,1
18.2,-0.2019721,8.144963,5.8755255,-0.005209687165915966,-0.19525083899497986,0.17356359958648682,27.88385009765625,-24.79225730895996,-16.959924697875973,-0.1405039131641388,-0.1389150619506836,-0.5407528877258301,990.3965454101562,0,0.0,0,1
18.24,-0.24744362,8.192631,4.9736156,0.009571455419063568,-0.08060196042060852,0.16823752224445346,27.369569778442386,-24.85259437561035,-16.569208145141598,0.07492461800575256,-0.032807350158691406,0.38877201080322266,990.43408203125,0,0.0,0,1
18.28,0.041671097000000004,8.309413000000001,5.2079629999999995,0.12848210334777832,0.02459271065890789,0.1795562207698822,27.080596923828125,-25.017934799194336,-16.361040115356445,-0.2555813193321228,-0.2339038848876953,0.4258127212524414,990.44677734375,0,0.0,0,1
18.32,-0.22606128,7.918557000000001,5.3925985999999995,0.04299531877040863,-0.013756874948740005,0.1441364735364914,27.23809814453125,-24.659631729125977,-16.560243606567386,-0.005952358245849609,0.1402273178100586,0.0569148063659668,990.43408203125,0,0.0,0,1
18.36,-0.058831543,7.851826700000001,5.5511956,-0.13050886988639832,0.14523361623287198,0.03521354123950005,27.47987365722656,-24.960262298583984,-16.19498634338379,-0.11771632730960845,0.19478797912597656,0.13735437393188474,990.4337158203124,0,0.0,0,1
18.4,0.03909102,7.7517309999999995,5.591432,-0.11586087942123413,0.13058613240718842,0.03348274528980255,27.47530746459961,-24.964683532714844,-15.963068008422852,-0.2650545835494995,0.2796611785888672,-0.08541393280029297,990.436279296875,0,0.0,0,1
18.44,0.13940352,7.611119,5.3215656,-0.07764395326375961,0.12992024421691895,0.02442827075719833,27.873741149902344,-25.170862197875977,-16.320337295532227,-0.376899391412735,0.3863186836242676,0.2106952667236328,990.4768676757812,0,0.0,0,1
18.48,0.19908768,7.587288,5.099042400000001,-0.0586017407476902,0.1564185917377472,0.023496426641941067,27.807600021362305,-24.60017013549805,-17.11338233947754,-0.4813338816165924,0.4745926856994629,0.5038661956787109,990.436279296875,0,0.0,0,1
18.52,0.14166665,7.7660350000000005,5.321553700000001,-0.07764272391796112,0.08730950951576233,0.03681248053908348,28.339189529418945,-24.47161674499512,-16.432981491088867,-0.4933663010597229,0.2726755142211914,0.4311122894287109,990.4413452148438,0,0.0,0,1
18.56,-0.20971234,7.737437700000001,5.4990883,-0.17964108288288114,0.021396225318312645,0.03987537696957588,27.86409568786621,-23.599143981933594,-17.026697158813473,-0.12494899332523345,0.1963939666748047,0.3988447189331055,990.4261474609376,0,0.0,0,1
18.6,0.045943767,8.023432000000001,6.154797,-0.2745821177959442,0.042168766260147095,0.017371946945786476,28.22848320007324,-23.88974189758301,-17.6047306060791,-0.1553463488817215,-0.06405305862426758,-0.2290201187133789,990.430908203125,0,0.0,0,1
18.64,0.20600381,8.171197,6.251847,-0.2964194118976593,-0.04624820873141289,0.09127486497163773,27.943828582763672,-23.050233840942386,-17.302057266235348,-0.4559059739112854,-0.3822216987609863,-0.2701220512390137,990.4482421875,0,0.0,0,1
18.68,0.07927561,8.073483999999999,6.429382,-0.25300928950309753,-0.010029344819486141,0.07849196344614029,27.822467803955078,-22.47867584228516,-17.93267250061035,-0.2885675430297852,-0.326993465423584,-0.4169578552246094,990.4435424804688,0,0.0,0,1
18.72,-0.021163642000000003,7.887589500000001,6.384398,-0.21625709533691406,-0.0017736519221216442,-0.0003372740466147661,27.58786964416504,-22.908729553222656,-18.41024208068848,-0.27195248007774353,-0.25307321548461914,-0.2746419906616211,990.4482421875,0,0.0,0,1
18.76,-0.12399283,7.744594599999999,6.3370489999999995,-0.18150223791599274,0.041768893599510186,-0.05333387479186058,27.784969329833984,-22.09182929992676,-18.796358108520508,-0.14179594814777374,-0.07919454574584961,-0.31014537811279297,990.4607543945312,0,0.0,0,1
18.8,-0.19655633,7.677826,5.9039903,-0.14448373019695282,0.05881301313638688,-0.07104361802339554,28.16557693481445,-21.57762908935547,-18.50016975402832,-0.117732971906662,-0.06907129287719728,0.2725858688354492,990.4104614257812,0,0.0,0,1
18.84,-0.21806546,7.594411,6.689901400000001,-0.03423212096095085,0.015004564076662062,-0.0759718120098114,28.14136505126953,-21.49528312683105,-17.962366104125977,-0.0986028015613556,-0.013107776641845705,-0.31391000747680664,990.4376220703124,0,0.0,0,1
18.88,-0.14875829,7.439497500000001,6.786957000000001,-0.16580326855182648,-0.014421538449823856,-0.06878604739904404,28.17250823974609,-21.307891845703125,-18.286073684692386,-0.12664705514907834,0.16182756423950195,-0.6758246421813965,990.4178466796876,0,0.0,0,1
18.92,-0.10335016,7.532445399999999,6.3419228,-0.06606797128915788,-0.07434261590242386,-0.050809726119041436,28.095821380615234,-21.853858947753906,-18.16532325744629,-0.2054053544998169,0.05951881408691406,-0.2901406288146973,990.4454956054688,0,0.0,0,1
