Timestamp,Ax,Ay,Az,Gx,Gy,Gz,Mx,My,Mz,LiAx,LiAy,LiAz,P,Value,Type,GroupType,Activities
0.0,0.040429442999999995,-0.1480368,9.764918,-9.987899102270605e-05,-0.0026900891680270433,-0.00016711122589185834,-0.8714809417724609,20.95939826965332,-37.61066436767578,-1.0421139001846311,0.10324795544147493,0.0041713714599609375,987.8026123046876,0,13.0,1,1
0.04,0.047533214000000004,-0.14326866,9.779116,0.00019729218911379576,0.0006478624418377876,-0.0010776679264381528,-5.296165466308594,20.556474685668945,-37.21319580078125,-1.0410029888153076,0.09820495545864104,-0.0004520416259765625,987.800048828125,0,13.0,1,1
0.08,0.045077324,-0.1480336,9.772008,-0.0004678620025515556,0.000780917180236429,-0.0002784478128887713,-5.46070671081543,21.03477668762207,-37.60074996948242,-1.0296670198440552,0.09794645011425017,-0.0192108154296875,987.676513671875,0,13.0,1,1
0.12,0.052181065,-0.14326538,9.78147,-6.775232031941414e-05,-0.00015129163512028754,-0.0004113331669941545,-5.372416973114014,20.748559951782227,-37.36665344238281,-1.0421336889266968,0.11229224503040314,-0.014286994934082031,987.6635131835938,0,13.0,1,1
0.16,0.049725235,-0.1504137,9.786199,-6.775232031941414e-05,-0.00015129163512028754,-0.0004113331669941545,-5.208962440490723,21.006837844848636,-37.176002502441406,-1.0307869911193848,0.1123446673154831,-0.00937175750732422,987.6635131835938,0,13.0,1,1
0.2,0.049659252,-0.14564551,9.769623,0.000332357594743371,-0.0002845528360921889,0.00025472897686995566,-5.455299377441406,21.303041458129886,-37.30934143066406,-1.038783073425293,0.10771486908197404,-0.018683433532714844,987.7215576171876,0,13.0,1,1
0.24,0.04959327,-0.13372745,9.767248,0.0008656247518956661,0.0003811336937360466,-0.0004107883432880044,-5.092435836791992,21.01097297668457,-37.81007385253906,-1.0274369716644287,0.08370162546634674,0.005167961120605469,987.6934814453124,0,13.0,1,1
0.28,0.049527317,-0.14564229999999997,9.76961,0.001265734783373773,-0.00015160128532443196,-0.0009431475773453712,-5.206897735595703,20.6400203704834,-37.15485382080078,-1.0301265716552734,0.107489712536335,-0.013561248779296877,987.69091796875,0,13.0,1,1
0.32,0.049461365,-0.15279041,9.783807000000001,-6.520887836813927e-05,0.0006472430541180074,-0.0009428749326616526,-5.326192378997803,20.84476661682129,-37.76432800292969,-1.028173327445984,0.11229410767555237,-0.013364791870117188,987.6578369140624,0,13.0,1,1
0.36,0.035055935,-0.14563896,9.769598,0.00046805862803012127,0.00011450813326518984,-0.0005431286990642548,-5.531008720397949,21.126840591430664,-37.364349365234375,-1.0024216175079346,0.11701374500989915,0.010491371154785156,987.6848754882812,0,13.0,1,1
0.4,0.0493294,-0.13610429999999998,9.757756,0.0006018525455147027,-0.0005513848154805602,-0.0004096983466297388,-5.588728427886963,20.75648307800293,-36.9488639831543,-1.0243180990219116,0.09772220253944396,0.001220703125,987.7001953125,0,13.0,1,1
0.44,0.04448366,-0.13848592,9.767219,0.0003361721755936742,-0.0004183300188742578,-0.0006757416995242237,-5.3634233474731445,20.6514835357666,-37.13140487670898,-1.0128939151763916,0.0975579470396042,-0.008063316345214844,987.6798095703124,0,13.0,1,1
0.48,0.037247986000000004,-0.14563413,9.781417,-0.000728455255739391,0.0003805143642239273,-0.000675469171255827,-5.1432271003723145,20.91035270690918,-37.18048477172852,-1.0108447074890137,0.1162133812904358,-0.01259613037109375,987.71240234375,0,13.0,1,1
0.52,0.04196179,-0.14563258,9.764839,0.0003374438965693116,-0.00015222061483655125,-9.407056495547296e-06,-5.393587112426758,20.8338565826416,-36.98346328735352,-1.0088379383087158,0.10663481801748276,-0.002926826477050781,987.6695556640624,0,13.0,1,1
0.56,0.04428577400000001,-0.14324762,9.771935000000001,-6.139418110251427e-05,-0.0002854817430488765,-0.00027545040939003235,-5.189313888549805,20.92006492614746,-37.48188781738281,-1.001861333847046,0.1067887544631958,-0.01217937469482422,987.6895751953124,0,13.0,1,1
0.6,0.053779423,-0.14324601,9.769561999999999,0.000871982891112566,-0.0008183199097402394,-0.0004080634098500013,-5.205375671386719,20.64149284362793,-37.23215866088867,-1.0332167148590088,0.09260035306215286,0.006966590881347656,987.6865844726562,0,13.0,1,1
0.64,0.05610329,-0.15277751,9.762455000000001,0.0006063032196834682,0.00011368239938747139,0.0003911566745955497,-5.095479965209961,21.008031845092773,-37.65546417236328,-1.02638041973114,0.10665857791900636,-0.011769294738769531,987.6963500976562,0,13.0,1,1
0.68,0.046477735,-0.14562602,9.76955,7.430696859955789e-05,0.0007793688564561307,-0.00014120264677330852,-5.3376874923706055,20.57060432434082,-37.74651718139648,-1.00540030002594,0.12083710730075835,-0.016321182250976562,987.6639404296876,0,13.0,1,1
0.72,0.06314111,-0.14324115,9.776646000000001,7.49428290873766e-05,0.0007792657124809921,-0.0006735618226230145,-5.414619445800781,21.02506446838379,-37.29934692382813,-1.0132744312286377,0.1015225350856781,-0.011422157287597656,987.6940307617188,0,13.0,1,1
0.76,0.051125616,-0.15277265,9.781374000000001,-5.757913459092378e-05,0.0009123203926719725,-0.00027381558902561665,-5.426115036010742,20.75090980529785,-37.281532287597656,-1.0065021514892578,0.10600262880325316,-0.011228561401367188,987.660888671875,0,13.0,1,1
0.8,0.05344954,-0.15515424,9.764797,-5.694362334907054e-05,-0.0004193622153252363,0.00039224658394232387,-5.411032676696777,20.65972328186035,-37.35550308227539,-1.0039774179458618,0.1106659695506096,0.0032215118408203125,987.6937866210938,0,13.0,1,1
0.84,0.05338359,-0.14323635,9.771892999999999,0.00047632423229515547,0.00037948222598060966,-0.0005395864136517048,-5.3976101875305185,20.461145401000977,-36.65309143066406,-1.0020570755004885,0.10084810853004456,-0.010794639587402344,987.6836547851562,0,13.0,1,1
0.88,0.05095935,-0.14800198,9.752953,-5.5671902373433106e-05,-0.0002864107373170554,-0.0001398402382619679,-5.1141791343688965,20.25229835510254,-36.45359802246094,-0.99958598613739,0.10059183090925217,0.013115882873535156,987.6885375976562,0,13.0,1,1
0.92,0.05570671,-0.14800127,9.767152000000001,-0.00018834543880075214,0.00011298448953311889,-0.0006722643738612533,-5.71617603302002,21.322153091430664,-37.27025985717773,-1.002202033996582,0.10539645701646803,0.013327598571777344,987.6912841796876,0,13.0,1,1
0.96,0.05564329,-0.13608326,9.778982000000001,0.0006079844897612928,0.0009183967486023904,-4.008063115179539e-06,-5.580140113830566,21.133607864379886,-37.51114273071289,-1.0001609325408936,0.09075044095516203,-0.01014995574951172,987.6680908203124,0,13.0,1,1
1.0,0.050800055,-0.138465,9.752937,-0.0005898259114474058,-0.00107907154597342,-0.00013690406922250986,-5.282170295715332,21.201868057250977,-37.48406982421875,-0.9928463697433472,0.0855635330080986,0.013767242431640623,987.6701049804688,0,13.0,1,1
1.04,0.05551642,-0.1336969,9.764769,0.0002097326796501875,0.0009181983768939973,-0.0008024318376556039,-5.266544818878174,20.74239158630371,-37.45959091186523,-1.0002148151397705,0.09045015275478364,-0.0049591064453125,987.683349609375,0,13.0,1,1
1.08,0.05784285,-0.14799501,9.774231,0.0006098182639107107,-0.0005466383299790323,0.0002630938251968473,-5.605195045471191,20.952112197875977,-37.49666213989258,-1.0069692134857178,0.09966406226158142,-0.014158248901367188,987.6734008789062,0,13.0,1,1
1.12,0.050609767,-0.13846029999999998,9.764755000000001,7.7798031270504e-05,-0.0008130533969961108,-0.0009350656764581801,-5.7156333923339835,20.9538631439209,-37.17180633544922,-0.9952341318130492,0.10445617139339447,0.00025272369384765625,987.6881713867188,0,13.0,1,1
1.16,0.06010592,-0.13130893,9.757648,0.0003447253257036209,0.000651584705337882,-0.0010679616825655103,-5.604652404785156,20.58382606506348,-37.39820861816406,-0.9928824901580809,0.08991994708776474,0.014679908752441406,987.6802978515624,0,13.0,1,1
1.2,0.06004256,-0.13845722,9.769478,0.0006116521544754505,-0.0005469360621646047,-0.0006682255771011113,-5.302659034729004,21.024789810180664,-37.701507568359375,-0.995051920413971,0.09474184364080428,0.019664764404296875,987.6777954101562,0,13.0,1,1
1.24,0.04802963,-0.14798875,9.764738000000001,0.0010117372730746863,-0.0005470352480188012,-0.0005348059348762035,-5.454076290130615,20.67238044738769,-37.81151580810547,-0.9732270240783693,0.09951229393482207,-0.017952919006347656,987.64501953125,0,13.0,1,1
1.28,0.05513587599999999,-0.14083742,9.764732,0.0004797170404344797,-0.00041397655149921775,0.00026440381770953536,-5.795472145080566,21.511293411254886,-37.26911163330078,-0.989496886730194,0.1043040007352829,-0.008213996887207031,987.64990234375,0,13.0,1,1
1.32,0.05268255,-0.14798565,9.767095,-0.0001854608999565244,-0.0005472337943501769,0.00013150798622518778,-5.850010871887207,21.24979591369629,-37.70730590820313,-0.9818614721298218,0.09912987798452376,-0.007946014404296875,987.6773681640624,0,13.0,1,1
1.36,0.05261913,-0.14321758,9.771824,8.146604523062706e-05,-0.0009468068019486963,-0.0001345460768789053,-5.412554740905762,20.65825080871582,-37.2781982421875,-0.9842869639396667,0.09442941844463347,0.006480216979980469,987.664794921875,0,13.0,1,1
1.4,0.050165772000000004,-0.13368289,9.764714999999999,0.001546814339235425,-0.00028111637220717967,-0.0005337578477337956,-5.448668479919434,20.940645217895508,-37.520111083984375,-0.9814451932907104,0.08976301550865172,0.01621723175048828,987.6724853515624,0,13.0,1,1
1.44,0.050102352999999995,-0.14559765,9.759975,0.0006153204012662172,-0.00014805766113568095,0.0003986098163295537,-5.610740184783936,20.577932357788086,-37.08899307250977,-0.9693080186843872,0.08982180804014206,-0.002477645874023437,987.699951171875,0,13.0,1,1
1.48,0.057208657,-0.14559616,9.769438000000001,0.0006153204012662172,-0.00014805766113568095,0.0003986098163295537,-5.488668441772461,20.95625114440918,-38.1307373046875,-0.9669113159179688,0.10398980975151062,-0.002253532409667969,987.699951171875,0,13.0,1,1
1.52,0.049975514000000006,-0.14082803,9.778902,0.0003496158169582486,0.0007839486934244633,-0.0004000759217888117,-5.269451141357422,20.845361709594727,-38.00405883789063,-0.9599080085754396,0.09911320358514786,-0.016249656677246094,987.66455078125,0,13.0,1,1
1.56,0.06664139,-0.15035959,9.776527999999999,8.391169831156729e-05,-0.00014825617836322635,0.00013281789142638445,-5.4601640701293945,20.66649055480957,-37.502296447753906,-0.9814905524253844,0.1131429374217987,-0.0018320083618164067,987.6597290039062,0,13.0,1,1
1.6,0.049848675999999995,-0.1360584,9.750483500000001,0.00015920691657811403,0.0010282685980200768,0.00045018462697044015,-5.950368881225586,20.41788673400879,-36.95030975341797,-0.9593116044998168,0.09817724674940108,0.012653350830078123,987.675048828125,0,13.0,1,1
1.64,0.042615503,-0.14320664,9.769414999999999,2.6659923605620858e-05,-0.00043656793422997003,5.0972739700227976e-05,-5.374482154846191,21.115373611450195,-37.38779830932617,-0.9472341537475586,0.10253341495990753,0.0034160614013671875,987.692626953125,0,13.0,1,1
1.68,0.061671287000000005,-0.14082183,9.774142999999999,-0.0006385179003700613,-0.0003035092377103865,0.00018439273117110133,-5.594135284423828,20.48821449279785,-37.24026489257813,-0.9588168859481812,0.1026291400194168,-0.015265464782714844,987.6795654296876,0,13.0,1,1
1.72,0.05682808,-0.1575032,9.769403,2.788321580737829e-05,0.00036218122113496076,0.0003178127226419747,-5.392906188964844,20.571481704711914,-37.58408737182617,-0.9611520767211914,0.11681528389453888,0.01809978485107422,987.6871337890624,0,13.0,1,1
1.76,0.06632423400000001,-0.15035184,9.762297,0.0005611263914033772,-0.00017054979980457574,0.00045123259769752616,-5.450489521026611,20.307039260864254,-37.86767578125,-0.9580775499343872,0.11166977882385254,0.0089111328125,987.6822509765624,0,13.0,1,1
1.8,0.054311275,-0.13605057,9.752821,-0.00010405236389487982,-0.00030380699899978936,0.0005846526473760606,-5.6067166328430185,20.95063591003418,-37.41935729980469,-0.941379189491272,0.08260810375213623,0.018593788146972656,987.6693725585938,0,13.0,1,1
1.84,0.06141758,-0.14796545,9.764652,-0.00010344095062464477,0.0004950414295308292,0.0003185987588949501,-5.61114501953125,21.052133560180664,-37.88652038574219,-0.9482463598251344,0.101289764046669,0.004635810852050781,987.6616821289062,0,13.0,1,1
1.88,0.05571276,-0.1432348,9.764786,-0.00010282942093908788,0.00022862624609842896,-0.0006132448907010258,-5.471085071563722,21.236299514770508,-38.45777130126953,-0.937074899673462,0.10120665282011032,0.004780769348144531,987.652099609375,0,13.0,1,1
1.92,0.060489953,-0.14800133,9.762417999999998,-0.0003685335395857692,-0.0004372627008706331,0.0003191227442584932,-5.683511734008789,21.51101493835449,-37.6712646484375,-0.9437599182128906,0.1006089448928833,0.00977325439453125,987.6842041015624,0,13.0,1,1
1.96,0.053317725999999996,-0.15276779,9.778989,-0.000383486389182508,-0.0005645848577842116,-0.0004798168665729463,-5.60465145111084,20.583818435668945,-37.39820861816406,-0.9362568855285645,0.09049244225025176,-0.01838970184326172,987.6739501953124,0,13.0,1,1
2.0,0.050925314000000006,-0.14800115,9.774253999999999,-0.000253861304372549,-0.00016453747230116278,0.0008502484997734427,-5.690280437469482,21.76749610900879,-36.76142120361328,-0.9237769842147828,0.09026862680912018,0.005545616149902344,987.6817626953124,0,13.0,1,1
2.04,0.058092475,-0.12655161,9.762417,-0.00025383662432432175,-3.1383518944494426e-05,-8.184666512534022e-05,-5.781368732452393,21.050344467163086,-37.16732406616211,-0.9450156092643738,0.0753905400633812,-0.0036878585815429688,987.6639404296876,0,13.0,1,1
2.08,0.055700034,-0.14800103,9.774253999999999,-0.0006532863480970262,-0.0008303350768983363,0.0008502693963237108,-5.2660017013549805,20.374101638793945,-37.36113739013672,-0.9228956699371338,0.10871657729148863,-0.017621994018554688,987.6616821289062,0,13.0,1,1
2.12,0.05808741,-0.14561774,9.771885000000001,0.0008114756783470511,0.00010176649084314704,-0.0003481414751149714,-5.370352745056152,20.381742477416992,-37.34550476074219,-0.9295624494552612,0.09916550666093826,0.00630950927734375,987.6815185546876,0,13.0,1,1
2.16,0.058084845999999996,-0.13846783,9.762417,1.2552482075989246e-05,-0.00016455334844067693,0.0007171324687078595,-5.775280952453612,21.056230545043945,-37.47654724121094,-0.9221549034118652,0.09396179765462877,0.011274337768554688,987.641357421875,0,13.0,1,1
2.2,0.06047225,-0.14085098,9.769518,-0.0002537391846999526,0.0005012324545532465,5.13531849719584e-05,-5.3350791931152335,19.83549690246582,-37.62691879272461,-0.9199824333190918,0.09344613552093506,0.006731033325195313,987.67138671875,0,13.0,1,1
2.24,0.05807978,-0.13370116,9.771885000000001,0.00014575931709259748,0.0006343863205984235,5.136372055858374e-05,-5.22390604019165,21.203935623168945,-37.80110931396485,-0.9168899059295654,0.07889527082443237,-0.007199287414550781,987.6865844726562,0,13.0,1,1
2.28,0.05329746,-0.15276723,9.767151,-0.0005200059385970235,-0.0006971970433369278,5.137413972988725e-05,-5.6754961013793945,21.04417610168457,-37.26026153564453,-0.9139511585235596,0.10244305431842804,0.002526283264160156,987.6738891601562,0,13.0,1,1
2.32,0.053294927,-0.14800073,9.769518,1.2650154531002045e-05,0.0006343784043565392,0.00018454261589795348,-5.6067166328430185,20.950639724731445,-37.41935729980469,-0.9112778902053832,0.0976741462945938,0.0027618408203125,987.70166015625,0,13.0,1,1
2.36,0.060462058,-0.15038384,9.774252,0.0004121486563235521,0.0007675323868170381,-0.00021492078667506578,-5.223799228668213,20.09759330749512,-37.42844772338867,-0.9135225415229796,0.10222922265529633,0.017185211181640625,987.6688842773438,0,13.0,1,1
2.4,0.05567977,-0.14561732,9.774252,0.0008116466924548148,0.00036805457784794266,-0.00021491030929610133,-5.5253562927246085,20.394678115844727,-37.39936065673828,-0.91080242395401,0.0970996841788292,-0.0015153884887695312,987.6937866210938,0,13.0,1,1
2.44,0.043727695999999996,-0.14085065,9.760048,-0.0006530660903081298,0.0006343665299937129,0.0001845741062425077,-5.352769374847412,20.661794662475586,-37.67254257202149,-0.8984369039535522,0.0918186381459236,-0.0012750625610351562,987.6715087890624,0,13.0,1,1
2.48,0.05806458,-0.14085065,9.767149,-0.0003867257619276643,-0.00043090098188258713,0.0012498480500653384,-5.215890884399414,20.73709297180176,-37.390098571777344,-0.9009424448013306,0.08167757093906403,0.008389472961425781,987.6985473632812,0,13.0,1,1
2.52,0.050892322999999996,-0.15753348,9.776619,-0.001185649074614048,0.0011669904924929142,0.0005840688245370983,-5.551933288574219,20.21170997619629,-37.30757522583008,-0.8978254795074463,0.09543690085411073,0.008655548095703125,987.6787109375,0,13.0,1,1
2.56,0.05088976,-0.14085053,9.774251,-0.0005198346916586161,-0.00043090892722830176,0.0008503951830789447,-5.30113697052002,21.02625846862793,-37.77880859375,-0.8939871788024902,0.08069723844528197,-0.00048542022705078125,987.6608276367188,0,13.0,1,1
2.6,0.053277135,-0.13846712,9.755313000000001,0.0002791372826322913,0.0013001402840018272,0.00045093183871358633,-5.509838581085205,21.04154396057129,-37.74754333496094,-0.8974333405494691,0.08522935211658478,0.03276920318603516,987.696533203125,0,13.0,1,1
2.64,0.05566454,-0.15276669,9.769516000000001,1.2845848686993122e-05,0.00010171483154408634,0.0007172581972554326,-5.254506587982178,20.648256301879886,-37.37895202636719,-0.8849650025367737,0.09943780303001404,-0.009591102600097656,987.668701171875,0,13.0,1,1
2.68,0.060441792,-0.14323358,9.767149,1.2870412319898605e-05,-0.0006972367409616709,-0.0003479949082247913,-5.653890132904053,21.696928024291992,-37.91766357421875,-0.8866901993751526,0.08928468823432922,0.00013446807861328125,987.6763916015624,0,13.0,1,1
2.72,0.05804938,-0.1432335,9.776617,-0.0011855268385261295,0.00116697046905756,5.148944910615682e-05,-5.588590621948242,20.862398147583008,-37.64794158935547,-0.8889706134796143,0.0936506986618042,0.00034618377685546875,987.6738891601562,0,13.0,1,1
2.76,0.050877094000000005,-0.15038325,9.762413,0.00041239301208406687,0.00036801872192882,0.000317815865855664,-4.9809112548828125,20.272645950317386,-37.938026428222656,-0.8762465715408325,0.08374026417732239,0.0006122589111328125,987.6962890625,0,13.0,1,1
2.8,0.05087456,-0.14799993,9.767147999999999,-0.00012021418660879135,-0.00016461686755064875,-8.164759492501616e-05,-5.340188026428223,20.199365615844727,-37.49345397949219,-0.8731866478919983,0.0978039652109146,0.0008687973022460938,987.68896484375,0,13.0,1,1
2.84,0.06742868,-0.1479956,9.774233,0.0004124417901039124,-0.0002977788099087775,0.00018467888003215196,-5.650739669799805,20.59353828430176,-37.69961929321289,-0.8943468332290649,0.08807797729969025,-0.0036344528198242188,987.6865844726562,0,13.0,1,1
2.88,0.0457339,-0.15275766,9.774216000000001,0.0004124417901039124,-0.0002977788099087775,0.00018467888003215196,-5.138958930969238,20.28263664245605,-37.83727264404297,-0.872146487236023,0.10220521688461304,0.006093978881835938,987.6865844726562,0,13.0,1,1
2.92,0.048107295999999994,-0.14084084,9.769480999999999,0.0002797225024551153,0.0006342555861920117,5.170877557247877e-05,-5.530763626098633,20.126413345336914,-37.690773010253906,-0.8649263978004456,0.07791796326637268,0.0015611648559570312,987.6787109375,0,13.0,1,1
2.96,0.052870600000000004,-0.14322372,9.757643,-0.0003849038621410728,0.0007685843156650662,5.476671503856778e-05,-5.61432695388794,20.94327735900879,-37.03283309936523,-0.8673892021179199,0.09670232236385344,0.02542591094970703,987.6864013671876,0,13.0,1,1
3.0,0.050464213,-0.121773794,9.760009,1.4728866517543793e-05,0.0022332959342747927,-0.00034463912015780807,-5.81001091003418,21.23418617248535,-37.09668731689453,-0.8595864772796631,0.05351869761943817,0.016206741333007812,987.6835327148438,0,13.0,1,1
3.04,0.06717706,-0.13845636,9.767109,0.00041436171159148216,0.00036905886372551317,-0.00021141296019777656,-5.265022277832031,20.74386405944824,-37.53689575195313,-0.8807156682014465,0.0913599207997322,0.002231597900390625,987.65869140625,0,13.0,1,1
3.08,0.057600975,-0.14560582,9.769474,0.00011697824811562896,0.00030175692518241704,-0.0004012598656117916,-5.5373945236206055,20.48881721496582,-37.4800033569336,-0.8585180044174194,0.08636285364627838,-0.002249717712402344,987.6537475585938,0,13.0,1,1
3.12,0.057584405,-0.14560537,9.760003999999999,-0.0004154944908805192,0.0004348890215624123,0.00026459794025868183,-5.300731658935547,20.55205726623535,-36.98128128051758,-0.8605742454528809,0.09545910358428956,0.035846710205078125,987.68896484375,0,13.0,1,1
3.16,0.06234777,-0.1503715,9.764736,-0.00028217752696946263,-0.00036408437881618733,0.0006641399231739343,-5.388723373413086,21.47041130065918,-36.790504455566406,-0.8617794513702393,0.09505686163902284,0.02666854858398437,987.6864013671876,0,13.0,1,1
3.2,0.05994135,-0.15990420000000002,9.760000999999999,0.00011745531810447574,0.0005679955938830973,0.0006642080843448639,-5.369074821472168,21.38364601135254,-37.09639358520508,-0.8537364602088928,0.10408782958984376,0.01746368408203125,987.7014770507812,0,13.0,1,1
3.24,0.057534993,-0.13845433,9.764733999999999,-0.00028185959672555333,-0.0010299256537109613,0.0005311182467266917,-5.359538555145264,20.918275833129886,-36.7626953125,-0.8508365154266357,0.08467772603034973,-0.0012407302856445312,987.653564453125,0,13.0,1,1
3.28,0.052738667,-0.15275358,9.752895,-0.00014854298206046224,-0.00023100385442376137,0.0001317125279456377,-5.70387077331543,20.647897720336914,-35.693016052246094,-0.8431134223937988,0.09393556416034697,0.02266883850097656,987.6810913085938,0,13.0,1,1
3.32,0.052722215999999995,-0.13607020000000003,9.771833,-1.5225901734083893e-05,0.0008342339424416423,-0.0002676931908354163,-5.266682624816895,20.636476516723636,-36.76051330566406,-0.8449977040290833,0.07428143918514253,0.01816368103027344,987.6917114257812,0,13.0,1,1
3.36,0.038366317999999996,-0.14560296,9.774199000000001,-1.4907855074852703e-05,0.0009673401946201919,-0.00040071480907499785,-5.5253562927246085,20.394678115844727,-37.39936065673828,-0.8180915713310242,0.08815710246562958,0.01840400695800781,987.7091064453124,0,13.0,1,1
3.4,0.05268922400000001,-0.14083602,9.767095,-0.0002810649457387626,3.520885366015136e-05,0.0003983008791692555,-5.128145217895508,20.81916618347168,-37.25445556640625,-0.8391043543815613,0.07348527014255524,-0.0003042221069335937,987.668701171875,0,13.0,1,1
3.44,0.047892928,-0.14798541,9.771828,-0.0006803799769841135,0.00016834095004014668,0.0002652110415510833,-5.181436538696289,20.347307205200195,-36.37180709838867,-0.8122938871383667,0.09204790741205217,0.004658699035644531,987.6937866210938,0,13.0,1,1
3.48,0.05743602,-0.15036832,9.764725,-0.0005470628966577351,0.000834104954265058,0.0003984371141996234,-5.2106218338012695,20.89944267272949,-36.39961624145508,-0.8380302786827087,0.08691443502902985,0.004891395568847656,987.6787109375,0,13.0,1,1
3.52,0.04547006,-0.14798458,9.759989,0.0002520436537452042,-0.0003643424133770168,-9.685754776000977e-07,-5.0601840019226065,20.882089614868164,-36.11384582519531,-0.8207343816757202,0.09148462116718292,0.02879619598388672,987.6639404296876,0,13.0,1,1
3.56,0.052623212,-0.13845111,9.755253,0.0005185186746530235,0.0007008954416960478,-9.004725143313408e-07,-5.2288851737976065,20.88176918029785,-35.47195816040039,-0.8176859617233276,0.0816929042339325,0.03377056121826172,987.6942749023438,0,13.0,1,1
3.6,0.059776455,-0.14560054,9.774189,0.0006518352893181144,-0.0008970258058980107,-0.0005334641318768263,-5.026294708251953,20.44028663635254,-37.01702880859375,-0.8191146850585938,0.08160258829593657,-0.008577346801757812,987.6666870117188,0,13.0,1,1
3.64,0.06692970000000001,-0.15274991,9.77182,-0.0002801113878376782,-0.0003644198295660317,0.0006650254363194107,-4.961102485656738,20.712099075317386,-37.119964599609375,-0.835142970085144,0.1001489758491516,-0.003604888916015625,987.6812133789062,0,13.0,1,1
3.68,0.05257377,-0.14559968,9.76235,-0.0004131103050895035,0.0009671336738392713,-0.000133854104205966,-5.317198276519775,20.7476863861084,-37.52907943725586,-0.8034855127334595,0.0902327075600624,0.01556396484375,987.6515502929688,0,13.0,1,1
3.72,0.06689671,-0.15036584,9.759981,-0.00041295128175988793,0.00030131821404211223,0.0007983196410350503,-5.351385116577148,20.55735206604004,-37.0507698059082,-0.8245162963867188,0.07565139979124069,0.02525234222412109,987.661376953125,0,13.0,1,1
3.76,0.047761023,-0.14798222,9.759979,0.0006524712662212551,0.00030129242804832757,-0.0004000337794423103,-5.194859504699707,20.54588508605957,-37.07421875,-0.8068469762802124,0.08498427271842958,0.030243873596191406,987.6864013671876,0,13.0,1,1
3.8,0.05252433,-0.14798178,9.755243,0.0002531561185605824,-0.001030312734656036,0.0006652979063801467,-5.161108016967773,19.998167037963867,-37.2783203125,-0.8032443523406982,0.07508504390716553,0.030519485473632806,987.6815795898438,0,13.0,1,1
3.84,0.045338094,-0.13606499,9.769445,0.00038647308247163886,-0.0006308647571131588,-0.00013358157593756914,-5.174232482910156,20.828882217407227,-37.55586242675781,-0.8002046346664429,0.0796208530664444,-0.002390861511230469,987.6893310546876,0,13.0,1,1
3.88,0.05010146,-0.14559771,9.7670765,-0.0001459996565245092,-0.00023141669225879014,0.0006654341705143452,-5.344456195831299,20.827089309692386,-36.83666610717773,-0.8065744042396545,0.07940777391195297,0.012054443359375,987.6739501953124,0,13.0,1,1
3.92,0.042915225,-0.13844742,9.764708,-0.000678472628351301,-0.00023144249280449003,0.00026602845173329115,-5.302796363830566,20.91887092590332,-37.00242614746094,-0.7745456695556641,0.0695013776421547,0.031244277954101562,987.6741333007812,0,13.0,1,1
3.96,0.03811896,-0.14083035,9.759972,-1.252401852980256e-05,-0.0012967318762093782,-0.0005328510887920856,-5.095074653625488,20.533823013305664,-36.85793685913086,-0.780604898929596,0.07391514629125595,0.031508445739746094,987.6820068359376,0,13.0,1,1
4.0,0.04527217,-0.13129677,9.759971,0.00012079294538125396,-9.833616786636412e-05,0.00039932259824126964,-5.351385593414307,20.55735206604004,-37.0507698059082,-0.7776696085929871,0.06415343284606934,0.022258758544921875,987.6738891601562,0,13.0,1,1
4.04,0.050035477,-0.15036263,9.752868,0.0002541096764616668,3.4795928513631225e-05,-0.0002663990017026663,-4.844033241271973,20.34794807434082,-37.65558624267578,-0.7886968851089478,0.09225083142518996,0.01776885986328125,987.6893310546876,0,13.0,1,1
4.08,0.050018966,-0.13606258,9.769436,-0.0008109947084449233,-0.0012968091759830713,0.000532616744749248,-5.447583198547363,20.204065322875977,-37.32321166992188,-0.7755934000015259,0.0727420523762703,0.0038280487060546884,987.6537475585938,0,13.0,1,1
4.12,0.050002515,-0.1479785,9.755232000000001,-0.00027820427203550935,-0.00036472943611443043,0.0006658427882939577,-5.042761325836182,20.63591957092285,-37.56482696533203,-0.776958703994751,0.07696167379617691,0.04195213317871094,987.6845703125,0,13.0,1,1
4.16,0.049986005,-0.15036143,9.759964,-1.1729251127690075e-05,-0.0004979132208973169,-0.0001330367522314191,-5.384753227233887,20.210554122924805,-37.872161865234375,-0.7641165256500244,0.07676927745342255,0.027991294860839844,987.6741333007812,0,13.0,1,1
4.2,0.047579616,-0.15274425,9.764698,-1.1570460628718138e-05,-0.0003647810663096607,-0.0005324423545971513,-5.5113606452941895,21.040075302124023,-37.67023849487305,-0.7754976749420166,0.08123805373907089,0.009268760681152344,987.6769409179688,0,13.0,1,1
4.24,0.038003534,-0.13606097,9.759962,0.0002549044438637793,0.0012330884346738458,0.00039973124512471264,-5.317197799682617,20.7476863861084,-37.52907943725586,-0.7583179473876953,0.07162930816411972,0.01894664764404297,987.6689453125,0,13.0,1,1
4.28,0.045156747000000004,-0.14797689,9.757592,0.0002549044438637793,0.0012330884346738458,0.00039973124512471264,-5.371736526489258,20.48618507385254,-37.96727752685547,-0.7597836256027222,0.07109178602695465,0.03338813781738281,987.6689453125,0,13.0,1,1
4.32,0.05230993,-0.14559321,9.776529,0.00025506335077807307,-0.0006311484612524508,0.00013348343782126904,-5.513318061828613,20.300546646118164,-37.3187255859375,-0.7566074132919312,0.08501153439283371,0.009943008422851562,987.6719970703124,0,13.0,1,1
4.36,0.04990357,-0.15274264,9.776527,-0.00027740950463339686,-0.0007643322460353374,0.00039986748015508056,-5.844902038574219,20.88591957092285,-37.84077453613281,-0.7486876249313354,0.07977908849716188,0.005434036254882813,987.66162109375,0,13.0,1,1
4.4,0.047497153,-0.15035893,9.764689,-0.00014409265713766215,0.00030090546351857483,-0.000665327999740839,-5.420324802398682,20.124666213989254,-38.015625,-0.7501599788665771,0.08428771048784256,0.005671501159667969,987.66162109375,0,13.0,1,1
4.44,0.06182006,-0.15512516,9.7646885,0.00012238224735483527,-0.0008975417586043477,0.00040000368608161807,-5.629271030426025,21.1403751373291,-37.657936096191406,-0.7565195560455322,0.09346427023410796,0.001163482666015625,987.6689453125,0,13.0,1,1
4.48,0.045074314000000004,-0.14559163,9.767054,-1.061666989699006e-05,-0.0002317778707947582,0.00013375608250498772,-5.5921783447265625,21.227739334106445,-37.59178161621094,-0.7345198988914491,0.08371473103761673,0.020305633544921875,987.6795654296876,0,13.0,1,1
4.52,0.04983759,-0.13367482,9.757585,-0.0005430896417237818,0.00043398604611866176,0.0005332978907972574,-5.068657875061035,20.190576553344727,-38.07366943359375,-0.7453563213348389,0.05486997216939926,0.025285720825195312,987.6666870117188,0,13.0,1,1
4.56,0.03787163,-0.1455908,9.769419000000001,0.0009218066115863619,-0.0004981454694643617,0.00040020811138674617,-5.461685657501222,20.66501808166504,-37.424991607666016,-0.7374978065490723,0.0688209980726242,0.01129913330078125,987.6591796875,0,13.0,1,1
4.6,0.042634904,-0.13605727,9.771784,-0.0003467649803496897,-0.00024835352087393403,0.000240376015426591,-5.401900291442871,20.66855812072754,-37.8193359375,-0.7299026250839233,0.06370402127504349,0.002026557922363281,987.6817626953124,0,13.0,1,1
4.64,0.037838638,-0.13605691,9.776518,0.0003191837458871305,1.7936545191332698e-05,-0.0004253454389981926,-4.884575366973877,20.731843948364254,-38.364662170410156,-0.7219740152359009,0.07302548736333847,-0.0072231292724609375,987.6689453125,0,13.0,1,1
4.68,0.05029291,-0.1527522,9.764728,-0.0003464471665211022,0.000683700549416244,-2.580357249826193e-05,-5.599649906158447,21.326295852661133,-37.904335021972656,-0.728901743888855,0.0774582102894783,0.011895179748535156,987.679443359375,0,13.0,1,1
4.72,0.05559444400000001,-0.14084865,9.767141,-8.106610039249063e-05,1.8062419258058068e-05,-0.00015936203999444842,-5.55247688293457,20.57999992370605,-37.406028747558594,-0.7268680334091187,0.0674719363451004,0.03568267822265625,987.6717529296876,0,13.0,1,1
4.76,0.04843086,-0.15038191,9.750572,-8.979853009805083e-05,0.0005521118291653694,-0.00016310467617586255,-5.548996925354004,21.321001052856445,-37.83484649658203,-0.7190158367156982,0.08626062422990799,0.03589439392089844,987.66162109375,0,13.0,1,1
4.8,0.03648749,-0.14561547,9.76951,-0.0004893310251645744,-0.0003799842088483274,0.00010318611748516558,-5.717997074127197,20.68854331970215,-37.61782455444336,-0.7111989855766296,0.07612653821706772,0.0076923370361328125,987.6666870117188,0,13.0,1,1
4.84,0.046053199999999996,-0.13131596,9.767142999999999,-8.991610957309605e-05,1.9499188056215647e-05,0.00036947670741938055,-5.6266632080078125,20.4052677154541,-37.5383415222168,-0.7223541140556335,0.04755876958370209,0.017377853393554688,987.661865234375,0,13.0,1,1
4.88,0.05083909599999999,-0.14799906,9.774246,0.00017634098185226319,-0.00011364919191692024,0.00010313565144315362,-5.305703163146973,21.0218448638916,-37.54689407348633,-0.7099405527114868,0.07575400918722153,0.01757049560546875,987.6845703125,0,13.0,1,1
4.92,0.050845206,-0.14084939999999999,9.774246,-9.003380546346307e-05,0.00015267624985426664,0.000103110505733639,-5.324127674102783,20.47794914245605,-37.74317932128906,-0.7115541696548462,0.06599364429712297,0.02251815795898437,987.666748046875,0,13.0,1,1
4.96,0.041291654,-0.15276586,9.764778,0.0007088551647029817,-0.0009125777869485321,0.0005025591817684472,-5.786776542663574,20.782075881958008,-37.45873260498047,-0.7085070610046387,0.07992854714393616,0.022722244262695312,987.6641235351562,0,13.0,1,1
5.0,0.048467487000000004,-0.14323296,9.771881,-0.0004896253230981529,0.0002858532825484872,-0.0004295717808417976,-5.720061302185059,21.055360794067386,-37.638973236083984,-0.705291211605072,0.0746714174747467,0.013463973999023438,987.666748046875,0,13.0,1,1
5.04,0.04369378,-0.14561643,9.778982000000001,-0.0004896841128356755,-0.0005130848730914295,0.0003693506005220115,-5.488806247711182,20.8503360748291,-37.43165969848633,-0.6971752643585205,0.07417799532413483,0.008950233459472656,987.6796264648438,0,13.0,1,1
5.08,0.0556494,-0.14085,9.752944,-9.026908082887529e-05,-0.00011360146163497119,-0.00042962230509147053,-5.460707664489746,21.034780502319336,-37.600746154785156,-0.6991485357284546,0.06920723617076874,0.03754234313964844,987.6795654296876,0,13.0,1,1
5.12,0.05326563,-0.14561667,9.767147,-0.000223485694732517,1.9566039554774758e-05,-0.0008291212725453079,-5.19830846786499,21.01714515686035,-37.717132568359375,-0.6959351301193237,0.06892191618680954,0.02354907989501953,987.6773681640624,0,13.0,1,1
5.16,0.046101987000000004,-0.14800014,9.755312,0.00017592910444363952,-0.00011358235497027637,-0.00016335671534761786,-5.320785045623778,21.1130313873291,-37.472923278808594,-0.7070972919464111,0.07321382313966751,0.028490066528320312,987.6671752929688,0,13.0,1,1
5.2,0.050887913,-0.13608392,9.769516000000001,-0.00022360350703820586,-0.001045678392983973,-0.00042969774222001433,-5.50570821762085,20.307912826538086,-37.70525360107422,-0.6990057229995728,0.0680759996175766,0.005031585693359375,987.6998291015624,0,13.0,1,1
5.24,0.04372430000000001,-0.14085059,9.762414999999999,-0.00022366229677572846,0.00028591055888682604,-0.00042972288792952895,-5.335622787475586,20.20379066467285,-37.725364685058594,-0.6863952875137329,0.06766562908887863,0.028899192810058594,987.6773681640624,0,13.0,1,1
5.28,0.048510194000000006,-0.13846745,9.769516000000001,-0.0006231949082575737,-0.0005130275385454297,0.00023604143643751738,-5.697369575500487,20.97153663635254,-38.09946823120117,-0.678695559501648,0.05771681666374207,0.029087066650390625,987.66943359375,0,13.0,1,1
5.32,0.046126395,-0.14323415,9.771885000000001,-0.00035693793324753637,0.0009517193539068104,-0.0008292473503388463,-5.452417373657227,20.77977180480957,-38.58789825439453,-0.6804630160331726,0.0620412677526474,0.029277801513671875,987.6571655273438,0,13.0,1,1
5.36,0.046132475,-0.14323433,9.762417,0.0005751089775003492,-0.0011787981493398547,-0.0001634827349334955,-5.269451141357422,20.845361709594727,-38.00405883789063,-0.667568564414978,0.07152087241411209,0.020023345947265625,987.665283203125,0,13.0,1,1
5.4,0.048528552,-0.15276752,9.757683,0.0007082080119289457,1.9632861949503425e-05,-0.0008292976417578758,-5.577095985412598,21.13655662536621,-37.66575622558594,-0.6692508459091187,0.0760277807712555,0.020218849182128903,987.674560546875,0,13.0,1,1
5.44,0.03897503,-0.14561789,9.776621,-0.000357114418875426,-0.0011787791736423971,-0.0009624808444641529,-5.670088768005371,21.31243705749512,-36.96885681152344,-0.6614415049552917,0.0805353969335556,0.02040958404541016,987.66943359375,0,13.0,1,1
5.48,0.031811416,-0.14800127,9.783723,0.00017545855371281505,0.00041912571759894485,-0.000696189992595464,-5.218935966491699,20.734155654907227,-37.23548889160156,-0.6441441774368286,0.06564745306968689,0.006389617919921875,987.6845703125,0,13.0,1,1
5.52,0.041377127,-0.15515132,9.764786,-0.00022407405776903036,-0.000512970262207091,-0.00029674143297597766,-5.626907825469972,21.40569496154785,-37.21192169189453,-0.6649328470230103,0.06540379673242569,0.034989356994628906,987.6697387695312,0,13.0,1,1
5.56,0.03660339,-0.13846852,9.769522,-0.00022413284750655293,-0.0002466448349878192,-3.0450930353254076e-05,-5.532530307769775,21.125368118286133,-37.28704452514648,-0.6570146083831787,0.050788432359695435,0.020981788635253903,987.68212890625,0,13.0,1,1
5.6,0.050948917999999996,-0.15991817,9.771889,4.212401108816266e-05,-0.0003797931713052094,-0.0002967921318486333,-5.070860385894775,20.451475143432614,-37.39573669433594,-0.663802981376648,0.09343796223402023,-0.0025196075439453125,987.6773681640624,0,13.0,1,1
5.64,0.04856512,-0.14561863,9.752952,0.0007078550406731665,0.0006854798411950469,-0.00016365927876904607,-5.388585090637207,21.576326370239254,-37.48957824707031,-0.6561173796653748,0.06950973719358444,0.045004844665527344,987.6951904296876,0,13.0,1,1
5.68,0.050746262,-0.15276332,9.757666,0.0007078550406731665,0.0006854798411950469,-0.00016365927876904607,-5.723649024963379,21.42070198059082,-37.58280944824219,-0.6479185819625854,0.07401725649833679,0.04048633575439453,987.6951904296876,0,13.0,1,1
5.72,0.043574035,-0.15276326,9.757667,0.00017516448860988018,1.969968434423208e-05,0.00010263145668432115,-5.567963600158691,21.1453914642334,-38.129581451416016,-0.6356258988380432,0.06898055225610733,0.04538631439208984,987.6622314453124,0,13.0,1,1
5.76,0.05791092,-0.13608028,9.762402,0.0003092964761890471,-0.0005130902281962335,-0.0004295827238820493,-5.2975502014160165,20.66091728210449,-37.83496856689453,-0.6612067818641663,0.05899113416671752,0.02663516998291016,987.665283203125,0,13.0,1,1
5.8,0.041179,-0.13369693,9.774237,-0.0004885899252258241,-0.0003801045240834355,-0.0002959700650535524,-5.362306594848633,21.127161026000977,-38.00624084472656,-0.6328113079071045,0.06336743384599686,0.02217006683349609,987.6654663085938,0,13.0,1,1
5.84,0.04834622,-0.15991296,9.750565,-0.0004885899252258241,-0.0003801045240834355,-0.0002959700650535524,-5.362306594848633,21.127161026000977,-38.00624084472656,-0.636081337928772,0.0917852520942688,0.031729698181152344,987.6654663085938,0,13.0,1,1
5.88,0.043563843,-0.14561315,9.7624,0.00031038216548040515,-0.00011379257193766533,-0.00016280164709314704,-5.360677719116211,20.02229118347168,-37.71088790893555,-0.6379736661911011,0.06776518374681473,0.027169227600097656,987.6728515625,0,13.0,1,1
5.92,0.048341095,-0.13846333,9.752932000000001,-0.00022222503321245318,1.9361323211342096e-05,0.00023668268113397065,-5.52978515625,20.49617958068848,-37.86652374267578,-0.6450873613357544,0.048374220728874213,0.05098438262939453,987.6748046875,0,13.0,1,1
5.96,0.048338592,-0.14084649999999999,9.7624,0.0005767468246631324,0.0008183050667867063,0.00010353518882766366,-5.472607612609863,21.234827041625977,-38.380462646484375,-0.6372398734092712,0.05271339416503906,0.04169654846191406,987.6881713867188,0,13.0,1,1
6.0,0.050725937,-0.15276285,9.764766999999999,-0.0008879415108822287,-0.0002469663741067052,-2.9601796995848414e-05,-5.8318843841552725,21.16155433654785,-37.935890197753906,-0.6277757287025452,0.06625348329544067,0.04670333862304688,987.7085571289062,0,13.0,1,1
6.04,0.045943618,-0.14322968,9.776602,-0.0008879415108822287,-0.0002469663741067052,-2.9601796995848414e-05,-5.8318843841552725,21.16155433654785,-37.935890197753906,-0.6213569641113281,0.06619033962488174,0.013658523559570312,987.7085571289062,0,13.0,1,1
6.08,0.057890594000000004,-0.15514602,9.7624,-0.00035528541775420314,-0.0007796021527610719,-0.00016274926019832492,-5.12205696105957,20.82505989074707,-37.56367874145508,-0.6326535940170288,0.07560621947050095,0.04224300384521485,987.6705322265624,0,13.0,1,1
6.12,0.05788803,-0.14084627,9.771868,0.00023904436966404316,0.00024302827659994366,-0.00012481876183301208,-5.643810272216798,20.8632755279541,-37.485511779785156,-0.629647970199585,0.056061722338199615,0.023477554321289062,987.6805419921876,0,13.0,1,1
6.16,0.038766325,-0.14084627,9.760031,0.00010591087630018592,-0.00015644951781723648,0.00014150753850117326,-5.492936134338379,21.58397102355957,-37.47394943237305,-0.6078435182571411,0.051143690943717963,0.023632049560546875,987.6552124023438,0,13.0,1,1
6.2,0.045933485,-0.15037926,9.760031,-0.00029353826539590955,0.0007756520644761622,0.0001415180740877986,-5.6132097244262695,21.4189510345459,-37.90766525268555,-0.6146911382675171,0.06497254222631453,0.03798866271972656,987.682861328125,0,13.0,1,1
6.24,0.03876123,-0.15514572,9.776602,0.0001059596543200314,0.0003761742846108973,0.0006741601973772049,-5.592720985412598,21.59603309631348,-37.69023132324219,-0.6120262145996094,0.07912002503871918,0.014470100402832031,987.6807250976562,0,13.0,1,1
6.28,0.04592842,-0.13369618,9.755297,-0.00029348948737606406,-0.00015646139218006283,-0.00012477702694013715,-5.6768798828125,21.14861488342285,-37.88203430175781,-0.6090869903564453,0.03609387576580048,0.043044090270996094,987.6834106445312,0,13.0,1,1
6.32,0.05070561,-0.14322923,9.764764999999999,0.000904956425074488,-0.0006890972144901752,0.0008073391509242357,-5.40853214263916,21.030961990356445,-37.60856628417969,-0.6104104518890381,0.05961202085018157,0.04323863983154297,987.6731567382812,0,13.0,1,1
6.36,0.045923322,-0.14084591,9.764764999999999,0.00010603299597278236,-0.0016212067566812036,-0.0009237037156708539,-5.6739745140075675,21.0456485748291,-37.33756637573242,-0.6025527119636536,0.06410085409879683,0.024473190307617188,987.7183837890624,0,13.0,1,1
6.4,0.05787027,-0.15276219,9.762398,-0.00016025820514187217,0.0007756322738714516,-0.000257903418969363,-5.095778465270996,20.37589454650879,-38.0803337097168,-0.5996034145355225,0.06842260807752609,0.02463531494140625,987.68115234375,0,13.0,1,1
6.44,0.048308134,-0.14561234,9.769499,-0.0009591815178282561,-0.0012217408511787653,0.0004078967031091452,-5.062272071838379,20.82860374450684,-37.9580192565918,-0.6013222932815552,0.05853240191936492,0.029539108276367188,987.6580810546876,0,13.0,1,1
6.48,0.033966183999999996,-0.15037881,9.762397,-2.705148654058576e-05,-2.3323387722484767e-05,0.0005410651792772113,-5.715930938720702,20.321725845336914,-37.5966796875,-0.5796232223510742,0.07235079258680344,0.034412384033203125,987.6862182617188,0,13.0,1,1
6.52,0.043523252000000005,-0.14084567,9.764764,-0.00016018474707379937,0.00024298863718286162,0.000274759775493294,-5.880610466003418,20.694116592407227,-37.28515625,-0.5816254019737244,0.057642780244350426,0.03929901123046875,987.6530151367188,0,13.0,1,1
6.56,0.045910627,-0.15514524,9.757662,-0.0002933184732683003,0.0003761424450203776,-0.0003910194500349462,-5.418505668640137,20.75827980041504,-37.668060302734375,-0.5885167121887207,0.062214866280555725,0.020505905151367188,987.6836547851562,0,13.0,1,1
6.6,0.04351818599999999,-0.15037863,9.760029,0.0010382854379713537,-0.0001564931444590911,-0.0006573248538188636,-5.5469322204589835,20.954179763793945,-37.813697814941406,-0.5649186372756958,0.05736564844846725,0.04915809631347656,987.6630249023438,0,13.0,1,1
6.64,0.03395605,-0.14322866,9.760029,0.00023936229990795255,-0.00042281305650249124,0.0006742650293745099,-5.7873191833496085,21.15036964416504,-37.55718231201172,-0.5685150623321533,0.06689372658729552,0.0350189208984375,987.6736450195312,0,13.0,1,1
6.68,0.052431047,-0.15989591,9.774173,0.0009051763336174189,0.0011750783305615187,0.00014164374442771077,-5.819303512573242,20.699132919311523,-37.75680541992188,-0.5795556306838989,0.07164676487445831,0.030488967895507806,987.6963500976562,0,13.0,1,1
6.72,0.052403092000000005,-0.14797886,9.764702,0.00010988564463332297,-2.1292464225552976e-05,-0.0009193572914227843,-5.560629844665527,20.940927505493164,-37.11795043945313,-0.5814818143844604,0.06164824217557908,0.030640602111816406,987.6862182617188,0,13.0,1,1
6.76,0.042815566,-0.138445,9.755230000000001,0.0005103787989355624,-0.0008204056648537518,1.3185199350118635e-05,-5.753567695617676,20.60264778137207,-37.76128768920898,-0.5688505172729492,0.05695850402116776,0.035541534423828125,987.6940307617188,0,13.0,1,1
6.8,0.05712706,-0.1455941,9.76943,0.0005106480675749482,-0.0009536072611808776,1.330056693404913e-05,-5.566579818725586,21.04094886779785,-37.5078125,-0.5846730470657349,0.04750621318817139,0.030986785888671875,987.6889038085938,0,13.0,1,1
6.84,0.03797993,-0.13606037,9.762327,0.0010435490403324368,0.00024477049009874463,0.0006792055792175232,-5.502366542816162,20.942995071411133,-37.43498992919922,-0.5581592321395874,0.06207529455423355,0.035861968994140625,987.6633911132812,0,13.0,1,1
6.88,0.040341853999999996,-0.14559282,9.769426,0.00037802866427227855,-0.0005542208673432468,0.0008124788873828948,-5.652804374694824,20.960351943969727,-37.72076416015625,-0.5600876212120056,0.04734684526920319,0.03127765655517578,987.6940307617188,0,13.0,1,1
6.92,0.04031396,-0.15274189999999999,9.767056,0.0006446136976592243,-0.0006874224636703731,0.00027996243443340063,-6.002949237823486,20.89591407775879,-37.74002075195313,-0.5527968406677246,0.0665038600564003,0.021942138671875,987.6710815429688,0,13.0,1,1
6.96,0.052235544,-0.14320813,9.764687,0.0007780410232953727,0.0010435872245579958,0.00014691997785121202,-5.9211530685424805,21.0780086517334,-37.994232177734375,-0.5596017241477966,0.06129869818687439,0.02681827545166016,987.6768188476562,0,13.0,1,1
7.0,0.045037925,-0.15035723,9.75995,-0.0005532695795409381,-0.0001548780855955556,-0.0002524384763091802,-5.147953510284424,20.37971305847168,-38.07251739501953,-0.5519996881484985,0.0706183984875679,0.022230148315429688,987.6817626953124,0,13.0,1,1
7.04,0.04739982,-0.13605697,9.759947,-0.0005532695795409381,-0.0001548780855955556,-0.0002524384763091802,-5.087869644165039,21.01539802551269,-38.0419921875,-0.5538206100463867,0.03690321743488312,0.04605484008789063,987.6817626953124,0,13.0,1,1
7.08,0.047371924,-0.15035595,9.778881,-0.00028668454615399236,-0.0013533432502299547,-0.0005186391063034534,-5.790225028991699,21.25333595275879,-38.101646423339844,-0.5464218854904175,0.06503178179264069,0.03671646118164063,987.6815185546876,0,13.0,1,1
7.12,0.05690359999999999,-0.15035523,9.774144999999999,-0.0002864152775146067,0.0006439821445383133,0.0005467398441396654,-5.661255836486816,20.68914222717285,-37.85755920410156,-0.5585222244262695,0.05027520656585693,0.022624969482421875,987.6490478515624,0,13.0,1,1
7.16,0.044926195999999995,-0.14082141,9.771774,-0.00015298795187845826,0.001176570076495409,-0.0010510400170460343,-5.472064018249512,20.86654090881348,-38.28201293945313,-0.5461653470993042,0.04500911384820938,0.01803112030029297,987.6668701171876,0,13.0,1,1
7.2,0.04728818,-0.15273713,9.776506,0.00011386635014787316,-0.000687728403136134,0.0006802439456805588,-5.568399906158447,20.407339096069336,-37.855377197265625,-0.5373039245605469,0.04956576973199845,0.037174224853515625,987.652099609375,0,13.0,1,1
7.24,0.040090499999999994,-0.14320339999999998,9.769403,0.00011386635014787316,-0.000687728403136134,0.0006802439456805588,-5.568399906158447,20.407339096069336,-37.855377197265625,-0.5405480861663818,0.05430562794208527,0.01831531524658203,987.652099609375,0,13.0,1,1
7.28,0.052012086,-0.14081936,9.764666,0.00011413550237193704,-0.00015514028200414034,0.00014772743452340364,-5.039717674255371,20.638864517211914,-37.71944046020508,-0.542127788066864,0.04018954932689667,0.037415504455566406,987.6903686523438,0,13.0,1,1
7.32,0.061543763,-0.14320196,9.757562,0.0010465099476277828,-0.0009541315957903863,0.0008136325050145388,-5.763105392456055,21.068017959594727,-38.09498596191406,-0.5487452745437622,0.04933220148086548,0.04702949523925781,987.6674194335938,0,13.0,1,1
7.36,0.042396665,-0.14796777,9.762293,0.00011467369040474297,-0.0009541753679513931,-0.0002515156520530581,-5.7125892639160165,20.956811904907227,-37.326419830322266,-0.5219491124153137,0.06833885610103607,0.028237342834472656,987.6878051757812,0,13.0,1,1
7.4,0.044758618,-0.15511699,9.767025,0.0005144167807884513,-0.0005547452019527555,0.0008138632983900608,-5.986345291137695,20.80620002746582,-37.89129638671875,-0.5293724536895752,0.06343941390514374,0.03780937194824219,987.6699829101562,0,13.0,1,1
7.44,0.054290295,-0.14319994,9.755187,0.0003815279924310744,0.000377316668163985,-0.0002512849168851972,-5.661255359649657,20.68914222717285,-37.85755920410156,-0.5361030101776123,0.058241389691829674,0.04741477966308594,987.6600341796876,0,13.0,1,1
7.48,0.04948252400000001,-0.14558248,9.75045,0.000382066413294524,-0.0005548762856051326,1.52618158608675e-05,-5.426955699920653,20.487062454223636,-37.80485534667969,-0.5285459756851196,0.06282873451709747,0.06175327301025391,987.659912109375,0,13.0,1,1
7.52,0.04706472,-0.1312821,9.757549000000001,-1.713825622573495e-05,0.00011086967424489558,0.000281692948192358,-5.342115879058838,20.67210578918457,-38.21367645263672,-0.5168882608413696,0.03390691429376602,0.03818035125732422,987.6676025390624,0,13.0,1,1
7.56,0.05420655,-0.15034766,9.759913000000001,-0.00015002716099843383,0.0007766156923025846,0.00041496628546155984,-5.742615699768066,21.24509620666504,-37.87754821777344,-0.5142683982849121,0.05759532004594802,0.028839111328125,987.6652221679688,0,13.0,1,1
7.6,0.051788688,-0.12651427,9.771747999999999,-4.8865214921534055e-05,-6.968436355236918e-05,-0.0004901026259176433,-5.28635311126709,20.302934646606445,-38.27764892578125,-0.5210198163986206,0.04268662631511688,0.02423572540283203,987.662841796875,0,13.0,1,1
7.64,0.037927657000000004,-0.14320888,9.767056,-0.0009807015303522348,-6.972806295379996e-05,-0.0004899872583337128,-5.580981254577637,20.869760513305664,-38.034461975097656,-0.5090929269790649,0.06129302084445954,0.04801750183105469,987.6728515625,0,13.0,1,1
7.68,0.057555765,-0.15513779,9.767103,-5.0748465582728386e-05,0.00046325311996042734,0.000707511673681438,-5.495299339294434,21.318647384643555,-37.91996765136719,-0.5076510310173035,0.05178675055503845,0.03383827209472656,987.6428833007812,0,13.0,1,1
7.72,0.052788615,-0.1503715,9.762369,0.00020832661539316177,0.0007307444466277957,-0.0006271708407439291,-5.363828659057617,21.125688552856445,-37.928932189941406,-0.5244651436805725,0.06570560485124588,0.029209136962890625,987.6807250976562,0,13.0,1,1
7.76,0.0408518,-0.13607217,9.760003999999999,0.000740836258046329,0.0012633961159735918,0.00017172435764223334,-5.595520496368408,20.592660903930664,-37.86204147338867,-0.4984539151191712,0.04188157618045807,0.0340423583984375,987.6756591796876,0,13.0,1,1
7.8,0.055203915,-0.15275542,9.769473,0.00020808225963264704,-0.0006007952033542098,0.0011037775548174977,-5.489349365234375,21.218626022338867,-37.53010559082031,-0.5181190967559814,0.0604155957698822,0.029500961303710938,987.6738891601562,0,13.0,1,1
7.84,0.036097348,-0.13130625,9.769475,-0.00045782967936247587,-0.00033445953158661723,-0.00022785417968407276,-5.627205848693848,20.773557662963867,-37.63679504394531,-0.4977893233299256,0.03169683367013931,0.03428840637207031,987.6864624023438,0,13.0,1,1
7.88,0.043279767000000004,-0.14322294,9.755272999999999,-0.0003247938584536314,0.0005976659012958407,-0.0004942223313264549,-5.441059112548828,20.94801139831543,-37.906639099121094,-0.4904298782348633,0.05973029881715775,0.04860496520996094,987.6686401367188,0,13.0,1,1
7.92,0.050462127,-0.14798982,9.762375,7.45577272027731e-05,-0.0006007358315400778,0.0001715148682706058,-5.32649040222168,20.21262550354004,-38.18919372558594,-0.5025941133499146,0.059669189155101776,0.02976703643798828,987.6561889648438,0,13.0,1,1
7.96,0.062424302,-0.14322354,9.750541,-0.00019188027363270518,0.0009971793042495847,0.0005709363031201066,-5.255347728729248,20.384408950805664,-37.90227508544922,-0.5002150535583496,0.04960087686777115,0.04880714416503906,987.6738891601562,0,13.0,1,1
8.0,0.05048749,-0.14084059999999998,9.764746,-0.000990950153209269,0.00033140950836241245,0.0005708839744329453,-5.3533124923706055,21.03008460998535,-37.770992279052734,-0.5023909211158752,0.049217455089092255,0.03945255279541016,987.686767578125,0,13.0,1,1
8.04,0.048110247,-0.1289245,9.755278,-5.896692164242268e-05,0.0004645872977562249,-0.0006275898194871843,-5.379345893859863,20.478818893432614,-37.58075714111328,-0.4862005114555359,0.034794054925441735,0.03953456878662109,987.65869140625,0,13.0,1,1
8.08,0.060072422,-0.15037431,9.757645,7.406878285109998e-05,0.00033144920598715544,0.0003044633194804192,-5.2323575019836435,20.93272590637207,-37.937904357910156,-0.4978429973125458,0.03924387693405152,0.05385684967041016,987.6259155273438,0,13.0,1,1
8.12,0.060085118,-0.15275796,9.748178,-5.921127740293741e-05,-0.0006006365874782205,0.0003044109616894275,-5.735548973083496,21.620752334594727,-38.362525939941406,-0.4998993277549744,0.06745896488428116,0.05397319793701172,987.6641845703124,0,13.0,1,1
8.16,0.04336846,-0.14322512,9.7481785,0.00034014030825346714,0.0005978047265671194,3.804272273555398e-05,-5.8123741149902335,20.9688663482666,-37.542701721191406,-0.4786557257175446,0.0338025763630867,0.049330711364746094,987.674560546875,0,13.0,1,1
8.2,0.06011048,-0.14799197,9.757648,-0.0007252454524859786,0.00033150863600894814,0.0001711483928374946,-5.695985794067383,20.867097854614254,-37.477699279785156,-0.4907724857330322,0.062104903161525726,0.030488967895507806,987.6820678710938,0,13.0,1,1
8.24,0.050563544,-0.15037556,9.760017,-5.957786925137044e-05,0.0013967921258881688,-0.0003615357563830912,-4.820499897003174,20.52797508239746,-37.59276580810547,-0.4887754917144776,0.061659619212150574,0.04477500915527344,987.7177124023438,0,13.0,1,1
8.28,0.052966118,-0.14084275,9.764753,-0.00019285804592072964,0.000331548391841352,0.000969991204328835,-5.417961597442627,20.389986038208008,-37.56960678100586,-0.4864621758460999,0.04698064178228378,0.04487133026123047,987.6723022460938,0,13.0,1,1
8.32,0.048198998,-0.1336933,9.767122,-0.000326138106174767,0.0011305157095193865,-0.00022848270600661635,-5.336165428161621,20.57207679748535,-37.82381820678711,-0.4747695922851562,0.02776186913251877,0.04022693634033203,987.6571044921876,0,13.0,1,1
8.36,0.055381358,-0.13846011,9.774223,0.0007390031823888421,0.0001984301052289084,-9.537703590467572e-05,-5.444401264190674,20.312929153442386,-38.17689514160156,-0.4867357909679413,0.05131391435861588,0.016655921936035156,987.641845703125,0,13.0,1,1
8.4,0.050614238,-0.14561029,9.755287,-0.0007258564000949264,0.0005979237030260265,-0.0004949031281284988,-4.9604220390319815,20.44972419738769,-37.72058868408203,-0.475205272436142,0.05117198079824448,0.03567695617675781,987.6876831054688,0,13.0,1,1
8.44,0.048236996,-0.13846077,9.769492,-0.0007258564000949264,0.0005979237030260265,-0.0004949031281284988,-5.284968376159668,20.1984920501709,-37.65587615966797,-0.4681588411331177,0.036739878356456764,0.02630233764648437,987.6876831054688,0,13.0,1,1
8.48,0.06975874,-0.15514402,9.755289999999999,-6.018881686031818e-05,0.0008642594330012798,-9.548180969431996e-05,-5.4751081466674805,20.86359214782715,-38.127403259277344,-0.4799899160861969,0.05064965039491653,0.05007743835449219,987.652099609375,0,13.0,1,1
8.52,0.06738156,-0.13607807,9.764761,0.00020600494462996719,-0.00020098422828596085,-0.00022869207896292207,-5.618074417114258,20.78239631652832,-38.100624084472656,-0.5012050867080688,0.05967687070369721,0.04545116424560547,987.6702880859376,0,13.0,1,1
8.56,0.01959616,-0.12654527,9.760027000000001,-0.00045990652870386833,-0.0007335962145589293,0.00017072964692488313,-5.77071475982666,21.06065559387207,-37.708457946777344,-0.4225915968418121,0.011973150074481964,0.036072731018066406,987.6674194335938,0,13.0,1,1
8.6,0.07457662,-0.17659439,9.771863,-0.00019371276721358302,0.0012637926265597346,0.0003038351715076715,-5.314995765686035,20.486787796020508,-38.20701217651367,-0.4776129424571991,0.07824575901031494,0.021963119506835938,987.6778564453124,0,13.0,1,1
8.64,0.044252545,-0.12894715,9.762463,-6.067706272006035e-05,-6.776688678655772e-05,3.746693255379796e-05,-5.916724681854247,20.976511001586914,-37.52706909179688,-0.4661825299263001,0.030243463814258575,0.05040645599365234,987.6954956054688,0,13.0,1,1
8.68,0.046684325,-0.15039767,9.769568,-0.0004602730041369796,-0.0003340629336889833,-0.000228901335503906,-5.490190505981445,20.954782485961914,-38.05342864990234,-0.43509969115257263,0.04426674544811249,0.04576683044433594,987.6705932617188,0,13.0,1,1
8.72,0.049116135,-0.12894918,9.774307,0.00033762253588065505,-7.194095815066248e-05,0.00029945131973363465,-5.404508590698242,21.40366554260254,-37.93893051147461,-0.4564592242240906,0.04862914234399796,0.012723922729492188,987.6756591796876,0,13.0,1,1
8.76,0.061107485999999996,-0.14801647,9.767208,-0.00033115054247900844,-0.0008704042411409317,0.00016501476056873798,-5.457663059234619,21.037721633911133,-37.7553596496582,-0.4394670426845551,0.039109505712985985,0.02230072021484375,987.6783447265624,0,13.0,1,1
8.8,0.053979665,-0.15516729999999998,9.762478,-0.0001983963302336633,-0.0010034966981038453,0.0008306315867230296,-5.447988510131836,20.678274154663086,-38.1207389831543,-0.4557947516441345,0.07676183432340622,0.046077728271484375,987.6582641601562,0,13.0,1,1
8.84,0.034902334,-0.13133554,9.762482,-6.564200157299638e-05,-0.0014029049780219793,0.000430984771810472,-5.8865604400634775,20.794137954711914,-37.67501831054688,-0.42507728934288025,0.01944659650325775,0.050891876220703125,987.6660766601562,0,13.0,1,1
8.88,0.07318261,-0.14801957,9.757750999999999,-0.00019960716599598527,0.0008609110373072326,3.1164963729679585e-05,-5.434566020965576,20.479700088500977,-37.41832733154297,-0.4612617194652557,0.0479850172996521,0.05097198486328125,987.660888671875,0,13.0,1,1
8.92,0.05410528,-0.13610418,9.760123,0.0008652528631500901,0.000994134577922523,-0.0013005872024223206,-5.567558765411377,20.671186447143555,-37.3320541381836,-0.4449709057807921,0.03348144143819809,0.04157543182373047,987.6967163085938,0,13.0,1,1
8.96,0.04936737,-0.13848849,9.764861999999999,-0.00033357221400365233,0.00032841030042618513,3.081897739320993e-05,-5.4676361083984375,20.765039443969727,-37.814849853515625,-0.4280505180358887,0.03812360763549805,0.03220558166503906,987.6812744140624,0,13.0,1,1
9.0,0.04940924,-0.14087282,9.755396000000001,0.0003318138769827783,-0.0012694194447249176,-0.0001025118981488049,-5.011075019836426,20.455018997192386,-37.79008483886719,-0.42883265018463135,0.042669132351875305,0.03709220886230469,987.7119140625,0,13.0,1,1
9.04,0.05184096,-0.13849054,9.760135,6.50945003144443e-05,-0.0011361959623172881,0.00016363093163818118,-5.3507041931152335,20.29497718811035,-37.65139770507813,-0.4421271681785584,0.0329512283205986,0.03713035583496094,987.7249145507812,0,13.0,1,1
9.08,0.059052587000000004,-0.15517451,9.76724,6.469088839367032e-05,0.0012607125099748373,-0.0007686474127694964,-5.4490742683410645,21.414854049682614,-38.31764221191406,-0.44493430852890015,0.06126333773136139,0.05613994598388672,987.6898803710938,0,13.0,1,1
9.12,0.04714495,-0.1480257,9.755407,0.00014343549264594913,-8.585932664573194e-05,0.0009415162494406103,-5.607558250427246,20.686792373657227,-37.94267654418945,-0.4236292243003845,0.03748267889022827,0.03728485107421875,987.6973266601562,0,13.0,1,1
9.16,0.066305995,-0.16232638,9.769615,0.00014303199714049694,-0.00048526760656386614,-0.00012392026837915182,-5.663755893707275,20.31790351867676,-37.60449981689453,-0.4311550259590149,0.06575498729944229,0.03735828399658203,987.67431640625,0,13.0,1,1
9.2,0.05200848,-0.15994413,9.774353,0.00014262838521972299,0.0012458511628210545,-0.00012409326154738665,-5.538235664367676,20.22496223449707,-38.003318786621094,-0.419518768787384,0.07509393244981766,0.023230552673339844,987.6566162109376,0,13.0,1,1
9.24,0.056830168,-0.14564557,9.755419,9.06671630218625e-06,4.749518120661378e-05,-0.0006568979006260632,-5.557883262634277,20.311731338500977,-37.69743728637695,-0.4220574200153351,0.04171570390462875,0.056454658508300774,987.6672973632812,0,13.0,1,1
9.28,0.06643164,-0.15756293,9.769625999999999,0.0009407688048668207,0.0001807186345104128,0.00014187669148668647,-5.955883026123048,21.25596809387207,-37.61437225341797,-0.43432939052581787,0.06995996832847595,0.03285503387451172,987.65966796875,0,13.0,1,1
9.32,0.04974419,-0.14803083,9.769630000000001,-0.00012489809887483716,0.0003139420587103814,0.0002748616097960621,-5.688375949859619,20.874460220336914,-37.86422348022461,-0.412821501493454,0.04126230627298355,0.028206825256347656,987.6497192382812,0,13.0,1,1
9.36,0.0617356,-0.1480319,9.757797,0.0006736456998623908,-0.0011507297167554498,0.00014153070515021682,-5.346138000488281,20.299394607543945,-37.88330841064453,-0.4390796422958374,0.04582122713327408,0.03776168823242188,987.6900634765624,0,13.0,1,1
9.4,0.04026833,-0.13373323,9.757800999999999,-0.0005251791444607079,0.0001809152017813176,-0.00012495811097323897,-5.1330084800720215,20.1826114654541,-37.44741439819336,-0.4122580885887146,0.031087748706340786,0.033127784729003906,987.6777954101562,0,13.0,1,1
9.44,0.047479898,-0.15280046,9.767275,-0.00012610905105248094,0.00031413868418894714,-0.0010572364553809166,-5.189069747924805,19.919641494750977,-37.80831146240234,-0.41136050224304205,0.040591023862361915,0.04262733459472656,987.6932373046876,0,13.0,1,1
9.48,0.037962199999999995,-0.14088516,9.750708,-0.00012651266297325492,0.0007136780768632889,-0.00039161974564194685,-5.756474494934082,20.70562171936035,-38.305755615234375,-0.4001559615135193,0.03065795451402664,0.061619758605957024,987.6806640625,0,13.0,1,1
9.52,0.035614133,-0.14565273,9.7672825,-0.0002600739826448262,0.0012463753810152411,-0.0002586347982287407,-5.485625267028809,20.959199905395508,-38.28534698486328,-0.3887961506843567,0.04444994777441025,0.02853679656982422,987.6831665039062,0,13.0,1,1
9.56,0.049995422000000005,-0.14088716,9.767286,-0.00026047771098092204,0.0005806511035189033,-0.0001256499090231955,-5.189069747924805,19.919641494750977,-37.80830764770508,-0.4010265171527863,0.05398993194103241,0.03334522247314453,987.6581420898438,0,13.0,1,1
9.6,0.050037295,-0.14565478,9.762556,0.0008043822017498313,-0.0006177049363031982,-0.0006584546063095331,-5.469701290130615,21.131860733032227,-37.83599853515625,-0.3889852464199066,0.048976942896842963,0.04763317108154297,987.69091796875,0,13.0,1,1
9.64,0.050079167,-0.14327247,9.743622,-0.00052760069957003,-8.500751573592424e-05,-0.0006586275994777678,-5.878951072692871,20.8015079498291,-38.06153869628906,-0.4064048528671265,0.03924253582954407,0.061893463134765625,987.6608276367188,0,13.0,1,1
9.68,0.040561438,-0.15042336,9.757828,0.0002709433319978416,0.0001813738199416548,0.0002733049332164228,-5.8484883308410645,21.25126838684082,-37.78461456298828,-0.3853808045387268,0.043950624763965614,0.05722618103027344,987.6934814453124,0,13.0,1,1
9.72,0.05255282,-0.13612469,9.769669,0.00013738177949562672,-0.0006175083690322937,-0.00012634188169613478,-4.962892055511475,21.290746688842773,-38.53926849365234,-0.4066288769245148,0.01490737497806549,0.02417182922363281,987.6709594726562,0,13.0,1,1
9.76,0.04303509,-0.16234173,9.772039,-0.0003956534783355892,-0.000750600709579885,-0.0003928305814042688,-5.35081148147583,21.401315689086914,-38.02405166625977,-0.3852929472923279,0.06253783404827118,0.043183326721191406,987.7142944335938,0,13.0,1,1
9.8,0.035253406,-0.1456439,9.764882,-0.0003956534783355892,-0.000750600709579885,-0.0003928305814042688,-5.513425827026367,21.406892776489254,-37.691383361816406,-0.39246153831481934,0.043104156851768494,0.02905750274658203,987.7142944335938,0,13.0,1,1
9.84,0.044168055,-0.14801125,9.757721,0.00026973249623551965,-0.00035106140421703463,-0.0002598455175757408,-5.778186798095702,21.159204483032227,-38.02101135253906,-0.3745222985744476,0.038212507963180535,0.05766201019287109,987.6668701171876,0,13.0,1,1
9.88,0.05611545,-0.14086144,9.762456,0.00027246022364124656,-0.0011504518333822489,-0.0005249925889074801,-5.447988510131836,20.678274154663086,-38.1207389831543,-0.3959629237651825,0.028530977666378018,0.04354190826416016,987.669189453125,0,13.0,1,1
9.92,0.04894364,-0.14801122,9.757721,-0.0001152224140241742,-0.0007555622141808271,0.00027672358555719256,-5.6608195304870605,21.427194595336914,-38.13176345825195,-0.3743443191051483,0.0426107868552208,0.05309486389160156,987.6741943359376,0,13.0,1,1
9.96,0.056111217000000005,-0.15277766,9.762455000000001,0.0005505876615643501,-0.00102188135497272,1.0416435543447733e-05,-5.489785671234131,20.48057746887207,-37.255897521972656,-0.38650912046432495,0.047179758548736565,0.034229278564453125,987.6814575195312,0,13.0,1,1
10.0,0.051329315,-0.14086123,9.767189,-0.00038149754982441664,-0.0010218846146017313,-0.0003890487132593989,-5.587611675262451,21.23215675354004,-37.82369995117188,-0.37921050190925604,0.04724294692277908,0.04378318786621094,987.6995239257812,0,13.0,1,1
10.04,0.056106985,-0.15277757,9.750619,0.0005506284069269897,-0.0008887300500646235,-0.0005221978062763809,-5.575573921203613,21.13802528381348,-37.74306106567383,-0.386620432138443,0.04219669103622437,0.05332183837890625,987.692138671875,0,13.0,1,1
10.08,0.051325083,-0.15039428,9.762455000000001,0.0001511749578639865,0.00017653009854257107,-0.0003890311345458031,-5.922675132751465,21.076536178588867,-37.91692352294922,-0.3796604573726654,0.0418393537402153,0.03918743133544922,987.7074584960938,0,13.0,1,1
10.12,0.053712845,-0.13847779,9.757719,0.00015119556337594986,-0.0006224208627827466,-0.0001227065222337842,-5.436493396759033,20.95243263244629,-38.1385498046875,-0.3773436546325684,0.03198745846748352,0.04399585723876953,987.669677734375,0,13.0,1,1
10.16,0.060880422999999996,-0.14086108,9.757719,-0.000381415942683816,-8.979240374173969e-05,-0.0002558557316660881,-5.686853885650635,20.875932693481445,-37.9415283203125,-0.375341147184372,0.036458879709243774,0.04879283905029297,987.6644897460938,0,13.0,1,1
10.2,0.053708673,-0.1384777,9.760086,-0.00038139545358717436,-0.0007555854390375316,-0.0005221628816798329,-6.187574863433838,20.722936630249023,-37.54747772216797,-0.3641482591629028,0.03638377040624618,0.04884529113769531,987.6646728515624,0,13.0,1,1
10.24,0.06326613,-0.15039407,9.762454,-0.0006476705893874168,0.00030967150814831257,-0.000388987478800118,-5.393884658813477,20.20171546936035,-37.40833282470703,-0.3906094133853912,0.03585023432970047,0.04417705535888672,987.6956176757812,0,13.0,1,1
10.28,0.051314473,-0.14562742,9.762454,-0.0002481765113770962,-0.0003561215125955641,0.0006762847770005465,-5.630249977111816,20.770612716674805,-37.482181549072266,-0.36464589834213257,0.030501291155815125,0.03950309753417969,987.7083129882812,0,13.0,1,1
10.32,0.032193124,-0.15516047,9.779023,-0.0003813138464465737,4.3348991312086575e-05,-0.0003889699000865221,-5.50527286529541,21.04596519470215,-37.979454040527344,-0.35316118597984314,0.04931478202342987,0.02062606811523437,987.6777954101562,0,13.0,1,1
10.36,0.058479965,-0.13609429,9.757717999999999,-0.0003812935901805759,4.334570257924497e-05,0.00014367053518071768,-5.518151760101318,20.87625312805176,-38.58341979980469,-0.36075174808502203,0.02059952914714813,0.03489112854003906,987.6981811523438,0,13.0,1,1
10.4,0.025019199,-0.15516038,9.76482,0.0001513586612418294,-0.0006224473472684622,-0.000522110378369689,-5.4594831466674805,20.404115676879886,-38.10292434692383,-0.3397645354270935,0.03924955427646637,0.05388164520263672,987.6834106445312,0,13.0,1,1
10.44,0.06564546,-0.14801057,9.767187,-0.00038125284481793637,0.0009754446800798178,-0.000522101647220552,-5.510136604309082,20.40941047668457,-38.17241668701172,-0.36658233404159546,0.029385998845100406,0.049202919006347656,987.7091064453124,0,13.0,1,1
10.48,0.05608368,-0.14801042,9.76482,-0.00024807441513985395,-0.000356138072675094,0.0002768546692095697,-5.513180732727051,20.406465530395508,-38.01780319213867,-0.3788398504257202,0.05289826542139053,0.035060882568359375,987.6835327148438,0,13.0,1,1
10.52,0.0584715,-0.13847734,9.764819000000001,1.8261722289025784e-05,-0.0003561413614079356,0.00041002137004397815,-5.322467803955078,20.585336685180664,-38.51956558227539,-0.3756635189056397,0.03804073482751846,0.0540924072265625,987.6912841796876,0,13.0,1,1
10.56,0.046519875999999995,-0.15277691,9.783756,-0.0009138232562690972,-0.0004893026780337095,-0.00025575957261025906,-5.502228736877441,21.04891014099121,-38.13406372070313,-0.3412922322750092,0.057089462876319885,0.020978927612304688,987.6762084960938,0,13.0,1,1
10.6,0.05607736,-0.15516011,9.764819000000001,0.00015146064106374982,0.0003096417058259249,0.00027688094996847207,-5.031266212463379,20.91007423400879,-37.5826416015625,-0.3491629958152771,0.04731153696775437,0.03996562957763672,987.6943969726562,0,13.0,1,1
10.64,0.04890555,-0.13609387,9.757717,0.00032058078795671463,6.033813406247646e-05,-0.00035750865936279297,-5.13950252532959,20.65092658996582,-37.93572235107422,-0.3472664952278137,0.023422613739967343,0.05896091461181641,987.6990966796876,0,13.0,1,1
10.68,0.046513528,-0.13371052,9.757717,5.4285512305796146e-05,0.0005929665639996529,-0.0004906578687950969,-5.433587074279785,20.849458694458008,-37.594085693359375,-0.3364088237285614,0.01362321525812149,0.04005908966064453,987.7246704101562,0,13.0,1,1
10.72,0.04651141,-0.13609378,9.752982000000001,0.00018746359273791316,-0.00020598454284481704,-0.0004906491376459599,-4.950043201446533,20.248201370239254,-36.86357116699219,-0.3531726598739624,0.009029746055603027,0.04960250854492188,987.7196044921876,0,13.0,1,1
10.76,0.070408285,-0.14801006,9.767185000000001,5.4326257668435574e-05,-0.00047230362542904913,0.0003083072369918227,-5.250078678131104,20.546762466430664,-36.91179275512695,-0.3700505793094635,0.03283167630434036,0.030731201171875,987.6767578125,0,13.0,1,1
10.8,0.050534695,-0.13851713,9.753132,0.0004538204520940781,-0.0004723069432657212,0.0001751580275595188,-5.639244079589844,20.86768913269043,-37.71742630004883,-0.3450586497783661,0.027790307998657227,0.03539276123046875,987.7073364257812,0,13.0,1,1
10.84,0.050598145,-0.14566846,9.762608,5.005986895412207e-05,0.00032054510666057473,3.437133273109794e-05,-5.321626663208008,20.849184036254886,-37.996238708496094,-0.3250207304954529,0.02785269170999527,0.04488563537597656,987.7219848632812,0,13.0,1,1
10.88,0.05305147,-0.15281992,9.750776,0.00030999362934380764,5.526529275812209e-05,-0.00010152184404432774,-5.5223121643066415,20.39762687683105,-37.55397415161133,-0.3330695927143097,0.04626641422510147,0.04965400695800781,987.7277221679688,0,13.0,1,1
10.92,0.045945197,-0.14805491,9.764986,-0.0011553546646609902,0.0001885224191937596,-0.000634415599051863,-5.668865203857423,20.681772232055664,-37.47103118896485,-0.3265485167503357,0.05080875009298325,0.030760765075683594,987.6793212890624,0,13.0,1,1
10.96,0.060348034,-0.1504397,9.746053999999999,-9.070290252566338e-05,0.0001886217505671084,0.0002974279341287911,-5.240808486938477,20.661516189575195,-38.07469940185547,-0.3343220353126526,0.03620439022779465,0.0497426986694336,987.7133178710938,0,13.0,1,1
11.0,0.06280136,-0.1552078,9.7626295,-0.0004907879047095777,-0.0003439108550082892,-0.00010230776388198136,-5.951615333557129,20.628244400024414,-38.271156311035156,-0.3424510359764099,0.04530597478151322,0.04504108428955078,987.6923828125,0,13.0,1,1
11.04,0.03896576,-0.14090975,9.7579,0.0007070217980071902,0.0015203995862975714,3.0588125810027116e-05,-5.840037345886231,21.52248191833496,-37.64781951904297,-0.3169369697570801,0.02632737904787064,0.05928802490234375,987.6878051757812,0,13.0,1,1
11.08,0.046198905,-0.13614474,9.765009,0.0007064108503982425,0.00045523530570790166,-0.0005023056291975081,-5.545003890991211,20.481447219848636,-37.09347534179688,-0.3248816430568695,0.01705525815486908,0.02619171142578125,987.7362060546876,0,13.0,1,1
11.12,0.06299165,-0.14567943,9.750811,0.0008389578433707356,0.0005884924903512001,0.0008290117839351296,-5.199425220489502,20.54146385192871,-36.84230422973633,-0.3472541868686676,0.03622404485940933,0.05937290191650391,987.6929931640624,0,13.0,1,1
11.16,0.046325742999999996,-0.13853110000000002,9.76502,0.0003057144349440933,-0.00034351384965702886,0.0005624338518828154,-5.614189147949219,21.0491886138916,-37.731910705566406,-0.3312470018863678,0.02221482992172241,0.03574657440185547,987.6831665039062,0,13.0,1,1
11.2,0.055948794,-0.14806576,9.760292,0.0003057144349440933,-0.00034351384965702886,0.0005624338518828154,-5.078875541687012,20.91831398010254,-37.80674362182617,-0.3249281048774719,0.036348715424537666,0.04525279998779297,987.6831665039062,0,13.0,1,1
11.24,0.06079203,-0.15521719,9.750829,0.00030510313808918,0.000721848919056356,0.0001626981538720429,-5.385977745056152,20.841218948364254,-37.3699836730957,-0.3425516486167908,0.04128236323595047,0.06422901153564453,987.7465209960938,0,13.0,1,1
11.28,0.041736186,-0.15521874,9.7626705,0.000970281078480184,0.0012545798672363162,2.927816240116954e-05,-5.503888130187988,20.9415225982666,-37.35768127441406,-0.3075120449066162,0.03624765574932098,0.04532909393310547,987.718505859375,0,13.0,1,1
11.32,0.060918868,-0.152837,9.757942,0.0008365121902897954,-0.00021005819144193083,-0.0006367733585648239,-5.414917945861816,20.39293098449707,-37.72421646118164,-0.32957738637924194,0.05034126341342926,0.040637969970703125,987.7286987304688,0,13.0,1,1
11.36,0.051422685,-0.14092220000000003,9.767417,0.000303269480355084,-7.68010359024629e-05,0.00016191211761906743,-5.19667911529541,19.91227531433105,-37.421783447265625,-0.3278713822364807,0.016753315925598145,0.031209945678710938,987.716552734375,0,13.0,1,1
11.4,0.04670632,-0.14330705,9.767422999999999,-0.0002299739280715585,-7.670177728869021e-05,0.0005611238884739578,-5.695985794067383,20.867097854614254,-37.477699279785156,-0.311290055513382,0.030605673789978024,0.04546356201171875,987.69873046875,0,13.0,1,1
11.44,0.051549554000000004,-0.14807512,9.748489999999999,-0.0010295328684151173,-0.0006092343246564269,2.8230249881744385e-05,-5.538342475891113,21.331308364868164,-38.37598037719727,-0.28600722551345825,0.016140379011631012,0.05023002624511719,987.6964721679688,0,13.0,1,1
11.48,0.07073215,-0.15760975,9.755597999999999,-9.803904686123133e-05,-0.0007422929629683496,0.00016112608136609197,-5.429020881652832,20.853879928588867,-37.82600021362305,-0.3364443778991699,0.039887309074401855,0.05028247833251953,987.691162109375,0,13.0,1,1
11.52,0.037336946,-0.129012,9.757971000000001,0.0004339817678555846,-0.0010085096582770348,0.00016086414689198136,-5.188526630401611,19.55135536193848,-37.709861755371094,-0.3013027310371399,0.0064342767000198356,0.05032157897949219,987.7168579101562,0,13.0,1,1
11.56,0.05890950599999999,-0.14807983,9.765077999999999,-9.926094207912685e-05,0.00032316899159923196,0.0005600759759545326,-5.191134452819824,20.28645896911621,-37.8294563293457,-0.3141234219074249,0.03503519296646118,0.021951675415039062,987.72705078125,0,13.0,1,1
11.6,0.05419314,-0.13616498,9.755614999999999,3.328535240143537e-05,5.6952383602038026e-05,-0.00010597571963444352,-5.412417411804199,20.7641658782959,-37.97727584838867,-0.312691867351532,0.02528910338878632,0.059857368469238274,987.6737060546876,0,13.0,1,1
11.64,0.05186665,-0.15284945,9.769825,-0.000633727409876883,0.000722940603736788,-0.0005059735267423092,-5.4555983543396,20.670907974243164,-37.73421478271485,-0.2920155227184296,0.0440266951918602,0.031482696533203125,987.712158203125,0,13.0,1,1
11.68,0.049540162,-0.13855134,9.746159,3.1451345421373844e-05,0.0005898818490095438,-0.0009057092829607428,-5.420569896697998,21.125089645385746,-37.68920135498047,-0.3050992488861084,0.02454514801502228,0.04570960998535156,987.7098999023438,0,13.0,1,1
11.72,0.044823825,-0.1314031,9.7769375,-0.00010231754276901485,0.00045682315248996014,0.0010913978330790997,-5.785658836364746,21.25775718688965,-38.33356475830078,-0.2893929481506348,0.010430924594402313,0.0315399169921875,987.7150268554688,0,13.0,1,1
11.76,0.04927647,-0.1647609,9.77454,3.0228751711547368e-05,5.744856025557965e-05,-0.00010728574125096202,-5.464592933654785,20.76798820495605,-37.969459533691406,-0.30210283398628235,0.04852563887834549,0.03631114959716797,987.7051391601562,0,13.0,1,1
11.8,0.051315546,-0.14330284,9.757938000000001,0.0004290913930162787,0.00045702158240601415,-0.0007733373786322773,-5.108358860015869,20.83831596374512,-38.259422302246094,-0.2954118847846985,0.02922292798757553,0.0553436279296875,987.718017578125,0,13.0,1,1
11.84,0.044177532,-0.14330359,9.765042,0.00043895171256735915,0.0013840621104463935,0.0004263556620571762,-5.697071075439452,21.603673934936523,-37.674598693847656,-0.29403334856033325,0.024163112044334408,0.05064010620117188,987.7205200195312,0,13.0,1,1
11.88,0.060938597000000004,-0.15045424,9.750841000000001,-9.39861056394875e-05,-8.062559936661273e-05,2.675072755664587e-05,-5.324808120727539,20.74032020568848,-37.142555236816406,-0.3113453984260559,0.028877802193164825,0.05068206787109375,987.6952514648438,0,13.0,1,1
11.92,0.041851074,-0.12185563,9.757946,-0.0002274495200254023,-0.0006132076960057019,-0.00023969600442796943,-5.5530195236206055,20.94828987121582,-37.504478454589844,-0.2858317494392395,0.014535211026668547,0.04125118255615234,987.6978759765624,0,13.0,1,1
11.96,0.053832292999999996,-0.13853939,9.765051,3.8560887333005674e-05,0.00045210539246909315,-0.0006393010262399912,-5.303339958190918,21.28716468811035,-37.10087585449219,-0.2939020395278931,0.033463217318058014,0.04128360748291016,987.7608032226562,0,13.0,1,1
12.0,0.051474154,-0.1361569,9.767422,3.825541352853179e-05,-8.047670416999608e-05,2.6357825845479965e-05,-4.840147972106934,20.6147403717041,-37.28687286376953,-0.287403404712677,0.023939572274684903,0.04605770111083984,987.7310791015624,0,13.0,1,1
12.04,0.07062504,-0.15284063,9.7484865,0.0008368970011360942,-0.000479900831123814,-0.00037324719596654177,-5.3845930099487305,20.736772537231445,-36.74821472167969,-0.30015456676483154,0.03328817337751388,0.06029605865478516,987.7310791015624,0,13.0,1,1
12.08,0.046757757999999996,-0.13854171,9.760325,3.764353459700942e-05,-0.0002135354152414948,-0.00024022022262215612,-5.341954708099365,21.19832420349121,-37.08972930908203,-0.29829543828964233,0.023686759173870087,0.0366668701171875,987.7009887695312,0,13.0,1,1
12.12,0.06590867,-0.13854249,9.753227,0.0003036538255400956,-0.00034664373379200697,-0.0005066669546067715,-5.703596115112305,20.85972785949707,-37.09117126464844,-0.2918810844421387,0.02383602410554886,0.055642127990722656,987.6881713867188,0,13.0,1,1
12.16,0.06833029,-0.14330985,9.765066000000001,0.0004218918620608747,-0.00046051183016970754,0.00033550255466252565,-5.193474769592285,20.441442489624023,-36.45244598388672,-0.30924707651138306,0.02878126502037048,0.032011985778808594,987.72607421875,0,13.0,1,1
12.2,0.0325135,-0.14092733,9.7556,0.00028842844767495984,-0.00046046223724260926,-6.41021179035306e-05,-4.970937728881836,20.54532814025879,-37.87853240966797,-0.2740195989608765,0.023720450699329376,0.060455322265625,987.6707763671876,0,13.0,1,1
12.24,0.06839374,-0.15999432,9.743767,0.00028812297387048597,7.221920532174408e-05,0.0006015565013512969,-5.3412742614746085,20.93595314025879,-37.69035339355469,-0.3014387190341949,0.042596220970153816,0.05101203918457031,987.734130859375,0,13.0,1,1
12.28,0.046916335999999996,-0.12901245,9.772176,-0.00011165632167831065,0.0006049006478860973,-0.00019752210937440395,-5.508997440338135,21.305395126342773,-37.224220275878906,-0.29032230377197266,-0.005179129540920258,0.027373313903808597,987.7369384765624,0,13.0,1,1
12.32,0.044558167,-0.16237919,9.77928,0.0001543538528494537,-0.0003271554014645517,-6.449519423767923e-05,-5.309725761413574,20.649133682250977,-37.21652603149414,-0.2694810628890991,0.03272359073162079,0.013205528259277344,987.6889038085938,0,13.0,1,1
12.36,0.05414948,-0.14569701,9.757978,-0.0006448999629355968,7.236812962219119e-05,0.00046800548443570733,-5.564515113830566,20.674135208129886,-37.486663818359375,-0.2968602180480957,0.04187747836112976,0.04636859893798828,987.7267456054688,0,13.0,1,1
12.4,0.056571126,-0.15046431,9.75798,2.058426616713405e-05,0.0011376813054084778,0.0002015586942434311,-5.6332945823669425,20.767671585083008,-37.32757186889648,-0.2622204422950745,0.0275040939450264,0.0558624267578125,987.74169921875,0,13.0,1,1
12.44,0.06138265,-0.15046509,9.739046,-0.0003791957278735936,7.24673445802182e-05,-0.0007306780898943543,-5.33836841583252,20.832979202270508,-37.14588928222656,-0.2753998041152954,0.046062707901000984,0.07955265045166016,987.67138671875,0,13.0,1,1
12.48,0.03990525,-0.13854949,9.748517999999999,0.0006857620901428162,0.0007383067277260125,0.00020129658514633772,-5.337144374847412,20.20231819152832,-37.64806365966797,-0.2599096894264221,0.022325113415718082,0.06064033508300781,987.6968994140624,0,13.0,1,1
12.52,0.056666285,-0.15284999,9.769827000000001,-0.00011349102715030313,-0.00046006514457985764,0.0003343235002830625,-5.3699164390563965,21.11979866027832,-37.619712829589844,-0.2769584655761719,0.026802517473697662,0.04647636413574219,987.7171020507812,0,13.0,1,1
12.56,0.049528300000000004,-0.15046741,9.760361,-0.00011349102715030313,-0.00046006514457985764,0.0003343235002830625,-5.2479825019836435,21.392202377319336,-37.962379455566406,-0.2755989134311676,0.03627248853445053,0.05597400665283203,987.7171020507812,0,13.0,1,1
12.6,0.05911964,-0.14808495,9.755628999999999,-0.000246954441536218,-0.0005931734922342002,-0.00033159728627651935,-4.989064693450928,20.633569717407227,-37.64994812011719,-0.2887426316738129,0.026371173560619358,0.0607290267944336,987.7119140625,0,13.0,1,1
12.64,0.047201812,-0.15285231,9.776937,-0.0005135757965035738,0.0011379295028746126,0.0004672194481827319,-5.394428730010986,20.570009231567386,-37.50678253173828,-0.26359838247299194,0.02614492177963257,0.03234386444091797,987.7023315429688,0,13.0,1,1
12.68,0.056793183,-0.14570327,9.762736,1.8749560695141557e-05,0.0007385053322650492,-0.00046501739416271443,-5.127601146697998,20.450876235961914,-37.156005859375,-0.2765055298805237,0.02595300227403641,0.037105560302734375,987.6998291015624,0,13.0,1,1
12.72,0.06877439999999999,-0.14808728,9.755637,0.0006842337897978723,-0.0005930245970375836,-0.00019883236382156608,-5.2741546630859375,20.73502540588379,-37.07306671142578,-0.2752788364887237,0.02105011790990829,0.04659843444824219,987.7051391601562,0,13.0,1,1
12.76,0.056824923,-0.13855417,9.765106,-0.0010471255518496037,0.0010049203410744667,-6.580550689250231e-05,-5.571146011352539,21.036531448364254,-37.27589416503906,-0.2686407268047333,0.02552899718284607,0.032428741455078125,987.7054443359376,0,13.0,1,1
12.8,0.042483687,-0.15523703,9.75327,1.7832207959145308e-05,-0.00032660947181284433,-0.00019909453112632042,-5.563535690307617,21.043893814086914,-37.66242218017578,-0.24268439412117004,0.03503119200468064,0.07035064697265625,987.7001342773438,0,13.0,1,1
12.84,0.05924222,-0.14570467,9.753273,1.7753394786268473e-05,-0.0008592283702455461,0.00020034553017467258,-5.522993087768555,20.65999794006348,-36.953346252441406,-0.2651212215423584,0.02996353805065155,0.05617237091064453,987.6956176757812,0,13.0,1,1
12.88,0.056881487,-0.13617225,9.762744999999999,0.0006898758583702147,-0.0008669479284435512,-0.0006015886319801211,-5.324808120727539,20.74032020568848,-37.142555236816406,-0.2587711215019226,0.015713609755039215,0.03253173828125,987.6849975585938,0,13.0,1,1
12.92,0.056910694000000005,-0.15047263,9.753279,0.00029012066079303617,-6.795459194108844e-05,-0.0007348671788349747,-5.709002494812013,20.591463088989254,-37.38257598876953,-0.2619795799255371,0.034848511219024665,0.05623626708984375,987.6849975585938,0,13.0,1,1
12.96,0.049770176,-0.14332353,9.765117,-0.0002427924773655832,-0.001000014366582036,0.0008629075018689036,-5.5258989334106445,20.76296806335449,-37.4978141784668,-0.25571033358573914,0.02511003613471985,0.04205989837646485,987.7077026367188,0,13.0,1,1
13.0,0.07369834,-0.15285732,9.767487,-0.0005096709937788546,-0.00033413339406251913,-0.000735228881239891,-5.504430770874023,21.3098087310791,-37.45613479614258,-0.28312093019485474,0.03421739488840103,0.05154705047607422,987.6808471679688,0,13.0,1,1
13.04,0.052218437,-0.1409417,9.762754,-0.00024363648844882846,0.0008643337059766054,0.0005962299183011055,-5.500300884246826,20.576173782348636,-37.413841247558594,-0.2529994249343872,0.024427197873592377,0.03263378143310547,987.6981811523438,0,13.0,1,1
13.08,0.052247642999999996,-0.14094235,9.760391,-0.0007765495101921259,0.0004649056354537606,0.0005961093120276928,-5.8983001708984375,21.520410537719727,-37.33078002929688,-0.25652629137039185,0.033448852598667145,0.037384986877441406,987.6883544921876,0,13.0,1,1
13.12,0.049886912,-0.12426014,9.750924000000001,-0.0005105151212774217,-0.0006003122543916106,0.0001965148840099573,-5.392363548278809,20.20319175720215,-37.485633850097656,-0.2452844381332397,0.004974968731403351,0.061091423034667976,987.6834716796876,0,13.0,1,1
13.16,0.05947572,-0.15047689,9.760394999999999,2.1835381630808115e-05,-0.0009997403249144554,0.00019639433594420552,-5.564078330993652,21.412187576293945,-37.76087188720703,-0.2530238628387451,0.03326037526130676,0.05638790130615234,987.69091796875,0,13.0,1,1
13.2,0.052335203,-0.1433279,9.7675,0.0004210278275422752,-0.00020074706117156893,-0.00033635785803198814,-5.729598522186278,21.520727157592773,-37.97267150878906,-0.2520314157009125,0.028337694704532623,0.03746700286865234,987.7012939453124,0,13.0,1,1
13.24,0.057144225,-0.13379551,9.758034,0.0004207464517094195,0.0016635097563266756,-0.00020332075655460358,-5.451713562011719,20.93770408630371,-37.365501403808594,-0.2509291172027588,0.014220662415027618,0.05169105529785156,987.6679077148438,0,13.0,1,1
13.28,0.05956331,-0.15047915,9.765139,0.00042046519229188567,-0.00020065570424776524,0.000728664337657392,-5.336165428161621,20.57207679748535,-37.823822021484375,-0.2449863404035568,0.03833910077810288,0.03751277923583984,987.6689453125,0,13.0,1,1
13.32,0.06676221,-0.14809658,9.765141,0.000553341640625149,0.0001988637377507985,0.0005953857908025384,-5.364126682281494,20.493547439575195,-38.35380554199219,-0.2579429149627685,0.023859433829784397,0.04700279235839844,987.6994018554688,0,13.0,1,1
13.36,0.0620116,-0.13618092,9.776978999999999,-0.00024588737869635224,-0.00033372233156114817,-0.0004699982237070799,-5.684490203857423,21.141252517700195,-37.49551010131836,-0.2564610838890076,0.023652806878089905,0.03282356262207031,987.6790161132812,0,13.0,1,1
13.4,0.05726099,-0.12903179,9.758044,-0.00011301081394776702,0.0003321130643598736,6.251293234527111e-05,-6.0185747146606445,21.35539054870605,-37.764495849609375,-0.2508285939693451,0.004605785012245178,0.05651187896728516,987.6691284179688,0,13.0,1,1
13.44,0.057290137000000005,-0.14333214,9.760414,0.00015302392421290278,0.0008647905196994543,-0.00020392355509102345,-5.26945161819458,20.845361709594727,-38.00405883789063,-0.2400384694337845,0.013855054974555971,0.02338886260986328,987.6663208007812,0,13.0,1,1
13.48,0.057319342999999995,-0.13618307,9.760417,0.00015274243196472526,0.00019904645159840584,6.22717197984457e-05,-5.264043807983398,21.11362648010254,-37.71265411376953,-0.2481600195169449,0.02349824458360672,0.032883644104003906,987.6716918945312,0,13.0,1,1
13.52,0.059738457,-0.15048341,9.76042,1.93029991351068e-05,0.00046540796756744396,-0.00020416476763784883,-5.085644721984863,21.1747989654541,-36.89689254760742,-0.25205209851264954,0.037564896047115326,0.04236507415771485,987.6764526367188,0,13.0,1,1
13.56,0.050208032,-0.14810087,9.755688000000001,-0.0006467680796049535,0.0013975591864436865,6.203062366694212e-05,-5.7135682106018075,20.587045669555664,-37.15066528320313,-0.2366606593132019,0.032386519014835365,0.051845550537109375,987.6791381835938,0,13.0,1,1
13.6,0.05979687,-0.124268785,9.750956,-0.0001144175766967237,-6.713240873068571e-05,0.0005945417215116322,-5.5217695236206055,20.02933692932129,-37.45552062988281,-0.24981804192066195,0.003821805119514465,0.07080459594726562,987.6766357421876,0,13.0,1,1
13.64,0.052656293,-0.14571900000000002,9.765162,0.0001516170450486243,0.00019922916544601319,-0.0003376844106242061,-5.836587905883789,21.051218032836914,-37.00489807128906,-0.2245556265115738,0.01326325535774231,0.03295135498046875,987.6795654296876,0,13.0,1,1
13.68,0.0526855,-0.15048628,9.755695,0.0005553585942834616,-0.0006921601016074419,0.00018489843932911756,-5.743732452392577,20.76942253112793,-37.00271987915039,-0.2329089343547821,0.041854895651340485,0.06137752532958984,987.6923828125,0,13.0,1,1
13.72,0.05749452,-0.14333715,9.758065,2.2445456124842167e-05,0.0009057808201760055,-0.0006141696940176189,-5.750226020812987,21.237733840942386,-37.49102783203125,-0.2364494800567627,0.027590587735176086,0.04246139526367188,987.6801147460938,0,13.0,1,1
13.76,0.061503827999999997,-0.14570151,9.743792,-0.0003773096250370145,-0.0005589108332060277,-0.0004811324761249125,-5.367851257324219,20.75297737121582,-37.59857177734375,-0.2533206343650818,0.017782017588615414,0.07096099853515625,987.704833984375,0,13.0,1,1
13.8,0.06389123,-0.13616835,9.769832000000001,0.0004270941717550159,0.00010599309462122619,-7.932021981105207e-05,-5.5174479484558105,21.034181594848636,-37.36101531982422,-0.2330145537853241,0.022506311535835263,0.04257583618164063,987.68701171875,0,13.0,1,1
13.84,0.047159374000000004,-0.14331813,9.757994,0.00042899290565401316,-2.7473055524751544e-05,-7.850647671148181e-05,-5.802400588989258,21.24155616760254,-37.48320770263672,-0.2223435491323471,0.022270619869232174,0.04259300231933594,987.699951171875,0,13.0,1,1
13.88,0.054326534,-0.13616823,9.767464,-0.0003699302906170488,0.0009046286577358842,5.4661824833601706e-05,-5.837972640991211,21.155664443969727,-37.62667083740234,-0.23052048683166504,0.022103644907474518,0.033145904541015625,987.6716918945312,0,13.0,1,1
13.92,0.061493695,-0.13616817,9.755627,2.9567861929535866e-05,-0.00042695476440712815,-7.848558016121386e-05,-5.53807544708252,20.751184463500977,-36.879371643066406,-0.22452177107334134,0.02202647179365158,0.04263591766357422,987.6923828125,0,13.0,1,1
13.96,0.056711345999999996,-0.15285103,9.769831,2.9567861929535866e-05,-0.00042695476440712815,-7.848558016121386e-05,-5.709002494812013,20.59147071838379,-37.3825798034668,-0.22792038321495056,0.03151480853557587,0.037924766540527344,987.6923828125,0,13.0,1,1
14.0,0.063878566,-0.14808442,9.765095,-0.00036988139618188143,-2.7484988095238805e-05,0.00018784072017297151,-5.273038387298584,21.21070671081543,-37.947898864746094,-0.22674229741096494,0.021946810185909268,0.04741477966308594,987.6876831054688,0,13.0,1,1
14.04,0.051926494000000004,-0.14093454,9.760361,0.0002959326375275851,0.0006383007857948543,0.00045416713692247873,-5.0463480949401855,21.00126075744629,-37.50867080688477,-0.2299814522266388,0.00776037573814392,0.03797340393066406,987.7101440429688,0,13.0,1,1
14.08,0.056703746,-0.16238396,9.760361,0.0005622729659080505,-0.0005601246957667172,0.0004541776434052736,-5.537257194519043,20.594736099243164,-38.1790771484375,-0.2189409285783768,0.04114135354757309,0.04273414611816406,987.6923828125,0,13.0,1,1
14.12,0.051921427,-0.15523405,9.776932,0.000695455470122397,-0.0004269706550985575,5.471421172842384e-05,-5.494756698608398,20.95036125183105,-37.82151412963867,-0.2178867906332016,0.036159805953502655,0.02854633331298828,987.6775512695312,0,13.0,1,1
14.16,0.051918864,-0.15761729,9.772196000000001,0.00016284803859889507,-0.0006932906107977033,-0.0008773808949626982,-5.391629219055176,21.573381423950195,-37.33496856689453,-0.21671485900878906,0.04047368466854096,0.03802967071533203,987.6773071289062,0,13.0,1,1
14.2,0.049526453,-0.14808406,9.762728,-0.0005029171006754041,0.0003719689848367125,0.0004542090755421668,-5.5067949295043945,21.044496536254886,-37.90215301513672,-0.2153351902961731,0.016465336084365845,0.05225372314453125,987.675048828125,0,13.0,1,1
14.24,0.05430370599999999,-0.15285064,9.762728,2.9739225283265114e-05,0.00010564920376054944,-7.84122385084629e-05,-5.763243198394775,20.96210289001465,-37.395904541015625,-0.21937613189220428,0.03534296154975891,0.033326148986816406,987.6652221679688,0,13.0,1,1
14.28,0.051911235,-0.14570071,9.767462,-0.00023655244149267676,0.0009045928018167617,0.0004542300303000957,-5.888083457946777,20.79266929626465,-37.59770965576172,-0.22302334010601044,0.02060246467590332,0.03333854675292969,987.6851806640624,0,13.0,1,1
14.32,0.049518824,-0.13616760000000003,9.765095,-0.00023652787785977125,-2.75167403742671e-05,0.0001879245974123478,-5.211325645446777,20.741518020629886,-37.62201690673828,-0.20269733667373654,0.011238507926464079,0.03809547424316406,987.66748046875,0,13.0,1,1
14.36,0.06385571,-0.14331729999999998,9.772196000000001,-0.0006359772523865104,0.0006382690044119954,-0.00047785456990823155,-5.636200904846191,20.87063789367676,-37.87203979492188,-0.23503395915031436,0.02527014911174774,0.04757976531982422,987.685302734375,0,13.0,1,1
14.4,0.054293543,-0.14331729999999998,9.765092999999998,-0.0006359282415360213,0.00023878723732195795,5.479808896780014e-05,-5.6348161697387695,20.76619529724121,-37.25026321411133,-0.20999537408351895,0.024953998625278476,0.04286003112792969,987.68017578125,0,13.0,1,1
14.44,0.04473144,-0.13616733,9.779297,0.0008288334356620907,-0.0005601643351837993,5.4808624554425485e-05,-5.530466079711914,20.758554458618164,-37.26589965820313,-0.2085837721824646,0.005676731467247009,0.03814506530761719,987.6854858398438,0,13.0,1,1
14.48,0.04950869,-0.13855062,9.779297,-0.0006358794635161757,-2.753661829046905e-05,5.4819101933389895e-05,-5.319699287414551,20.37645149230957,-37.27602005004883,-0.19791339337825772,0.015228480100631712,0.019225120544433597,987.6851806640624,0,13.0,1,1
14.52,0.05667585,-0.1552334,9.755624000000001,0.00016309286002069712,-0.0001606984733371064,0.0005874613416381179,-5.74221134185791,20.770891189575195,-37.08002471923828,-0.2251429706811905,0.029784694314002987,0.05712890625,987.6954956054688,0,13.0,1,1
14.56,0.05428344,-0.14331706,9.762725999999999,0.00016311707440763712,-0.00016070253332145512,5.484005669131875e-05,-5.78633975982666,21.52012825012207,-37.73294067382813,-0.1955103874206543,0.024912133812904358,0.05714225769042969,987.6932373046876,0,13.0,1,1
14.6,0.042331368,-0.15523328,9.757992,0.0009620891651138664,0.0003719253290910274,-7.830740651115775e-05,-5.479674339294434,20.859174728393555,-37.895484924316406,-0.1993156224489212,0.034155935049057014,0.05241870880126953,987.6731567382812,0,13.0,1,1
14.64,0.04710865,-0.13616706,9.772194,-0.0005026236176490784,0.00010560548980720341,0.00018801889382302758,-5.5725297927856445,21.14097023010254,-37.89766693115234,-0.19365732371807096,0.01000574231147766,0.03822517395019531,987.7006225585938,0,13.0,1,1
14.68,0.05427581,-0.14331682,9.767458,-0.00010312546510249376,0.0010377072030678394,-0.0004777602734975517,-5.298092842102051,21.029207229614254,-37.93341827392578,-0.20704419910907745,0.029327988624572757,0.02877521514892578,987.6728515625,0,13.0,1,1
14.72,0.047576457,-0.14094509,9.760401,0.0006958467420190573,-0.00016071836580522358,0.0004543557588476688,-5.6598711013793945,20.58469581604004,-37.23578643798828,-0.19635629653930664,0.00572812557220459,0.04773235321044922,987.6681518554688,0,13.0,1,1
14.76,0.043295562,-0.15525697,9.767548,0.00016097759362310168,-0.0009593027643859386,0.00018708111019805076,-5.2043962478637695,21.011255264282227,-37.40791320800781,-0.19106367230415344,0.038663990795612335,0.03345775604248047,987.6909790039062,0,13.0,1,1
14.8,0.055280565999999996,-0.15525784,9.758082,-0.0006404971936717629,-3.2031763112172484e-05,-8.401001105085015e-05,-5.533210754394531,21.38774299621582,-36.68641662597656,-0.19918538630008695,0.03337794542312622,0.052407264709472656,987.6753540039062,0,13.0,1,1
14.84,0.052926182999999995,-0.13380922,9.762819,0.00015810795594006774,-0.0010972399031743407,0.0009811068885028362,-5.367989540100098,20.647066116333008,-36.89949035644531,-0.2026890069246292,-5.9798359870910645e-05,0.03822040557861328,987.696044921875,0,13.0,1,1
14.88,0.057741522999999996,-0.14572652,9.769925,-0.0006411820650100707,-0.0004313945246394724,0.00018201244529336688,-5.5840253829956055,20.8668155670166,-37.87985229492188,-0.2016584873199463,0.018856525421142575,0.01929187774658203,987.690673828125,0,13.0,1,1
14.92,0.05538714,-0.13619427,9.767561,-0.00010889256373047829,0.0005007666768506169,0.00044818158494308585,-5.564515113830566,20.674135208129886,-37.486663818359375,-0.19583605229854584,-0.00021819770336151123,0.04771232604980469,987.6633911132812,0,13.0,1,1
14.96,0.048253,-0.15287803,9.758094999999999,-0.0001092349411919713,-0.0006975992582738401,-0.0006172286812216043,-5.639244079589844,20.86769294738769,-37.717430114746094,-0.18474018573760986,0.023118510842323303,0.057193756103515625,987.6810913085938,0,13.0,1,1
15.0,0.048288465,-0.15049566,9.7652,-0.001041682786308229,-0.00043122775969095534,0.000581046100705862,-5.302659034729004,21.024789810180664,-37.70150375366211,-0.1978999376296997,0.022816926240921017,0.03826713562011719,987.6961669921876,0,13.0,1,1
15.04,0.06266338,-0.15049653,9.753366,0.0004227121826261282,-0.0001648563047638163,0.0011135311797261238,-4.992406368255615,19.99848747253418,-37.92021179199219,-0.19681602716445926,0.017877295613288883,0.05248069763183594,987.7088012695312,0,13.0,1,1
15.08,0.05074942,-0.13858105,9.765206,-0.0007760515436530112,-0.0006974325515329838,-0.0006176687311381103,-5.582641124725342,20.76237678527832,-37.258079528808594,-0.1906745731830597,0.022439390420913696,0.047760009765625,987.6759643554688,0,13.0,1,1
15.12,0.06751421,-0.14811505,9.769944,-0.0007763940375298263,-0.00029790314147248864,0.0004474479937925935,-5.879769802093506,20.95796012878418,-36.76183700561523,-0.1992296278476715,0.02232365310192108,0.047768592834472656,987.6759643554688,0,13.0,1,1
15.16,0.055600225999999996,-0.12666638,9.777049,0.0001553691690787673,0.00010162629769183697,4.782743053510785e-05,-5.615603446960449,19.94137382507324,-37.28194427490234,-0.1886054277420044,-0.0017126202583312988,0.03357505798339844,987.6861572265624,0,13.0,1,1
15.2,0.058025688,-0.13858368,9.751013,3.6692945286631584e-05,0.00018471982912160456,0.000246193609200418,-5.165781021118164,21.1000919342041,-37.41905975341797,-0.18764062225818634,0.007588014006614684,0.06199073791503906,987.706298828125,0,13.0,1,1
15.24,0.07001069,-0.13620128,9.753384,-9.680737275630236e-05,-0.00021469840430654585,-0.0008192164823412894,-5.4144816398620605,21.130983352661133,-37.99842071533203,-0.2103961855173111,0.016930416226387024,0.05253124237060547,987.656005859375,0,13.0,1,1
15.28,0.0557068,-0.14096864,9.76759,-0.0004966234555467963,-0.0003478007856756449,0.0003790582122746855,-5.2450761795043945,21.28923225402832,-37.41791534423828,-0.18987531960010529,0.016886219382286072,0.03360939025878906,987.6861572265624,0,13.0,1,1
15.32,0.06291202,-0.14811938,9.743921,-0.0004966234555467963,-0.0003478007856756449,0.0003790582122746855,-5.496278762817383,20.948888778686523,-37.74421310424805,-0.19359126687049866,0.021408990025520325,0.0667581558227539,987.6861572265624,0,13.0,1,1
15.36,0.058167755999999994,-0.15050353,9.758127,-0.00023065006826072929,-0.0004809031379409135,-0.00042003626003861433,-5.18268346786499,20.557668685913086,-37.69265747070313,-0.18768954277038571,0.016546770930290222,0.057301521301269524,987.7090454101562,0,13.0,1,1
15.4,0.051033555999999994,-0.13858797,9.755764,-9.783438872545959e-05,-0.00048084754962474113,0.0003787648165598512,-5.281924247741699,20.201440811157227,-37.81049346923828,-0.18706069886684415,0.011511698365211487,0.052567481994628906,987.671142578125,0,13.0,1,1
15.44,0.058238775,-0.15050526,9.765236,3.498117439448833e-05,0.0008507873862981796,0.00011230213567614555,-5.543482780456543,20.48292350769043,-37.17078018188477,-0.19574619829654694,0.025559872388839718,0.03363513946533203,987.6814575195312,0,13.0,1,1
15.48,0.063054085,-0.1552727,9.760504,-0.00023167708422988653,0.000717685092240572,0.00011215545237064363,-5.451712608337402,20.937700271606445,-37.365501403808594,-0.18543291091918945,0.03510180115699768,0.043112754821777344,987.68896484375,0,13.0,1,1
15.52,0.05114013,-0.1481237,9.779446,-9.886152110993862e-05,-0.00021436490351334212,-0.0006869389908388258,-5.453097343444824,21.042142868041992,-37.98727416992188,-0.17504960298538208,0.02555812895298004,0.03365039825439453,987.7015991210938,0,13.0,1,1
15.56,0.05595541,-0.14335804,9.767612,0.00016711221542209387,0.0011172699742019176,0.0006444937316700816,-5.732100486755371,21.149492263793945,-37.71960830688477,-0.17844578623771667,0.01567620038986206,0.04786396026611328,987.706787109375,0,13.0,1,1
15.6,0.055990934000000006,-0.14335889999999998,9.746311,-0.0004990198649466038,-8.109585905913264e-05,-0.0005540744168683887,-5.34431791305542,20.933000564575195,-37.535743713378906,-0.18728283047676086,0.005933284759521484,0.05733680725097656,987.6890258789062,0,13.0,1,1
15.64,0.048856795,-0.14812629,9.762884,3.326928708702326e-05,-0.0006136720185168087,-0.0009536950383335352,-5.402581214904785,20.930932998657227,-37.21870803833008,-0.1764746457338333,0.024548515677452087,0.0384063720703125,987.6790161132812,0,13.0,1,1
15.68,0.04889232,-0.14097737,9.781825999999999,-0.0003665467957034707,5.217318539507687e-05,-2.1736021153628823e-05,-5.591772556304932,20.7535343170166,-36.79425048828125,-0.17074154317378998,0.005376726388931274,0.028944969177246094,987.6845092773438,0,13.0,1,1
15.72,0.057821274000000006,-0.13381211,9.762831,-0.0005000471137464045,-0.0007467188406735659,-0.0010871464619413018,-5.575031280517578,20.769739151000977,-37.64460754394531,-0.17389383912086487,0.00044342875480651855,0.03374671936035156,987.6688842773438,0,13.0,1,1
15.76,0.05066043,-0.14334534,9.769934,-0.000360164325684309,-8.600560249760747e-05,-0.0004213024512864649,-5.0790138244628915,20.812402725219727,-37.107666015625,-0.16840916872024536,0.014416411519050596,0.052687644958496094,987.6767578125,0,13.0,1,1
15.8,0.048279405,-0.12904592,9.760465,0.0003078875597566366,0.0013783645117655394,-0.0008198069990612566,-5.102408409118652,20.738290786743164,-37.86956405639648,-0.1631343811750412,0.004896685481071472,0.04795932769775391,987.6940307617188,0,13.0,1,1
15.84,0.060237765,-0.13142942,9.762833,-0.00022483000066131356,0.0013783783651888368,-2.0895909983664748e-05,-5.620276927947998,21.04329872131348,-37.42269134521485,-0.17683029174804688,-0.004811406135559082,0.04323005676269531,987.6691284179688,0,13.0,1,1
15.88,0.053076952999999996,-0.14572932,9.760466000000001,-9.175739251077176e-05,-0.0007521347142755985,-2.0932464394718412e-05,-5.256571769714356,21.015077590942386,-37.40010070800781,-0.170823335647583,0.023868873715400696,0.05271339416503906,987.67138671875,0,13.0,1,1
15.92,0.053085864,-0.15526266,9.769936999999999,0.00030763098038733006,0.0005794585449621081,0.00024534662952646613,-5.581118583679199,20.763845443725586,-37.33538818359375,-0.17446687817573547,0.023870751261711117,0.03852272033691406,987.6768188476562,0,13.0,1,1
15.96,0.053094685,-0.14334653,9.762835,0.0003075451822951436,0.00017999860574491322,-0.0001541637466289103,-5.791342258453369,20.777658462524414,-37.22681427001953,-0.16911771893501282,0.014304324984550474,0.05273246765136719,987.6845092773438,0,13.0,1,1
16.0,0.055493474,-0.14572991,9.758101,-9.201397188007832e-05,0.00031317039974965155,-2.1042476873844865e-05,-5.615168571472168,20.67943000793457,-37.55615234375,-0.1731187105178833,0.01893717050552368,0.05274009704589844,987.694580078125,0,13.0,1,1
16.04,0.053112447,-0.1504967,9.765203999999999,-0.00022525747772306207,-0.00021944742184132338,0.0002452366170473397,-5.591634750366211,20.859453201293945,-37.49333190917969,-0.1674191653728485,0.023345381021499637,0.03854084014892578,987.6963500976562,0,13.0,1,1
16.08,0.055511205999999993,-0.15288020000000002,9.767572,-0.0008911328623071313,0.0003131982230115682,-2.111581852659583e-05,-6.113930702209473,21.26595497131348,-37.51361846923828,-0.1715909242630005,0.0276784747838974,0.03854084014892578,987.6741943359376,0,13.0,1,1
16.12,0.0674696,-0.15526374,9.767572,-0.00035858643241226673,0.000579527928493917,0.0003783213323913514,-5.7000083923339835,20.494386672973636,-37.14733123779297,-0.18030227720737454,0.027454167604446408,0.04801559448242188,987.6719970703124,0,13.0,1,1
16.16,0.05313909,-0.14811416,9.767574,-9.23562329262495e-05,0.00044638392864726484,-0.00015434721717610958,-5.522014141082764,21.02976417541504,-37.12910461425781,-0.17433446645736694,0.01787090301513672,0.04329395294189453,987.6847534179688,0,13.0,1,1
16.2,0.05553785,-0.136198,9.751004,-9.244191460311413e-05,-0.0010183396516367793,-0.000553857593331486,-5.445625305175781,20.94359016418457,-37.674720764160156,-0.16829612851142886,0.007798910140991211,0.05750370025634765,987.66943359375,0,13.0,1,1
16.24,0.062716454,-0.13858147,9.769941000000001,-0.0008914750069379807,-0.001151483622379601,-0.0005538942641578615,-5.305703163146973,21.0218448638916,-37.54689407348633,-0.16707083582878113,-0.0017265081405639648,0.03857994079589844,987.714599609375,0,13.0,1,1
16.28,0.05555561,-0.1600311,9.762842,0.0005731768906116487,-8.620614244136959e-05,-0.00015445711323991418,-5.274697303771973,21.103315353393555,-37.17151641845703,-0.1613083779811859,0.031669750809669495,0.04332447052001953,987.6867065429688,0,13.0,1,1
16.32,0.04839477,-0.1457317,9.767577000000001,-0.0004921721993014215,4.69655788037926e-05,-0.0008202834869734943,-5.646991729736327,20.75441169738769,-36.6318244934082,-0.15093180537223816,0.021956205368041992,0.048064231872558594,987.6972045898438,0,13.0,1,1
16.36,0.05079359,-0.16241486,9.76521,0.0011056374059990046,4.697954864241183e-05,0.0007775751873850822,-5.429563522338867,21.222169876098636,-37.92445373535156,-0.164330393075943,0.022045060992240902,0.04807567596435547,987.6942138671876,0,13.0,1,1
16.4,0.053192317,-0.14811547,9.765211,-0.0003591852728277445,-0.0006187963299453259,-0.0002877250663004816,-5.469158172607422,20.76357078552246,-37.737548828125,-0.14891159534454346,0.017181023955345154,0.048084259033203125,987.6968383789062,0,13.0,1,1
16.44,0.067540586,-0.15288223,9.755742999999999,4.020286723971367e-05,0.00018016519607044762,0.00011171208461746572,-5.562013626098633,21.045366287231445,-37.73973083496094,-0.16705715656280518,0.03621383011341095,0.05756282806396485,987.7069702148438,0,13.0,1,1
16.48,0.05321008,-0.15049912,9.772314,0.00030643318314105267,0.00018017910770140588,-0.0002877984079532325,-5.326192378997803,20.844762802124023,-37.76432800292969,-0.15652571618556976,0.02210457623004913,0.04337120056152344,987.6691284179688,0,13.0,1,1
16.52,0.048439145,-0.14334948,9.758111999999999,0.0005726637318730353,-0.0006187546532601117,-0.0002878349623642862,-4.8796043395996085,20.262056350708008,-37.799049377441406,-0.1509597897529602,0.02686646580696106,0.057581901550292976,987.704833984375,0,13.0,1,1
16.56,0.041278302999999995,-0.14096646,9.774683,3.994617145508528e-05,0.00031336487154476345,0.00024476001271978015,-5.357335090637207,20.657373428344727,-37.44062805175781,-0.14076276123523712,0.007479175925254822,0.02917766571044922,987.674560546875,0,13.0,1,1
16.6,0.05801654,-0.14811651,9.774683999999999,-0.0006259289802983402,0.00044653666554950183,0.00011156551772728562,-5.3162193298339835,21.11744880676269,-37.704833984375,-0.15438838303089142,0.021166935563087463,0.029176712036132806,987.68212890625,0,13.0,1,1
16.64,0.050855665999999994,-0.13381709,9.772317999999999,-0.0003596984315663576,0.00031339263659901917,-0.0005542608560062945,-5.5438876152038565,20.957124710083008,-37.96830749511719,-0.15335530042648315,0.0020709633827209477,0.038654327392578125,987.6644287109376,0,13.0,1,1
16.68,0.055456877,-0.14096256,9.760466000000001,-0.0003596984315663576,0.00031339263659901917,-0.0005542608560062945,-5.327171325683594,20.475004196166992,-37.58856964111328,-0.16188782453536987,0.006878018379211426,0.04813385009765625,987.6644287109376,0,13.0,1,1
16.72,0.057656765,-0.13380803,9.769917,-0.0003597842296585441,-0.0004855411243624985,-0.00055429752683267,-5.316356658935547,21.011533737182614,-37.005760192871094,-0.1560317873954773,-0.002565234899520874,0.0434417724609375,987.68212890625,0,13.0,1,1
16.76,0.057650447,-0.15049078,9.762814500000001,5.958194378763437e-05,-0.0002698219032026828,-0.00025930319679901004,-4.91585636138916,20.438535690307614,-37.341880798339844,-0.15493211150169373,0.01165059208869934,0.04345226287841797,987.6720581054688,0,13.0,1,1
16.8,0.048084497000000004,-0.15287395,9.762814,0.00019633246120065448,0.0003953846462536603,-0.00039092154474928975,-5.324670791625977,20.84623908996582,-37.84163665771485,-0.15389089286327362,0.006864801049232483,0.04819774627685547,987.669189453125,0,13.0,1,1
16.84,0.050468057000000004,-0.13619085,9.7533455,6.323552224785091e-05,-0.0009362046839669348,0.00027489446802064776,-5.596200942993164,20.855031967163086,-37.26141357421875,-0.14825166761875153,0.006662458181381226,0.03873443603515625,987.674560546875,0,13.0,1,1
16.88,0.05046171,-0.15287365,9.774649,0.00019645458087325096,-4.109024303033948e-06,0.00014176260447129607,-4.983656883239746,20.90183448791504,-37.358543395996094,-0.1424434781074524,0.02567222714424133,0.02454090118408203,987.6818237304688,0,13.0,1,1
16.92,0.057625055,-0.13619052,9.753344,-0.00020295812282711267,-0.000270434858975932,-0.00025768502382561564,-5.331301689147949,21.208635330200195,-37.63086318969727,-0.15544073283672333,-0.003102347254753113,0.06716060638427734,987.679443359375,0,13.0,1,1
16.96,0.050449044000000005,-0.15049006,9.769914,-6.973918061703444e-05,-0.0009362344862893225,0.000408130872529,-6.021075248718263,20.984155654907227,-37.51143646240234,-0.13577979803085327,0.025465294718742367,0.0529632568359375,987.68701171875,0,13.0,1,1
17.0,0.048052788,-0.1457233,9.765178,0.00019663793500512838,-0.0006699285004287957,0.0005413150065578519,-5.48590087890625,20.74736976623535,-36.88719177246094,-0.14423459768295288,-0.003186896443367005,0.04350566864013672,987.6770629882812,0,13.0,1,1
17.04,0.05760601,-0.14810641,9.77228,-0.00020277488511055708,0.00012900916044600308,-0.0007902382058091463,-5.479269027709961,20.384965896606445,-37.09796142578125,-0.15307767689228058,0.020841404795646667,0.02457714080810547,987.6923828125,0,13.0,1,1
17.08,0.067159295,-0.14333977,9.77228,0.0005962339928373693,0.00026215720572508866,0.00014189357170835137,-5.368830680847168,20.38321876525879,-37.422813415527344,-0.16160324215888974,0.006458863615989685,0.03405475616455078,987.7099609375,0,13.0,1,1
17.12,0.0623731,-0.1504894,9.765177,-0.00033581012394279236,-4.1686289478093386e-06,-0.0005238697049207985,-5.439972877502441,20.211427688598636,-37.70973587036133,-0.15551899373531342,0.01106397807598114,0.04826831817626953,987.6796264648438,0,13.0,1,1
17.16,0.052807182,-0.15525575,9.765177,0.00046325975563377137,-0.00040366232860833406,-0.0005238173180259764,-5.345296859741211,20.563241958618164,-37.35999298095703,-0.14518019556999207,0.020436525344848636,0.034069061279296875,987.6720581054688,0,13.0,1,1
17.2,0.038461447,-0.14333929,9.772278,0.00033016293309628963,0.00012895956751890478,0.000807788223028183,-5.040397644042969,20.9012393951416,-37.118812561035156,-0.1252625435590744,0.0016879439353942873,0.0388174057006836,987.7073974609376,0,13.0,1,1
17.24,0.03606519,-0.1481057,9.779378999999999,0.00019706611055880785,-0.0006699980003759265,0.00014202477177605033,-5.409648418426514,20.555280685424805,-36.733734130859375,-0.12449661642313005,0.015802353620529175,0.019883155822753903,987.6669311523438,0,13.0,1,1
17.28,0.05278814,-0.13857238,9.779378,6.396917160600424e-05,-0.00013737617700826377,-0.0001242650323547423,-5.117629051208496,20.723562240600586,-37.09651184082031,-0.13809773325920105,0.006281703710556029,0.03882884979248047,987.7025756835938,0,13.0,1,1
17.32,0.048002064000000004,-0.14333881,9.765174,0.00033034628722816706,0.00012892976519651708,-0.00025739666307345027,-5.160266876220703,20.26201820373535,-36.75500106811523,-0.13725534081459045,0.011126786470413208,0.038837432861328125,987.7099609375,0,13.0,1,1
17.36,0.047995687,-0.15048845,9.765174,0.0007298811106011271,-4.238070687279105e-06,-0.0002573705860413611,-5.470818519592285,20.656179428100586,-36.961158752441406,-0.1364467442035675,0.016208842396736145,0.04831695556640625,987.6948852539062,0,13.0,1,1
17.4,0.04798937,-0.14572175,9.755704,0.0004636263474822045,0.0003952258557546884,8.971546776592731e-06,-5.591198921203613,21.597505569458008,-37.767539978027344,-0.14040866494178772,0.011320814490318298,0.03412055969238281,987.699951171875,0,13.0,1,1
17.44,0.052762805999999995,-0.13142194,9.750969,6.42136437818408e-05,-0.0008032055338844657,0.00027531356317922473,-5.4908714294433585,21.2171573638916,-37.45280456542969,-0.12499381601810455,-0.007906302809715271,0.06253528594970703,987.6898193359376,0,13.0,1,1
17.48,0.043196857000000005,-0.13618834,9.765171,-0.0003351991763338446,-4.267843905836344e-06,-0.00012413406511768701,-5.502366065979004,20.942995071411133,-37.43498992919922,-0.13433511555194855,0.006323099136352539,0.043598175048828125,987.699951171875,0,13.0,1,1
17.52,0.05275017,-0.14095478,9.75807,-0.0006014538230374455,0.0014604596653953195,-0.0005235816934145987,-5.459728240966797,21.404542922973636,-37.77650451660156,-0.13377828896045685,0.0013038665056228638,0.06727218627929688,987.6923828125,0,13.0,1,1
17.56,0.04557407,-0.15763755,9.772272000000001,-6.876105908304453e-05,0.00012887027696706355,0.0005417080246843399,-5.467637062072754,20.765043258666992,-37.814849853515625,-0.1332293152809143,0.0156460702419281,0.03413581848144531,987.6998291015624,0,13.0,1,1
17.6,0.04795766,-0.1481043,9.765169,0.000996563583612442,0.00012886038166470826,-0.0005235293065197767,-5.1840667724609375,20.662111282348636,-38.314430236816406,-0.12779083847999573,0.020487546920776367,0.024675369262695312,987.6568603515624,0,13.0,1,1
17.64,0.040781617,-0.13618775,9.762802,0.0004639929393306375,-4.307483322918415e-06,0.00014228658983483908,-5.5894317626953125,20.59855079650879,-38.17126083374024,-0.11260852217674255,0.011075764894485474,0.03415203094482422,987.684814453125,0,13.0,1,1
17.68,0.04560268,-0.13857202,9.762806,-0.0003348937025293708,-0.0008032651385292411,0.00040862866444513196,-5.734601020812987,20.77825736999512,-37.46654891967773,-0.12097623944282533,0.00616145133972168,0.04362964630126953,987.68701171875,0,13.0,1,1
17.72,0.045646905999999994,-0.15287273,9.755708,-0.0003351734485477209,-0.0009363775607198477,-0.0005235968274064362,-5.192082405090332,21.12895393371582,-38.725433349609375,-0.12026020139455795,0.02040821313858032,0.06256580352783203,987.6795654296876,0,13.0,1,1
17.76,0.04803425,-0.14572285,9.760442,0.00019692606292665005,-0.00027050147764384747,-0.000523825001437217,-5.696390628814697,21.3413028717041,-38.27522659301758,-0.12397612631320952,0.024837568402290344,0.0530996322631836,987.6649780273438,0,13.0,1,1
17.8,0.043251872000000004,-0.14095624,9.774646,-0.0003356813685968518,0.0002621264720801264,0.0006746068829670547,-5.70497989654541,20.964174270629886,-37.71294403076172,-0.11891119927167892,0.010493755340576172,0.03416252136230469,987.68212890625,0,13.0,1,1
17.84,0.06714839,-0.15287258,9.774646,6.381690036505462e-05,0.00012896439875476062,0.0002751435968093574,-5.7149529457092285,20.69148826599121,-37.772438049316406,-0.14656543731689453,0.015169158577919006,0.03417015075683594,987.68212890625,0,13.0,1,1
17.88,0.045636714,-0.15763904,9.762808999999999,-0.0003356323577463627,-0.0004036712343804538,-0.0002574776881374419,-5.501685619354248,20.680620193481445,-38.03561401367188,-0.1218745782971382,0.029390424489974976,0.048378944396972656,987.6670532226562,0,13.0,1,1
17.92,0.04563415,-0.14572264,9.765176,0.0005964974407106638,-0.000270517310127616,-0.00012430927017703652,-5.812672138214111,20.336732864379886,-37.96757507324219,-0.1113426834344864,0.010312005877494812,0.05312156677246094,987.687255859375,0,13.0,1,1
17.96,0.05519128,-0.14572258,9.774645,6.389035843312739e-05,-0.0010694689117372038,8.859031368046999e-06,-5.757155418395996,20.96799659729004,-37.70513153076172,-0.13465788960456848,0.010103434324264526,0.03418445587158203,987.6948852539062,0,13.0,1,1
18.0,0.0504089,-0.15048905,9.769909,-0.0002024010755121708,0.00039526438922621315,8.869741577655079e-06,-5.69141960144043,20.871511459350586,-37.70960998535156,-0.1290641725063324,0.014704331755638124,0.029455184936523438,987.6796264648438,0,13.0,1,1
18.04,0.038456857000000004,-0.16002212,9.758074,-0.0002024010755121708,0.00039526438922621315,8.869741577655079e-06,-5.443964958190918,21.050981521606445,-38.45110702514648,-0.11385974287986755,0.038446754217147834,0.03892803192138672,987.6796264648438,0,13.0,1,1
18.08,0.045624048,-0.14810564,9.769909,-0.00020237674470990896,-0.0008031610632315277,0.0005415118648670614,-5.271515846252441,21.21217536926269,-38.025203704833984,-0.11339563876390454,0.009851932525634766,0.04840087890625,987.7073974609376,0,13.0,1,1
18.12,0.040841699999999995,-0.13380589,9.755705,-0.0004686679458245635,0.0007947302656248213,-0.0006568991229869425,-5.804764747619629,20.97623634338379,-37.92922592163086,-0.11257707327604294,0.0002847611904144287,0.06261062622070312,987.6770629882812,0,13.0,1,1
18.16,0.055178582999999996,-0.15525539,9.758074,0.000330303912051022,-0.0006700110388919711,8.901057299226522e-06,-5.253390312194824,21.123937606811523,-38.2537841796875,-0.12589064240455627,0.02903074026107788,0.048415184020996094,987.6898193359376,0,13.0,1,1
18.2,0.045616448,-0.13857232,9.762808,0.0011292760027572513,-0.0005368569982238113,0.00040838535642251367,-5.505815505981445,21.414255142211914,-38.077903747558594,-0.10598814487457277,0.005018860101699829,0.03421497344970703,987.7051391601562,0,13.0,1,1
18.24,0.055173516,-0.14095561,9.767541,-3.088946687057614e-05,-0.00033843889832496643,-0.0002327825059182942,-5.574051856994629,21.139501571655273,-37.82036590576172,-0.11977484077215195,0.00048667192459106445,0.029488563537597656,987.674560546875,0,13.0,1,1
18.28,0.055170983,-0.14572205,9.743867999999999,-3.0865368898957975e-05,0.000327346904668957,0.00016670179320499298,-5.311790943145752,21.01595115661621,-37.2376708984375,-0.13367052376270294,0.014687538146972656,0.06263256072998047,987.687255859375,0,13.0,1,1
18.32,0.04321891,-0.14810531,9.769908000000001,-3.084068885073066e-05,0.0005936587112955749,0.0004330281517468393,-5.343201637268066,21.4086856842041,-38.41057586669922,-0.1047189012169838,0.009793683886528015,0.048427581787109375,987.6796264648438,0,13.0,1,1
18.36,0.055165917,-0.13857208,9.748603999999998,-0.00029713212279602885,0.0003273389884270728,0.0002998806885443628,-5.5469322204589835,20.954179763793945,-37.813697814941406,-0.11847804486751555,0.005209371447563171,0.07210731506347656,987.7025756835938,0,13.0,1,1
18.4,0.03843403,-0.14333867,9.772274000000001,0.0006349976756609976,0.0009931246750056744,-9.958265582099556e-05,-5.339752197265625,20.93742179870605,-37.767662048339844,-0.09880336374044417,0.010076537728309631,0.02003383636474609,987.6822509765624,0,13.0,1,1
18.44,0.04321131,-0.15048833,9.760438,0.0006350223557092249,-0.00020530073379632088,0.001232007285580039,-5.58953857421875,21.704893112182614,-38.543922424316406,-0.11253473907709123,0.014913573861122131,0.04371261596679688,987.68994140625,0,13.0,1,1
18.48,0.045598686,-0.16002138,9.755704,0.0005018887459300458,0.0003273269976489246,-0.0004990356392227113,-5.754654407501222,21.3392276763916,-37.95818710327149,-0.10749658197164537,0.019551709294319156,0.07211780548095703,987.6694946289062,0,13.0,1,1
18.52,0.045596122999999995,-0.13857187,9.753336000000001,0.0006350956973619759,-0.0004716285329777747,0.0006994068389758468,-5.658892154693604,20.9544620513916,-37.411537170410156,-0.101630836725235,0.009739518165588379,0.043715476989746094,987.6873779296876,0,13.0,1,1
18.56,0.04559362,-0.14810489,9.765171,-0.00043014361290261155,0.00019415729911997914,0.0005662593757733703,-5.253527641296387,21.018022537231445,-37.5547103881836,-0.09634895622730257,0.009676814079284668,0.06265544891357422,987.7076416015624,0,13.0,1,1
18.6,0.050370872000000004,-0.14095499,9.767538,-0.00016380316810682416,-0.0006047944771125912,0.000166795973200351,-5.463750839233398,21.031831741333008,-37.446136474609375,-0.11461344361305235,0.019141018390655518,0.020049095153808597,987.7000732421876,0,13.0,1,1
18.64,0.057538032999999995,-0.14095496,9.75807,-3.062066389247775e-05,0.00032730726525187487,0.0005662803887389599,-5.588728427886963,20.756479263305664,-36.9488639831543,-0.11887244880199432,0.014437422156333925,0.05319499969482422,987.6923828125,0,13.0,1,1
18.68,0.05546522,-0.14334606,9.765202,0.0005020354292355479,-7.217057282105088e-05,0.0006994487484917045,-5.494213581085205,20.58207130432129,-37.723060607910156,-0.10402965545654297,0.009795203804969788,0.04843807220458984,987.68994140625,0,13.0,1,1
