Timestamp,Ax,Ay,Az,Gx,Gy,Gz,Mx,My,Mz,LiAx,LiAy,LiAz,P,Value,Type,GroupType,Activities
0.0,0.07978487,-0.15300669,9.756207,-0.0006305662682279943,-0.0010662432760000227,0.000387692212825641,-4.663368225097656,18.154024124145508,-38.06081771850586,-0.009531546384096146,0.0013915300369262695,0.028371810913085938,987.7655029296876,0,13.0,1,1
0.04,0.0629217,-0.15300341,9.768031,-0.00023090920876711607,0.004925834946334362,-0.0002780191134661436,-4.267135620117188,18.208749771118164,-37.74016189575195,-0.8347817063331604,1.347773551940918,-0.06938934326171875,987.654052734375,0,13.0,1,1
0.08,0.06529006,-0.14823635,9.768028999999999,0.0010919761843979359,0.0018251725705340505,-0.0003167515969835222,-9.023855209350586,17.047014236450195,-37.054664611816406,-0.8431615829467773,1.3361493349075315,-0.06430339813232422,987.5978393554688,0,13.0,1,1
0.12,0.07004827,-0.15300234,9.753824,-0.00010815466521307826,-0.00017096131341531873,-4.908384289592505e-05,-9.02446746826172,17.36235237121582,-36.80357360839844,-0.8371527194976807,1.343639612197876,-0.05448436737060547,987.6510620117188,0,13.0,1,1
0.16,0.070026696,-0.15538509,9.770392999999999,-0.000107946980278939,0.00036163665936328465,8.416327182203531e-05,-9.127226829528807,17.424421310424805,-37.21479034423828,-0.8357130289077759,1.350940823554993,-0.0493621826171875,987.6382446289062,0,13.0,1,1
0.2,0.07000515,-0.16253434,9.779860000000001,-0.0005072130006738007,-0.0003041868330910802,-0.00018206355161964893,-9.240368843078613,17.29203987121582,-37.035640716552734,-0.8393483757972717,1.3536453247070312,-0.06322097778320312,987.6307373046876,0,13.0,1,1
0.24,0.067593664,-0.16730042,9.779858,0.0005582585581578313,0.00036156908026896417,8.434138726443052e-05,-9.154714584350586,16.924646377563473,-37.29677963256836,-0.8331990242004395,1.3515393733978271,-0.07232284545898438,987.6476440429688,0,13.0,1,1
0.28,0.069961995,-0.15538348,9.758550999999999,0.00029215047834441066,9.521955507807434e-05,-4.872737918049097e-05,-8.881501197814941,17.443540573120114,-36.830360412597656,-0.841030478477478,1.3446340560913086,-0.062457084655761726,987.6529541015624,0,13.0,1,1
0.32,0.05560106,-0.15299971,9.760916,2.604263136163354e-05,-0.0007037619361653924,-4.863826325163245e-05,-9.204729080200195,17.430891036987305,-37.2417106628418,-0.8156951069831848,1.3421229124069214,-0.06203651428222656,987.6652221679688,0,13.0,1,1
0.36,0.07230878,-0.15299918,9.77275,-0.0011721712071448565,-0.00017116389062721282,0.0007503983797505497,-9.107429504394533,17.653722763061523,-37.3082389831543,-0.8283775448799133,1.344541072845459,-0.05688571929931641,987.6248779296876,0,13.0,1,1
0.4,0.067507386,-0.15061535,9.760912,0.00015961617464199662,-0.0007038294570520519,0.000484171585412696,-8.988486289978027,17.370012283325195,-37.30997085571289,-0.8271880745887756,1.3276771306991575,-0.05648040771484375,987.6449584960938,0,13.0,1,1
0.44,0.06748584,-0.15061481,9.76091,-0.0007722813752479851,0.0007608742453157903,0.000617418612819165,-9.169593811035156,16.778730392456055,-36.82404708862305,-0.825702428817749,1.3251543045043943,-0.056056976318359375,987.6755981445312,0,13.0,1,1
0.48,0.06268448,-0.15538086,9.751439,0.00029339775210246444,-0.0008370885625481607,0.0002181229938287288,-9.608789443969727,16.999773025512695,-37.03874588012695,-0.8190521597862244,1.3229645490646362,-0.036708831787109375,987.6468505859376,0,13.0,1,1
0.52,0.067442685,-0.15299709,9.76564,2.7289788704365492e-05,0.0004944570828229189,0.00021821213886141774,-8.970647811889648,16.859785079956055,-37.05190658569336,-0.8273861408233643,1.325345158576965,-0.06946563720703125,987.63720703125,0,13.0,1,1
0.56,0.06742111,-0.15299649999999998,9.765638000000001,-0.0007714499370194973,0.0011602130252867935,0.000218301109271124,-8.759445190429688,17.21573829650879,-37.33623123168945,-0.8261452913284302,1.3273760080337524,-0.04536724090576172,987.6317749023438,0,13.0,1,1
0.6,0.0793491,-0.15537931,9.760902,-0.00023861025692895055,-0.001236663549207151,8.523231372237206e-05,-9.055131912231444,17.149686813354492,-37.47926712036133,-0.8288314342498779,1.315342903137207,-0.04490375518798828,987.6620483398438,0,13.0,1,1
0.64,0.067378044,-0.15061219,9.7632675,-0.00010524451499804853,9.488195064477624e-05,-0.00018099445151165128,-9.167092323303224,17.149969100952152,-37.077110290527344,-0.8273293972015381,1.3127431869506836,-0.04447555541992188,987.6416625976562,0,13.0,1,1
0.68,0.060186744,-0.14822842,9.772734,-0.0003713525948114693,-0.00030462551512755454,0.0007512002484872937,-8.929462432861328,17.37281608581543,-37.66565322875977,-0.8065344095230103,1.3052253723144531,-0.0676889419555664,987.6519165039062,0,13.0,1,1
0.72,0.060165167,-0.14822783,9.770366000000001,-0.00037114456063136464,-0.00017150136409327388,0.0007512893062084912,-8.684022903442383,16.96995735168457,-36.79458618164063,-0.814350426197052,1.3169782161712646,-0.0625162124633789,987.6467895507812,0,13.0,1,1
0.76,0.07448298,-0.15299393,9.767997,2.8537062462419268e-05,9.478078573010862e-05,-0.0003138851607218385,-8.954926490783691,17.26955223083496,-37.00132369995117,-0.8176529407501221,1.300011396408081,-0.062084197998046875,987.6362915039062,0,13.0,1,1
0.8,0.06490183,-0.15537663,9.758526,-0.0005038868985138834,0.0010268527548760176,-0.0005801119841635227,-9.29323673248291,17.348085403442386,-37.33871078491211,-0.7923865318298341,1.31150484085083,-0.028504371643066406,987.6614379882812,0,13.0,1,1
0.84,0.06488022,-0.15537609,9.756155,-0.0005036788643337786,-0.00030476046958938236,-0.00031370692886412144,-9.076642036437988,17.366167068481445,-36.79576110839844,-0.8097666501998901,1.2895342111587524,-0.03749370574951172,987.6563720703124,0,13.0,1,1
0.88,0.07202837,-0.16967525,9.758521,-0.0003703131224028766,-0.0005711101111955942,-0.0005799336358904839,-9.217677116394043,17.208219528198242,-37.49613571166992,-0.8128092288970947,1.305884599685669,-0.05124378204345703,987.6561279296876,0,13.0,1,1
0.92,0.06483716,-0.16014160000000002,9.770355,0.00029568449826911086,0.0004941197112202643,-0.0005798446945846081,-9.266605377197266,16.977880477905273,-37.2441635131836,-0.8064848184585571,1.3031245470046997,-0.060269355773925774,987.6611938476562,0,13.0,1,1
0.96,0.060035765,-0.15775777,9.749048,-0.00023673934629186988,-3.8545840652659535e-05,-0.0007129134610295296,-9.25621223449707,17.382490158081055,-36.923011779785156,-0.7897471189498901,1.2988760471343994,-0.031179428100585938,987.6585693359376,0,13.0,1,1
1.0,0.066836804,-0.16728182,9.765585,0.0002961002173833549,0.0012929999502375722,-0.0005796665791422129,-9.076642036437988,17.36617088317871,-36.79575729370117,-0.7988156676292419,1.3070197105407717,-0.035714149475097656,987.6636962890624,0,13.0,1,1
1.04,0.05927753400000001,-0.16727228,9.767917,-0.0005047139129601419,0.0006297100335359572,9.010580834001304e-05,-9.111872673034668,17.149091720581055,-37.23953247070313,-0.8013086915016174,1.2848689556121826,-0.04937267303466797,987.6636962890624,0,13.0,1,1
1.08,0.06400788,-0.16012122,9.770278999999999,-0.0007680944981984794,-0.00016971408331301063,-0.0005744260270148517,-8.981706619262695,17.32368278503418,-37.30830383300781,-0.7995196580886841,1.2960718870162964,-0.05360889434814453,987.671142578125,0,13.0,1,1
1.12,0.06395846599999999,-0.16012006,9.763174000000001,-0.000634459953289479,-0.0003029494546353817,-0.0003079057205468416,-8.876594543457031,17.316778182983402,-37.362586975097656,-0.7975907325744629,1.2929824590682983,-0.048370361328125,987.656005859375,0,13.0,1,1
1.16,0.07107872,-0.16726865,9.772637,-0.00036766770062968135,-0.00016986881382763386,9.177217725664376e-05,-9.14800262451172,16.82535743713379,-36.945579528808594,-0.7907530069351196,1.3041036128997805,-0.05257892608642578,987.68115234375,0,13.0,1,1
1.2,0.082978785,-0.15773429,9.7631645,3.2282958272844546e-05,-0.001501525635831058,9.197648614645004e-05,-8.906147003173828,17.18381690979004,-37.46572494506836,-0.8075436353683472,1.2869819402694702,-0.037873268127441406,987.6553344726562,0,13.0,1,1
1.24,0.068589926,-0.15534987,9.756058,-0.0010325037874281406,-0.00017002357344608754,0.00035849664709530765,-8.690803527832031,17.016286849975586,-36.79624938964844,-0.7863744497299194,1.2836358547210691,-0.046802520751953125,987.6455688476562,0,13.0,1,1
1.28,0.078100085,-0.1577319,9.779725,-0.0010325037874281406,-0.00017002357344608754,0.00035849664709530765,-8.81917667388916,16.659025192260742,-36.75556564331055,-0.8030600547790527,1.2806811332702637,-0.060482978820800774,987.6455688476562,0,13.0,1,1
1.32,0.07088089,-0.1505809,9.760784,-9.992189006879926e-05,-0.001102206646464765,0.0007581746904179454,-9.073869705200195,17.55326271057129,-36.99959182739258,-0.79178786277771,1.2776145935058594,-0.05053520202636719,987.6505737304688,0,13.0,1,1
1.36,0.07083148,-0.16249599,9.765513,-9.944516932591796e-05,9.613754809834063e-05,-0.0004400424659252167,-8.921568870544434,17.406187057495114,-37.09144592285156,-0.7986971139907837,1.2682459354400637,-0.04034137725830078,987.6608276367188,0,13.0,1,1
1.4,0.06600219,-0.15534498,9.756041,0.0005668211379088461,0.0006286919815465808,-0.0003066802164539695,-8.8386869430542,16.85170555114746,-37.14875411987305,-0.7880215048789978,1.2619959115982056,-0.035355567932128906,987.67041015625,0,13.0,1,1
1.44,0.07312244,-0.15772705,9.765505000000001,-9.84918442554772e-05,9.598277392797172e-05,0.001291419262997806,-8.719728469848633,17.174127578735348,-37.68635177612305,-0.7812739014625549,1.2632607221603394,-0.03954505920410156,987.6301879882812,0,13.0,1,1
1.48,0.065903306,-0.15772589,9.758398,-0.0011632787063717842,9.590547415427864e-05,-3.995583392679691e-05,-8.874950408935547,16.81803321838379,-37.60310363769531,-0.788411557674408,1.2553131580352783,-0.05320835113525391,987.67529296875,0,13.0,1,1
1.52,0.07063365,-0.15057482,9.770228999999999,-0.00036385451676324015,-0.0008362774970009923,0.000626038177870214,-9.031055450439453,16.961427688598633,-37.31798934936523,-0.78144770860672,1.252009034156799,-0.052674293518066406,987.6448364257812,0,13.0,1,1
1.56,0.07536399,-0.16010667,9.758389,-0.0003633780288510025,-0.0005700390320271254,-0.00030586321372538805,-9.092687606811523,17.693723678588867,-37.0818977355957,-0.7839637994766235,1.2582770586013794,-0.03793621063232422,987.62451171875,0,13.0,1,1
1.6,0.06814486,-0.164872,9.777322999999999,-9.658531052991748e-05,-0.0007032743305899202,0.0004932887386530638,-9.06647777557373,17.191598892211914,-37.24901580810547,-0.7724956274032593,1.2549818754196167,-0.046894073486328125,987.655029296875,0,13.0,1,1
1.64,0.060925692000000004,-0.15533770000000002,9.779684,-0.0004977898788638413,0.0001561050012242049,-0.00033939478453248734,-9.184197425842283,16.84464454650879,-37.74946594238281,-0.7657063007354736,1.2469922304153442,-0.05585289001464844,987.6652221679688,0,13.0,1,1
1.68,0.07521564,-0.15056993,9.758375,0.00016847619554027915,0.00028918552561663086,6.028322968631982e-05,-8.996176719665527,17.09953498840332,-37.48541641235352,-0.7785283327102661,1.2344087362289429,-0.0411977767944336,987.6676025390624,0,13.0,1,1
1.72,0.0679965,-0.1434189,9.76784,0.00043526868103072047,0.0005554240196943283,-0.0003389862831681967,-8.885194778442383,16.729494094848633,-37.71181869506836,-0.7606543302536011,1.2249062061309814,-0.035681724548339844,987.6751098632812,0,13.0,1,1
1.76,0.07750666,-0.15533404,9.770203,0.00016942952061071992,-0.00024360099632758647,-0.0004719400312751532,-9.028352737426758,17.095556259155273,-37.17228698730469,-0.7775472402572632,1.2357475757598877,-0.039870262145996094,987.6676025390624,0,13.0,1,1
1.8,0.06789762,-0.14818306,9.755995,3.674818435683847e-05,-0.000643152161501348,-0.0010043674847111106,-9.116641998291016,17.381772994995114,-37.4063835144043,-0.7616994380950928,1.2294119596481323,-0.030118942260742188,987.632080078125,0,13.0,1,1
1.84,0.067848146,-0.17201464,9.770192999999999,3.7224788684397936e-05,-0.0009095454588532447,-0.0007378472946584225,-9.565757751464844,16.776968002319336,-37.4942512512207,-0.7598940134048462,1.2497968673706057,-0.04381084442138672,987.6571655273438,0,13.0,1,1
1.88,0.06540882599999999,-0.16486348,9.767822,-0.00022861472098156813,2.248279633931816e-05,-0.0006044851616024972,-9.54760456085205,17.505006790161133,-37.34718704223633,-0.7534070014953613,1.2277611494064329,-0.048096656799316406,987.65478515625,0,13.0,1,1
1.92,0.07252908,-0.16486229,9.767816999999999,-9.450322249904276e-05,0.000421801843913272,6.171304266899824e-05,-9.44789981842041,17.229833602905273,-37.69287490844727,-0.7693634033203125,1.2274695634841921,-0.02837657928466797,987.6318969726562,0,13.0,1,1
1.96,0.07725942,-0.15532799,9.763079,0.0001722889137454331,0.000288566603558138,-0.00033755647018551826,-9.393564224243164,17.728437423706055,-37.65343856811523,-0.7577952146530151,1.2193670272827148,-0.0373382568359375,987.6338500976562,0,13.0,1,1
2.0,0.06586295,-0.15057506,9.756027,0.0001722889137454331,0.000288566603558138,-0.00033755647018551826,-9.393564224243164,17.728437423706055,-37.65343856811523,-0.7480382919311523,1.208228588104248,-0.01348876953125,987.6338500976562,0,13.0,1,1
2.04,0.07061738,-0.15772422,9.767861,0.00043908139923587436,0.0008211209205910562,-0.00033735227771103377,-9.361308097839355,17.995527267456055,-37.40459060668945,-0.7557549476623535,1.1954694986343384,-0.04614830017089844,987.6572265625,0,13.0,1,1
2.08,0.072981894,-0.15534033,9.763124000000001,0.00043168634874746203,0.00042758104973472655,6.15339376963675e-05,-9.270682334899902,17.158342361450195,-37.10012817382813,-0.7683925628662109,1.2110074758529663,-0.03617572784423828,987.6593627929688,0,13.0,1,1
2.12,0.07295650000000001,-0.14818986,9.770224,-0.0003670164733193815,0.0014928046148270366,0.0001947968266904354,-9.103081703186037,17.289113998413086,-37.403053283691406,-0.7516776323318481,1.1886202096939087,-0.04985332489013672,987.6465454101562,0,13.0,1,1
2.16,0.08010083400000001,-0.16963877,9.756018,0.00016585976118221882,-0.00010513013694435358,-0.00033773010363802314,-9.071395874023438,17.108217239379886,-37.62830352783203,-0.7641727328300476,1.2137750387191772,-0.01147747039794922,987.6437377929688,0,13.0,1,1
2.2,0.08246535,-0.160105,9.772585000000001,0.00016610458260402086,0.0002943039580713957,6.18485501036048e-05,-9.437995910644533,17.449560165405273,-37.28384780883789,-0.7522916197776794,1.196016550064087,-0.04881858825683594,987.674560546875,0,13.0,1,1
2.24,0.07049042,-0.14342149,9.765482,0.0005658231093548237,0.0005605801707133652,0.00019511138089001181,-9.154022216796877,16.872426986694336,-36.98589706420898,-0.7547047138214111,1.1923924684524536,-0.03879737854003906,987.6465454101562,0,13.0,1,1
2.28,0.07046509,-0.14818735,9.76548,-0.0004991958267055452,-0.00023840719950385392,6.20582140982151e-05,-8.980892181396484,16.771245956420902,-37.16062545776367,-0.7432035207748413,1.1888974905014038,-0.05249309539794922,987.65673828125,0,13.0,1,1
2.32,0.072829604,-0.15295334,9.772578999999999,3.368064062669873e-05,0.00016102686640806496,6.216316251084207e-05,-8.884013175964355,16.862154006958008,-37.48881149291992,-0.7410946488380432,1.180705428123474,-0.0377798080444336,987.6668701171876,0,13.0,1,1
2.36,0.06563449,-0.15771927,9.777311,0.00030024099396541715,0.00042730299173854286,-0.000869837764184922,-9.025105476379396,16.861398696899414,-36.92813491821289,-0.7341326475143433,1.1964975595474243,-0.0467519760131836,987.65673828125,0,13.0,1,1
2.4,0.067999005,-0.14103572,9.760738,0.0009662756347097458,0.0004272633523214608,0.00019553079619072375,-9.022401809692383,16.99553108215332,-36.78242874145508,-0.7271862030029297,1.1643970012664795,-0.02256011962890625,987.6465454101562,0,13.0,1,1
2.44,0.07036355,-0.14818488,9.7702055,0.000167572230566293,-0.00023856607731431723,-0.0004701542784459889,-8.845887184143066,16.766107559204098,-37.41208267211914,-0.7344539165496826,1.165615797042847,-0.040968894958496094,987.6490478515624,0,13.0,1,1
2.48,0.07511794599999999,-0.14580102,9.767836,3.4659227821975946e-05,0.0002940259000752121,0.00046205639955587685,-9.121644020080566,16.63930320739746,-36.90026092529297,-0.7417736053466797,1.1668388843536377,-0.03570842742919922,987.64404296875,0,13.0,1,1
2.52,0.07987237,-0.15533347,9.755997,0.00030121958116069436,0.0001608282618690282,-7.047055987641214e-05,-9.292762756347656,16.926836013793945,-36.89072036743164,-0.7400908470153809,1.1679027080535889,-0.02573871612548828,987.6470947265624,0,13.0,1,1
2.56,0.07028741,-0.15056632,9.763096,-0.0003643254167400301,0.0014923680573701859,0.00046226609265431756,-9.419939041137695,17.308359146118164,-37.16289138793945,-0.7330316305160522,1.159666657447815,-0.015752792358398438,987.6895141601562,0,13.0,1,1
2.6,0.07265189,-0.15771551,9.772563,0.0004348668153397739,2.7590926038101312e-05,0.0003292128967586905,-8.89887809753418,17.322370529174805,-37.55194091796875,-0.7213205099105835,1.15148663520813,-0.024723052978515625,987.6720581054688,0,13.0,1,1
2.64,0.0726265,-0.15533163,9.770192999999999,0.000568269460927695,0.0005601828452199697,0.0004624757566489278,-9.153952598571776,16.925382614135742,-37.3354377746582,-0.7384588718414307,1.1621867418289185,-0.03368473052978516,987.6564331054688,0,13.0,1,1
2.68,0.067821324,-0.155331,9.760722,0.0001690404606051743,0.0005601432640105486,-7.005123188719153e-05,-9.11699390411377,17.302812576293945,-38.01758575439453,-0.7122477293014526,1.1631120443344116,-0.028400421142578125,987.6386108398438,0,13.0,1,1
2.72,0.07735559,-0.15771364,9.760719,-9.703083196654916e-05,0.0005601035663858057,0.0005958434194326402,-8.934938430786133,17.051591873168945,-37.607521057128906,-0.7290771007537842,1.1548534631729126,-0.01842021942138672,987.6388549804688,0,13.0,1,1
2.76,0.07733017,-0.16247953,9.763084,3.6371813621371984e-05,2.743204822763801e-05,-0.000469315389636904,-8.952372550964355,17.087614059448242,-37.06805419921875,-0.7217909097671509,1.1512309312820437,-0.02735137939453125,987.65673828125,0,13.0,1,1
2.8,0.07252502400000001,-0.16009568,9.7559805,0.000702406105119735,-0.00023892355966381734,6.342137930914761e-05,-8.990035057067871,16.552255630493164,-37.60830307006836,-0.7147597074508667,1.142662525177002,-0.007876396179199219,987.66943359375,0,13.0,1,1
2.84,0.070109695,-0.15294524,9.755978,0.00017001904780045152,0.0004268264456186444,-0.00033594761043787,-9.20141315460205,17.249692916870114,-37.34710311889648,-0.7170013785362244,1.1437231302261353,-0.03100299835205078,987.661865234375,0,13.0,1,1
2.88,0.067694426,-0.15056135,9.760710000000001,-9.605236118659376e-05,-0.0006384768057614565,6.363104330375789e-05,-9.456963539123537,17.273954391479492,-37.57858657836914,-0.7146300077438354,1.130536437034607,-0.035213470458984375,987.6338500976562,0,13.0,1,1
2.92,0.07483876,-0.15771051,9.777279,0.0003036663983948529,-0.0003722006804309786,-0.0011346854735165837,-9.16620922088623,16.65049171447754,-37.278968811035156,-0.7122906446456909,1.136446475982666,-0.0394277572631836,987.65673828125,0,13.0,1,1
2.96,0.060724735,-0.16009931,9.782034,0.0003041556919924915,-0.00037228010478429496,0.00019710365450009704,-9.013744354248047,17.42561912536621,-37.694252014160156,-0.6993540525436401,1.1260415315628052,-0.0339202880859375,987.6312866210938,0,13.0,1,1
3.0,0.07291489999999999,-0.16248854,9.77022,0.0003041556919924915,-0.00037228010478429496,0.00019710365450009704,-9.013744354248047,17.42561912536621,-37.694252014160156,-0.6932135820388794,1.1242176294326782,-0.028914451599121094,987.6312866210938,0,13.0,1,1
3.04,0.070519865,-0.14342220000000003,9.774954,-0.00023005373077467084,-0.000638339901342988,-0.00020304630743339655,-9.31212329864502,17.43558692932129,-37.07147216796875,-0.7000430822372437,1.1107912063598633,-0.033084869384765625,987.6590576171876,0,13.0,1,1
3.08,0.0705148,-0.15295519,9.756016,0.00016649352619424462,-0.0007710227509960532,-0.00020430056611076,-8.972792625427246,16.963495254516598,-37.63502883911133,-0.7071778774261475,1.1115573644638062,-0.018329620361328125,987.6614379882812,0,13.0,1,1
3.12,0.077679455,-0.14580525,9.753648,-0.0008254312560893595,-0.000274928635917604,3.481149906292558e-05,-8.900548934936523,17.004827499389652,-37.68706893920898,-0.6951408982276917,1.1031150817871094,-0.0036029815673828134,987.6338500976562,0,13.0,1,1
3.16,0.06333497,-0.15295492,9.770218,0.0003730391035787761,-0.00014177858247421682,3.483257023617625e-05,-9.134576797485352,17.022760391235348,-37.69054794311523,-0.6831218004226685,1.1090199947357178,-0.03149604797363281,987.6741943359376,0,13.0,1,1
3.2,0.05855009,-0.14818819,9.763116,0.0007725618197582662,-0.00014178655692376196,-0.00023146235616877675,-9.386459350585938,16.944791793823242,-37.41622161865234,-0.6714725494384766,1.0909856557846072,-0.01679515838623047,987.6491088867188,0,13.0,1,1
3.24,0.06571472,-0.16487102,9.75128,-2.6336812879890203e-05,0.00025767931947484607,-0.00036459934199228883,-9.086068153381348,17.12117576599121,-38.20418167114258,-0.6832593679428101,1.1155788898468018,-0.016241073608398438,987.6592407226562,0,13.0,1,1
3.28,0.070489466,-0.14818801,9.760748,-0.0009583447244949641,-8.65239417180419e-06,-0.00023139949189499018,-8.906567573547363,17.05189323425293,-37.72739028930664,-0.6809118986129761,1.0925230979919434,-0.0109710693359375,987.6539306640624,0,13.0,1,1
3.32,0.08004397,-0.16248749,9.763114999999999,-0.0002925060107372701,-0.0001418182800989598,-9.822059655562043e-05,-8.92076587677002,16.643606185913086,-37.85527801513672,-0.6878747940063477,1.102721095085144,-0.0246124267578125,987.6873168945312,0,13.0,1,1
3.36,0.068089426,-0.15772082,9.763114,0.00010701670544221996,-0.001073931809514761,3.495829878374934e-05,-8.946704864501953,16.96158790588379,-37.63893508911133,-0.6791185140609741,1.0875638723373413,-0.014354705810546875,987.6564331054688,0,13.0,1,1
3.4,0.07764393,-0.15772070000000002,9.74891,0.0006396971293725072,0.00012448179768398404,-0.0008971264469437301,-8.955687522888184,17.26881217956543,-36.96267318725586,-0.6874737739562988,1.0855587720870972,-0.004616737365722656,987.66943359375,0,13.0,1,1
3.44,0.0800288,-0.14818753,9.763113,-0.00029235944384709,0.00012447376502677798,0.00016815814888104794,-8.866567611694336,17.036287307739258,-37.11676406860352,-0.6850078701972961,1.07693350315094,-0.02303314208984375,987.6513061523438,0,13.0,1,1
3.48,0.07285398,-0.15295391,9.763113,0.0006397952674888074,-0.0004081659426447004,-9.813677752390504e-05,-9.027591705322266,17.09629249572754,-37.21094131469727,-0.6776526570320129,1.0780085325241089,-0.008319854736328125,987.6444091796876,0,13.0,1,1
3.52,0.06806913,-0.1481873,9.760744,0.00037352816434577113,-0.0002750159183051437,0.0004345159395597875,-9.015064239501953,17.187040328979492,-37.21818161010742,-0.6703102588653564,1.0694981813430786,-0.0078067779541015625,987.6641235351562,0,13.0,1,1
3.56,0.07045391,-0.14818718,9.763111,-0.00029221287695690984,-0.0002750238636508584,0.00016822089673951268,-8.93806266784668,16.785539627075195,-38.01488876342773,-0.6663368940353394,1.0633296966552734,-0.021185874938964844,987.6389770507812,0,13.0,1,1
3.6,0.06566906,-0.14342041,9.763111,-0.0008247955120168626,-0.00014187386841513216,-0.0003643897944130004,-9.23574924468994,16.743288040161133,-37.08122253417969,-0.6510531902313232,1.0612542629241943,-0.006730079650878906,987.661865234375,0,13.0,1,1
3.64,0.07283372,-0.14818682,9.767845,-0.0002921147388406098,0.0010565395932644606,-9.805290028452872e-05,-9.0338134765625,17.380464553833008,-37.65002059936523,-0.6727882623672485,1.047678828239441,-0.034626007080078125,987.6542358398438,0,13.0,1,1
3.68,0.07282865,-0.15295325,9.760743,-0.0002920659608207643,-0.00027504769968800247,0.0007009156979620457,-9.595160484313963,16.96006965637207,-37.38495635986328,-0.670081377029419,1.0579934120178225,-0.02462387084960937,987.6318359375,0,13.0,1,1
3.72,0.072823554,-0.16010298,9.767843,0.00010745663894340396,-0.0002750556450337172,3.514677518978715e-05,-9.244403839111328,16.70918083190918,-37.61678695678711,-0.6535050272941589,1.0588586330413818,-0.01465606689453125,987.684814453125,0,13.0,1,1
3.76,0.07759830000000001,-0.16248615,9.767843,0.00010750576620921491,0.00039072608342394233,0.00043464172631502146,-9.103991508483887,16.97231101989746,-37.57683563232422,-0.6653253436088562,1.0596503019332886,6.4849853515625e-05,987.6692504882812,0,13.0,1,1
3.8,0.0752033,-0.1648693,9.765475,0.000507028482388705,0.000390718225389719,-0.0002311269636265933,-9.577917098999023,17.371309280395508,-37.41167831420898,-0.6534675359725952,1.0512042045593262,-0.013662338256835938,987.664794921875,0,13.0,1,1
3.84,0.07041842,-0.16248591,9.77021,-0.00015871232608333233,-8.763570804148912e-06,-0.0004974220064468682,-9.515578269958496,17.19291877746582,-37.87274932861328,-0.6557554602622986,1.0566574335098269,-0.017876625061035156,987.6516723632812,0,13.0,1,1
3.88,0.077583045,-0.15295269,9.76074,0.0005071261548437178,-8.771487046033144e-06,-9.792722994461657e-05,-9.06628704071045,16.74434471130371,-37.76176834106445,-0.6579439640045166,1.0433553457260132,-0.012643814086914062,987.6592407226562,0,13.0,1,1
3.92,0.06562847,-0.16248567,9.758372999999999,0.0006403331062756479,-0.0006745691644027829,-0.0003642220399342477,-8.95284652709961,17.50886344909668,-37.51604461669922,-0.6361108422279358,1.044291615486145,-0.007403373718261719,987.6694946289062,0,13.0,1,1
3.96,0.079773724,-0.1529478,9.75362,-0.00015856564277783036,-0.0012072089593857527,-0.0006305170827545227,-9.297462463378906,17.21247673034668,-37.4071044921875,-0.6521472334861755,1.0305917263031006,0.0073642730712890625,987.6343383789062,0,13.0,1,1
4.0,0.07498121,-0.15533073,9.758353999999999,-0.0014910728204995394,0.0007905040984041988,0.00017091428162530065,-9.384176254272461,16.94700050354004,-37.53217697143555,-0.6405411958694458,1.026154637336731,-0.0015859603881835938,987.6521606445312,0,13.0,1,1
4.04,0.07735845400000001,-0.14579733,9.770188000000001,-0.0002923047286458313,0.0019888693932443857,-9.525311179459095e-05,-9.327136993408203,17.57973289489746,-37.34704208374024,-0.6482768058776855,1.0270227193832395,-0.015333175659179688,987.664794921875,0,13.0,1,1
4.08,0.07256597,-0.15056361,9.770187,-0.0002923047286458313,0.0019888693932443857,-9.525311179459095e-05,-8.997629165649414,17.15102195739746,-37.75765228271485,-0.6454527378082275,1.0092674493789673,-0.01959705352783203,987.664794921875,0,13.0,1,1
4.12,0.08211291,-0.16009633,9.755983,0.00143887079320848,-0.00040799344424158335,-0.0006278324872255325,-9.247570037841797,17.206445693969727,-37.29896545410156,-0.6428343653678894,1.0196797847747805,-0.00016307830810546875,987.6622314453124,0,13.0,1,1
4.16,0.07493052,-0.14817967,9.767818,0.00037372933002188796,-0.0005411711754277349,0.0003043254546355456,-9.123624801635742,17.66520881652832,-37.80681610107422,-0.6246882677078247,1.0093545913696291,-0.01839160919189453,987.6498413085938,0,13.0,1,1
4.2,0.06535816,-0.15532918,9.7607155,0.0006401674472726883,-0.0002748752012848854,-9.50960093177855e-05,-8.878388404846191,17.499448776245114,-37.33450698852539,-0.6280928254127502,1.0122735500335691,0.005520820617675781,987.6498413085938,0,13.0,1,1
4.24,0.07968491,-0.15532885,9.770184,0.00090660568093881,-0.0002748950500972569,-9.504356421530248e-05,-9.390669822692873,17.415315628051758,-38.020484924316406,-0.6349231004714966,0.9986733198165894,-0.027108192443847656,987.6624145507812,0,13.0,1,1
4.28,0.07728231,-0.15532862,9.763081,-0.0005580090801231563,-0.00040807286859489983,0.000570798700209707,-9.131532669067383,17.025705337524414,-37.84516143798828,-0.6226861476898193,1.0092139244079592,-0.0076904296875,987.6649780273438,0,13.0,1,1
4.32,0.07248986,-0.14817841,9.770181,0.0006405346211977303,-0.0005412506870925425,0.00017137726536020637,-8.914380073547363,17.28162956237793,-37.73962783813477,-0.6251026391983032,1.000537633895874,-0.016687393188476562,987.6500244140624,0,13.0,1,1
4.36,0.07486707,-0.1505614,9.779649000000001,0.00037434085970744485,0.0005239929887466133,0.0008372192969545723,-9.325274467468262,17.450017929077152,-37.72465515136719,-0.6212904453277588,0.9896814823150636,-0.039620399475097656,987.6524658203124,0,13.0,1,1
4.4,0.074854374,-0.16009422,9.763077000000001,0.00010814721463248134,-8.658505976200104e-06,0.0005709558026865125,-9.574533462524414,17.243074417114258,-37.86659622192383,-0.6150254011154175,0.9877392649650574,-0.0014963150024414062,987.6727905273438,0,13.0,1,1
4.44,0.067672014,-0.16009386,9.765443,-0.0006906783091835678,-0.0006744681159034371,0.0007041661301627755,-9.512874603271484,17.327051162719727,-37.72704315185547,-0.6172468066215515,0.9979270696640016,-0.01520538330078125,987.6527709960938,0,13.0,1,1
4.48,0.06526941,-0.15056045,9.767809,-2.476637018844485e-05,0.00012445967877283692,-0.0003610451240092516,-8.743682861328125,16.862176895141598,-38.01082992553711,-0.6053450107574463,0.9845405220985411,-0.010013580322265623,987.6526489257812,0,13.0,1,1
4.52,0.077206194,-0.15770997,9.760705999999999,0.0003748296876437962,-0.00014187605120241642,-0.0008936243830248712,-9.208395957946776,17.533124923706055,-37.74752807617188,-0.6220066547393799,0.9754849672317504,0.014157295227050781,987.6373291015624,0,13.0,1,1
4.56,0.07241371,-0.16247620000000002,9.760705,-0.0004239958361722529,0.00039073586231097584,0.00017169152852147818,-9.196086883544922,17.254850387573242,-37.6176643371582,-0.6085484623908997,0.9837902784347534,-0.004062652587890625,987.6327514648438,0,13.0,1,1
4.6,0.06523132,-0.14102648,9.748868,-0.00031310197664424777,0.00033508290653117,-0.0004710127250291407,-9.31428337097168,16.933160781860348,-37.11872482299805,-0.5927819013595581,0.9626687169075012,0.02459430694580078,987.6630249023438,0,13.0,1,1
4.64,0.07477826,-0.14579265,9.765436,-0.00031310197664424777,0.00033508290653117,-0.0004710127250291407,-9.31428337097168,16.933160781860348,-37.11872482299805,-0.6044696569442749,0.9493839740753174,-0.0222930908203125,987.6630249023438,0,13.0,1,1
4.68,0.07476556,-0.16485856,9.763069,0.00035293208202347165,-0.0004639043763745576,-7.143389666453004e-05,-9.054302215576172,17.20338249206543,-37.867454528808594,-0.5925119519233704,0.9835737943649292,0.001834869384765625,987.6353759765624,0,13.0,1,1
4.72,0.07953268,-0.15055860000000001,9.767802,0.00021989626111462712,-6.445040344260633e-05,6.177631439641118e-05,-9.265504837036133,16.847429275512695,-37.5831298828125,-0.594469428062439,0.9557623267173768,0.002315521240234375,987.6377563476562,0,13.0,1,1
4.76,0.07713014,-0.16009136,9.755965,-4.6297383960336454e-05,-0.00046394410310313116,0.00032814449514262384,-9.510022163391113,17.777254104614258,-37.3689079284668,-0.6016836166381836,0.9513016343116759,0.007542610168457031,987.640380859375,0,13.0,1,1
4.8,0.06755781,-0.1672409,9.75833,-0.0012445966713130474,6.866783951409161e-05,6.188102997839451e-05,-9.193244934082033,17.494897842407227,-38.17103958129883,-0.5899658203125,0.9616675972938538,0.01271343231201172,987.6404418945312,0,13.0,1,1
4.84,0.069935024,-0.15532418,9.770164999999999,0.00035342079354450107,0.0011339114280417562,0.0003282493271399289,-9.085445404052734,17.015993118286133,-37.54375457763672,-0.5921198129653931,0.948068618774414,-0.010489463806152344,987.6380004882812,0,13.0,1,1
4.88,0.07470214,-0.1600904,9.774899000000001,-0.00017908873269334435,-0.0004640035913325847,0.0003283016267232597,-9.148679733276367,17.483713150024414,-37.79233169555664,-0.5801845788955688,0.9443411231040956,-0.01953125,987.6812133789062,0,13.0,1,1
4.92,0.07946926,-0.15294035,9.774898,0.0003536656149663031,6.860829307697712e-05,-0.00020427757408469918,-9.262460708618164,16.85038185119629,-37.73774337768555,-0.5870457887649536,0.9262210130691528,-0.004878044128417969,987.6383056640624,0,13.0,1,1
4.96,0.06511718,-0.1600898,9.7559595,0.0004869459080509842,-6.45695545244962e-05,6.209075218066573e-05,-8.687009811401367,16.809812545776367,-37.90102767944336,-0.5749204754829407,0.9454967975616456,0.00982379913330078,987.6436157226562,0,13.0,1,1
5.0,0.077053994,-0.14578988,9.770161,-0.0009776693768799305,-0.00033090525539591914,0.0001953010796569288,-9.177619934082033,17.035417556762695,-38.14656448364258,-0.5816607475280762,0.9130148887634276,-0.003923416137695313,987.686279296875,0,13.0,1,1
5.04,0.0674817,-0.15532269,9.755957,-0.00017859943909570577,-0.0005972409853711723,-0.00020412035519257188,-9.321809768676758,17.584890365600586,-37.61760711669922,-0.5746864080429077,0.9330698251724244,0.00595855712890625,987.6385498046876,0,13.0,1,1
5.08,0.074638754,-0.15293904,9.77726,0.00035415455931797624,6.852883961983025e-05,0.00019540585344657305,-9.173054695129396,17.039838790893555,-38.37847900390625,-0.5723248124122621,0.9244351983070374,-0.007817268371582031,987.6611328125,0,13.0,1,1
5.12,0.079405874,-0.15055548,9.760689,0.00022111885482445362,0.0006011407822370528,-0.0007366473437286912,-9.791387557983398,17.619279861450195,-37.54725646972656,-0.5791490077972412,0.9111169576644896,0.021026611328125,987.62548828125,0,13.0,1,1
5.16,0.06983358,-0.16247155,9.765422000000001,0.0003543990314938128,-0.0007304584141820669,6.235262844711542e-05,-9.479857444763184,17.594881057739258,-37.516849517822266,-0.5668745040893555,0.9164192676544191,-0.002178192138671875,987.6611328125,0,13.0,1,1
5.2,0.06265113,-0.15770464,9.74885,-0.0007107422570697963,-0.0008636362035758793,-0.0002039109240286052,-8.838970184326172,16.825700759887695,-38.10949325561523,-0.5549162030220032,0.917123317718506,0.021932601928710938,987.6663208007812,0,13.0,1,1
5.24,0.06263846,-0.15055458,9.758318,-4.4830201659351594e-05,0.00033476538374088705,-0.0004701743018813432,-9.05375862121582,16.835092544555664,-37.769004821777344,-0.5475863814353943,0.903964340686798,0.008136749267578125,987.6362915039062,0,13.0,1,1
5.28,0.074575305,-0.16485389,9.767786,0.0008873979677446188,-0.0005973600782454014,0.0004619837854988873,-9.45357894897461,17.145715713500973,-38.03350830078125,-0.5688849687576294,0.9190034866333008,-0.005626678466796875,987.6512451171876,0,13.0,1,1
5.32,0.07217269999999999,-0.15532048,9.755947,-0.00017774332081899047,0.00020156780374236405,-0.00047006941167637706,-9.49980354309082,17.049509048461914,-37.63583755493164,-0.5571098327636719,0.9050838351249696,0.02322673797607422,987.66943359375,0,13.0,1,1
5.36,0.072160065,-0.15532018,9.760681,8.881691610440612e-05,-0.0009968933882191775,0.00019582500681281092,-9.210827827453613,17.214845657348633,-37.8440055847168,-0.5494276881217957,0.8915316462516785,0.02840900421142578,987.6465454101562,0,13.0,1,1
5.4,0.07214737,-0.15293653,9.770149,-0.0013757983688265085,-0.001130071235820651,0.0001958773354999721,-9.235883712768556,17.033349990844727,-37.82952499389648,-0.5562300682067871,0.8872280716896057,0.005199432373046875,987.644287109375,0,13.0,1,1
5.44,0.069744796,-0.14816974,9.760679,-0.00044357049046084285,-0.00019798544235527518,0.00019592972239479423,-9.803425788879396,17.713411331176758,-37.62789535522461,-0.5391170382499695,0.8783565759658813,0.005643844604492188,987.6643676757812,0,13.0,1,1
5.48,0.074511886,-0.15293594,9.777248,-4.397443262860179e-05,-0.00033116323174908757,-7.03337718732655e-05,-9.23947048187256,17.398698806762695,-37.77336502075195,-0.5605740547180176,0.8793203830718994,-0.012891769409179688,987.6596069335938,0,13.0,1,1
5.52,0.069719374,-0.16008548,9.779615,8.930562762543559e-05,-0.0008638147264719008,-7.028150139376521e-05,-9.247920989990234,17.12748146057129,-37.9101676940918,-0.5433133840560913,0.875366747379303,0.0112152099609375,987.6470947265624,0,13.0,1,1
5.56,0.07209658599999999,-0.15055211,9.758308,-0.00017688778461888433,0.0003345867444295436,-7.022888166829944e-05,-9.216235160827637,16.94658088684082,-38.13541793823242,-0.5412392616271973,0.8618719577789307,0.006875038146972656,987.6649169921876,0,13.0,1,1
5.6,0.080154985,-0.16964014,9.772592999999999,-0.00017676531570032242,0.00020140889682807028,-0.0003364922595210373,-9.179685592651367,17.402238845825195,-38.16770935058594,-0.5491783618927002,0.8912426829338074,-0.006993293762207031,987.6602172851562,0,13.0,1,1
5.64,0.06582481,-0.16487367,9.777328500000001,-0.000318502017762512,-0.00032983015989884734,0.00032562081469222903,-9.298574447631836,17.132776260375973,-37.979652404785156,-0.5370579957962036,0.8730222582817078,-0.006585121154785156,987.6546020507812,0,13.0,1,1
5.68,0.07061371,-0.16010736,9.763126,-0.00031859060982242227,-0.00032981581171043217,0.0005918988026678562,-9.189497947692873,17.655771255493164,-37.10325241088867,-0.5393630862236023,0.8737505078315735,-0.00144195556640625,987.655029296875,0,13.0,1,1
5.72,0.06106332,-0.15772434,9.765495,-0.00031859060982242227,-0.00032981581171043217,0.0005918988026678562,-9.037836074829102,17.007753372192386,-37.31965637207031,-0.5126783847808838,0.8602830171585083,0.01791095733642578,987.655029296875,0,13.0,1,1
5.76,0.05868256,-0.15534128,9.751291,-0.0001855206792242825,-0.0009955911664292216,0.00019238714594393969,-9.063434600830078,17.194543838500973,-37.40362930297852,-0.5195737481117249,0.8564586043357849,0.02304553985595703,987.6576538085938,0,13.0,1,1
5.8,0.07781094,-0.15534155,9.75366,0.00021386443404480812,-0.000862418906763196,0.0005918230162933469,-8.611438751220701,16.880098342895508,-37.14693832397461,-0.5269409418106079,0.8432224988937378,0.02341175079345703,987.675048828125,0,13.0,1,1
5.84,0.06587058,-0.15057524,9.772598,8.061836706474422e-05,6.970102549530566e-05,-0.00047347840154543514,-9.020390510559082,17.181882858276367,-36.94761276245117,-0.5247251987457275,0.8441650271415709,0.00011157989501953125,987.6602783203124,0,13.0,1,1
5.88,0.06587976,-0.14580889,9.765497,0.0004800034803338349,0.0006023471942171454,-0.00034035841235890985,-9.700735092163086,17.5983829498291,-36.86714553833008,-0.5171993970870972,0.8258630037307739,0.014725685119628906,987.6552734375,0,13.0,1,1
5.92,0.07783845,-0.16249205,9.7726,-0.0007185061112977563,-0.0007292178925126791,0.0008580252761021255,-9.158086776733398,17.263036727905273,-35.93034744262695,-0.5383013486862183,0.8364894986152649,0.010376930236816406,987.6602783203124,0,13.0,1,1
5.96,0.07306781400000001,-0.15772574,9.767866,0.0004798269947059453,-0.0012618352193385365,0.00019219779642298815,-8.969194412231445,16.808298110961914,-36.77967071533203,-0.5216823816299438,0.8373218774795532,0.015489578247070312,987.645263671875,0,13.0,1,1
6.0,0.06829718,-0.15057613,9.756031,-0.00018605130026116967,0.00020291641703806818,0.0001921598450280726,-8.731850624084473,16.60917091369629,-36.8815803527832,-0.519452691078186,0.8241251707077026,0.020578384399414062,987.6300659179688,0,13.0,1,1
6.04,0.061136632999999996,-0.15057628,9.779703,0.0002133343950845301,0.0008687203517183661,0.00019212195184081796,-8.913837432861328,16.913339614868164,-37.64117813110352,-0.5072026252746582,0.8297159671783447,-0.016902923583984375,987.655517578125,0,13.0,1,1
6.08,0.06353569,-0.16249289,9.763135,-0.00045254389988258476,-0.001394950202666223,-0.0008731795824132861,-9.154905319213867,17.371904373168945,-36.78403091430664,-0.5048983097076416,0.8355856537818909,0.0071239471435546875,987.6351318359376,0,13.0,1,1
6.12,0.07071459,-0.16010983,9.758401,0.00032009684946388006,-7.615162758156656e-05,0.0009401366114616394,-8.99837875366211,17.360437393188473,-36.8074836730957,-0.5024459958076477,0.8222299218177795,0.021696090698242188,987.6580810546876,0,13.0,1,1
6.16,0.06833383400000001,-0.15296029,9.760769,0.0001868504332378507,-7.613722118549049e-05,0.000673782778903842,-9.007373809814453,17.457517623901367,-37.042728424072266,-0.5051263570785522,0.8184962272644043,0.02204132080078125,987.66064453125,0,13.0,1,1
6.2,0.07312283,-0.14819397,9.753668,5.3604482673108585e-05,0.0001901929936138913,-0.0005246765213087201,-9.396677017211914,17.67253303527832,-37.1492919921875,-0.507912278175354,0.795685350894928,0.02238178253173828,987.64599609375,0,13.0,1,1
6.24,0.06835216,-0.14342768,9.763138,5.3515774197876453e-05,0.0009891549125313759,0.0002742332289926708,-9.285696029663086,17.302492141723633,-37.37569427490234,-0.5010479092597961,0.8012727499008179,0.013269424438476562,987.663818359375,0,13.0,1,1
6.28,0.063581586,-0.16011079,9.765507000000001,-0.0006123620551079513,0.00045653758570551867,-0.0002584364265203476,-8.798129081726074,17.073938369750973,-36.97554397583008,-0.4987047910690308,0.8070574402809143,0.008887290954589844,987.6488037109376,0,13.0,1,1
6.32,0.063590735,-0.15772779999999997,9.767874,-7.981900125741959e-05,-7.60798720875755e-05,0.00040731544140726333,-9.13938808441162,18.018770217895508,-37.13221740722656,-0.4771500825881958,0.7935977578163147,0.01872158050537109,987.62353515625,0,13.0,1,1
6.36,0.07076964,-0.15534474,9.756039,0.00031947845127433533,0.00032342271879315376,0.00027408168534748256,-9.546571731567383,17.321596145629886,-37.336612701416016,-0.488286018371582,0.7975373268127441,0.02396202087402344,987.6538696289062,0,13.0,1,1
6.4,0.07555857,-0.15057836,9.765509,-0.0006127157248556613,0.0005897529190406202,-0.00025858799926936626,-8.995335578918457,17.36338233947754,-36.96209335327149,-0.5004355907440186,0.784270167350769,0.01956462860107422,987.6436157226562,0,13.0,1,1
6.44,0.073177844,-0.16249491,9.753674,-0.0006127157248556613,0.0005897529190406202,-0.00025858799926936626,-8.995335578918457,17.36338233947754,-36.96209335327149,-0.4992437958717346,0.8014128804206848,0.01027202606201172,987.6436157226562,0,13.0,1,1
6.48,0.0564577,-0.15296204,9.772611999999999,0.0004524594405665993,0.00019029343093279752,0.000407163955969736,-8.8231840133667,16.89244270324707,-36.96106338500977,-0.4778932631015778,0.7835280895233154,0.010599136352539062,987.6566162109376,0,13.0,1,1
6.52,0.058856755,-0.15772884,9.774980000000001,-0.00034657656215131283,5.7149896747432656e-05,7.652211934328081e-06,-9.398496627807617,17.03891944885254,-37.49685668945313,-0.47589972615242,0.7845178246498108,0.01092529296875,987.6466064453124,0,13.0,1,1
6.56,0.07590425,-0.16250323,9.767907000000001,0.00018596695736050608,0.0009892698144540189,0.00027393014170229435,-8.854327201843262,16.705049514770508,-36.63736343383789,-0.4930755198001862,0.7807413935661316,0.02545166015625,987.6519775390624,0,13.0,1,1
6.6,0.07146132,-0.16012819,9.763205000000001,5.0387578085064895e-05,0.0001907152327476069,-0.0006592132849618793,-9.706546783447266,17.804323196411133,-37.95608139038086,-0.485761970281601,0.7755211591720581,0.030592918395996094,987.6494140625,0,13.0,1,1
6.64,0.07149553,-0.14821263,9.756105,5.0387578085064895e-05,0.0001907152327476069,-0.0006592132849618793,-9.706546783447266,17.804323196411133,-37.95608139038086,-0.4753013253211975,0.7785929441452026,0.02600193023681641,987.6494140625,0,13.0,1,1
6.68,0.083479345,-0.15059681,9.767944,0.0011146129108965397,0.0008501657284796237,-0.0007967497804202138,-9.20335578918457,17.116296768188473,-37.53145599365234,-0.4875040650367737,0.7750257849693298,0.02157783508300781,987.6621704101562,0,13.0,1,1
6.72,0.06917417,-0.16966386,9.76558,0.0003150054253637791,5.132527439855039e-05,-0.00013124290853738785,-9.39393138885498,17.043340682983402,-37.7287712097168,-0.4613931477069855,0.7667079567909241,0.03135967254638672,987.6497192382812,0,13.0,1,1
6.76,0.078767955,-0.1577483,9.76795,0.0003146752715110779,0.0004508527053985745,-0.00013138435315340757,-8.982479095458984,17.112794876098633,-38.1811637878418,-0.4832448363304138,0.7583140134811401,0.012729644775390623,987.6444091796876,0,13.0,1,1
6.8,0.07402241,-0.14821602,9.753751,-8.512812200933695e-05,0.001116695930249989,0.00013479014160111547,-9.272976875305176,16.945985794067386,-37.89568328857422,-0.4861933887004852,0.7546353936195374,0.01776409149169922,987.6549072265624,0,13.0,1,1
6.84,0.07644659,-0.16728307,9.751387,0.0001808574888855219,-0.0003479878650978208,0.00013464875519275665,-9.0166654586792,16.922456741333008,-37.70285034179688,-0.4791078865528106,0.7655389308929443,0.02279853820800781,987.6397094726562,0,13.0,1,1
6.88,0.06453124,-0.14345120000000003,9.753757,-0.0002189462538808584,0.0013831189135089517,-0.0005312823341228068,-9.267569541931152,17.214250564575195,-37.60427856445313,-0.4583517611026764,0.7331901788711548,0.032562255859375,987.6653442382812,0,13.0,1,1
6.92,0.08368474,-0.16251822,9.763228999999999,-0.00035243399906903505,-0.0004810386744793505,1.207983586937189e-06,-9.216480255126953,17.94700813293457,-37.80899429321289,-0.4844827353954315,0.7484210133552551,0.032894134521484375,987.63720703125,0,13.0,1,1
6.96,0.062209845,-0.15298595,9.760864,-0.0004859220935031772,-0.00048098512343131006,0.0001342244795523584,-9.45357894897461,17.14571189880371,-38.03351211547852,-0.4582439064979553,0.7446541786193848,0.009540557861328123,987.6299438476562,0,13.0,1,1
7.0,0.06941372,-0.15775333,9.756133,-0.0007525678956881166,0.0005843319231644273,9.250943548977377e-07,-8.928781509399414,17.110445022583008,-38.26628494262695,-0.4610315561294556,0.7407902479171753,0.02878856658935547,987.6522827148438,0,13.0,1,1
7.04,0.079007626,-0.1458378,9.763239,-0.0004865818191319704,0.0004512275627348572,-0.0003986901720054448,-9.173192024230957,16.933923721313473,-37.67940139770508,-0.4639647603034973,0.7227991819381714,0.010140419006347656,987.6656494140624,0,13.0,1,1
7.08,0.07426205,-0.14822187,9.763242,0.0003120357869192958,0.0013833866687491536,-0.0005319894407875836,-9.297733306884766,17.396623611450195,-37.45633316040039,-0.4575397670269013,0.7337692975997925,0.01986980438232422,987.6600952148438,0,13.0,1,1
7.12,0.08863568,-0.1577558,9.749041,0.0003120357869192958,0.0013833866687491536,-0.0005319894407875836,-9.373441696166992,17.22041893005371,-37.5113410949707,-0.4699529409408569,0.7258737087249756,0.03906536102294922,987.6600952148438,0,13.0,1,1
7.16,0.08150023,-0.15299018,9.7632475,0.0011106535093858838,0.0009839663980528712,-0.0009316045907326043,-9.121452331542967,16.192049026489258,-37.41300964355469,-0.4674890041351318,0.7269989848136902,0.015700340270996094,987.6605224609376,0,13.0,1,1
7.2,0.071974814,-0.14584117,9.753782000000001,-8.809799328446388e-05,-0.00034755939850583667,0.0001335174310952425,-9.116451263427734,16.934518814086914,-37.919132232666016,-0.4596082270145416,0.7026809453964233,0.03505897521972656,987.6610107421876,0,13.0,1,1
7.24,0.07678884,-0.15537511,9.760887,-0.0007542176172137259,-8.118989353533834e-05,0.0001333760446868837,-8.573664665222168,16.705095291137695,-37.68141555786133,-0.4585487544536591,0.7106359601020813,0.02572059631347656,987.6779174804688,0,13.0,1,1
7.28,0.07443321,-0.1482261,9.758522,0.0007101900409907103,0.0005846533458679914,-0.00039939704583957786,-9.023296356201172,17.284860610961914,-37.49208450317383,-0.4510379433631897,0.7119541764259338,0.03075695037841797,987.622802734375,0,13.0,1,1
7.32,0.069687605,-0.13631056,9.758526,0.00044354400597512717,-0.0012795042712241411,-0.0001332226092927158,-8.481351852416992,16.791582107543945,-37.77768325805664,-0.4393048882484436,0.6798248291015625,0.04050731658935547,987.635498046875,0,13.0,1,1
7.36,0.07928145,-0.15776087,9.753795,-8.941767737269402e-05,-0.0004805030475836247,0.00026610976783558726,-8.972643852233887,17.279565811157227,-37.4225959777832,-0.4466041922569275,0.7045719623565674,0.02660560607910156,987.6686401367188,0,13.0,1,1
7.4,0.064976275,-0.15299518,9.775103,-9.007763583213092e-05,5.223584594205022e-05,-4.888861440122129e-07,-9.250123977661133,17.388383865356445,-37.23223114013672,-0.4294002950191498,0.6992283463478088,0.012806892395019531,987.6278686523438,0,13.0,1,1
7.44,0.07218021,-0.16729571,9.768003,-9.007763583213092e-05,5.223584594205022e-05,-4.888861440122129e-07,-9.250123977661133,17.388383865356445,-37.23223114013672,-0.4376715421676636,0.7166903614997864,0.017678260803222656,987.6278686523438,0,13.0,1,1
7.48,0.072214425,-0.16252996,9.753803,-0.00022356549743562934,0.00018544727936387062,-0.00013378827134147286,-9.37746524810791,16.847711563110348,-37.18097305297852,-0.4308084547519684,0.7132484316825867,0.03214836120605469,987.6583251953124,0,13.0,1,1
7.52,0.074638605,-0.15299766,9.772745,0.00044189440086483966,-0.0006134468130767344,-0.0004002454807050526,-9.192840576171877,17.020689010620114,-37.37351608276367,-0.42860788106918335,0.6903508901596069,0.018236160278320312,987.6456909179688,0,13.0,1,1
7.56,0.06689969,-0.15298371,9.751388,-0.0007568571018055081,0.0005850282032042742,0.00013224483700469136,-9.269390106201172,16.580636978149414,-37.95183944702149,-0.4362476170063019,0.6913990974426271,0.037446022033691406,987.6282348632812,0,13.0,1,1
7.6,0.06868428,-0.16011871,9.77027,-0.0007571870228275657,0.00018560799071565268,0.000398419302655384,-9.203899383544922,17.484586715698242,-37.6299057006836,-0.41877388954162603,0.7023873329162598,0.014131546020507812,987.6329956054688,0,13.0,1,1
7.64,0.08061981,-0.15535177,9.765533999999999,0.00023555674124509096,0.0006095969583839178,0.0006906525231897831,-9.388959884643556,16.573553085327152,-37.16315841674805,-0.4404617846012116,0.6798820495605469,0.019133567810058597,987.6231689453124,0,13.0,1,1
7.68,0.07343614,-0.15535147,9.748961999999999,-0.0005604133475571871,-0.00018983401241712272,0.00015929673099890349,-9.460209846496582,17.508111953735348,-37.8227424621582,-0.4239958226680756,0.6811395287513733,0.04307174682617188,987.6513061523438,0,13.0,1,1
7.72,0.071032286,-0.1505846,9.7607975,-2.764724195003509e-05,-0.00018985584028996527,0.0005588282365351915,-9.450672149658203,17.042741775512695,-37.48904418945313,-0.4173896014690399,0.6731525063514711,0.03857612609863281,987.6384887695312,0,13.0,1,1
7.76,0.073408246,-0.1529675,9.758429,0.00037196138873696327,0.0008753858273848891,0.000159412098582834,-8.689618110656737,17.544923782348633,-38.02062225341797,-0.4198538064956665,0.6698029041290283,0.029367446899414062,987.6585693359376,0,13.0,1,1
7.8,0.078174084,-0.14820059,9.744225,0.00023893790785223248,-0.00032305746572092175,-0.00010684598237276076,-9.276999473571776,16.573274612426758,-37.5653190612793,-0.4274069666862488,0.6666579246520996,0.034338951110839844,987.6385498046876,0,13.0,1,1
7.84,0.07099044,-0.15773334,9.765528,0.00010591442696750164,-5.676344153471292e-05,2.636946737766266e-05,-9.02025318145752,17.287805557250973,-37.64669036865234,-0.4158291220664978,0.6681355237960815,0.02984905242919922,987.6588134765624,0,13.0,1,1
7.88,0.06619665,-0.16249962,9.739486999999999,0.00010604888666421175,0.0006090042879804969,-0.00037304667057469487,-8.903726577758789,17.291940689086914,-38.28076553344727,-0.4087324142456055,0.6741310954093933,0.03958415985107422,987.67919921875,0,13.0,1,1
7.92,0.07574230400000001,-0.16249923,9.760791000000001,-0.00029329012613743544,-0.0008557548280805348,-0.00010667304741218686,-8.908292770385742,17.287527084350586,-38.0488510131836,-0.4164513647556305,0.665899395942688,0.03509330749511719,987.6410522460938,0,13.0,1,1
7.96,0.0757283,-0.15773232,9.758422999999999,-0.00015999784227460625,0.0011415922781452534,-0.00023977336240932343,-8.795926094055176,16.813039779663086,-37.653480529785156,-0.4097723960876465,0.6528211236000061,0.030607223510742188,987.6410522460938,0,13.0,1,1
8.0,0.068544626,-0.1458156,9.75132,-0.00029302097391337156,7.630712934769691e-05,-0.00010655767982825636,-9.067999839782717,17.190126419067386,-37.17171096801758,-0.4076041281223297,0.6351304650306702,0.049793243408203125,987.6385498046876,0,13.0,1,1
8.04,0.06614077,-0.15534838,9.774989999999999,-0.0005590678192675114,0.0008752110879868269,2.6715511921793226e-05,-9.458144187927246,17.141290664672848,-37.80159378051758,-0.3998839855194092,0.6441635489463806,0.026488304138183597,987.6638793945312,0,13.0,1,1
8.08,0.061347038,-0.15534802,9.760786,-2.6301713660359383e-05,-0.00019007427908945831,2.6773137506097555e-05,-9.345343589782717,17.40486717224121,-37.6804313659668,-0.3845029771327973,0.6474690437316895,0.03606700897216797,987.6514282226562,0,13.0,1,1
8.12,0.063723,-0.16488083,9.763150999999999,0.0005064649740234016,7.621970144100487e-05,2.6830879505723715e-05,-9.562357902526855,17.254854202270508,-38.48503875732422,-0.3825832903385161,0.6539222598075867,0.026816368103027344,987.6561889648438,0,13.0,1,1
8.16,0.06609893,-0.15058078,9.765518,-2.603256143629551e-05,-0.0009890657383948565,2.6888563297688958e-05,-8.863183975219727,16.908044815063473,-37.57168960571289,-0.39930906891822815,0.6505100727081299,0.031800270080566406,987.6265869140624,0,13.0,1,1
8.2,0.06847489,-0.16011353,9.765516,-0.00015905557665973902,-0.0007227716268971562,0.00029326207004487514,-8.988567352294922,17.106904983520508,-37.87194442749024,-0.3873076438903809,0.6329287886619568,0.03204536437988281,987.6367797851562,0,13.0,1,1
8.24,0.075630605,-0.17441292,9.753679,-0.00042523711454123264,-0.0008559514535591006,0.0008259515161626041,-9.082262992858887,17.12485694885254,-38.39744567871094,-0.393480122089386,0.6471173763275146,0.046600341796875,987.6290283203124,0,13.0,1,1
8.28,0.07322675,-0.16249616,9.758411,0.0005070031620562078,-0.00019018353486899287,0.00029337743762880564,-9.384393692016602,16.577974319458008,-37.39507675170898,-0.3971709311008453,0.6360403895378113,0.046710968017578125,987.656982421875,0,13.0,1,1
8.32,0.06365317,-0.16011252,9.756043,-0.0002918101381510496,-0.0005896792281419039,0.00016027718083932996,-9.175149917602539,16.194395065307614,-37.32788848876953,-0.3807729184627533,0.6279369592666626,0.042205810546875,987.6219482421876,0,13.0,1,1
8.36,0.07797861,-0.15296234,9.770246499999999,0.0006404302548617125,-0.0007228589383885263,0.0002934927761089057,-9.235340118408203,16.66506004333496,-37.73107528686523,-0.3878969848155975,0.625037431716919,0.02348613739013672,987.632080078125,0,13.0,1,1
8.4,0.07079494,-0.16011186,9.763143,0.0003742487169802189,-0.0007228808244690299,0.00016039243200793862,-9.049193382263184,16.839509963989258,-38.000919342041016,-0.3952219784259796,0.6220266819000244,0.02843761444091797,987.6295776367188,0,13.0,1,1
8.44,0.07795071599999999,-0.15296169,9.777345,-2.5090295821428302e-05,-0.00032342883059754973,-0.00010586570715531708,-9.17982292175293,17.296319961547848,-37.46863174438477,-0.3882974684238434,0.6140207648277283,0.004985809326171875,987.6397094726562,0,13.0,1,1
8.48,0.061207443,-0.16726102,9.753672,-2.5090295821428302e-05,-0.00032342883059754973,-0.00010586570715531708,-9.242813110351562,16.763612747192386,-38.04362869262695,-0.3623792231082916,0.6204848289489746,0.047806739807128906,987.6397094726562,0,13.0,1,1
8.52,0.07553291,-0.16011079,9.756037,0.00010820210445672274,-5.713480641134083e-05,-0.00023896602215245366,-8.981935501098633,16.744501113891598,-38.08271026611328,-0.3794963955879211,0.6123740673065186,0.03382301330566406,987.642333984375,0,13.0,1,1
8.56,0.07606262,-0.15297402,9.753718,-0.000157979317009449,-0.0001903146330732852,0.0006931972457095982,-9.523038864135742,17.501619338989258,-37.27378845214844,-0.3874650299549103,0.6047321557998657,0.04344463348388672,987.6473388671876,0,13.0,1,1
8.6,0.06890052599999999,-0.15297414,9.763187,0.000507302931509912,-0.00019023221102543173,-0.00010596791980788112,-10.010062217712402,17.361886978149414,-37.57548141479492,-0.3748266696929932,0.6095803380012512,0.03428459167480469,987.6321411132812,0,13.0,1,1
8.64,0.07368791,-0.16489078,9.772657,-0.0006955954013392329,-0.0003226633707527071,2.5271379854530096e-05,-9.202674865722656,16.85392189025879,-38.132083892822266,-0.3785178959369659,0.6177017092704773,0.015444755554199219,987.6376342773438,0,13.0,1,1
8.68,0.07130566,-0.15297456,9.767924,0.0009022264275699854,-0.0007221252890303731,0.0002915558288805187,-9.09694004058838,16.74183464050293,-37.52594375610352,-0.3721314668655396,0.5999118685722351,0.03932380676269531,987.6321411132812,0,13.0,1,1
8.72,0.08087289,-0.16012456,9.770292,-0.0008289000252261758,0.0007426239317283034,-0.000773739127907902,-8.731032371520996,16.45271110534668,-38.1812858581543,-0.3750825226306915,0.5920795202255249,0.03478336334228516,987.6455078125,0,13.0,1,1
8.76,0.07371074,-0.15059172,9.765557000000001,-3.00257233902812e-05,0.00034316201345063746,-0.0002411387977190316,-8.943022727966309,17.465478897094727,-37.66898727416992,-0.3729482293128967,0.5795822739601135,0.030246734619140625,987.6327514648438,0,13.0,1,1
8.8,0.07371837,-0.1648915,9.765558,-3.0099181458353996e-05,-0.0005889316089451313,0.00015830359188839793,-8.743070602416992,16.546846389770508,-38.26192092895508,-0.3703908920288086,0.6005780696868896,0.03044891357421875,987.6378784179688,0,13.0,1,1
8.84,0.073726,-0.14820881,9.751356,0.0007687752367928624,-0.0011215514969080687,-0.00010804377961903809,-9.205284118652344,17.589033126831055,-38.25168228149414,-0.368588924407959,0.5787729620933533,0.04009246826171875,987.6455078125,0,13.0,1,1
8.88,0.07612353599999999,-0.16012527,9.758459,0.0009018598357215524,-0.0001894339657155797,-0.0006407069158740343,-9.653829574584961,17.432214736938473,-37.86545181274414,-0.35709768533706665,0.5854322910308838,0.04974365234375,987.6199951171876,0,13.0,1,1
8.92,0.061791717999999995,-0.14820914,9.758459,0.0003691544989123941,7.689374615438282e-05,2.5051354896277193e-05,-9.524560928344727,17.500146865844727,-37.19648361206055,-0.3505222201347351,0.5681180357933044,0.045192718505859375,987.6181030273438,0,13.0,1,1
8.96,0.08091852,-0.14582603,9.756093,-3.039254806935787e-05,-0.0003225680848117918,0.00015817786334082484,-9.479857444763184,17.594877243041992,-37.51685333251953,-0.3727762997150421,0.5605009198188782,0.03589439392089844,987.6377563476562,0,13.0,1,1
9.0,0.07614636400000001,-0.16250916,9.758460000000001,0.0006353236967697741,0.0006095493445172906,0.0008239360759034753,-9.54200553894043,17.326013565063473,-37.56852722167969,-0.3658748865127564,0.58126300573349,0.03135395050048828,987.6488647460938,0,13.0,1,1
9.04,0.07137418,-0.15535958,9.763196,-0.0005631711101159452,-0.0005888601881451905,-0.00010820088209584355,-9.58657169342041,17.337202072143555,-37.94723510742188,-0.3451346158981323,0.5785984396934509,0.03151416778564453,987.6332397460938,0,13.0,1,1
9.08,0.06660196,-0.15297638,9.782135,0.0007683350704610348,0.0004764152399729937,0.00029124144930392504,-9.331239700317383,16.943910598754886,-37.57864761352539,-0.3622470796108246,0.5662106871604919,0.02222251892089844,987.6156616210938,0,13.0,1,1
9.12,0.073779285,-0.15059336,9.746627,-0.0006407189648598433,-0.0011232164688408377,0.00010108621791005136,-8.998539924621582,16.83421516418457,-37.93143081665039,-0.3497636020183563,0.5616175532341003,0.05563926696777344,987.6563110351562,0,13.0,1,1
9.16,0.07856667,-0.15059347,9.737158,-0.0006407189648598433,-0.0011232164688408377,0.00010108621791005136,-8.998539924621582,16.83421516418457,-37.93143081665039,-0.3535315990447998,0.5549792647361755,0.0652151107788086,987.6563110351562,0,13.0,1,1
9.2,0.07618442,-0.16251011,9.756097,-0.0006407921900972724,-5.794109893031418e-05,0.0003673706378322095,-9.012100219726562,16.926874160766598,-37.93476486206055,-0.3565429449081421,0.5807064771652222,0.036975860595703125,987.6563110351562,0,13.0,1,1
9.24,0.07141220599999999,-0.1482106,9.760833,2.492405474185944e-05,0.0002083866856992245,-0.0005647664074786007,-9.662822723388672,17.529291152954098,-38.1006965637207,-0.340768963098526,0.5444228053092957,0.03713512420654297,987.64111328125,0,13.0,1,1
9.28,0.071419835,-0.16012718,9.760833,-0.000374623341485858,0.001273662317544222,-0.00043163989903405314,-9.149520874023438,17.219865798950195,-38.31565475463867,-0.3489076197147369,0.5556671023368835,0.0467681884765625,987.64111328125,0,13.0,1,1
9.32,0.07620722,-0.15774412,9.77267,0.0004241776186972857,0.00020842242520302531,0.0005004027625545858,-9.077835083007812,17.02335548400879,-37.93027877807617,-0.3460356891155243,0.5516409277915955,0.023336410522460938,987.6310424804688,0,13.0,1,1
9.36,0.06665522,-0.14106132,9.748999000000001,0.0004241776186972857,0.00020842242520302531,0.0005004027625545858,-9.077835083007812,17.02335548400879,-37.93027877807617,-0.3403781652450561,0.5217821002006531,0.05655288696289064,987.6310424804688,0,13.0,1,1
9.4,0.07144266,-0.14821143,9.763203,0.0001577151706442237,0.0007410781108774245,0.0003671819576993585,-8.751222610473633,16.907770156860348,-37.97384643554688,-0.3428368866443634,0.5363370776176453,0.04732704162597656,987.63916015625,0,13.0,1,1
9.44,0.07623008,-0.1601279,9.770305,-0.0005081478739157318,0.00034161616349592805,-0.00043179717613384133,-9.081857681274414,16.650651931762695,-37.59991836547852,-0.33729666471481323,0.5443872213363647,0.02846813201904297,987.634033203125,0,13.0,1,1
9.48,0.08101749400000001,-0.16012813,9.772673,0.00042388425208628183,-0.0004573196056298912,-3.2354670111089945e-05,-9.205718994140623,16.85097312927246,-37.97747039794922,-0.3494170308113098,0.5464945435523987,0.028632164001464844,987.6340942382812,0,13.0,1,1
9.52,0.07201719,-0.16252516,9.758519999999999,-0.0010409264359623194,-0.0004573076730594039,0.00010077178012579681,-9.33026123046875,17.313676834106445,-37.7544059753418,-0.3284164071083069,0.5431710481643677,0.04301548004150391,987.6468505859376,0,13.0,1,1
9.56,0.0773896,-0.16015632,9.7680435,0.00015526160132139918,0.0012687287526205182,-0.0003041282179765403,-9.42355251312256,16.857423782348633,-37.48237609863281,-0.3379409611225128,0.5404525995254517,0.028844833374023438,987.6166381835938,0,13.0,1,1
9.6,0.07027191,-0.15300782,9.784618,0.000550326076336205,-0.0004616088117472827,0.00022661391994915903,-8.853508949279785,16.54859733581543,-37.93706893920898,-0.3305516839027405,0.5314987897872925,0.029069900512695312,987.6089477539062,0,13.0,1,1
9.64,0.079883516,-0.14824258,9.756217,-0.0006485966732725501,0.0006037360290065408,-0.00017307471716776493,-9.012100219726562,16.926874160766598,-37.93476486206055,-0.334434449672699,0.5157856941223145,0.03861522674560547,987.6468505859376,0,13.0,1,1
9.68,0.08232546,-0.16254349,9.768058,1.6691861674189568e-05,-0.00032828812254592776,0.00022618420189246533,-8.747636795043945,16.542425155639652,-38.030006408691406,-0.3374479413032532,0.5368215441703796,0.048232078552246094,987.6145629882812,0,13.0,1,1
9.72,0.07759768,-0.16254474,9.749125,-0.0003832833608612418,0.0011365305399522185,-0.00030666240490972996,-8.779865264892576,17.091615676879886,-37.90320205688477,-0.3361201882362366,0.5242477655410767,0.04364299774169922,987.6297607421876,0,13.0,1,1
9.76,0.075259745,-0.15539618,9.756231,-0.00038378476165235037,-0.0004612833145074546,-4.05613100156188e-05,-9.617714881896973,17.149812698364258,-37.62353515625,-0.3247601687908173,0.5167036652565002,0.048523902893066406,987.6348266601562,0,13.0,1,1
9.8,0.082481444,-0.17446373,9.756235,0.00014834594912827018,7.142985123209654e-05,-0.0001739340950734913,-9.294690132141113,17.39957618713379,-37.61094284057617,-0.33730700612068176,0.5425424575805664,0.04393482208251953,987.64013671875,0,13.0,1,1
9.84,0.07775366,-0.15539877,9.765709,0.00014834594912827018,7.142985123209654e-05,-0.0001739340950734913,-9.238927841186523,17.030405044555664,-37.6749153137207,-0.3306936025619507,0.5204423666000366,0.03935432434082031,987.64013671875,0,13.0,1,1
9.88,0.07302588,-0.145867,9.765713,-0.0003847869811579585,-0.00046112056588754063,0.0007579567609354854,-9.095961570739746,17.111600875854492,-37.701698303222656,-0.314430832862854,0.4985568523406982,0.034768104553222656,987.6299438476562,0,13.0,1,1
9.92,0.06590813400000001,-0.1673177,9.760983999999999,-0.0003852883819490671,-0.0008605130715295672,9.19521553441882e-05,-9.230476379394533,17.30161476135254,-37.53812026977539,-0.3077535331249237,0.5099461078643799,0.04438495635986328,987.6273193359376,0,13.0,1,1
9.96,0.06596017,-0.16493572,9.753888,-0.0006521055474877357,-0.0007272737566381693,-0.0011066840961575508,-8.910494804382324,17.548425674438473,-37.37091445922852,-0.3161036074161529,0.5166447162628174,0.03977775573730469,987.637939453125,0,13.0,1,1
10.0,0.06840208,-0.15063731,9.758627,-0.00011997506953775884,0.001003860728815198,-0.0009737411164678633,-8.965577125549316,17.655214309692386,-37.90756607055664,-0.3047316372394562,0.5045807957649231,0.035175323486328125,987.6529541015624,0,13.0,1,1
10.04,0.07323389999999999,-0.15063863,9.753897,0.00014583941083401442,-6.132124690338968e-05,0.0008902552654035388,-9.252487182617188,17.123064041137695,-37.67824935913086,-0.31248950958251953,0.5018385052680969,0.04951667785644531,987.5977172851562,0,13.0,1,1
10.08,0.075675786,-0.15778972,9.751535,1.2180302292108534e-05,-0.0008601875742897391,0.0002242507471237332,-9.164603233337402,17.31104850769043,-38.24168014526367,-0.3017426133155823,0.4899703860282898,0.05909156799316406,987.6459350585938,0,13.0,1,1
10.12,0.07572782,-0.15064116,9.76811,0.0005443110130727291,0.000737789086997509,0.0003571939014364034,-9.283194541931152,17.67372703552246,-37.62875747680664,-0.3051891922950745,0.4920156002044678,0.045012474060058594,987.6382446289062,0,13.0,1,1
10.16,0.075779825,-0.14825912,9.768114,1.11778499558568e-05,0.0008710284018889071,-0.0005751264397986232,-9.253030776977539,17.49135398864746,-37.77669906616211,-0.3133006691932678,0.4798007607460022,0.02146434783935547,987.6658935546876,0,13.0,1,1
10.2,0.06866211,-0.15779354,9.765752,-0.0003887973725795746,0.00047163598355837166,0.00022360630100592968,-9.226452827453613,17.6743221282959,-37.86848068237305,-0.3070098459720612,0.5009938478469849,0.021587371826171875,987.6460571289062,0,13.0,1,1
10.24,0.07349396,-0.16256131,9.76339,-0.00012298265937715772,0.00020540147670544684,-4.292448284104465e-05,-9.63279628753662,17.240999221801758,-37.549564361572266,-0.31040158867836,0.498115599155426,0.03591728210449219,987.6557006835938,0,13.0,1,1
10.28,0.08071566,-0.15064628,9.756293,-0.0005229578819125892,0.0004717987903859466,-4.313932731747627e-05,-9.282108306884766,16.937143325805664,-37.43185424804688,-0.313569575548172,0.4762573838233948,0.040780067443847656,987.63037109375,0,13.0,1,1
10.32,0.066428244,-0.15541406,9.751564,-0.0002571431687101722,-0.0003270674787927419,-4.3354113586246974e-05,-8.661411285400389,16.623022079467773,-37.817054748535156,-0.28773432970047,0.4738057851791382,0.0645751953125,987.6463012695312,0,13.0,1,1
10.36,0.08320957400000001,-0.14826556,9.763405,0.0005413033068180084,-0.0005933020729571581,-0.00044304266339167947,-9.433632850646973,17.69108009338379,-37.91452407836914,-0.3243195414543152,0.4716117382049561,0.026807785034179688,987.6412963867188,0,13.0,1,1
10.4,0.07848179,-0.15303333,9.756308,0.0005408020224422215,7.256903336383402e-05,0.0002225321950390935,-9.345205307006836,17.510778427124027,-38.3795051574707,-0.3083851933479309,0.4789719581604004,0.041115760803222656,987.6234741210938,0,13.0,1,1
10.44,0.059414595,-0.14826806,9.772882000000001,0.0008066166192293168,-0.00019366542983334512,0.00022231732145883146,-8.960468292236328,17.291345596313473,-38.04103469848633,-0.2832250595092773,0.4578396677970886,0.03647422790527344,987.6412353515624,0,13.0,1,1
10.48,0.08575547,-0.15780242,9.77052,0.00107243109960109,0.00033904772135429084,-0.0005768451956100763,-9.067862510681152,17.296045303344727,-37.870792388916016,-0.3105558156967163,0.4794228672981262,0.02710533142089844,987.6467895507812,0,13.0,1,1
10.52,0.06274453,-0.14584924,9.756178,0.0010719298152253034,0.0010049187112599613,-0.00044390215771272784,-8.700570106506348,16.902475357055664,-37.90435409545898,-0.2839387655258179,0.4625799059867859,0.0368194580078125,987.611083984375,0,13.0,1,1
10.56,0.06512427,-0.15538205,9.758546,6.165122613310814e-06,0.0004723684105556458,-0.00044411694398149853,-9.068840980529783,16.926279067993164,-37.69503402709961,-0.28747010231018066,0.4695157408714294,0.04640007019042969,987.6438598632812,0,13.0,1,1
10.6,0.072283864,-0.15061532,9.760912,-0.000645111664198339,0.0010026441887021065,-0.00030473904917016625,-9.388385772705078,17.41752052307129,-38.13644790649414,-0.2955408096313477,0.4668528437614441,0.03705024719238281,987.636474609375,0,13.0,1,1
10.64,0.07466361,-0.15061505,9.76091,2.0775827579200268e-05,0.000336838565999642,-0.0008373289019800723,-9.38686466217041,17.41899299621582,-38.2137451171875,-0.289168119430542,0.4547411799430847,0.046634674072265625,987.6370239257812,0,13.0,1,1
10.68,0.06987366,-0.15061481,9.753809,-0.0004801849718205631,-0.00046943314373493205,0.00032131365151144564,-9.318222999572754,17.219545364379886,-37.67376327514648,-0.28719767928123474,0.456896185874939,0.056229591369628906,987.6619873046876,0,13.0,1,1
10.72,0.07942310000000001,-0.14823125,9.765644,-0.0003469293587841093,-0.0008689227979630233,-0.000344433996360749,-9.255393981933594,17.226037979125973,-38.22272109985352,-0.2997647225856781,0.44512706995010376,0.03266620635986328,987.6369018554688,0,13.0,1,1
10.76,0.07463318,-0.15061425,9.758541000000001,0.0003189581329934299,-0.00033630692632868886,0.0004545553820207715,-8.77391529083252,16.991594314575195,-37.51334762573242,-0.2885611057281494,0.4426761865615845,0.03277778625488281,987.6292724609376,0,13.0,1,1
10.8,0.07462305,-0.16014715,9.768009,-0.000879267870914191,-0.00033633864950388665,-0.0003443083842284977,-9.113407135009766,16.937463760375973,-38.0737419128418,-0.2868795394897461,0.4684773683547974,0.028163909912109375,987.6318969726562,0,13.0,1,1
10.84,0.08178258,-0.14346395,9.763273,-0.0003465383197180927,0.0007289089844562112,0.0005878390511497855,-9.383415222167967,16.94773292541504,-37.57083129882813,-0.2952054142951965,0.4421153664588928,0.03773689270019531,987.6370849609376,0,13.0,1,1
10.88,0.07460278,-0.15776335,9.760906,5.303329089656472e-05,-0.00033637037267908454,0.00045472302008420234,-8.82967758178711,17.36075782775879,-37.44937515258789,-0.2791883051395416,0.4538849592208862,0.04258251190185547,987.6701049804688,0,13.0,1,1
10.92,0.07220268,-0.15776311,9.760904,-0.00047950079897418624,-0.0004695442039519549,0.0007210807525552808,-8.910387992858887,16.442087173461914,-36.99826049804688,-0.28651344776153564,0.4503082036972046,0.038002967834472656,987.653076171875,0,13.0,1,1
10.96,0.07219255,-0.15299632,9.758536999999999,-7.992918835952878e-05,6.307178409770131e-05,0.0005879647796973586,-8.75440502166748,16.798906326293945,-37.12015914916992,-0.2807410359382629,0.4443474411964417,0.04279136657714844,987.647216796875,0,13.0,1,1
11.0,0.07696223,-0.15537937,9.756167999999999,0.0008522741845808923,-0.0004695758689194918,0.000321690778946504,-9.295668601989746,17.02980613708496,-37.43518829345703,-0.28392738103866577,0.4517109394073486,0.04288864135742188,987.6326904296876,0,13.0,1,1
11.04,0.0673925,-0.15061258,9.7585335,-0.0004792075487785041,0.0005956717650406063,5.5416719987988465e-05,-9.398497581481934,17.03891944885254,-37.49685668945313,-0.27294957637786865,0.4442854523658752,0.03826236724853516,987.6021728515624,0,13.0,1,1
11.08,0.07455206,-0.15776215,9.7609005,-0.0007454256410710514,-0.0003364497097209096,-7.769925286993384e-05,-9.21775722503662,16.94510841369629,-38.05810928344727,-0.26669418811798096,0.43694913387298573,0.04783439636230469,987.647705078125,0,13.0,1,1
11.12,0.06259236,-0.15061213,9.753798,-0.0007454256410710514,-0.0003364497097209096,-7.769925286993384e-05,-9.228273391723633,17.040716171264652,-38.2160530090332,-0.2558465898036957,0.4294845461845398,0.04793834686279297,987.647705078125,0,13.0,1,1
11.16,0.072141886,-0.16967796,9.763266,-0.0007453278522007168,0.0007287980406545103,0.0004549743607640266,-9.320723533630373,16.84830665588379,-37.42070388793945,-0.273526668548584,0.4364815950393677,0.033835411071777344,987.66064453125,0,13.0,1,1
11.2,0.07691157,-0.1410784,9.756164,-0.0004789142985828222,-7.016555173322558e-05,-0.0003439313150011003,-9.386704444885254,17.945215225219727,-37.08979797363281,-0.2675762176513672,0.4245419502258301,0.04813098907470703,987.6708984375,0,13.0,1,1
11.24,0.07451147,-0.15299456,9.765632,-0.00021250062854960558,0.0003292923793196678,0.00045505815069191163,-8.884758949279785,17.467546463012695,-37.98602294921875,-0.27480727434158325,0.4256970882415772,0.02933788299560547,987.6453857421876,0,13.0,1,1
11.28,0.08167106,-0.16014414,9.770365,-0.0003455610130913556,0.00046243448741734033,0.00032194203231483703,-8.554559707641603,16.986616134643555,-38.085750579833984,-0.2787540555000305,0.4340596795082092,0.03885650634765625,987.6381225585938,0,13.0,1,1
11.32,0.08883062,-0.16014389999999998,9.76563,-0.0003454631078056991,-0.0004696869873441756,0.0003219840000383556,-8.922968864440918,16.904504776000973,-37.177345275878906,-0.2865525484085083,0.4271684288978577,0.029479026794433594,987.6588134765624,0,13.0,1,1
11.36,0.07448104,-0.14822732,9.753793,0.0007198982057161629,-0.00046970287803560495,5.570997018367052e-05,-9.157812118530273,17.474870681762695,-37.3285026550293,-0.2611110806465149,0.4104086756706238,0.04377937316894531,987.6406860351562,0,13.0,1,1
11.4,0.067301214,-0.14584382,9.760894,-0.0006115836440585554,-0.00046971871051937336,-0.00021056400146335363,-9.273221015930176,17.946409225463867,-37.56926345825195,-0.25006449222564703,0.4083505868911743,0.04386425018310547,987.6182250976562,0,13.0,1,1
11.44,0.074460745,-0.15061010000000002,9.772728,0.0003206199617125094,-0.00020341873459983617,-0.0010094698518514633,-9.18979549407959,17.023637771606445,-37.52812576293945,-0.2630999684333801,0.4110774993896485,0.03447532653808594,987.6312255859376,0,13.0,1,1
11.48,0.07271689,-0.15062593,9.749115,0.0007201913394965231,0.000994986854493618,0.0004553094622679055,-9.237948417663574,17.400171279907227,-37.85067367553711,-0.2572476863861084,0.3992618322372437,0.06296253204345703,987.6160888671876,0,13.0,1,1
11.52,0.07340294,-0.16255914,9.763382,-7.865851512178779e-05,0.00046233925968408585,-0.0003435962717048824,-9.686356544494627,17.349267959594727,-38.163516998291016,-0.2567126750946045,0.42087322473526,0.04873085021972656,987.6388549804688,0,13.0,1,1
11.56,0.08061582,-0.14587726,9.763386,-0.0003496441640891135,-0.0011347979307174685,0.00045335001777857537,-9.338414192199707,17.67460060119629,-37.46632766723633,-0.2600481510162353,0.4090636968612671,0.02514076232910156,987.6337890625,0,13.0,1,1
11.6,0.07348919,-0.15302812,9.756289,4.5123219024389975e-05,-0.00020397439948283136,-0.0002197549911215901,-9.519857406616213,17.610483169555664,-38.12747573852539,-0.24427905678749084,0.41631850600242615,0.04889392852783203,987.6338500976562,0,13.0,1,1
11.64,0.08070207,-0.14826266,9.761026,-8.845044067129493e-05,-0.0002039069077000022,0.00017954071518033746,-9.362382888793944,16.756525039672848,-37.25494766235352,-0.2667962908744812,0.3953422904014587,0.05843448638916016,987.656982421875,0,13.0,1,1
11.68,0.07357547,-0.15303026,9.765764,0.0005769236595369875,6.247643614187837e-05,-8.695345604792237e-05,-9.25055980682373,16.650327682495114,-36.95802688598633,-0.2514559626579285,0.3933168351650238,0.05376529693603516,987.64697265625,0,13.0,1,1
11.72,0.07839841,-0.14826478,9.758666,0.00031019205925986165,0.0005951756611466407,0.0008449740707874298,-9.01253604888916,16.18882179260254,-37.66055679321289,-0.2596889436244965,0.3912137150764465,0.03490161895751953,987.6444091796876,0,13.0,1,1
11.76,0.07127184,-0.15541564,9.765772,0.0001766185159794986,0.0003289273008704185,-0.00022046756930649283,-8.865684509277344,16.536813735961914,-37.31863021850586,-0.2535398900508881,0.39844810962677,0.034979820251464844,987.6749877929688,0,13.0,1,1
11.8,0.08087453,-0.14826684,9.770512,-0.0006227449630387127,-0.00033679493935778737,0.00044514390174299484,-9.460209846496582,17.508111953735348,-37.82273483276367,-0.2471833527088165,0.39181017875671387,0.03031444549560547,987.6368408203124,0,13.0,1,1
11.84,0.07852778,-0.1673341,9.756311,0.0007084186072461308,-0.0006030433578416705,-0.0003539819736033678,-9.346322059631348,17.035097122192386,-37.50467300415039,-0.25040972232818604,0.3946290016174317,0.0587930679321289,987.6674194335938,0,13.0,1,1
11.88,0.0785709,-0.15065224,9.761049,0.0004416872397996485,-0.0004698179545812309,0.0008442613761872053,-9.534533500671387,17.22746467590332,-37.25597381591797,-0.2395709753036499,0.3686721920967102,0.058863639831542976,987.6427001953124,0,13.0,1,1
11.92,0.069054425,-0.15303661,9.751585,0.0001749556395225227,0.00019603921100497248,0.0005777673795819283,-9.422030448913574,16.858896255493164,-37.5596809387207,-0.24283455312252045,0.3808408677577973,0.04473400115966797,987.6170654296876,0,13.0,1,1
11.96,0.08104709,-0.1578042,9.756323,0.00017453980399295688,-0.0004696830292232335,-0.0003545164363458753,-9.459368705749512,17.77195930480957,-37.29941940307617,-0.2458328753709793,0.383556067943573,0.04481029510498047,987.632568359375,0,13.0,1,1
12.0,0.076310396,-0.16018857,9.765796,4.0966260712593794e-05,-0.0012685630936175587,0.00031109518022276467,-9.346864700317383,17.403390884399414,-37.60312271118164,-0.24459072947502136,0.386308491230011,0.04014110565185547,987.6351928710938,0,13.0,1,1
12.04,0.07635355,-0.16257288,9.777636,0.00017370859859511256,-0.00020323214994277805,0.0004440749471541494,-9.475184440612793,16.492952346801758,-37.3761100769043,-0.24354422092437744,0.3935454487800598,0.03547382354736328,987.6605834960938,0,13.0,1,1
12.08,0.08117649,-0.16019063,9.770538,-0.00022618105867877603,0.0008620987646281719,0.0001775809214450419,-9.266483306884766,16.477670669555664,-37.40737533569336,-0.2424975335597992,0.3817182183265686,0.03554058074951172,987.66064453125,0,13.0,1,1
12.12,0.07404989,-0.15542515,9.753971,-0.00022701249690726402,0.0003296021022833884,4.406669177114964e-05,-9.115471839904783,17.304285049438473,-38.09489059448242,-0.231701135635376,0.37483149766922,0.04980945587158203,987.6427612304688,0,13.0,1,1
12.16,0.07887286,-0.15304293,9.74214,-3.6425713915377855e-05,0.0005460473475977778,0.0002685346698854118,-9.201833724975586,17.117769241333008,-37.60876083374024,-0.2451230436563492,0.3775526881217957,0.0640707015991211,987.6510009765624,0,13.0,1,1
12.2,0.07413617,-0.1649604,9.758714999999999,0.0010284220334142447,-0.0005191487143747509,-0.0005305912927724421,-9.413578987121582,17.13010597229004,-37.42288589477539,-0.22463089227676392,0.3854717612266541,0.04992198944091797,987.6510009765624,0,13.0,1,1
12.24,0.081348956,-0.17211129,9.7681875,0.000628532434348017,0.0005461823311634363,-0.0005307692917995155,-8.758152008056639,16.638032913208008,-38.187950134277344,-0.2379108518362045,0.3883697986602783,0.031040191650390625,987.6636352539062,0,13.0,1,1
12.28,0.074222445,-0.15542938,9.758722,-3.767275484278798e-05,0.0006794076762162149,-0.00013147370191290977,-8.996475219726562,16.467401504516598,-37.9102897644043,-0.21773119270801544,0.3670490980148315,0.05951118469238281,987.65087890625,0,13.0,1,1
12.32,0.07426557,-0.15543039,9.768194,-0.0001712464145384729,-0.0003857883275486529,0.0006672957679256798,-8.652822494506836,17.000154495239258,-38.37934112548828,-0.2402829080820084,0.3697072267532349,0.04063701629638672,987.6566162109376,0,13.0,1,1
12.36,0.07430866,-0.15304820000000002,9.749260000000001,9.465351467952132e-05,-0.0009183525689877571,-0.00013182993279770017,-9.362788200378418,17.230730056762695,-38.05247116088867,-0.2291578054428101,0.3630273342132568,0.04069995880126953,987.6485595703124,0,13.0,1,1
12.4,0.08391145,-0.14828272,9.772938,-3.892002860084176e-05,-0.0007851271657273173,0.0002674656279850751,-9.409151077270508,17.02861213684082,-36.95572280883789,-0.2371599972248077,0.3610695004463196,0.04076194763183594,987.63134765625,0,13.0,1,1
12.44,0.07439497,-0.14351727,9.777676,0.0006264539551921189,0.0009459935245104133,-0.00026534427888691425,-9.343958854675293,17.300424575805664,-37.05865097045898,-0.22669272124767306,0.3449910879135132,0.031341552734375,987.6463012695312,0,13.0,1,1
12.48,0.06669673,-0.16257052,9.768158,0.0006264539551921189,0.0009459935245104133,-0.00026534427888691425,-9.121016502380373,16.93010139465332,-37.68721771240234,-0.2208334058523178,0.3669246435165405,0.040863990783691406,987.6463012695312,0,13.0,1,1
12.52,0.068523824,-0.15064026,9.758638000000001,9.340647375211121e-05,0.0004134292248636484,7.934286259114742e-07,-9.387981414794922,16.943315505981445,-37.33891677856445,-0.21841555833816528,0.3409378528594971,0.041031837463378906,987.6441650390624,0,13.0,1,1
12.56,0.07091117,-0.16493995,9.758637,-0.0002969774650409817,-0.00012237936607562006,-0.00012937502469867468,-9.2335205078125,17.298669815063473,-37.38351058959961,-0.2265278249979019,0.3679841160774231,0.041085243225097656,987.6543579101562,0,13.0,1,1
12.6,0.07568848,-0.16017325,9.756269,0.0009041613666340707,-0.0006554522551596165,0.0005375792970880866,-9.680108070373537,17.881376266479492,-37.34878921508789,-0.2203937321901321,0.3611520528793335,0.05535125732421875,987.69482421875,0,13.0,1,1
12.64,0.078075826,-0.16017325,9.761004,-2.7919537387788292e-05,-0.0007886142120696603,0.0004044318338856101,-9.351729393005373,16.76683235168457,-37.79607772827149,-0.21895284950733185,0.35921767354011536,0.05541133880615234,987.636474609375,0,13.0,1,1
12.68,0.06851363,-0.15778984,9.7704735,0.00010526273399591446,-0.0002559864660724997,0.0005376002518460156,-9.32667350769043,16.948328018188473,-37.8105583190918,-0.20855797827243805,0.3524323105812073,0.04599571228027344,987.6395874023438,0,13.0,1,1
12.72,0.07329094400000001,-0.16970624,9.749167,0.00023844512179493907,0.0009424310410395264,-0.00012817897368222475,-9.086423873901367,16.64622688293457,-37.36800003051758,-0.22131502628326416,0.3645765781402588,0.06026554107666016,987.6148681640624,0,13.0,1,1
12.76,0.080458105,-0.14587335,9.770472999999999,-0.0006936357822269201,-0.0009217840852215887,-0.0001281684380955994,-9.0322904586792,17.38193702697754,-37.72732925415039,-0.2247832864522934,0.329504132270813,0.02244281768798828,987.642333984375,0,13.0,1,1
12.8,0.07806563400000001,-0.15063985,9.768105,0.00023849401623010635,-0.0002559983404353261,-0.00012815796071663502,-8.96655559539795,17.285455703735348,-37.7318115234375,-0.2283754199743271,0.34670156240463257,0.03669929504394531,987.6723022460938,0,13.0,1,1
12.84,0.06611365,-0.15540637,9.784676,0.00023851846344768998,0.00040978740435093636,0.00013816836872138083,-8.946066856384277,17.462533950805664,-37.51437759399414,-0.19857025146484372,0.3257492780685425,0.03675079345703125,987.6373291015624,0,13.0,1,1
12.88,0.06611106,-0.15302302,9.7586355,-0.00016093067824840546,-0.00038916425546631217,-0.00012813700595870614,-9.203057289123537,17.748430252075195,-37.10658264160156,-0.206490695476532,0.34302183985710144,0.05574607849121094,987.6497192382812,0,13.0,1,1
12.92,0.06132874,-0.15302293,9.7515335,0.0002385672414675355,-0.0009217999177053572,0.00040450520464219153,-9.037399291992188,17.745805740356445,-37.59386825561523,-0.200544148683548,0.3363352417945862,0.051064491271972656,987.6326904296876,0,13.0,1,1
12.96,0.07805553,-0.16017272,9.753900999999999,-0.00016088178381323814,-0.00025601423112675553,0.0005376737099140881,-9.197949409484863,17.384565353393555,-37.24005126953125,-0.2048514187335968,0.3395867943763733,0.046364784240722656,987.627685546875,0,13.0,1,1
13.0,0.06610346,-0.16970576,9.7633705,0.0010375641286373136,0.0014750350965186956,-0.00026126345619559293,-9.115609169006348,17.198366165161133,-37.395809173583984,-0.20371685922145846,0.34708672761917114,0.03694915771484375,987.6480102539062,0,13.0,1,1
13.04,0.06849086,-0.14110641,9.746799000000001,-0.00029399106279015536,0.000409767497330904,0.0002713786670938134,-9.159631729125977,16.841264724731445,-37.67606735229492,-0.20249682664871216,0.326128363609314,0.07014179229736328,987.6254272460938,0,13.0,1,1
13.08,0.07087821,-0.14587288,9.753900999999999,-2.7650501579046253e-05,-0.0002560261345934123,0.0005377051420509815,-8.849922180175781,16.183252334594727,-37.99322891235352,-0.2058762013912201,0.3147405385971069,0.07493019104003906,987.6505126953124,0,13.0,1,1
13.12,0.06848574,-0.14825608,9.763369,-0.00016078411135822537,-0.0005223460029810667,0.0001382417103741318,-9.12751007080078,17.39841651916504,-38.1755256652832,-0.19039702415466309,0.33180493116378784,0.032370567321777344,987.638427734375,0,13.0,1,1
13.16,0.05892366,-0.14587279,9.765737,-0.0002939176047220826,-0.0007886657840572298,0.0002714101574383676,-9.377029418945312,17.585763931274414,-37.45518112182617,-0.1943178027868271,0.32029449939727783,0.01821327209472656,987.620361328125,0,13.0,1,1
13.2,0.07087058,-0.157789,9.753900999999999,-0.00029386871028691536,0.00014343176735565066,-0.00039435853250324726,-9.164603233337402,17.311052322387695,-38.24168395996094,-0.19710566103458405,0.32708293199539185,0.05616378784179688,987.63330078125,0,13.0,1,1
13.24,0.06608823,-0.1601723,9.763367,-0.00029386871028691536,0.00014343176735565066,-0.00039435853250324726,-9.164603233337402,17.311052322387695,-38.24168395996094,-0.1968244761228561,0.3262479305267334,0.060917854309082024,987.63330078125,0,13.0,1,1
13.28,0.06130588,-0.15778895,9.761001,0.00023878761567175386,-0.000655519834253937,0.0001382836780976504,-9.410236358642578,17.76519203186035,-37.152626037597656,-0.18160510063171387,0.33403128385543823,0.032550811767578125,987.6259765625,0,13.0,1,1
13.32,0.061303347,-0.16255547,9.761001,0.00023881206288933754,0.0008092136122286321,0.0005377680063247682,-9.23947048187256,17.398698806762695,-37.77336883544922,-0.18055972456932068,0.32265985012054443,0.05626869201660156,987.6463623046876,0,13.0,1,1
13.36,0.06608063,-0.16017206,9.758633,-0.00029379536863416433,-0.000256053899647668,5.146663170307875e-06,-9.27267837524414,17.578119277954098,-37.4708137512207,-0.19916784763336184,0.32521578669548035,0.04210853576660156,987.65380859375,0,13.0,1,1
13.4,0.078027606,-0.14587243,9.758633,-0.0005600865697488189,0.0012086795177310705,-0.0001280006836168468,-9.40390396118164,16.770654678344727,-37.78826522827149,-0.20276673138141632,0.3093634843826294,0.03741455078125,987.6463623046876,0,13.0,1,1
13.44,0.07324523,-0.15063883,9.751531,-2.7430360205471522e-05,0.00014341191854327914,-0.0002611482632346452,-9.452056884765623,17.147188186645508,-38.11081314086914,-0.19184185564517972,0.30326542258262634,0.07533073425292969,987.6644897460938,0,13.0,1,1
13.48,0.05447519,-0.15779726,9.751562,0.0006379929836839437,-0.0003891603264492005,0.0006708003929816186,-9.44915008544922,17.044214248657227,-37.566349029541016,-0.17187225818634033,0.3161705434322357,0.05166339874267578,987.6365356445312,0,13.0,1,1
13.52,0.073605776,-0.16018082,9.765767,0.0007681925781071186,-0.0013207857264205813,0.0002700587210711092,-8.751223564147951,16.907770156860348,-37.97384643554688,-0.1941561996936798,0.300248384475708,0.037506103515625,987.649169921875,0,13.0,1,1
13.56,0.06644752599999999,-0.14826478,9.7563,-0.000696654780767858,-0.00012234637688379737,-0.00012946227798238397,-9.165145874023438,17.67934226989746,-38.34013748168945,-0.19293366372585294,0.2983701527118683,0.04701805114746094,987.65673828125,0,13.0,1,1
13.6,0.071238756,-0.15064828,9.744465,0.0010342884343117476,-0.0007881182245910168,-0.00012950942618772388,-9.318084716796877,17.325456619262695,-38.37284469604492,-0.18704576790332794,0.3065471947193146,0.06599044799804688,987.6419067382812,0,13.0,1,1
13.64,0.06886029,-0.16256489,9.770505,0.0003683886025100946,0.00014400522923097014,0.0001367592776659876,-9.443062782287598,17.050107955932614,-37.87556457519531,-0.19099676609039307,0.314439594745636,0.04708671569824219,987.6242065429688,0,13.0,1,1
13.68,0.06887171,-0.15541543,9.75867,-0.0005405701231211424,0.0007511931471526622,0.0004201794508844614,-9.074248313903807,16.658014297485348,-37.9864387512207,-0.17586460709571838,0.3029714822769165,0.0565938949584961,987.63916015625,0,13.0,1,1
13.72,0.06649318,-0.15303238,9.749202,-8.048489689826965e-06,0.0007512109586969018,-0.0006451312801800668,-9.293167114257812,17.40104103088379,-37.6882438659668,-0.18457293510437006,0.30607283115386963,0.056629180908203125,987.6499633789062,0,13.0,1,1
13.76,0.06411472,-0.16733234,9.753936999999999,0.0006576312007382513,-4.771875683218241e-05,0.0006864009774290025,-9.17098903656006,16.67302131652832,-38.35733413696289,-0.17396123707294464,0.3141655921936035,0.05666160583496094,987.62451171875,0,13.0,1,1
13.8,0.06651604,-0.16494937,9.765775,-0.00027458439581096167,-0.0007134905317798258,-0.0003789096954278648,-9.123624801635742,17.66520881652832,-37.80681228637695,-0.1775171160697937,0.3123592734336853,0.033028602600097656,987.6476440429688,0,13.0,1,1
13.84,0.06174767,-0.16971613,9.77051,-8.378643542528152e-06,-0.0007134727202355863,0.00028683277196250856,-8.973484992980957,17.015714645385742,-37.9459114074707,-0.15712308883666992,0.3152783215045929,0.04727363586425781,987.6499633789062,0,13.0,1,1
13.88,0.0760985,-0.15780003,9.753941000000001,-8.378643542528152e-06,-0.0007134727202355863,0.00028683277196250856,-8.950929641723633,16.82597541809082,-37.707332611083984,-0.18956592679023745,0.2947311997413635,0.06150913238525391,987.6499633789062,0,13.0,1,1
13.92,0.06894022,-0.13635089,9.756309,0.0002578269923105836,-4.76651475764811e-05,0.0001536276249680668,-9.179141998291016,17.033945083618164,-38.06925582885742,-0.1793018877506256,0.2693971991539001,0.03786659240722656,987.6622924804688,0,13.0,1,1
13.96,0.06895161,-0.14588423,9.7586775,0.0002577169798314572,0.0007513003656640649,-0.0002458933740854264,-9.377870559692383,17.321916580200195,-37.9785041809082,-0.1834850013256073,0.2867584228515625,0.05209922790527344,987.6425170898438,0,13.0,1,1
14.0,0.064183295,-0.15303440000000001,9.753944,-0.00014186697080731392,0.0007513182936236262,-0.00037909852107986813,-9.342436790466307,17.30189323425293,-37.135963439941406,-0.17321249842643738,0.2853814661502838,0.04739093780517578,987.6602783203124,0,13.0,1,1
14.04,0.07375431,-0.15541793,9.761046,0.0005238128360360861,0.0006181782810017468,0.000419802003307268,-9.585186958312988,17.232759475708008,-37.325462341308594,-0.17197641730308533,0.2837045192718506,0.06163120269775391,987.6376953125,0,13.0,1,1
14.08,0.06420612,-0.1482683,9.763414,0.00012422888539731505,-0.0004470674612093717,-0.0003791928756982088,-9.557087898254396,17.417203903198242,-37.49455642700195,-0.16598111391067505,0.2727301120758057,0.037990570068359375,987.6554565429688,0,13.0,1,1
14.12,0.07377714,-0.15065195,9.765783,0.00012411864008754492,-0.0005802075611427425,-0.0003792399656958878,-8.822504043579102,16.630067825317386,-37.56169509887695,-0.18419377505779266,0.2804461121559143,0.03802490234375,987.6554565429688,0,13.0,1,1
14.16,0.06422895,-0.15303545,9.763417,-0.0005417810752987863,-0.0003138737811241299,-0.00011297134915366767,-8.866228103637695,16.905099868774414,-37.41707992553711,-0.17402328550815582,0.28388071060180664,0.047514915466308594,987.6585083007812,0,13.0,1,1
14.2,0.07857978,-0.14826919,9.756316,0.0006565302610397339,0.001284039462916553,-0.0001130184973590076,-8.916337966918945,16.542108535766598,-37.38811874389648,-0.17762824892997742,0.2726265490055084,0.052285194396972656,987.6406860351562,0,13.0,1,1
14.24,0.069031596,-0.15541936,9.761051,-0.00027568533550947905,-0.00044699595309793944,-0.00024622358614578843,-8.81489372253418,16.63743019104004,-37.94821548461914,-0.1672821044921875,0.27593111991882324,0.06651496887207031,987.6458129882812,0,13.0,1,1
14.28,0.07860264,-0.15303628,9.761053,0.00038999435491859913,0.0006182853830978273,-0.00011311285197734831,-8.851444244384766,16.18177604675293,-37.91592025756836,-0.1807713359594345,0.2788383364677429,0.03340625762939453,987.6406860351562,0,13.0,1,1
14.32,0.07622415,-0.16733624,9.749217999999999,-0.0009416952962055802,-0.00018064436153508723,1.9997911294922236e-05,-8.983160018920898,17.37516975402832,-37.58053588867188,-0.17472147941589355,0.28678303956985474,0.05711174011230469,987.6409912109376,0,13.0,1,1
14.36,0.0786255,-0.14827032,9.753953,0.0007891377899795772,-0.0007132403552532196,0.00015306149725802243,-9.429502487182617,16.95744514465332,-37.87223434448242,-0.1729181408882141,0.25619834661483765,0.05715274810791016,987.6109008789062,0,13.0,1,1
14.4,0.078636885,-0.14350404,9.768157,0.00038955395575612783,-0.00031374869286082685,0.00015301431994885206,-9.2491455078125,17.758146286010742,-37.40798950195313,-0.18173955380916595,0.2690116167068481,0.024036407470703125,987.6487426757812,0,13.0,1,1
14.44,0.074214965,-0.15542923,9.756353,0.00038955395575612783,-0.00031374869286082685,0.00015301431994885206,-9.2491455078125,17.758146286010742,-37.40798950195313,-0.17166657745838165,0.2731166779994965,0.052455902099609375,987.6487426757812,0,13.0,1,1
14.48,0.072203815,-0.15782176,9.758757000000001,0.00012312782928347588,0.0008846906712278725,0.0004192830238025636,-9.506434440612793,17.41190528869629,-37.42506790161133,-0.1666889637708664,0.27649906277656555,0.04768180847167969,987.6588745117188,0,13.0,1,1
14.52,0.07463306,-0.15305616,9.768229,0.000656066695228219,-0.00045130538637749856,0.00015209722914732993,-9.154629707336426,17.583734512329098,-38.18219375610352,-0.17529481649398804,0.26549553871154785,0.03350162506103516,987.63134765625,0,13.0,1,1
14.56,0.07467231,-0.1554404,9.765865,-0.00014571379870176315,0.00021494421525858345,1.772516407072544e-05,-8.79038143157959,17.187223434448242,-38.0611457824707,-0.16462154686450958,0.26402756571769714,0.03826141357421875,987.6546020507812,0,13.0,1,1
14.6,0.08188134400000001,-0.14114176,9.772969999999999,-1.2934673577547072e-05,-0.000583941931836307,-0.0010477006435394287,-8.89777660369873,17.191919326782227,-37.890907287597656,-0.18270666897296906,0.25769874453544617,0.05722427368164064,987.6417846679688,0,13.0,1,1
14.64,0.06758124,-0.15544237,9.756403,-0.000279629253782332,-0.0004507225239649415,-0.0003820732235908508,-9.220365524291992,17.68021583557129,-38.17770767211914,-0.1576986163854599,0.26545679569244385,0.05251789093017578,987.63916015625,0,13.0,1,1
14.68,0.079570055,-0.1530601,9.746938,-0.0005463240668177606,-5.1187205826863647e-05,0.00028355413815006614,-9.61923599243164,17.148340225219727,-37.54623031616211,-0.166355162858963,0.26865118741989136,0.06200981140136719,987.6544189453124,0,13.0,1,1
14.72,0.07482955,-0.16259415,9.749310000000001,-0.0001472289441153407,-0.00045059953117743134,-0.00011608202476054429,-9.179141998291016,17.033945083618164,-38.06925582885742,-0.17484548687934875,0.2817949652671814,0.05256080627441406,987.6469116210938,0,13.0,1,1
14.76,0.06530926,-0.16259505,9.763515,0.0006513400003314017,-0.0003173801233060658,-0.0003825602470897138,-9.228954315185547,17.30308723449707,-37.61542510986328,-0.15497836470603946,0.28047722578048706,0.03837490081787109,987.6292724609376,0,13.0,1,1
14.8,0.08446777,-0.1649793,9.765887,0.00038464507088065153,0.00021531319362111392,-0.00011640670709311963,-9.414122581481934,17.49839973449707,-37.52133560180664,-0.1680585741996765,0.27900809049606323,0.038399696350097656,987.6397094726562,0,13.0,1,1
14.84,0.065387845,-0.16498025,9.756421000000001,-0.000281902146525681,0.0003485940687824041,-0.00024988938821479684,-9.358359336853027,17.129236221313473,-37.58531188964844,-0.1481497883796692,0.2631654143333435,0.06682777404785156,987.6221313476562,0,13.0,1,1
14.88,0.07020694,-0.16259791,9.75169,-0.00014912313781678677,0.000748129328712821,-0.00025005172938108444,-9.24555778503418,17.39280128479004,-37.464149475097656,-0.15244969725608826,0.261485368013382,0.057377815246582024,987.64501953125,0,13.0,1,1
14.92,0.075026035,-0.15306588,9.751694,-0.0004158178344368935,-0.0004502305528149009,-0.00011705607175827026,-9.604398727416992,18.057580947875977,-37.29378128051758,-0.1609620749950409,0.24097304046154025,0.06686687469482422,987.6552124023438,0,13.0,1,1
14.96,0.07745528,-0.16259994,9.770636,-0.00014988053590059283,-0.00031701111583970487,0.00041541329119354486,-9.262598037719727,16.744462966918945,-37.03866195678711,-0.1647917628288269,0.27275681495666504,0.038481712341308594,987.622314453125,0,13.0,1,1
15.0,0.08227435,-0.15545107,9.756436,0.00011605641338974236,8.252420229837298e-05,0.0005484088906086981,-9.267868041992188,16.58211326599121,-38.02914810180664,-0.15907840430736542,0.2618231177330017,0.06690692901611328,987.630126953125,0,13.0,1,1
15.04,0.06319445,-0.15545203,9.754072,-1.7480342648923394e-05,-0.000583204033318907,-0.0002507010940462351,-9.021093368530273,17.023958206176758,-38.170013427734375,-0.15318918228149414,0.23651652038097384,0.05272388458251953,987.622314453125,0,13.0,1,1
15.08,0.082352966,-0.15545292,9.770646000000001,0.0002484567230567336,0.0006152789574116467,0.0005480842082761228,-9.353250503540039,16.76535987854004,-37.71877670288086,-0.162132129073143,0.2542619109153748,0.03853702545166016,987.6123657226562,0,13.0,1,1
15.12,0.07522255,-0.16498701,9.75408,0.00038123596459627146,-0.000316765159368515,0.00028160601505078375,-9.064818382263184,17.29899024963379,-38.02539825439453,-0.16112205386161804,0.24835410714149475,0.05275535583496094,987.6428833007812,0,13.0,1,1
15.16,0.06570226,-0.15545483,9.754083,-1.8616672605276108e-05,0.00048224398051388567,-0.0005175040569156408,-9.3975191116333,17.408685684204098,-37.67261505126953,-0.14634284377098086,0.2468119412660599,0.04803752899169922,987.6204223632812,0,13.0,1,1
15.2,0.06813145,-0.15307258,9.7611885,-0.0002342045190744102,-2.172712993342429e-05,0.00029734271811321383,-9.090852737426758,16.74772834777832,-37.83516311645508,-0.14544489979743958,0.24526819586753845,0.05752468109130859,987.6478881835938,0,13.0,1,1
15.24,0.08251017,-0.15069033,9.75409,-0.0002342045190744102,-2.172712993342429e-05,0.00029734271811321383,-8.952995300292969,17.19279670715332,-37.72848129272461,-0.1637665331363678,0.2488142400979996,0.05280494689941406,987.6478881835938,0,13.0,1,1
15.28,0.08254945,-0.16260768,9.761194,0.0005643643089570105,0.0003778082027565688,-0.0007680832059122622,-8.636899948120117,17.17281150817871,-37.929988861083984,-0.15796877443790436,0.23790882527828214,0.043354034423828125,987.640380859375,0,13.0,1,1
15.32,0.07302916,-0.13877584,9.758830999999999,-0.00010180420940741895,-0.0006873939419165254,-0.000635087548289448,-9.197405815124512,17.016271591186527,-37.141597747802734,-0.16170504689216614,0.2173888683319092,0.03863811492919922,987.6382446289062,0,13.0,1,1
15.36,0.07545835,-0.15784298,9.768305,-0.0005016568466089666,-0.0002878585364669561,0.0006963295163586737,-9.415644645690918,17.49692726135254,-37.44403076171875,-0.15168142318725586,0.2494490444660187,0.048117637634277344,987.6560668945312,0,13.0,1,1
15.4,0.06115824,-0.16261049,9.756472,0.00043007003841921687,0.000644308514893055,-0.0005022542318329215,-9.153788566589355,17.84758186340332,-37.65886688232422,-0.1315862387418747,0.2573285400867462,0.04813671112060547,987.6382446289062,0,13.0,1,1
15.44,0.08003205,-0.1626045,9.751714999999999,-0.0010350460652261972,-0.0008203672477975488,-0.000768732454162091,-8.900277137756348,16.820684432983402,-37.63784408569336,-0.1540830433368683,0.2465419769287109,0.048178672790527344,987.6358032226562,0,13.0,1,1
15.48,0.06333059,-0.16260521,9.758819,0.000695628288667649,-0.0005539899575524032,0.00016321075963787737,-9.24639892578125,17.12895393371582,-37.98746871948242,-0.13411667943000793,0.2498178035020828,0.038725852966308594,987.6383056640624,0,13.0,1,1
15.52,0.075308025,-0.15545596,9.763556,-0.0003613248700276017,-0.0005597771960310638,-0.00036790536250919104,-9.28569507598877,17.302492141723633,-37.37569808959961,-0.14777332544326782,0.2386835813522339,0.0387420654296875,987.6184692382812,0,13.0,1,1
15.56,0.08250564,-0.16260652,9.76119,-0.0007610676111653447,0.00023921416141092777,-0.00010170479072257876,-9.240448951721193,17.028928756713867,-37.59761428833008,-0.15214961767196655,0.2421756386756897,0.043488502502441406,987.6284790039062,0,13.0,1,1
15.6,0.07058406,-0.14830758,9.773029,0.00017076916992664337,0.0015708371065557005,-0.0003681358648464084,-8.652959823608397,16.894235610961914,-37.68025588989258,-0.13737048208713531,0.23126845061779025,0.05296897888183594,987.6360473632812,0,13.0,1,1
15.64,0.06822210599999999,-0.15069158,9.758828999999999,0.00017050013411790133,0.00037245941348373885,-0.000368251174222678,-9.222024917602539,17.572832107543945,-37.40132522583008,-0.14204387366771698,0.2154865860939026,0.04351043701171875,987.6284790039062,0,13.0,1,1
15.68,0.07541969400000001,-0.14830895,9.7612,-0.0007618744857609272,0.0017040824750438333,-0.0002352085430175066,-9.460347175598145,17.402193069458008,-37.12366104125977,-0.1459355652332306,0.2377761751413345,0.04825973510742188,987.65380859375,0,13.0,1,1
15.72,0.07544762,-0.15545942,9.761202,-0.00022951187565922734,0.00010623084381222725,-0.00036848167655989533,-8.709701538085938,16.89363670349121,-37.44053268432617,-0.15011197328567505,0.2270252704620361,0.04353809356689453,987.6315307617188,0,13.0,1,1
15.76,0.06830585,-0.16737653,9.768305,-0.00036293873563408846,0.00023943244013935328,-0.00023543910356238487,-8.9048433303833,16.81626319885254,-37.40593338012695,-0.12532463669776914,0.2449720650911331,0.029346466064453125,987.6312866210938,0,13.0,1,1
15.8,0.06355387,-0.15307756,9.7422695,0.00030258216429501767,-0.00029315566644072527,-0.0006350281764753162,-8.626383781433105,17.077203750610348,-37.77204513549805,-0.13897426426410675,0.22953149676322934,0.0814352035522461,987.6542358398438,0,13.0,1,1
15.84,0.07792121,-0.15307827,9.7635765,0.0008349447743967174,0.00037267769221216435,-0.0003688276628963649,-8.859161376953125,17.280755996704098,-37.90205764770508,-0.14306887984275818,0.20911002159118647,0.04830741882324219,987.6342163085938,0,13.0,1,1
15.88,0.07794911,-0.15546216,9.765945,-0.00036374572664499283,-2.6752444682642817e-05,-0.00010262697469443084,-9.354337692260742,17.501943588256836,-37.91567611694336,-0.14703406393527985,0.22191479802131653,0.04832077026367188,987.60888671875,0,13.0,1,1
15.92,0.06602752,-0.14116322,9.758846,-0.0006303305272012949,-0.0001598667149664834,3.0415656510740522e-05,-9.337733268737793,17.412233352661133,-38.06695556640625,-0.13680870831012726,0.21586254239082334,0.043598175048828125,987.6544189453124,0,13.0,1,1
15.96,0.07561505,-0.14116393,9.768317999999999,-9.79675678536296e-05,0.0003728086594492197,0.0006960900500416756,-9.141207695007324,17.385156631469727,-37.47978210449219,-0.13613545894622806,0.2095777988433838,0.053078651428222656,987.6343383789062,0,13.0,1,1
16.0,0.07564297,-0.16499738,9.77779,-0.000897184363566339,0.00010653649223968388,3.018503775820136e-05,-9.4488525390625,17.676355361938477,-37.14147567749024,-0.1400732398033142,0.22263352572917935,0.034152984619140625,987.6064453125,0,13.0,1,1
16.04,0.06372136,-0.14116527,9.770691000000001,-9.850575588643552e-05,-0.00015973573317751288,0.00029638572596013546,-8.758535385131836,17.53254508972168,-37.16244888305664,-0.1201826110482216,0.2067261338233948,0.04363536834716797,987.6347045898438,0,13.0,1,1
16.08,0.06374931,-0.14354922,9.744655,-0.00036509055644273763,-0.00015969204832799733,0.0002962704165838659,-8.773372650146483,16.623300552368164,-37.41489791870117,-0.12906917929649353,0.20088820159435272,0.04837703704833984,987.6271362304688,0,13.0,1,1
16.12,0.07094681,-0.15308304,9.754126,3.4114462323486805e-05,0.00010666751768440008,-0.00010331865632906556,-8.790817260742188,16.449167251586914,-37.78694152832031,-0.13340222835540771,0.21864819526672366,0.05312061309814453,987.6224975585938,0,13.0,1,1
16.16,0.07814446,-0.1650001,9.775433,-0.0008982602739706634,0.0006393429357558488,0.0002960398269351572,-9.357519149780273,17.393083572387695,-37.06199264526367,-0.13738343119621274,0.22236673533916476,0.029458999633789062,987.6268310546876,0,13.0,1,1
16.2,0.07578248,-0.14831786,9.761232000000001,-0.0007656405214220285,0.00063943030545488,0.0005621251766569912,-9.31020736694336,16.752702713012695,-37.26276016235352,-0.13698261976242065,0.20653769373893735,0.05787467956542969,987.6351318359376,0,13.0,1,1
16.24,0.08775991,-0.15785159,9.761234,3.3038435503840446e-05,0.0006394739029929043,0.00016253607464022934,-9.139142036437988,17.018342971801758,-37.45863342285156,-0.15089599788188934,0.205440491437912,0.05314540863037109,987.6148681640624,0,13.0,1,1
16.28,0.07344842,-0.1578523,9.77544,-0.00023354636505246162,-0.000558903906494379,-0.0005033689085394144,-9.887585639953613,17.266000747680664,-37.81969833374024,-0.12598201632499695,0.20888814330101013,0.02475166320800781,987.6024780273438,0,13.0,1,1
16.32,0.07586622,-0.16023628,9.763607,-0.0002338155172765255,-2.6228459319099787e-05,0.00042862145346589386,-9.768695831298828,17.535459518432614,-38.007755279541016,-0.14923810958862305,0.21704508364200592,0.05316638946533203,987.6176147460938,0,13.0,1,1
16.36,0.08067393,-0.15070392,9.758875,-0.0006335584912449121,0.0006396049284376204,-0.00010412564733996989,-9.352272033691406,17.135126113891598,-37.894527435302734,-0.14388786256313324,0.21574218571186066,0.04370689392089844,987.63525390625,0,13.0,1,1
16.4,0.07812440400000001,-0.17214943,9.770697,0.000298278289847076,0.0005064906436018647,-0.0005037147784605622,-8.89418888092041,16.826570510864258,-37.94706344604492,-0.13369491696357727,0.22416244447231293,0.04844856262207031,987.62060546875,0,13.0,1,1
16.44,0.07556346,-0.15307899,9.756477,3.305613063275814e-05,-0.0009584241779521108,-0.00010377232683822513,-9.149659156799316,17.113946914672848,-37.61657333374024,-0.1321408748626709,0.2084323614835739,0.04849433898925781,987.6278686523438,0,13.0,1,1
16.48,0.077966034,-0.16261245,9.765947,-0.001030104816891253,-0.00042613380355760455,0.0006960765458643436,-9.027725219726562,17.386354446411133,-37.95924758911133,-0.13134390115737915,0.21654005348682406,0.029567718505859375,987.6150512695312,0,13.0,1,1
16.52,0.08036861,-0.1554629,9.747011,-0.0004975951742380856,-0.0009587457170709967,-0.0006355551886372267,-9.618938446044922,17.78047752380371,-37.12135696411133,-0.14452043175697327,0.205744206905365,0.06272125244140625,987.597412109375,0,13.0,1,1
16.56,0.07560155,-0.16022976,9.777786,-9.824370499700308e-05,-2.6620298740454015e-05,-0.000502449634950608,-8.886281967163086,17.466073989868164,-37.90871810913086,-0.12946301698684692,0.20455628633499146,0.04379081726074219,987.6057739257812,0,13.0,1,1
16.6,0.07083439999999999,-0.15546353,9.754114999999999,-9.824370499700308e-05,-2.6620298740454015e-05,-0.000502449634950608,-9.17275619506836,17.67197608947754,-37.95360565185547,-0.11501863598823547,0.19843754172325132,0.06273555755615234,987.6057739257812,0,13.0,1,1
16.64,0.07801682,-0.16261370000000003,9.751749,3.479141741991043e-05,0.0011718211462721226,-0.000103028432931751,-9.221343994140623,17.310457229614258,-38.001949310302734,-0.13343492150306702,0.2069815993309021,0.06274223327636719,987.6334228515624,0,13.0,1,1
16.68,0.07085976,-0.15784742,9.765953,0.000300985062494874,0.0005060512921772896,-0.00010308081982657312,-8.747774124145508,16.436513900756836,-37.33092880249024,-0.12323276698589325,0.20101958513259888,0.034343719482421875,987.6131591796876,0,13.0,1,1
16.72,0.08043206,-0.15546449,9.756486,-0.00018978893058374524,0.0002462335687596351,3.172975266352296e-05,-9.353251457214355,16.76535987854004,-37.71877670288086,-0.1319141983985901,0.20947429537773127,0.048553466796875,987.62841796875,0,13.0,1,1
16.76,0.07088512,-0.15784802,9.768322,-5.675322609022261e-05,-0.00028637837385758763,0.0005643091863021255,-9.180801391601562,16.92655372619629,-37.29287338256836,-0.12618516385555267,0.1938328742980957,0.04383087158203125,987.638427734375,0,13.0,1,1
16.8,0.08284730000000001,-0.16023166,9.758856,0.0011415460612624886,-0.0005526745226234199,0.0005642567994073032,-9.32583236694336,17.212182998657227,-37.28723907470703,-0.13982978463172913,0.2024711221456528,0.03910064697265625,987.6287231445312,0,13.0,1,1
16.84,0.068520576,-0.14831556,9.765957,0.00047563418047502637,0.0003794509393628687,-0.0001015852321870625,-9.240013122558594,17.766984939575195,-37.87181854248047,-0.11518260836601255,0.1924594342708588,0.04384136199951172,987.6234130859376,0,13.0,1,1
16.88,0.075702965,-0.16261555,9.754124000000001,0.00034235400380566716,-0.0004194768262095749,-0.00036795350024476653,-8.853073120117188,17.286645889282227,-38.21127700805664,-0.13856564462184906,0.18657055497169492,0.04858112335205078,987.6315307617188,0,13.0,1,1
16.92,0.061376274,-0.15546604,9.765961,-0.00032355781877413387,-0.00015314111078623682,-0.00023484794655814767,-8.98620319366455,17.372224807739258,-37.42592239379883,-0.1091124266386032,0.19491742551326752,0.053322792053222656,987.6339721679688,0,13.0,1,1
16.96,0.07333848,-0.1411667,9.761229,-5.736417369917035e-05,-0.000419437128584832,0.0002977314579766244,-9.368875503540039,17.22484016418457,-37.743255615234375,-0.12295833230018614,0.17479538917541504,0.04859352111816406,987.6261596679688,0,13.0,1,1
17.0,0.085300654,-0.1507001,9.7564945,-5.748687544837594e-05,0.0005126884207129478,0.00029767883825115865,-9.190338134765623,17.391923904418945,-37.6265754699707,-0.1364736258983612,0.17377230525016785,0.058070182800292976,987.6315307617188,0,13.0,1,1
17.04,0.07097393,-0.15308367,9.7517605,7.55488290451467e-05,-0.0002862394321709872,0.0008302582427859306,-8.987044334411621,17.108373641967773,-37.94924545288086,-0.11661602556705475,0.1871163845062256,0.06754302978515625,987.62646484375,0,13.0,1,1
17.08,0.08293611,-0.16261707,9.751761,0.00034174259053543215,-1.990373129956424e-05,0.0002975740935653448,-9.085444450378418,17.015993118286133,-37.543758392333984,-0.12062247097492218,0.19105121493339536,0.05808067321777344,987.624267578125,0,13.0,1,1
17.12,0.06860939,-0.15785088,9.758863,0.0002084624138660729,0.00011327405809424818,-0.0005014258786104621,-9.301074981689453,16.761541366577152,-37.72658920288086,-0.1155082955956459,0.1996387243270874,0.04388141632080078,987.639892578125,0,13.0,1,1
17.16,0.07340187,-0.16023447,9.770702,0.0007409719401039183,0.0003796098462771624,3.115349682047963e-05,-8.837990760803223,17.195466995239258,-38.28525161743164,-0.12456384301185608,0.193840354681015,0.04861927032470703,987.6015014648438,0,13.0,1,1
17.2,0.06863475,-0.15308495,9.758867,7.506011752411722e-05,0.0005127876065671443,0.00029741699108853936,-9.17234992980957,17.19776725769043,-37.15607833862305,-0.11463737487792967,0.16907548904418945,0.05335712432861328,987.6192626953124,0,13.0,1,1
17.24,0.08537671,-0.15785183,9.7565,-0.0004578160005621612,-0.0008187522180378437,-0.0006347933667711914,-9.055280685424805,16.833620071411133,-37.69169998168945,-0.13188044726848602,0.19133123755455014,0.043900489807128906,987.6644897460938,0,13.0,1,1
17.28,0.06866014,-0.15308554,9.763603,-0.0004578160005621612,-0.0008187522180378437,-0.0006347933667711914,-9.055280685424805,16.833620071411133,-37.69169998168945,-0.10751998424530028,0.1861039400100708,0.034432411193847656,987.6644897460938,0,13.0,1,1
17.32,0.09496176,-0.16738553,9.739932000000001,0.00020785146625712517,-0.0014845221303403378,0.000164101948030293,-9.250422477722168,16.756242752075195,-37.6571044921875,-0.13576394319534302,0.19461293518543246,0.06284427642822266,987.6195678710938,0,13.0,1,1
17.36,0.07107544,-0.16023599,9.756504,0.0007403605268336833,0.0006460249423980713,0.00016404929920099676,-9.388959884643556,16.573553085327152,-37.16315841674805,-0.11572317779064177,0.1886807531118393,0.0628509521484375,987.6170654296876,0,13.0,1,1
17.4,0.06860298,-0.14355107,9.763598,-0.0005913411150686443,-0.00015290288138203326,3.083894262090325e-05,-9.68040657043457,17.249238967895508,-37.77366256713867,-0.10074862092733383,0.1685909628868103,0.0581197738647461,987.6093139648438,0,13.0,1,1
17.44,0.068514705,-0.15784849,9.761223,0.00034064223291352386,-0.0004191989137325436,0.0005634184344671668,-9.113407135009766,16.937463760375973,-38.0737419128418,-0.1140882894396782,0.1774880588054657,0.04393768310546875,987.6525268554688,0,13.0,1,1
17.48,0.0780794,-0.14593233,9.749388,0.0006105761276558043,-0.0004213103384245187,0.0004305537149775773,-9.352815628051758,17.503412246704098,-37.99298477172852,-0.1038416102528572,0.16697952151298526,0.058146476745605476,987.6348266601562,0,13.0,1,1
17.52,0.07808453,-0.15784882,9.775428,7.83439027145505e-05,0.0001112565223593265,-0.00023506477009505033,-9.384501457214355,17.68431282043457,-37.76773071289063,-0.10736767947673798,0.20027737319469446,0.02027416229248047,987.614501953125,0,13.0,1,1
17.56,0.08047947,-0.14593257,9.765959,-0.001519649289548397,0.0011765359668061135,0.00029752511181868613,-9.068840980529783,16.926279067993164,-37.69503402709961,-0.12615130841732025,0.17012864351272586,0.03921699523925781,987.8058471679688,0,13.0,1,1
17.6,0.07809466,-0.16261558,9.76596,-0.001519698416814208,0.0007770700613036753,0.0005638200091198088,-8.829975128173828,16.72862434387207,-37.87424850463867,-0.11611419916152955,0.18309995532035828,0.03922080993652344,987.5771484375,0,13.0,1,1
17.64,0.080489635,-0.15069933,9.756491,0.0004776217974722386,-0.0001550275628687814,-0.00010199076496064664,-9.38757610321045,16.469110488891598,-36.54138565063477,-0.1199147328734398,0.16841547191143036,0.07236576080322266,987.5823364257812,0,13.0,1,1
17.68,0.075714886,-0.17214896,9.754124000000001,0.0028744162991642948,-0.0013534409226849675,-0.0009009592467918992,-9.4332275390625,17.216875076293945,-37.11699295043945,-0.11438930034637453,0.1823178827762604,0.03922748565673828,987.64111328125,0,13.0,1,1
17.72,0.07571995,-0.15069957,9.768328,-0.002585108857601881,0.0010434096911922095,0.0009632308501750233,-8.977347373962402,17.16922950744629,-36.49160385131836,-0.11874081939458847,0.17560982704162598,0.058170318603515625,987.68408203125,0,13.0,1,1
17.76,0.06377557,-0.1602328,9.756492999999999,0.00034431705716997385,-2.1845771698281172e-05,3.110431134700775e-05,-8.944682121276855,17.358087539672848,-36.89260482788086,-0.10388247668743134,0.16937270760536194,0.04397106170654297,987.5568237304688,0,13.0,1,1
17.8,0.08050996,-0.15784962,9.773064,-5.520554259419441e-05,0.0009102675830945373,-0.0009010222274810076,-9.169306755065918,17.200716018676758,-37.31068801879883,-0.1085648387670517,0.1688544750213623,0.03450202941894531,987.5896606445312,0,13.0,1,1
17.84,0.07573521,-0.16261639,9.758861999999999,-0.00045472837518900633,-0.0008207774953916669,3.106228541582823e-05,-9.124878883361816,17.083612442016598,-36.232906341552734,-0.11226245760917664,0.16774287819862366,0.048709869384765625,987.60009765625,0,13.0,1,1
17.88,0.08052009,-0.15308339999999998,9.7399235,0.0006104861386120318,0.00037765179877169436,0.0001641993876546621,-8.961286544799805,17.44780158996582,-36.74132537841797,-0.11186083406209946,0.16233213245868686,0.06291580200195312,987.6382446289062,0,13.0,1,1
17.92,0.0829151,-0.15546678,9.761229,0.0006104861386120318,0.00037765179877169436,0.0001641993876546621,-8.991312980651855,17.736093521118164,-37.29246139526367,-0.1159890741109848,0.17556774616241455,0.05344963073730469,987.6382446289062,0,13.0,1,1
17.96,0.056631207,-0.15308364,9.770699,-0.0001885105157271028,-0.00015497193089686334,-0.00010213750647380948,-8.968214988708496,17.178064346313473,-36.9554328918457,-0.07737061381340027,0.1701025664806366,0.04871654510498047,987.5978393554688,0,13.0,1,1
18.0,0.07336563,-0.1650001,9.7564945,0.0007435462903231382,0.000643983599729836,0.000297315331408754,-9.164878845214844,17.099218368530273,-36.84352493286133,-0.1005472168326378,0.17405545711517334,0.06292247772216797,987.6233520507812,0,13.0,1,1
18.04,0.08054042,-0.16023369,9.768332000000001,0.0003440235741436481,-0.0006875877734273673,0.0002972943475469947,-9.518610954284668,17.40012550354004,-36.80662536621094,-0.11447061598300935,0.16838523745536804,0.04398727416992188,987.63037109375,0,13.0,1,1
18.08,0.09010509,-0.16976692,9.76123,0.00021081662271171808,0.0009103153133764863,-0.00023535836953669786,-9.47887897491455,17.96464729309082,-37.69260787963867,-0.11384628713130952,0.18635407090187076,0.03452014923095703,987.6287231445312,1,1.0,2,2
18.12,0.07577076599999999,-0.15070082,9.754128999999999,-0.000188706093467772,-0.00015494016406591982,-0.00036853732308372855,-8.916720390319824,17.436616897583008,-36.36262130737305,-0.10353098809719086,0.17131972312927246,0.06766414642333984,987.6741943359376,1,1.0,2,2
18.16,0.07577583,-0.15546747,9.763599000000001,0.00034387665800750256,-0.00015493218961637467,0.0004303893656469882,-9.005446434020996,16.98478126525879,-36.32250595092773,-0.10754863917827606,0.16130921244621274,0.05346202850341797,987.6615600585938,1,1.0,2,2
18.2,0.080560714,-0.16023417,9.747028,0.0011427754070609806,-0.000421240139985457,-0.000634895171970129,-8.960742950439453,17.07951545715332,-36.642879486083984,-0.11144378036260603,0.16012921929359436,0.05820083618164064,987.6615600585938,1,1.0,2,2
18.24,0.06622636,-0.16261755,9.744661,-0.0003897514543496072,-0.0005945338634774089,-0.0010966304689645767,-9.166102409362793,17.729883193969727,-36.34135055541992,-0.09170086681842804,0.16367071866989136,0.06766986846923828,987.6436157226562,1,1.0,2,2
18.28,0.07340115,-0.16023447,9.768333,-0.000922432343941182,-0.00046136791934259236,-0.00016454613069072366,-9.25979995727539,17.747835159301758,-36.86685180664063,-0.0860254243016243,0.16794830560684204,0.03926658630371094,987.6491088867188,1,1.0,2,2
18.32,0.059066832,-0.15546803,9.765967999999999,0.0010748880449682474,-0.0008608337957412003,0.0006343805580399929,-9.389204978942873,17.573980331420902,-36.83674240112305,-0.0760241374373436,0.1669069230556488,0.048735618591308594,987.6516723632812,1,1.0,2,2
18.36,0.059071900000000004,-0.1483183,9.763601,0.00014273350825533268,7.127967546693981e-05,0.00010172781185247004,-9.231157302856444,17.563989639282227,-36.93749237060547,-0.08527784049510956,0.14704537391662598,0.03926849365234375,987.6317138671876,1,1.0,2,2
18.4,0.07172978,-0.15786882,9.747095,0.00014268449740484354,7.128764991648495e-05,-0.0002977670519612729,-8.649212837219237,17.055112838745114,-36.61246871948242,-0.094961978495121,0.1412389725446701,0.07234764099121094,987.6240844726562,1,1.0,2,2
18.44,0.06220317,-0.14356999,9.756567,-0.0005239846068434417,7.143043330870569e-05,-3.182794898748398e-05,-9.095663070678713,17.74373435974121,-37.27682876586914,-0.08966358006000519,0.14038418233394626,0.06760978698730469,987.6312866210938,1,1.0,2,2
18.48,0.06701589,-0.16025366,9.77314,7.035385351628065e-06,0.00020214903634041548,0.00023169754422269762,-8.671768188476562,17.24485206604004,-36.85104751586914,-0.09411516040563583,0.1678713709115982,0.029733657836914062,987.6393432617188,1,1.0,2,2
18.52,0.07421863,-0.1697876,9.766043,-0.0007922301883809267,6.904269685037434e-05,0.00023156128008849916,-9.045445442199707,17.000383377075195,-36.93313217163086,-0.0931934490799904,0.16701450943946838,0.024997711181640625,987.6367797851562,1,1.0,2,2
18.56,0.06708187,-0.15787204,9.758944,0.00027271505678072566,-0.0008630112861283122,-0.0013664702419191599,-9.356975555419922,17.024789810180664,-36.96353530883789,-0.0919702798128128,0.16541621088981628,0.05340385437011719,987.6469116210938,1,1.0,2,2
18.6,-0.06671962,-0.18170561,9.853634,-0.0014586560428142548,-0.0012624335940927267,-0.005627660080790521,-8.909952163696289,17.18013572692871,-37.27246475219727,-0.007362738717347381,0.14434131979942322,0.02498626708984375,987.6647338867188,1,1.0,2,2
18.64,0.24400061,-0.19600613,10.142437,-0.035813719034194946,-0.024032389745116237,-0.024669382721185684,-9.168220520019533,16.464136123657227,-37.11378860473633,0.017581123858690262,0.09881768375635147,-0.3588666915893555,987.6389770507812,1,1.0,2,2
18.68,0.1293183,-0.42003506,9.931759,-0.14234039187431335,-0.034951288253068924,-0.2074953615665436,-9.475865364074707,16.755327224731445,-36.775482177734375,-0.18271033465862274,0.06689316034317018,-0.14063739776611328,987.63427734375,1,1.0,2,2
18.72,0.4209193,-0.720329,9.721081,-0.4272986948490143,-0.2261660397052765,-0.07500335574150085,-10.023599624633787,17.874849319458008,-35.75578689575195,0.40173247456550604,0.09858423471450806,-0.018319129943847656,987.5275268554688,1,1.0,2,2
18.76,0.96345997,-0.95150787,9.737654,-0.6500722765922546,-0.7409545183181763,0.035251278430223465,-11.173223495483398,18.95787239074707,-35.180103302001946,-0.3408389091491699,0.04606127738952637,0.01990985870361328,987.5707397460938,1,1.0,2,2
18.8,1.0710386,-1.2494184,9.747126,-0.7339621186256409,-0.7778392434120178,-0.19591103494167328,-12.049527168273926,19.453447341918945,-33.765331268310554,-0.17656242847442627,0.02651989459991455,-0.05466842651367188,987.5885009765624,1,1.0,2,2
18.84,1.0734615,-1.5759284,9.477267999999999,-0.8291703462600708,-0.2273643016815185,-0.07953113317489624,-12.558507919311525,20.767717361450195,-33.455867767333984,-0.04773402214050293,-0.3769658803939819,0.058909416198730476,987.6373901367188,1,1.0,2,2
18.88,0.9492195999999999,-2.217031,9.387317,-0.9157233238220216,-0.5765043497085571,0.12566512823104858,-13.042325973510742,21.15714454650879,-32.788223266601555,-0.3158887624740601,0.4522453546524048,0.25458526611328125,987.5991821289062,1,1.0,2,2
