Timestamp,Ax,Ay,Az,Gx,Gy,Gz,Mx,My,Mz,LiAx,LiAy,LiAz,P,Value,Type,GroupType,Activities
0.0,0.05629629,-0.15545873,9.765933,-0.0006220589275471866,0.0018524890765547755,0.000662809528876096,-1.516010284423828,20.46135902404785,-37.71315383911133,-0.0044516436755657205,0.0070047527551651,0.057621955871582024,987.9801025390624,0,13.0,1,1
0.04,0.05871409,-0.15307604,9.761202,0.0012972980039194224,0.0010629973839968443,-0.00023604172747582203,-4.676394462585449,21.505151748657227,-36.671348571777344,-0.0004887431859970093,0.3003377616405487,0.04763126373291016,987.9801025390624,0,13.0,1,1
0.08,0.051572293,-0.1483102,9.763571,0.000231765559874475,-0.00026853842427954083,0.0005627906648442148,-4.891183853149414,21.514543533325195,-36.33086395263672,7.618218660354614e-06,0.2844071984291077,0.04765033721923828,987.9434204101562,0,13.0,1,1
0.12,0.056380032999999996,-0.14354436,9.754105000000001,-0.00043429294601082796,-0.0008011265890672803,-0.00010311423102393746,-4.785853862762451,21.876665115356445,-36.522254943847656,0.00024569034576416016,0.282720148563385,0.057139396667480476,987.955810546875,0,13.0,1,1
0.16,0.06357765,-0.14831163,9.758841499999999,0.00023122760467231274,-0.0005347669357433915,-0.00010322954040020704,-4.759032249450684,21.0592098236084,-36.94046020507813,-0.004519481211900711,0.28597962856292725,0.05242347717285156,987.9662475585938,0,13.0,1,1
0.2,0.06121564,-0.1435457,9.751741,0.0008967482717707752,0.0002642243343871087,0.00042928691254928713,-4.769685745239258,21.048898696899414,-36.39932632446289,-0.014113590121269224,0.2702063620090485,0.05717658996582031,987.9736328125,0,13.0,1,1
0.24,0.061243594000000005,-0.16499586,9.765948,-0.0001687842886894941,0.0005305837839841843,0.0005623295437544584,-4.770771503448486,21.785478591918945,-36.59622573852539,-0.009475309401750565,0.301999568939209,0.04299259185791016,987.9335327148438,0,13.0,1,1
0.28,0.04932192,-0.14593033,9.765951,0.000363578787073493,0.00013115370529703796,0.0008285301737487316,-5.058768272399902,21.989900588989254,-36.563812255859375,-0.00012283772230148315,0.28636103868484497,0.05721378326416016,987.9713745117188,0,13.0,1,1
0.32,0.046959937,-0.14831434,9.761219,0.00023015169426798818,0.00026435530162416404,0.00042894107173196966,-4.970341682434082,21.809606552124023,-37.02879333496094,0.004341401159763336,0.28467467427253723,0.05249977111816406,987.9892578125,0,13.0,1,1
0.36,0.056547463,-0.15069832,9.763589,-0.0003027491038665176,0.0009301886893808842,0.00016250991029664874,-4.738542556762695,21.23628807067871,-36.72303009033203,-0.005295313894748689,0.2734251618385315,0.04778480529785156,987.9818725585938,0,13.0,1,1
0.4,0.05418545,-0.15308218,9.763592,-0.00016986008267849684,0.00013128473074175415,-0.0006365529843606055,-4.755009174346924,21.431921005249023,-37.27082824707031,-0.009581733494997023,0.2810778617858887,0.03833675384521485,987.9669189453124,0,13.0,1,1
0.44,0.06138307,-0.15308289,9.768329,-0.0009690765291452408,-0.001866040751338005,0.0001622794079594314,-4.654681205749512,21.05156898498535,-36.956092834472656,-0.00938359275460243,0.2794860005378723,0.047821998596191406,987.9592895507812,0,13.0,1,1
0.48,0.0542413,-0.15308361,9.773066,0.00022907578386366367,0.0001313720422331244,-0.0005036256625317037,-4.809685707092285,21.064504623413086,-37.00994873046875,7.020682096481323e-05,0.278114914894104,0.033634185791015625,987.96435546875,0,13.0,1,1
0.52,0.056659102,-0.15070106,9.756497,0.00022880674805492163,-0.00026805815286934376,2.8890906833112236e-05,-4.684303283691406,20.865652084350586,-36.709693908691406,-0.0002617314457893372,0.28108084201812744,0.04785919189453125,987.9566650390624,0,13.0,1,1
0.56,0.04951727400000001,-0.15785153,9.7565,-0.0003040940500795841,0.0009304070845246316,0.0002950914786197245,-4.285568714141847,21.291608810424805,-36.64209747314453,0.004138171672821045,0.2794730067253113,0.052613258361816406,987.9694213867188,0,13.0,1,1
0.6,0.066274464,-0.14831908,9.763603999999999,0.0002282689092680812,0.0014630825025960805,-0.00010449759429320692,-5.124802589416504,21.454248428344727,-36.98419570922852,-0.00977012887597084,0.27825653553009033,0.04315471649169922,987.927001953125,0,13.0,1,1
0.64,0.059132695,-0.1578529,9.761239999999999,0.0002282689092680812,0.0014630825025960805,-0.00010449759429320692,-4.8329200744628915,21.51661872863769,-36.64790344238281,-0.004260845482349396,0.26722589135169983,0.04790019989013672,987.927001953125,0,13.0,1,1
0.68,0.04721111,-0.14355399,9.773077,0.0007606317522004247,-0.00213213823735714,0.0004280188586562872,-4.935749053955078,21.525728225708008,-36.70957565307617,0.0102594792842865,0.2563086748123169,0.04317951202392578,987.9393310546876,0,13.0,1,1
0.72,0.061578453,-0.15070446,9.765979,-0.00017174298409372568,-0.0013331470545381308,-0.00023788615362718701,-4.8575401306152335,22.07317543029785,-36.907630920410156,-0.014050822705030441,0.2642268538475037,0.03846263885498047,987.960205078125,0,13.0,1,1
0.76,0.056826532,-0.15308835,9.765982000000001,-0.0004385968204587698,0.001196941128000617,2.819922519847751e-05,-4.479623794555664,20.4776554107666,-36.41059494018555,-0.009104758501052856,0.2673622667789459,0.033743858337402344,987.9551391601562,0,13.0,1,1
0.8,0.059244394000000006,-0.1507058,9.773086,0.0004932398442178965,-0.0011998580303043127,-0.0011703376658260822,-4.869172096252441,21.69309425354004,-36.19073867797852,-0.013715092092752457,0.2657904624938965,0.03849411010742188,987.9501342773438,0,13.0,1,1
0.84,0.058162272,-0.14591272,9.76115,-0.0007054506568238139,0.00026492294273339207,2.7968722861260176e-05,-4.702428340911865,20.95388984680176,-36.48111343383789,-0.01271645724773407,0.2452044188976288,0.03387451171875,987.9677124023438,0,13.0,1,1
0.88,0.053366005,-0.15067883,9.756414,-3.5958131775259965e-05,-1.9940489437431097e-06,-0.0006362340063787997,-4.432558059692383,20.837705612182614,-36.284950256347656,0.0012581348419189453,0.2627007961273193,0.057568550109863274,987.9680786132812,0,13.0,1,1
0.92,0.055739372999999995,-0.13876207,9.7658825,-0.0004525778931565583,0.0013559868093580008,-0.0002590654185041785,-4.908330917358398,21.972551345825195,-36.27803802490234,-0.008316230028867722,0.24183404445648196,0.033916473388671875,987.98291015625,0,13.0,1,1
0.96,0.055722922,-0.13637839999999998,9.7564125,-0.00111820874735713,-0.00024193446733988824,-0.00025899731554090977,-4.492205619812012,20.94007682800293,-36.58968734741211,0.0059601664543151855,0.2401592880487442,0.052875518798828125,987.94775390625,0,13.0,1,1
1.0,0.041366994,-0.1530609,9.780082,-5.2786257583647966e-05,-0.00010880235640797764,0.0004068604612257332,-4.453887939453125,20.39677619934082,-37.02570724487305,0.006045129150152206,0.2578896880149841,0.015015602111816406,987.9783325195312,0,13.0,1,1
1.04,0.05807984,-0.14114417,9.761142999999999,-5.262735066935421e-05,0.0005569616332650185,0.0006732444744557142,-4.935749053955078,21.525732040405273,-36.709571838378906,-0.0037002079188823704,0.25662848353385925,0.05764198303222656,987.9732666015624,0,13.0,1,1
1.08,0.04611382,-0.15067679999999997,9.756407000000001,0.0004801634349860251,0.0004237778193783015,-0.00012563506606966254,-5.038034915924072,21.16655921936035,-36.672794342041016,0.010481372475624084,0.25507068634033203,0.0623941421508789,987.9680786132812,0,13.0,1,1
1.12,0.05565694,-0.15544303,9.763507,-0.00031862518517300487,0.00029059409280307586,-0.0006581987254321575,-5.122439384460449,21.71956825256348,-36.538177490234375,0.0009240582585334778,0.24417315423488614,0.043473243713378906,987.9884643554688,0,13.0,1,1
1.16,0.06758997,-0.14590947,9.754037,-5.215051351115108e-05,-0.00010890552948694676,0.00014081702101975682,-5.081621170043945,21.547510147094727,-37.22726058959961,-0.023091323673725128,0.23795709013938904,0.03875446319580078,987.9738159179688,0,13.0,1,1
1.2,0.06279367,-0.13875924,9.761137,-5.199149018153548e-05,0.0008231742540374397,-0.0003917465219274163,-4.870992660522461,21.05948829650879,-36.53829956054688,-0.013723559677600859,0.2314830422401428,0.04350948333740234,987.9613647460938,0,13.0,1,1
1.24,0.06277719,-0.15544172,9.763503,-0.0007176222861744462,0.00015735873603262007,0.0001409533433616161,-4.956238746643066,21.34864997863769,-36.92700958251953,-0.018049094825983047,0.2541083693504333,0.04825496673583984,987.9686279296876,0,13.0,1,1
1.28,0.060370772999999996,-0.14352496,9.775337,0.0004809582023881376,-0.00024214090080931783,-0.00039161043241620064,-4.448183059692383,21.297182083129886,-36.30942916870117,-0.008657153695821762,0.2289038151502609,0.02459812164306641,987.9432983398438,0,13.0,1,1
1.32,0.05318457,-0.1435246,9.756397,-0.0005841462989337742,0.0009562547784298658,0.0004074054304510355,-4.64041805267334,21.116838455200195,-35.73036193847656,-0.00896986573934555,0.22743386030197146,0.05302238464355469,987.9893188476562,0,13.0,1,1
1.36,0.060337782,-0.14829077,9.758764,-0.00018451368669047952,0.0005567551124840975,-0.00012515822891145945,-4.973821640014648,21.068601608276367,-36.5999755859375,-0.013664573431015016,0.2402837574481964,0.0388336181640625,987.9537963867188,0,13.0,1,1
1.4,0.055541515,-0.15305685,9.756395,0.0007477509207092227,-0.00037537625757977366,0.00014122575521469116,-5.148335933685303,21.27422523498535,-37.047019958496094,-0.0040737539529800415,0.24397732317447665,0.05778408050537109,987.9710693359376,0,13.0,1,1
1.44,0.057914913,-0.15305643,9.761127,0.00034843600587919354,-0.00010908614785876124,-0.0001250219065696001,-4.948224067687988,20.881811141967773,-36.51600646972656,0.0006701089441776277,0.24300417304039,0.057795524597167976,987.9913940429688,0,13.0,1,1
1.48,0.055508494000000005,-0.1411397,9.772963,0.0003485950292088092,0.0005566776962950826,-0.000657585565932095,-4.492748260498047,21.30837059020996,-36.68813705444336,0.01014084741473198,0.2320028841495514,0.03887176513671875,987.973876953125,0,13.0,1,1
1.52,0.055492043,-0.15782220000000002,9.754023,-0.00045019370736554265,-0.0001091377343982458,-0.0001248857588507235,-4.990287780761719,21.26423454284668,-37.14777374267578,0.0003193095326423645,0.2398783415555954,0.05309295654296875,987.9791870117188,0,13.0,1,1
1.56,0.05786544,-0.14590539,9.772960000000001,-0.0005831927410326897,0.0009560999460518359,-0.0007906073005869986,-5.386221885681152,21.841646194458008,-37.04356384277344,3.587454557418823e-05,0.2479845136404037,0.019967079162597656,987.9566040039062,0,13.0,1,1
1.6,0.062628746,-0.15782143,9.765856,0.00048222980694845324,0.0009560742182657123,0.00014156638644635677,-4.735498905181885,21.23923683166504,-36.87763977050781,-0.009767051786184313,0.2514654994010925,0.057856559753417976,987.9613647460938,0,13.0,1,1
1.64,0.05783242,-0.16497083,9.765855,-0.00031655904604122037,0.0008228904334828258,-0.0005241553299129009,-5.349266052246094,21.823091506958008,-36.27833557128906,-0.005239319056272507,0.25007933378219604,0.04366874694824219,987.98681640625,0,13.0,1,1
1.68,0.05542606,-0.15305401,9.763486,-0.00044955784687772393,0.0010891803540289402,0.00040801856084726745,-5.079938888549805,22.075197219848636,-36.18061828613281,-0.005292888730764389,0.2345073521137237,0.06261825561523438,987.9541015625,0,13.0,1,1
1.72,0.060189365999999994,-0.15305369,9.765852,0.00021639064652845263,-0.0002424246922601014,0.00014177069533616304,-5.308586597442627,21.545114517211914,-36.268333435058594,-0.0051490776240825644,0.2283050715923309,0.057896614074707024,987.9722290039062,0,13.0,1,1
1.76,0.06495267,-0.14352007,9.768218,-4.9766211304813623e-05,0.00015702328528277576,0.00014183891471475363,-4.611638069152832,21.038908004760746,-36.50007629394531,-0.015040978789329529,0.21292346715927124,0.024766921997070312,987.9642944335938,0,13.0,1,1
1.8,0.053815305,-0.14592339,9.765924,0.0006161825149320066,0.0012222611112520099,-0.0005238828016445041,-4.6441650390625,20.955961227416992,-36.79814910888672,-0.015584316104650497,0.2258024513721466,0.034252166748046875,987.9823608398438,0,13.0,1,1
1.84,0.054677844,-0.14832772,9.754168,-0.00044892210280522704,0.0013553930912166836,-0.0005238144658505917,-4.683323860168457,21.235414505004886,-36.88545227050781,-0.0029893219470977783,0.219806045293808,0.057781219482421875,987.9769287109376,0,13.0,1,1
1.88,0.069067985,-0.16024543,9.766008,7.619336247444153e-05,-0.00011111010098829863,0.00040031110984273255,-4.570820331573486,20.866846084594727,-37.18916320800781,-0.022082753479480743,0.23293299973011014,0.04831600189208984,987.9693603515624,0,13.0,1,1
1.92,0.05477932,-0.14594693,9.75181,0.00020489923190325496,-0.0002435453061480075,-0.00040054460987448687,-4.617725849151611,21.03301429748535,-36.190860748291016,-0.0031770840287208557,0.21262142062187195,0.05779075622558594,987.9641723632812,0,13.0,1,1
1.96,0.06916946,-0.15309806,9.768385,0.0003375683445483446,0.001487587345764041,-1.2802775017917156e-06,-4.769685745239258,21.048898696899414,-36.399322509765625,-0.022691000252962112,0.2256679236888885,0.034125328063964844,987.9671020507812,0,13.0,1,1
2.0,0.059660614,-0.14118291,9.763655,0.0003375683445483446,0.001487587345764041,-1.2802775017917156e-06,-4.983358383178711,21.533971786499023,-36.93367385864258,-0.013049006462097168,0.2194053828716278,0.04360008239746094,987.9671020507812,0,13.0,1,1
2.04,0.06449115,-0.15786712,9.761292999999998,-0.0001955527113750577,0.00015608739340677857,-1.4899997040629387e-06,-4.2628769874572745,21.207788467407227,-37.10259628295898,-0.008492279797792435,0.22779323160648346,0.04833793640136719,987.9896850585938,0,13.0,1,1
2.08,0.06693178400000001,-0.14356868,9.766031,-6.288348231464624e-05,0.0009551141993142664,-1.699489075690508e-06,-4.626039505004883,20.86772346496582,-37.0267333984375,-0.022603999823331836,0.21687114238739014,0.04834175109863281,987.9616088867188,0,13.0,1,1
2.12,0.055033028,-0.14356996,9.758934,-0.0001970196608453989,-0.0005094642401672901,-0.0005347504047676921,-4.741586685180664,21.233339309692386,-36.56841278076172,-0.0039199404418468475,0.20170658826828006,0.0578145980834961,987.964599609375,0,13.0,1,1
2.16,0.052693844000000004,-0.16025408,9.76604,0.0015335442731156945,0.001088510500267148,-0.0002686441875994205,-4.8884382247924805,20.88535499572754,-36.91034698486328,-0.023063328117132187,0.2336026132106781,0.02941417694091797,987.9722290039062,0,13.0,1,1
2.2,0.06469411,-0.14118917,9.768412,-0.0009969454258680344,0.0005559580167755486,-0.0005351697327569127,-4.855910301208496,20.96830177307129,-36.61227416992188,-0.013566970825195312,0.20383262634277344,0.03888511657714844,987.964599609375,0,13.0,1,1
2.24,0.07191452400000001,-0.15787329,9.768417,-0.0001984869595617056,0.00015656359028071165,-0.0004022212233394384,-4.651637554168701,21.054513931274414,-37.11070251464844,-0.02783413603901863,0.21674314141273496,0.03415393829345703,987.9696655273438,0,13.0,1,1
2.28,0.060015797999999995,-0.14595826,9.758953,-0.00019897578749805692,-0.00037598871858790517,0.00013020093319937587,-4.3492393493652335,21.02127265930176,-36.6164665222168,-0.00885804742574692,0.2107136845588684,0.048361778259277344,987.9442749023438,0,13.0,1,1
2.32,0.057676613,-0.15310921,9.761325,-0.00019946484826505184,0.0008225121418945491,-0.0005357983754947783,-4.57843017578125,20.85948371887207,-36.802635192871094,-0.013672474771738052,0.2142637073993683,0.04836463928222656,987.9671020507812,0,13.0,1,1
2.36,0.06250715,-0.15072729,9.761330000000001,-6.679596845060587e-05,0.00015680183423683047,-3.376277163624764e-06,-4.950287818908691,21.248628616333008,-36.537147521972656,-0.013627223670482635,0.2272331565618515,0.038898468017578125,987.9649658203124,0,13.0,1,1
2.4,0.062557876,-0.14357866,9.761333,-6.728467997163534e-05,-0.0003757506201509386,-0.0002699014730751514,-5.04300594329834,21.6363468170166,-37.23841094970703,-0.008907441049814224,0.19730006158351895,0.0625753402709961,987.9722290039062,0,13.0,1,1
2.44,0.06499851,-0.15549631,9.780275,-0.0014688032679259775,0.0003209843998774886,0.00013172946637496352,-4.854632377624512,21.970197677612305,-36.36316299438477,-0.013563498854637146,0.21496060490608213,0.029438018798828125,987.9442138671876,0,13.0,1,1
2.48,0.05309975,-0.14834769,9.763711,0.00012860307469964027,-0.0007441998459398746,0.00013151980238035319,-4.811750411987305,21.43132209777832,-37.031097412109375,-0.008513394743204117,0.2041982114315033,0.053109169006347656,987.9295043945312,0,13.0,1,1
2.52,0.0603202,-0.13643260000000001,9.756614,0.00026127195451408625,-7.833068957552314e-05,-0.0004013213911093772,-4.7173728942871085,21.1509952545166,-37.10621643066406,-0.01317146047949791,0.18413589894771576,0.05784416198730469,987.964599609375,0,13.0,1,1
2.56,0.06515074,-0.14835016,9.770821,-0.0002718487521633506,-0.0010103569366037846,-0.0001352151739411056,-4.74655818939209,21.7031307220459,-37.134033203125,-0.012823347002267838,0.2060476541519165,0.03890800476074219,987.9619750976562,0,13.0,1,1
2.6,0.060421645999999996,-0.14835139,9.763725,-0.00040549563709646463,-0.000344487838447094,-0.00013542466331273315,-4.94626522064209,21.621335983276367,-36.86751556396485,-0.007924653589725494,0.19616958498954773,0.043641090393066406,987.9750366210938,0,13.0,1,1
2.64,0.05808246,-0.15311922,9.777933,0.0005261207697913051,-7.809256203472613e-05,-0.0002687923260964453,-5.275378227233887,21.365686416625977,-36.57088851928711,-0.012702833861112595,0.2091846764087677,0.03417396545410156,987.96240234375,0,13.0,1,1
2.68,0.060523152000000004,-0.15312047,9.763735,-0.0005396314663812518,-0.0003443290770519525,-2.685876097530126e-06,-4.57356595993042,21.496034622192386,-36.60968017578125,-0.003103345632553101,0.2076232135295868,0.04364299774169922,987.967529296875,0,13.0,1,1
2.72,0.04862439599999999,-0.15312172,9.766106,0.00025882665067911153,0.00018838216783478856,-2.895540092140436e-06,-4.356168746948241,20.751535415649414,-36.83056640625,0.0019281022250652315,0.19277390837669373,0.03890800476074219,987.980224609375,0,13.0,1,1
2.76,0.05823469,-0.14835639999999997,9.756641,0.0007909697014838457,-0.0006104861386120318,0.0006626846734434366,-4.797348976135254,21.602510452270508,-36.50444030761719,-0.012716729193925858,0.19189006090164185,0.04837703704833984,987.95947265625,0,13.0,1,1
2.8,0.06768626,-0.14597048,9.780304,-8.46723560243845e-06,0.00045485666487365966,-0.0002696306328289211,-4.950831413269043,21.61692237854004,-36.63560104370117,-0.017615236341953278,0.2001221776008606,0.02944183349609375,987.9573974609376,0,13.0,1,1
2.84,0.072348475,-0.15073408,9.78266,0.00012457882985472682,-7.775682024657726e-05,-3.3627147786319256e-06,-4.774656772613525,21.518686294555664,-36.96493911743164,-0.021658699959516525,0.19923512637615204,0.03420352935791016,987.9903564453124,0,13.0,1,1
2.88,0.055657208,-0.13881867,9.773195,7.813796401023866e-07,-8.417619392275809e-05,0.00012620881898328662,-4.632127285003662,20.86182975769043,-36.71751403808594,-0.0073471516370773315,0.17895320057868958,0.04367446899414063,987.9598388671876,0,13.0,1,1
2.92,0.067644805,-0.1578858,9.768464,4.146713763475418e-07,-8.411664748564363e-05,-0.00027342222165316343,-4.979228973388672,20.80034065246582,-36.891380310058594,-0.0072170980274677285,0.19676829874515533,0.038941383361816406,987.9598388671876,0,13.0,1,1
2.96,0.07963234,-0.14120384,9.763733,-0.000266268034465611,-0.00048353092279285187,-0.00027357938233762985,-4.5362281799316415,20.582979202270508,-36.86994171142578,-0.021688312292099,0.19071538746356964,0.04841232299804688,987.98486328125,0,13.0,1,1
3.0,0.062941074,-0.15312113,9.775573,-0.00039979279972612863,0.00071495003066957,0.0001257371623069048,-4.588808059692383,21.06100273132324,-37.65965270996094,-0.012153919786214828,0.19437646865844727,0.034210205078125,987.9573974609376,0,13.0,1,1
3.04,0.06775898,-0.14597233,9.7590065,-0.0002670016838237643,4.9219990614801645e-05,-7.577822543680667e-06,-4.716531753540039,21.41484260559082,-36.58290100097656,-0.02130258455872536,0.18366330862045288,0.06735038757324219,988.0001831054688,0,13.0,1,1
3.08,0.06301725,-0.15312304,9.763742,-0.0006668425630778074,-0.0007496681064367294,-7.735216058790684e-06,-4.820882797241211,21.422483444213867,-36.56726837158203,-0.007020559161901474,0.19179996848106384,0.053150177001953125,987.9473876953124,0,13.0,1,1
3.12,0.065445185,-0.15550728,9.77795,-0.00013457750901579857,-0.00035013488377444446,-0.000407366082072258,-5.015044689178467,21.71487236022949,-36.70841979980469,-0.015963036566972733,0.1905043572187424,0.02474212646484375,988.0205688476562,0,13.0,1,1
3.16,0.06548321,-0.1483583,9.749547999999999,-0.00040126021485775715,-0.0011490228353068233,-0.0010733131784945726,-5.048252582550049,21.894296646118164,-36.40586853027344,-0.020391467958688736,0.18460547924041748,0.04841136932373047,987.9750366210938,0,13.0,1,1
3.2,0.060741514,-0.15074252,9.766121,-0.0006679429206997156,-0.0014152792282402515,-0.0004076806362718344,-4.855772972106934,21.074220657348636,-37.31135559082031,-0.015449672937393187,0.1930667459964752,0.04367733001708984,987.9827880859376,0,13.0,1,1
3.24,0.06555933,-0.14121036,9.742453,0.00013063789810985327,0.0007153074257075787,-0.0005409958539530635,-4.733434200286865,20.872419357299805,-36.85649108886719,-0.010744541883468628,0.17764592170715332,0.07208442687988281,987.9727783203124,0,13.0,1,1
3.28,0.07515705,-0.15551092,9.7519245,-0.0006686765700578691,0.00031589309219270945,0.00025779462885111565,-4.956238746643066,21.34865379333496,-36.927005767822266,-0.0249173641204834,0.18604961037635806,0.07681846618652344,987.98291015625,0,13.0,1,1
3.32,0.06802538,-0.14597882,9.770866,0.00039622012991458183,-0.0006161528872326016,0.00012447952758520842,-5.1353182792663565,21.549856185913086,-37.14214324951172,-0.010176580399274826,0.17558149993419647,0.029471397399902344,987.9574584960938,0,13.0,1,1
3.36,0.070453346,-0.15312959,9.775603,0.000529011245816946,-0.00114872504491359,-8.835690096020699e-06,-4.974226951599121,21.54281044006348,-37.397499084472656,-0.0192580409348011,0.19828566908836365,0.0247344970703125,987.9700317382812,0,13.0,1,1
3.4,0.07288128,-0.15789707,9.761403999999999,0.000529011245816946,-0.00114872504491359,-8.835690096020699e-06,-4.923328399658203,20.53708839416504,-37.65443420410156,-0.02372017502784729,0.17860032618045807,0.04366779327392578,987.9700317382812,0,13.0,1,1
3.44,0.06096989,-0.15789796,9.770877,-0.0004034610465168953,-0.0006160337943583728,-0.0005416247295215727,-5.28285026550293,21.464242935180664,-36.883445739746094,0.0007444731891155242,0.18719537556171414,0.05786705017089844,987.9573974609376,0,13.0,1,1
3.48,0.075347334,-0.15789889,9.763779,0.0007945932447910309,-0.00128176377620548,0.0002571657532826066,-5.088688850402832,21.17185401916504,-36.74228286743164,-0.027979128062725067,0.1670692414045334,0.053132057189941406,987.97021484375,0,13.0,1,1
3.52,0.06821567,-0.15789981,9.768517,-5.087931640446186e-06,-0.0008821709197945893,-0.0001426223898306489,-5.065154552459717,21.351877212524414,-36.67945861816406,-0.02272835001349449,0.19458326697349548,0.029458045959472656,987.9853515625,0,13.0,1,1
3.56,0.07542345,-0.17220043,9.770887,0.000260861124843359,0.0001831520348787308,-9.621726348996162e-06,-5.504973888397217,21.678102493286133,-37.554588317871094,-0.017996765673160553,0.2076863795518875,0.019988059997558597,987.9727783203124,0,13.0,1,1
3.6,0.06829178,-0.15551843,9.761421,-0.0002721374621614814,-0.00021626224042847755,-0.00014293694403022528,-5.084665298461914,21.5445613861084,-37.07265090942383,-0.008246704936027527,0.17788371443748474,0.05312633514404297,987.9548950195312,0,13.0,1,1
3.64,0.063550055,-0.15790264,9.777994999999999,-0.00027250428684055805,-0.00021620263578370214,-0.0004094099858775735,-5.074148654937744,21.44895362854004,-36.914710998535156,-0.003304336220026016,0.18641816079616547,0.02945423126220703,987.9874877929688,0,13.0,1,1
3.68,0.07075781,-0.14837052,9.756695,-0.0006723448168486358,-0.00034930105903185904,0.0005225384375080466,-4.547286987304688,21.046873092651367,-37.12633895874024,-0.01766606792807579,0.180474653840065,0.048389434814453125,987.96240234375,0,13.0,1,1
3.72,0.06362617,-0.15075473,9.766167,0.0002593938261270523,0.0001833903370425105,-0.0001434085424989462,-4.889524459838867,21.62193489074707,-37.10724639892578,-0.0077856406569480905,0.16529615223407745,0.03891754150390625,987.9603881835938,0,13.0,1,1
3.76,0.07083395,-0.14598908,9.763802,0.00012586917728185654,-0.0012812875211238859,-0.00014356570318341255,-5.2005109786987305,21.278047561645508,-37.03920364379883,-0.016749128699302673,0.16426298022270205,0.02944469451904297,987.97021484375,0,13.0,1,1
3.8,0.06745911,-0.15311475,9.777916000000001,-0.00027397170197218657,-0.0012812279164791107,0.00025575084146112204,-5.030968189239502,21.54221534729004,-37.15777206420898,-0.015079818665981291,0.17755161225795746,0.03426456451416016,987.9725952148438,0,13.0,1,1
3.84,0.065066695,-0.14834808,9.766079,0.0001300043659284711,-0.0012819588882848618,-0.0006744252750650048,-4.925531387329102,20.797990798950195,-36.97650146484375,0.00413382425904274,0.14308851957321167,0.05320644378662109,987.917236328125,0,13.0,1,1
3.88,0.06984389,-0.13881500000000002,9.768446,-0.0007973058382049202,-0.00021747377468273044,-6.5802596509456635e-06,-4.7739763259887695,21.25631523132324,-37.56556701660156,-0.01956275478005409,0.16104921698570251,0.04847145080566406,987.9649047851562,0,13.0,1,1
3.92,0.06028175400000001,-0.15311451,9.770813,0.0002679823664948344,-0.00021747779101133347,-6.5697822719812385e-06,-5.342497825622559,21.566614151000977,-37.18817901611328,-0.009810097515583038,0.16034424304962158,0.0200653076171875,987.9498901367188,0,13.0,1,1
3.96,0.057889342,-0.14358144,9.763712,0.0003575898590497673,-0.00022135750623419884,0.00022583879763260484,-5.0545005798339835,21.3621883392334,-37.22059631347656,-0.00011840090155601499,0.15941587090492249,0.03900337219238281,987.9451293945312,0,13.0,1,1
4.0,0.060276687,-0.13881476,9.780281,-4.185963189229369e-05,-0.0006208353443071246,-0.00043994042789563537,-4.980857372283936,21.90521049499512,-37.18673706054688,-0.009557828307151794,0.1585460752248764,0.029537200927734375,987.9725952148438,0,13.0,1,1
4.04,0.06266409,-0.14834781,9.768446,0.00022448092931881547,0.0001781084283720702,0.00035901780938729644,-5.328937530517578,21.473955154418945,-37.18484497070313,-0.00018420442938804624,0.15311528742313385,0.04374217987060547,987.962646484375,0,13.0,1,1
4.08,0.0722211,-0.14596446,9.751875,9.134731953963636e-05,0.00017810435383580625,-4.044553497806192e-05,-5.1603736877441415,21.36836051940918,-37.12765884399414,-0.004830390214920044,0.16595739126205444,0.06268119812011719,987.962646484375,0,13.0,1,1
4.12,0.060269058,-0.14834769,9.768446,-0.0009738916414789855,4.494245513342321e-05,-0.0005730667035095394,-4.98640251159668,21.53102684020996,-36.77906036376953,-0.009740974754095078,0.15072739124298096,0.039010047912597656,987.9706420898438,0,13.0,1,1
4.16,0.06743628,-0.15073086,9.761343,-4.176161019131541e-05,0.00031125437817536294,-0.000173582520801574,-5.264724254608153,21.376001358032227,-37.11202239990234,-0.019219599664211277,0.15962454676628113,0.0437469482421875,987.9880981445312,0,13.0,1,1
4.2,0.048314482,-0.14596428,9.775546,0.0008903683046810328,-0.0002213813131675124,-4.0414219256490476e-05,-5.469402313232422,21.763994216918945,-37.41112518310547,-0.004668362438678742,0.154039204120636,0.03427696228027344,987.9605102539062,0,13.0,1,1
4.24,0.0650413,-0.16264714,9.747139,-0.00030802859691903,4.493055166676641e-05,0.00035907019628211856,-5.089093208312988,21.646059036254886,-37.53981018066406,-0.0048427097499370575,0.16734102368354795,0.06268692016601562,987.9674682617188,0,13.0,1,1
4.28,0.05308926,-0.13881435,9.761343,-4.1688384953886264e-05,4.492656444199383e-05,-0.00017355108866468072,-5.342497825622559,21.566614151000977,-37.18817901611328,0.009219251573085785,0.147491455078125,0.04848480224609375,987.9752807617188,0,13.0,1,1
4.32,0.053086697999999995,-0.14119755,9.756607,0.0004909678245894611,0.0005775544559583068,0.0007585649145767093,-5.5532636642456055,21.94871711730957,-37.17805480957031,-0.0007745213806629182,0.15624640882015228,0.08162975311279297,987.9548950195312,0,13.0,1,1
4.36,0.05786401,-0.16741355,9.780279,9.15185664780438e-05,0.0011101821437478065,-0.0007061618962325156,-4.8607444763183585,21.544008255004886,-37.87696838378906,0.0039540380239486686,0.17915070056915286,0.015349388122558594,987.9146728515624,0,13.0,1,1
4.4,0.048301816,-0.14834724,9.756607,9.154301369562744e-05,0.0004443885700311512,-4.036171594634652e-05,-5.0900726318359375,21.27629280090332,-37.36405944824219,0.013318423181772232,0.16869120299816132,0.048491477966308594,987.9547119140624,0,13.0,1,1
4.44,0.055468975999999996,-0.15788023,9.770811,9.156746091321112e-05,-8.824732503853738e-05,-0.0003066670033149421,-5.062516212463379,21.82903480529785,-37.63159942626953,0.008807294070720673,0.1681676208972931,0.05322456359863281,987.9498901367188,0,13.0,1,1
4.48,0.053076565,-0.15073042,9.782646000000002,0.0012900135479867456,-0.00048772501759231085,-0.0008392884046770633,-5.372661590576172,21.748987197875977,-37.04022979736328,0.0039639659225940704,0.1627875566482544,0.029555320739746094,987.9375610351562,0,13.0,1,1
4.52,0.057853818,-0.13404734,9.766075,0.0007574306218884884,-0.0003545749932527542,-0.0004397936281748116,-5.645576477050781,21.86222648620605,-37.081787109375,-0.0007384419441223145,0.14775656163692474,0.048492431640625,987.9756469726562,0,13.0,1,1
4.56,0.043511867999999995,-0.15073029999999998,9.766075,0.0007574306218884884,-0.0003545749932527542,-0.0004397936281748116,-5.645576477050781,21.86222648620605,-37.081787109375,0.008683294057846071,0.1569121479988098,0.05322742462158203,987.9756469726562,0,13.0,1,1
4.6,0.050679028,-0.13881381,9.775544,0.00035798113094642764,0.0004443686048034578,9.284861152991651e-05,-5.141949653625488,21.912256240844727,-36.93136978149414,0.003985080868005753,0.14175869524478912,0.029555320739746094,987.9527587890624,0,13.0,1,1
4.64,0.062626004,-0.1411971,9.763708,-4.1468359995633364e-05,-8.826705743558705e-05,0.0004923329106532037,-5.379155158996582,22.21730232238769,-37.528541564941406,-0.0007779188454151154,0.14114902913570404,0.05322837829589844,987.957763671875,0,13.0,1,1
4.68,0.05067396,-0.15311332,9.756605,0.0003580301417969167,-0.0007540608057752253,-0.0003066042554564774,-5.01824951171875,21.18570899963379,-37.67776489257813,-0.0008130893111228943,0.15938085317611694,0.057963371276855476,987.957763671875,0,13.0,1,1
4.72,0.055451214000000006,-0.1459635,9.754238,0.0003580789198167622,0.0005775106837972999,0.0007586802821606398,-5.614869117736816,21.31156349182129,-37.13128280639648,-0.006029445677995682,0.139156311750412,0.043763160705566406,987.9776000976562,0,13.0,1,1
4.76,0.057917385999999994,-0.13643225,9.770816,0.0003580789198167622,0.0005775106837972999,0.0007586802821606398,-5.614869117736816,21.31156349182129,-37.13128280639648,-0.001253236085176468,0.14353255927562714,0.03429412841796875,987.9776000976562,0,13.0,1,1
4.8,0.062778234,-0.14835055,9.761353999999999,0.0003580789198167622,0.0005775106837972999,0.0007586802821606398,-5.090615749359131,21.64458656311035,-37.46250915527344,-0.0016314126551151276,0.13799183070659635,0.048483848571777344,987.9776000976562,0,13.0,1,1
4.84,0.05083251,-0.14596741,9.761353999999999,9.178771870210768e-05,4.487507976591587e-05,-0.00030657282331958413,-5.367553234100342,21.38511848449707,-37.17369842529297,0.002886556088924408,0.1321168690919876,0.06268882751464844,987.9757690429688,0,13.0,1,1
4.88,0.062785864,-0.14358427,9.766089,-0.0005755449528805913,0.001509862719103694,9.223987581208348e-05,-4.823107719421387,21.26308250427246,-37.71236038208008,-0.0019298158586025238,0.1358776092529297,0.03428077697753906,987.9906005859376,0,13.0,1,1
4.92,0.06517953,-0.14596759,9.7708235,-0.0001761079183779657,-0.00035434248275123537,-0.00030724977841600776,-5.229015350341797,21.567811965942386,-37.667640686035156,0.0026403069496154785,0.13460120558738708,0.0390167236328125,987.9752807617188,0,13.0,1,1
4.96,0.058013648,-0.14596774,9.775559,-0.0004424603539519012,-8.802060619927943e-05,-4.094949690625072e-05,-4.99982500076294,21.729604721069336,-37.48147583007813,-0.007069014012813569,0.14379604160785675,0.020078659057617188,987.968017578125,0,13.0,1,1
5.0,0.05084777,-0.1555009,9.770824000000001,0.00022329279454424975,0.0012435645330697296,-4.096509655937553e-05,-5.3972816467285165,22.305543899536133,-37.29995727539063,0.011883322149515152,0.15723423659801486,0.0390167236328125,987.968017578125,0,13.0,1,1
5.04,0.05563134,-0.14596792,9.770824000000001,-0.00017621793085709214,-0.00022116664331406358,-0.0008399286889471114,-4.944605827331543,21.728723526000977,-37.643898010253906,0.007228683680295943,0.13729971647262573,0.048483848571777344,987.97021484375,0,13.0,1,1
5.08,0.06758466,-0.15073456,9.758989,-0.00017625460168346765,0.00017831314471550286,-4.099658690392971e-05,-4.745333671569824,21.072465896606445,-37.636207580566406,-0.007301937788724898,0.1457306444644928,0.05795192718505859,987.9757690429688,0,13.0,1,1
5.12,0.06280866,-0.15073462,9.785029,-0.00017629115609452128,4.516117041930556e-05,-0.0005736442399211228,-5.354536056518555,21.660749435424805,-37.26881408691406,-0.006980005651712418,0.1444636583328247,0.024808883666992188,987.9757690429688,0,13.0,1,1
5.16,0.0604226,-0.15788455,9.758989,-4.317000275477767e-05,-0.00022114874445833263,0.00022528780391439795,-5.40587043762207,21.928415298461914,-36.73767852783203,-0.007235206663608552,0.14882254600524902,0.03901386260986328,987.977783203125,0,13.0,1,1
5.2,0.0556466,-0.15311809,9.777928,-4.320667358115315e-05,0.00031148895504884416,9.21141472645104e-05,-5.326031684875488,21.37098503112793,-36.640380859375,0.001986511051654816,0.12905143201351166,0.04374790191650391,987.9680786132812,0,13.0,1,1
5.24,0.06759989,-0.15073492,9.775561,-0.0004427169333212077,0.0013767584459856153,9.209837298840284e-05,-5.149857521057129,21.272748947143555,-36.9697151184082,-0.007775895297527312,0.14226898550987244,0.03427886962890625,987.9454956054688,0,13.0,1,1
5.28,0.06760371,-0.14596842,9.766093,-0.0005759117775596678,0.00044465882820077235,-0.0003073913394473493,-4.861861228942871,21.068323135375977,-37.00213241577149,-0.017257783561944958,0.12196777015924455,0.04374504089355469,987.9581909179688,0,13.0,1,1
5.32,0.06043780000000001,-0.1507351,9.770827,-0.001108580268919468,-0.00048744084779173136,9.206688264384866e-05,-4.931183338165283,21.530153274536133,-36.94148635864258,-0.017155122011899948,0.1497054100036621,0.03900909423828125,987.9479370117188,0,13.0,1,1
5.36,0.07239109,-0.16026826,9.768460000000001,0.0006224364624358714,0.0004446707025635988,0.0004915250465273856,-5.2789649963378915,21.73103141784668,-36.51472854614258,-0.012591261416673659,0.14922314882278442,0.020071029663085938,987.9581909179688,0,13.0,1,1
5.4,0.07239488,-0.15311857,9.766094,0.0007555573829449713,0.00017836075858213007,-4.112249007448554e-05,-5.4800567626953125,21.75368309020996,-36.86998748779297,-0.017331741750240326,0.14393387734889984,0.03900718688964844,987.9655151367188,0,13.0,1,1
5.44,0.048499703,-0.15311868,9.756625,0.00022288929903879762,0.0007109984289854765,-0.0003074539708904922,-5.092818260192871,21.90548515319824,-36.784576416015625,0.0017177797853946686,0.1287442445755005,0.05320930480957031,987.9600219726562,0,13.0,1,1
5.48,0.060452998,-0.15311874,9.770828,-0.0004986674175597726,0.0002282762434333563,-0.0001002700300887227,-5.339591979980469,21.463647842407227,-36.64370727539063,-0.012763567268848421,0.1277579516172409,0.03900623321533203,987.9557495117188,0,13.0,1,1
5.52,0.05328715,-0.16026868,9.758992999999998,0.00016708538169041276,-3.803364234045148e-05,3.2872194424271584e-05,-4.953193664550781,21.351598739624023,-37.08161544799805,0.0018437132239341734,0.1558772176504135,0.048470497131347656,987.9833374023438,0,13.0,1,1
5.56,0.072410166,-0.14120252,9.76136,0.0006996805896051228,-0.0004375014977995306,0.0005654882406815886,-4.824087142944336,20.8933162689209,-37.53660583496094,-0.02622261270880699,0.1220104843378067,0.03426361083984375,987.9683227539062,0,13.0,1,1
5.6,0.07241395,-0.16265212,9.77083,3.3854215871542685e-05,-0.0020353905856609344,0.00016599870286881924,-5.276762962341309,21.47013282775879,-37.19266128540039,-0.01181718334555626,0.14940768480300906,0.048462867736816406,987.9757690429688,0,13.0,1,1
5.64,0.07002783,-0.13881949999999998,9.758995,-0.0008982881554402412,0.0003614580491557717,0.0012312465114519,-5.619436264038086,21.30714607238769,-36.89936828613281,-0.0068907998502254495,0.12007951736450195,0.05792999267578125,987.9658203125,0,13.0,1,1
5.68,0.06525183,-0.14120282,9.763729,0.00030009675538167363,-0.00043748365715146076,-0.00010034861043095589,-5.497502326965332,21.579553604125977,-37.242034912109375,-0.0116167850792408,0.1197272539138794,0.05319499969482422,987.9683227539062,0,13.0,1,1
5.72,0.06525564,-0.1459695,9.766097,0.0006995340227149428,0.00022831204114481807,-0.0004998380318284035,-5.416684150695801,21.391881942749023,-37.32048797607422,-0.006732385605573654,0.13319896161556244,0.03898906707763672,987.9632568359376,0,13.0,1,1
5.76,0.055509627,-0.14358167,9.763712,0.0004331812378950417,-0.000171155872521922,0.0001659358968026936,-5.900365352630615,21.88722419738769,-37.35192489624024,0.003316197544336319,0.1281580626964569,0.034267425537109375,987.9808349609376,0,13.0,1,1
5.8,0.062675476,-0.15311463,9.77318,0.00016750936629250646,0.00022821343736723065,0.0012314753839746118,-5.288663864135742,21.67018318176269,-37.97237777709961,0.00290842354297638,0.12730777263641355,0.05320835113525391,987.9658813476562,0,13.0,1,1
5.84,0.055501997000000004,-0.15549777,9.780283,-9.765796130523086e-05,-0.0003046047640964389,0.00016670406330376863,-5.589676856994629,21.59897804260254,-37.84484100341797,0.008049622178077698,0.13153672218322754,0.034267425537109375,987.9658813476562,0,13.0,1,1
5.88,0.050718367,-0.14119811,9.775547,0.00030185264768078923,-0.0003046107303816825,-0.0002327539259567857,-5.172274112701416,21.56840705871582,-37.907371520996094,0.003245681524276733,0.11653032898902893,0.03899955749511719,987.9886474609376,0,13.0,1,1
5.92,0.06266409,-0.14834781,9.770813,0.0007013629074208437,9.485718328505754e-05,-0.0003658962668851018,-4.842755317687988,21.3498477935791,-37.406471252441406,0.0033928379416465764,0.1253741830587387,0.038997650146484375,987.950927734375,0,13.0,1,1
5.96,0.053100675,-0.15788083,9.77318,0.00016876793233677745,0.00022800907026976347,3.359327092766762e-05,-5.161896228790283,21.366884231567386,-37.05035400390625,-0.006718922406435014,0.1342851221561432,0.04373455047607422,987.9909057617188,0,13.0,1,1
6.0,0.06026655400000001,-0.15311413,9.754242,-0.0004969849833287299,0.0010269507765769956,-9.954895358532669e-05,-5.399781703948975,21.93430519104004,-37.0468978881836,-0.0018422678112983704,0.12888728082180026,0.0579366683959961,987.966064453125,0,13.0,1,1
6.04,0.06743249,-0.14596422,9.766077000000001,0.0005683150957338513,-0.0007041083881631495,0.00016678264364600184,-4.840690612792969,20.983034133911133,-37.38532257080078,-0.006510742008686066,0.12330880761146545,0.05319881439208984,987.9683227539062,0,13.0,1,1
6.08,0.06503871,-0.13404776,9.766077000000001,0.0001688779448159039,0.0006274650804698467,-0.000498991459608078,-5.048413276672363,21.36808204650879,-37.52981567382813,-0.006691768765449524,0.11317896842956544,0.029526710510253906,987.9710693359376,0,13.0,1,1
6.12,0.06503495599999999,-0.14119752,9.768444,0.0003021092270500958,9.482144378125668e-05,-9.948608931154013e-05,-5.25917911529541,21.75018119812012,-37.519691467285156,-0.00171777606010437,0.11256392300128937,0.04372882843017578,987.9912109375,0,13.0,1,1
6.16,0.0626412,-0.15073054,9.763709,0.0003021092270500958,9.482144378125668e-05,-9.948608931154013e-05,-5.25917911529541,21.75018119812012,-37.519691467285156,-0.011314108967781069,0.1170562207698822,0.043727874755859375,987.9912109375,0,13.0,1,1
6.2,0.07219708,-0.13881405,9.773178,0.0003021092270500958,9.482144378125668e-05,-9.948608931154013e-05,-5.32491397857666,21.84665870666504,-37.51521301269531,-0.011309072375297545,0.10680372267961502,0.034256935119628906,987.9912109375,0,13.0,1,1
6.24,0.05546394,-0.15549691,9.75424,3.5830133128911264e-05,9.48154483921826e-05,0.00016684550791978836,-5.177520751953125,21.826364517211914,-37.07483291625977,-0.0018761046230793,0.12049366533756255,0.05319404602050781,987.9708251953124,0,13.0,1,1
6.28,0.057850003,-0.14596368,9.766075,-9.72544657997787e-05,0.000627435278147459,-9.94388246908784e-05,-4.786694526672363,21.612817764282227,-37.04557800292969,-0.01599784940481186,0.10985079407691956,0.0389862060546875,987.9708862304688,0,13.0,1,1
6.32,0.062626034,-0.13881381,9.770809,-0.0008961655548773707,-3.836036194115877e-05,-0.00023258104920387265,-5.585493087768555,22.49791145324707,-37.05126190185547,-0.00675201416015625,0.10465753078460692,0.03898811340332031,987.9635009765624,0,13.0,1,1
6.36,0.067402005,-0.14358024,9.758973,0.0005686086951754987,-3.836635733023286e-05,-0.0002325654495507479,-5.201352119445801,21.01420021057129,-37.56252670288086,-0.01108887791633606,0.11371368169784545,0.05318737030029297,987.9608764648438,0,13.0,1,1
6.4,0.05544871,-0.15549649999999998,9.766075,0.00030232936842367053,-0.0005710040568374097,-0.0008983395528048277,-4.776476860046387,20.88507652282715,-37.31250762939453,0.007954120635986328,0.1272331327199936,0.04845142364501953,987.950927734375,0,13.0,1,1
6.44,0.057834774000000005,-0.13881351,9.754237,-0.0003634237800724805,0.0004942535888403653,-0.0004988498985767366,-5.437013149261475,21.74102210998535,-36.413978576660156,-0.0014558956027030945,0.09817680716514587,0.06265449523925781,987.9589233398438,0,13.0,1,1
6.48,0.062610805,-0.15549631,9.76844,0.0008350347052328289,-0.00030470005003735423,-0.0006319921230897307,-4.977706909179688,20.80181312561035,-36.96868896484375,0.003338146954774857,0.12144502997398375,0.04844856262207031,987.9635009765624,0,13.0,1,1
6.52,0.069776714,-0.14596315,9.763705,-9.70344408415258e-05,-0.00030470601632259786,0.0006996030570007862,-5.136297225952148,21.18009376525879,-36.96638488769531,-0.01519559323787689,0.11600060760974885,0.02950572967529297,987.9686279296876,0,13.0,1,1
6.56,0.062603205,-0.14357974,9.763705,-0.00023015582701191303,-0.001236817566677928,0.0008327767136506736,-5.581662178039551,21.13213539123535,-37.433837890625,-0.005622990429401398,0.12006466090679167,0.04844093322753906,987.946044921875,0,13.0,1,1
6.6,0.05064988,-0.14119639,9.754236,-0.00023011880693957207,0.0002279137843288481,0.0005664766067638992,-5.305404186248778,21.65397834777832,-37.12202453613281,0.004172880202531815,0.10492396354675293,0.05790615081787109,987.9559326171876,0,13.0,1,1
6.64,0.055425882,-0.14834614,9.768439,-0.00036324042594060296,-0.00030472382786683733,0.00030017632525414234,-5.29641056060791,21.55690193176269,-36.88677597045898,-0.0008212476968765259,0.09957225620746613,0.053170204162597656,987.9686889648438,0,13.0,1,1
6.68,0.060201883,-0.14119620000000002,9.763703999999999,0.00030258618062362075,0.0004942178493365644,0.00030019215773791075,-5.385679244995117,21.47335624694824,-36.94511413574219,-0.01510956883430481,0.0990421026945114,0.03896617889404297,987.9613647460938,0,13.0,1,1
6.72,0.05101362,-0.13643874,9.756637,-9.685097029432654e-05,0.00022789603099226954,0.0006996816955506803,-5.185131072998047,21.818994522094727,-36.68830490112305,0.01792290061712265,0.10272785276174544,0.04843330383300781,987.9864501953124,0,13.0,1,1
6.76,0.06335735,-0.14121498,9.756673,-0.0006294461782090366,0.000893679680302739,-0.0004987241700291634,-5.225971221923828,21.570756912231445,-37.8222541809082,-0.006682492792606354,0.11185000836849213,0.057830810546875,987.9613647460938,0,13.0,1,1
6.8,0.06099412,-0.14359893,9.787449,3.3623946364969015e-05,-0.00017321849009022117,0.00029694964177906513,-5.447254180908203,22.048463821411133,-37.97007369995117,0.0074328072369098655,0.10191929340362547,0.01995277404785156,987.9563598632812,0,13.0,1,1
6.84,0.06580058,-0.14836614,9.759045,0.0009636784088797867,-0.00030604348285123706,0.0002960705314762891,-5.231217861175537,21.828706741333008,-36.989707946777344,-0.0018192008137702946,0.11082980036735536,0.05782127380371094,987.9589233398438,0,13.0,1,1
6.88,0.07299691400000001,-0.15551658,9.759047500000001,3.131601260975003e-05,-3.968586679548025e-05,-0.0003698293585330248,-4.912078380584717,21.811677932739254,-37.3458251953125,-0.011151280254125595,0.11987309157848358,0.0578155517578125,987.9334106445312,0,13.0,1,1
6.92,0.06346393,-0.1436009,9.770885,0.0004305330221541226,-0.00043911801185458904,0.0008284822106361389,-4.994715690612793,21.365732192993164,-37.61493682861328,-0.01112322136759758,0.10020408034324646,0.029404640197753906,987.9563598632812,0,13.0,1,1
6.96,0.06110066,-0.14360155,9.766153,3.080262104049325e-05,-3.960251342505217e-05,-0.0006363651482388378,-5.013821601867676,21.08420753479004,-37.21059799194336,0.003234080970287323,0.09958043694496156,0.06254005432128906,987.9639282226562,0,13.0,1,1
7.0,0.07068691,-0.15313528,9.761422,-0.0004765233024954796,-0.00024368887534365053,-0.00032018014462664723,-5.18390703201294,21.18833351135254,-37.19048309326172,-0.015683442354202267,0.1085151880979538,0.04833030700683594,987.9512939453124,0,13.0,1,1
7.04,0.065933764,-0.16028573,9.770893,0.0001890099374577403,-0.0003768051392398775,0.00021234172163531184,-5.203119277954102,22.013154983520508,-37.15879821777344,-0.010557945817708969,0.1220962405204773,0.05305767059326172,987.9864501953124,0,13.0,1,1
7.08,0.07074022,-0.13407035,9.747223,-0.00034387875348329544,-0.00037676346255466337,-0.0005867159343324603,-5.599787712097168,21.22037696838379,-37.20525360107422,-0.02007715031504631,0.10200260579586028,0.05305099487304688,987.9894409179688,0,13.0,1,1
7.12,0.05164760400000001,-0.1459874,9.763796000000001,-0.0008767673280090094,-0.0006430376088246702,-0.00045366812264546747,-5.100726127624512,21.2659854888916,-36.82292175292969,0.004004944115877152,0.10128556191921234,0.03410530090332031,987.9640502929688,0,13.0,1,1
7.16,0.061233878,-0.14598812,9.770901,-7.807626388967037e-05,-0.0005098379915580153,7.885356899350883e-05,-4.861424922943115,21.80637550354004,-37.27634048461914,-0.005280114710330963,0.10045169293880464,0.048300743103027344,987.9715576171876,0,13.0,1,1
7.2,0.06126052,-0.14837201,9.763802,-0.00047780689783394337,-0.00037663840339519083,-0.0004538881476037204,-5.117735862731934,21.829904556274414,-37.46916961669922,-0.00031964480876922613,0.10474526882171632,0.0624990463256836,987.974365234375,0,13.0,1,1
7.24,0.049337625999999996,-0.15313925,9.77564,-7.858988828957081e-05,-0.0007760705193504691,0.00034494936699047685,-5.344019889831543,21.565141677856445,-37.11087036132813,0.004427548497915268,0.10401293635368347,0.029351234436035163,987.9893188476562,0,13.0,1,1
7.28,0.06609356400000001,-0.15075655,9.754337,-7.884658407419921e-05,2.2918800823390484e-05,-0.0007204241701401769,-4.703675270080566,21.164247512817386,-37.80196380615234,-0.004716336727142334,0.10346629470586777,0.043547630310058594,987.991943359375,0,13.0,1,1
7.32,0.058950484000000004,-0.14122419,9.759074,5.405454430729151e-05,-0.001175460871309042,7.841346086934209e-05,-5.032489776611328,21.540742874145508,-37.080467224121094,-0.004603322595357895,0.10261937975883484,0.04827404022216797,987.9817504882812,0,13.0,1,1
7.36,0.07092664,-0.15075786,9.768545,-0.001011465792544186,-0.0001101557572837919,-5.485466681420803e-05,-5.0138206481933585,21.08420753479004,-37.21059799194336,-0.018620934337377548,0.10188256204128264,0.043532371520996094,987.97412109375,0,13.0,1,1
7.4,0.044664382999999995,-0.1555251,9.742508,-0.0003459327854216099,-0.00024327196297235787,0.0007439830806106329,-4.528617858886719,20.590341567993164,-37.2564697265625,0.014773167669773104,0.11081250011920928,0.07666873931884766,987.97412109375,0,13.0,1,1
7.44,0.06381023,-0.14599259,9.761449,0.00031960010528564453,-0.0005095462547615169,0.0004775571287609637,-5.1307525634765625,21.55427360534668,-37.37405395507813,0.0004619546234607697,0.081801638007164,0.043521881103515625,987.9515380859376,0,13.0,1,1
7.48,0.0542773,-0.14837663,9.756717,5.3027411922812455e-05,-0.00024318869691342115,7.797323632985352e-05,-5.177382946014403,21.932279586791992,-37.77391052246094,-0.004206612706184386,0.10016778856515884,0.04351520538330078,987.9641723632812,0,13.0,1,1
7.52,0.06864333,-0.14837720000000001,9.747251,5.27708325535059e-05,-0.00024314702022820708,-0.0007210843614302577,-5.321465492248535,21.375402450561523,-36.872291564941406,-0.009037815034389496,0.10912152379751204,0.048244476318359375,987.9693603515624,0,13.0,1,1
7.56,0.059110342999999996,-0.15552773,9.7709255,5.27708325535059e-05,-0.00024314702022820708,-0.0007210843614302577,-5.426359176635742,21.7513370513916,-36.95510864257813,0.005754604935646057,0.10883704572916032,0.04350376129150391,987.9693603515624,0,13.0,1,1
7.6,0.06869659,-0.1388454,9.749622,0.00031882978510111565,2.3210595827549696e-05,0.0006103849736973642,-5.202873706817627,21.01272392272949,-37.48522186279297,0.0011607259511947632,0.08913317322731018,0.067169189453125,987.946533203125,0,13.0,1,1
7.64,0.054383814,-0.14361267,9.775663,0.00018515833653509617,-0.0007756536942906678,7.753312820568681e-05,-5.420271396636963,21.757226943969727,-37.26432800292969,0.001597180962562561,0.0933452844619751,0.0245513916015625,987.9817504882812,0,13.0,1,1
7.68,0.06158018,-0.15552963,9.775667,-0.0003477301215752959,-0.0006424541352316737,-0.0001888928818516433,-5.056023120880127,21.3607120513916,-37.143287658691406,-0.008111052215099335,0.10714592784643172,0.0292816162109375,987.9690551757812,0,13.0,1,1
7.72,0.05881977,-0.15075402,9.763796000000001,-8.167105261236429e-05,0.0002896931837312877,-5.5844953749328845e-05,-5.005369663238525,21.35542106628418,-37.07379913330078,0.0014457926154136658,0.09658892452716827,0.02927398681640625,987.9896850585938,0,13.0,1,1
7.76,0.06320524,-0.14359452,9.768496,-0.0002141430741176009,-0.0005093658110126853,-0.0003218668862245977,-5.026838302612305,20.808576583862305,-37.115478515625,-0.007376216351985931,0.08160892128944397,0.03407573699951172,987.98974609375,0,13.0,1,1
7.8,0.04886076,-0.14597766,9.780330000000001,-0.001139734755270183,0.00042168237268924713,-5.275936564430594e-05,-5.234560012817383,21.193628311157227,-37.25997161865234,0.016258060932159424,0.08100748062133789,0.043544769287109375,987.9619140625,0,13.0,1,1
7.84,0.058415323,-0.16504376,9.775596,-7.442233618348837e-05,0.00015535857528448102,-0.0005853701732121407,-5.36396598815918,21.0197696685791,-37.2298583984375,0.0015729926526546476,0.12327723205089568,0.03880882263183594,987.9771728515624,0,13.0,1,1
7.88,0.05363041,-0.1412109,9.768494,0.0004582583205774427,0.0008211402455344796,0.00047991436440497637,-5.081920146942139,20.915372848510746,-37.65213394165039,0.006592649966478348,0.09404310584068297,0.02460193634033203,987.9848022460938,0,13.0,1,1
7.92,0.05840516,-0.14836057,9.766127000000001,-0.0004737982526421547,-0.0006436050171032548,-0.0004521700902841985,-5.346925735473633,21.66811180114746,-37.65534210205078,0.006658431142568588,0.10302253812551497,0.034066200256347656,987.969970703125,0,13.0,1,1
7.96,0.05123037,-0.15789355,9.773228,0.00019204022828489545,-0.00011098122922703622,-5.267543019726872e-05,-5.274399757385254,21.73545265197754,-36.74664306640625,0.006804097443819046,0.09749311953783037,0.04826450347900391,987.9721069335938,0,13.0,1,1
8.0,0.053615212,-0.15551020000000002,9.756657,-0.0007400163449347018,-0.0007767788483761251,0.000213661405723542,-4.957079887390137,21.084806442260746,-37.45033264160156,0.007012210786342621,0.09260185062885284,0.052997589111328125,987.9541625976562,0,13.0,1,1
8.04,0.06077984,-0.14836021,9.756656,0.0007247697794809937,0.00015531876124441624,0.0007463140645995736,-4.9697980880737305,21.441312789916992,-36.93034362792969,-0.002773735672235489,0.09205365180969237,0.052997589111328125,987.9644775390624,0,13.0,1,1
8.08,0.07272428,-0.1578932,9.766124000000001,0.000458502909168601,0.0002884687855839729,8.054543286561966e-05,-5.8778114318847665,21.69748878479004,-37.11334609985352,-0.0262867882847786,0.09139123558998108,0.04352283477783203,987.9719848632812,0,13.0,1,1
8.12,0.048820168,-0.13882686,9.754288,-0.00020723789930343628,-0.0007768026553094388,-0.0003189074923284352,-5.720306396484375,22.055788040161133,-37.31254577636719,0.006984170526266098,0.08613798767328262,0.04825592041015625,987.9771728515624,0,13.0,1,1
8.16,0.067934304,-0.14835982,9.780327,-0.00020718900486826897,-0.00011102092685177922,-0.00031888653757050633,-5.080099582672119,21.548982620239254,-37.3045654296875,-0.002722643315792084,0.08553797006607056,0.03878498077392578,987.9573364257812,0,13.0,1,1
8.2,0.04403022,-0.13644333,9.770857000000001,-0.0006066140485927463,0.0005547608016058803,-5.254970164969564e-05,-5.680604934692383,21.40804481506348,-37.126800537109375,0.006900113075971603,0.07992112636566162,0.048248291015625,987.994873046875,0,13.0,1,1
8.24,0.05836457,-0.16742583,9.75902,-0.001006038743071258,2.212118124589324e-05,0.0006132609560154378,-5.500408172607422,21.682523727416992,-37.78650283813477,0.0071214698255062095,0.09856639802455902,0.04351139068603516,987.9750366210938,0,13.0,1,1
8.28,0.058359474,-0.15074275,9.76849,0.0012576950248330832,-0.0009099923190660776,8.065014844760299e-05,-5.0197715759277335,21.184236526489254,-37.60045623779297,-0.0024805627763271327,0.097864031791687,0.034038543701171875,987.9746704101562,0,13.0,1,1
8.32,0.046404928,-0.1531259,9.763753999999999,-0.0002069934271275997,0.00015526323113590482,0.0004801449249498546,-4.617886543273926,20.50679588317871,-37.31480407714844,0.026153653860092163,0.08817978203296661,0.0387725830078125,987.9924926757812,0,13.0,1,1
8.36,0.07268873,-0.16027560000000002,9.759018,0.00045884528663009405,2.2097374312579632e-05,0.00021384999854490158,-5.088551044464111,21.27776908874512,-37.44136047363281,-0.011529766023159029,0.09712379425764084,0.057704925537109375,987.9474487304688,0,13.0,1,1
8.4,0.060734153,-0.13882603,9.756652,-0.00020689540542662144,-0.001309489947743714,8.071307092905045e-05,-5.193038940429688,21.17949104309082,-36.72665023803711,0.002356991171836853,0.07767195254564285,0.06717300415039062,987.9826049804688,0,13.0,1,1
8.44,0.06789878,-0.14597566,9.759018,0.00032578501850366587,0.0010873450664803386,-0.0005850557354278862,-4.780064582824707,21.25042152404785,-37.25634765625,-0.011942751705646515,0.07271073758602142,0.04350185394287109,988.0051879882812,0,13.0,1,1
8.48,0.07506341,-0.15074210000000002,9.763752,0.000458991969935596,2.2073567379266024e-05,0.00021391292102634907,-5.1056976318359375,21.73577308654785,-37.38853454589844,-0.011458784341812134,0.0960998386144638,0.04822826385498047,987.9700317382812,0,13.0,1,1
8.52,0.06310886,-0.15550853,9.770853,0.0002872153418138623,-0.0012011579237878325,-0.00028774444945156574,-4.895336151123047,21.8278751373291,-38.19618225097656,-0.0068177878856658936,0.10500023514032364,0.029290199279785163,987.9650268554688,0,13.0,1,1
8.56,0.063103795,-0.1459753,9.77322,0.00015410629566758868,0.0007962032686918974,0.0001117503852583468,-4.832239627838135,21.254243850708008,-37.24852752685547,-0.006904087960720061,0.07595769315958023,0.04822444915771485,987.962646484375,0,13.0,1,1
8.6,0.055929005,-0.15074174,9.756649000000001,-0.00011216092389076948,0.000263563561020419,-0.00015454459935426712,-5.575711250305176,21.032106399536133,-37.04397964477539,0.007360130548477174,0.08515465259552002,0.0576944351196289,987.9905395507812,0,13.0,1,1
8.64,0.06787342,-0.1435918,9.761383,0.00015420396812260148,-0.0002690762048587203,0.00024495029356330633,-5.045507431030273,21.265108108520508,-36.985347747802734,-0.0068528056144714355,0.0799613669514656,0.057689666748046875,987.9676513671876,0,13.0,1,1
8.68,0.06786832,-0.14835824,9.76375,0.0006868848577141763,-0.00013592619507107884,-0.00028766063041985035,-5.178797721862793,20.824464797973636,-37.32394409179688,-0.006802342832088471,0.08949777483940125,0.03401756286621094,987.9599609375,0,13.0,1,1
8.72,0.06856647,-0.13407572,9.75908,0.0008200915763154626,-2.7761852834373713e-06,-0.0010865872027352452,-5.065016746520996,21.45779228210449,-37.37853622436523,-0.0027386993169784546,0.06542939692735672,0.04815483093261719,987.9548950195312,0,13.0,1,1
8.76,0.07097924,-0.15075918,9.778019,2.006435533985496e-05,0.00026273026014678186,0.0006423349259421228,-5.027924060821533,21.5451602935791,-37.31238174438477,-0.007852230221033095,0.08409999310970306,0.033949851989746094,987.9524536132812,0,13.0,1,1
8.8,0.059052527,-0.15790956,9.754349000000001,0.0008155123214237393,0.00013014048454351723,-2.4954730179160833e-05,-4.719193458557129,20.517385482788086,-37.45378494262695,-0.0028350874781608577,0.07901975512504578,0.0576171875,987.960205078125,0,13.0,1,1
8.84,0.059075385,-0.14122720000000002,9.759085,0.0002826605341397226,-2.9817165341228247e-06,-0.0008239966700784862,-4.825065612792969,20.5235538482666,-37.36084747314453,0.0020046383142471318,0.07357898354530333,0.05761051177978516,987.95751953125,0,13.0,1,1
8.88,0.059098244,-0.14837761,9.763823,-0.0005165071343071759,0.0003965277865063399,0.0003743304987438023,-4.804278373718262,21.332765579223636,-36.718544006347656,0.0017098858952522278,0.09189970046281816,0.03393268585205078,987.977783203125,0,13.0,1,1
8.92,0.06151095,-0.15076144,9.756723,-0.0005165071343071759,0.0003965277865063399,0.0003743304987438023,-4.936590194702148,21.26188850402832,-37.23289489746094,0.0016256086528301241,0.08155650645494461,0.048127174377441406,987.977783203125,0,13.0,1,1
8.96,0.06153378,-0.15314527,9.756725,-0.0007830431568436326,0.0001302476157434285,-0.00015839567640796304,-5.204396724700928,21.011255264282227,-37.40791320800781,-0.002944488078355789,0.09544598311185837,0.057591438293457024,987.9780883789062,0,13.0,1,1
9.0,0.05916673,-0.14122947,9.766195,-0.0005169474170543253,0.00013028332614339888,0.0003741419059224427,-5.509540557861328,21.67368507385254,-37.322669982910156,-0.003491312265396118,0.06601981073617935,0.03864860534667969,987.9677734375,0,13.0,1,1
9.04,0.073528945,-0.15076308,9.768564,-0.00025107170222327113,0.0010624604765325783,-0.0005581525037996472,-4.6499786376953125,21.16190528869629,-37.8870849609375,-0.008176766335964203,0.07527381926774979,0.0291748046875,987.9727783203124,0,13.0,1,1
9.08,0.07594168,-0.14838041,9.773302000000001,1.5024037566035986e-05,-0.0008017150685191153,-0.00029193080263212323,-4.672967910766602,20.613588333129886,-37.85145568847656,-0.022158127278089523,0.07924378663301468,0.03863334655761719,987.970458984375,0,13.0,1,1
9.12,0.059235215,-0.1436144,9.768569,-0.0005178277497179806,0.0001304262550547719,-0.00029202509904280305,-4.779521942138672,20.88213539123535,-37.15789794921875,0.0014738552272319796,0.07895544916391373,0.043366432189941406,987.957763671875,0,13.0,1,1
9.16,0.056868195999999996,-0.15076481,9.775673,0.0001477419282309711,0.00039677784661762416,0.0003736701910383999,-5.102110862731934,21.370431900024414,-37.44469451904297,0.00615990161895752,0.0785914808511734,0.043361663818359375,987.9602661132812,0,13.0,1,1
9.2,0.07362029,-0.15076531,9.752003,0.00014752178685739636,0.0005299715558066964,-0.0009580035111866892,-5.225428581237793,21.202463150024414,-37.72380065917969,-0.013366352766752243,0.07803071290254593,0.06702899932861328,987.9780883789062,0,13.0,1,1
9.24,0.07364315,-0.14599933,9.759108,-0.000518488057423383,0.000796323292888701,-0.0009580979240126908,-5.108198165893555,21.364538192749023,-37.135475158691406,-0.013628337532281877,0.07725775241851808,0.04808521270751953,987.9733276367188,0,13.0,1,1
9.28,0.06888616,-0.15314974,9.773313,-0.00038555014180019503,0.0010626747971400619,0.0005065451841801405,-5.037758827209473,21.378389358520508,-38.07095336914063,-0.013730265200138092,0.09114492684602736,0.03861236572265625,987.9805908203124,0,13.0,1,1
9.32,0.05695951,-0.14123397,9.7567425,1.3703538570553066e-05,0.00026376286405138666,0.0006396087701432407,-5.226950168609619,21.200990676879886,-37.6464958190918,0.005047235637903214,0.07183010131120683,0.04334545135498047,987.97021484375,0,13.0,1,1
9.36,0.06893182,-0.16030069,9.763847,0.0004129572189413011,0.0010627463925629854,0.000373198592569679,-5.3946733474731445,21.570436477661133,-37.18035888671875,8.663162589073181e-05,0.08553514629602432,0.05754280090332031,987.9784545898438,0,13.0,1,1
9.4,0.059395015,-0.13885175,9.754380000000001,-0.00011989445192739367,0.00013067634426988659,0.0002399463555775583,-5.028903007507324,21.17539405822754,-37.136627197265625,-0.004592709243297578,0.06158912926912308,0.06700706481933594,987.960693359375,0,13.0,1,1
9.44,0.06419772,-0.1412356,9.756749000000001,0.00014620117144659162,-0.0005350775900296867,0.00023985194275155663,-5.582204818725586,21.500429153442386,-37.53228759765625,-0.0045623481273651114,0.06591345369815826,0.04333019256591797,987.9353637695312,0,13.0,1,1
9.48,0.07378015,-0.1460027,9.766221,0.0008117708493955432,-0.00013556802878156304,0.00023975770454853773,-5.611527442932129,21.9466495513916,-36.86102294921875,-0.023884307593107224,0.06563322246074678,0.03859233856201172,987.9729614257812,0,13.0,1,1
9.52,0.054683745,-0.14600326,9.773324,-0.00025371258379891515,0.0009297312935814259,-0.00042612635297700763,-4.919443607330322,20.80388069152832,-37.28572082519531,0.004772063344717026,0.07467369735240936,0.02911853790283203,987.9658813476562,0,13.0,1,1
9.56,0.05709651,-0.14123727,9.780428,-0.00025393295800313354,0.0001308193022850901,0.00077220075763762,-5.155807971954347,21.372774124145508,-37.35957336425781,-0.004809364676475525,0.06940615922212601,0.03384685516357422,987.9507446289062,0,13.0,1,1
9.6,0.05711934,-0.13885458,9.775696,-0.0001209950423799455,0.0002640130405779928,-2.6841124054044485e-05,-5.029308319091797,21.649599075317386,-37.93415451049805,0.0041078031063079825,0.055034488439559937,0.033847808837890625,987.9658203125,0,13.0,1,1
9.64,0.052362353,-0.14600499,9.773330999999999,0.0010772065725177526,0.0013293122174218295,0.0003725383430719376,-5.065017223358153,21.45779609680176,-37.3785400390625,0.008577853441238403,0.07362847775220871,0.02910900115966797,987.9633178710938,0,13.0,1,1
9.68,0.06626761,-0.14837755,9.770924,-0.00038775108987465495,0.0006635582540184258,0.0002392860478721559,-5.0203142166137695,21.55252265930176,-37.69890594482422,-0.010966211557388306,0.08251939713954927,0.024369239807128903,987.9484252929688,0,13.0,1,1
9.72,0.044296622,-0.16028263,9.76378,-0.0006542869959957898,0.0006635939935222268,-2.7124129701405764e-05,-5.067518711090088,21.086557388305664,-37.1254768371582,0.01869024708867073,0.07247243076562881,0.04812145233154297,987.981201171875,0,13.0,1,1
9.76,0.07057163,-0.15074922,9.768513,-0.0005124722956679761,-3.6011042539030318e-06,0.0006423756713047624,-5.072489261627197,21.556344985961914,-37.69109344482422,-0.014789190143346788,0.08599036186933517,0.05285072326660156,987.9633178710938,0,13.0,1,1
9.8,0.058608145,-0.1388325,9.766145,-0.0009118117741309105,0.00012953506666235626,0.00010980141814798117,-5.365488529205322,21.01829719543457,-37.15254974365234,-0.005486596375703812,0.061703920364379876,0.04811573028564453,987.9662475585938,0,13.0,1,1
9.84,0.060984075,-0.15313179999999998,9.761409,2.0428502466529608e-05,0.0009284609695896506,0.0002430170425213873,-5.530029296875,21.496606826782227,-37.54010772705078,0.003856424242258072,0.05174729973077774,0.03864574432373047,987.9940185546876,0,13.0,1,1
9.88,0.07052976,-0.15313144,9.756672,0.00028687884332612157,0.0002626492932904512,-0.0006890307995490731,-5.194423198699951,21.283937454223636,-37.34842300415039,-0.015330608934164047,0.07994485646486282,0.04337978363037109,987.9611206054688,0,13.0,1,1
9.92,0.06334612,-0.14836453,9.766141000000001,-0.00024561857571825385,0.0002626275236252696,-0.00015634152805432675,-4.872920036315918,21.5322208404541,-37.25852584838867,-0.0011528022587299347,0.07006900012493134,0.038643836975097656,987.97607421875,0,13.0,1,1
9.96,0.07528168,-0.15313075,9.768507000000001,0.0002871478791348636,0.0007952374871820211,0.0005095058586448432,-4.940720558166504,21.99552345275879,-37.275184631347656,-0.015137899667024612,0.07432059943675995,0.05757808685302735,987.963623046875,0,13.0,1,1
10.0,0.0657081,-0.13883077,9.768505000000001,-0.00024534965632483363,-0.0009358376264572145,0.0007758793653920293,-5.157873153686523,21.739595413208008,-37.380714416503906,-0.004819687455892563,0.06451219320297241,0.04336929321289063,987.9580688476562,0,13.0,1,1
10.04,0.04657492,-0.13883041,9.768504,0.0007155822240747511,-0.0014584169257432222,7.890793494880201e-05,-4.857156753540039,21.178659439086914,-37.9331283569336,0.009373512119054794,0.054787911474704735,0.03863525390625,987.97607421875,0,13.0,1,1
10.08,0.058510482,-0.14121331,9.775604,0.00018308492144569755,0.0010715618263930082,7.896556053310634e-05,-5.520599365234375,22.137575149536133,-37.579063415527344,-0.0052426084876060495,0.0594300776720047,0.04337215423583984,987.9688110351562,0,13.0,1,1
10.12,0.06327629,-0.16027923,9.763767,0.0001833539572544396,-0.00012690311996266246,0.0008780284551903605,-5.327553749084473,21.369508743286133,-36.563072204589844,-0.004972480237483978,0.07803396135568619,0.04810333251953125,987.9534912109376,0,13.0,1,1
10.16,0.058482587,-0.15074576,9.7685,0.0001833539572544396,-0.00012690311996266246,0.0008780284551903605,-5.327553749084473,21.369508743286133,-36.563072204589844,-0.00026397407054901123,0.0731198638677597,0.0575714111328125,987.9534912109376,0,13.0,1,1
10.2,0.056078732,-0.15789522,9.766132,-8.282758062705398e-05,-0.000126924947835505,-0.00018717744387686253,-5.142683982849121,20.54206657409668,-37.08203125,0.00446450337767601,0.0726298913359642,0.033896446228027344,987.968505859375,0,13.0,1,1
10.24,0.060844600000000006,-0.1459785,9.7708645,5.046493606641889e-05,-0.00012694671750068665,-5.396181950345635e-05,-4.700768947601318,21.061281204223636,-37.25749588012695,0.004838526248931885,0.05837187916040421,0.03389549255371094,987.9789428710938,0,13.0,1,1
10.28,0.06800032,-0.15789457,9.770864,5.046493606641889e-05,-0.00012694671750068665,-5.396181950345635e-05,-5.034554481506348,21.90755653381348,-37.10161590576172,0.00014995783567428592,0.08663855493068695,0.033893585205078125,987.9789428710938,0,13.0,1,1
10.32,0.05603686,-0.15312769,9.773228999999999,0.0013821788597851992,-0.00012696860358119008,-0.0008528518956154585,-5.052979469299316,21.36366081237793,-37.29789733886719,-0.0095820352435112,0.08151635527610779,0.0291595458984375,987.9534912109376,0,13.0,1,1
10.36,0.07036233,-0.15074404,9.754291,0.00018389167962595818,-0.0006596221937797964,0.00034562719520181423,-5.084963798522949,20.912424087524414,-37.497520446777344,-0.0050828754901885995,0.08101517707109451,0.06229972839355469,987.9716186523438,0,13.0,1,1
10.4,0.06556857,-0.15551026,9.766126,-8.228939259424806e-05,0.0008050932665355504,0.00047884287778288126,-5.348585605621338,21.56072425842285,-36.87895965576172,-0.019458714872598648,0.05692633241415024,0.03862667083740234,987.9539794921876,0,13.0,1,1
10.44,0.055994987,-0.15312661,9.766125,0.00045061117270961404,0.00040557573083788157,0.00021264224778860807,-4.523615837097168,21.33281135559082,-37.76258850097656,0.004690892994403839,0.06629359722137451,0.03862476348876953,987.964111328125,0,13.0,1,1
10.48,0.060760826,-0.14120997,9.766123,0.00045074563240632415,-0.0009260253864340484,0.0002126998733729124,-5.265161037445068,20.637948989868164,-36.83781814575195,0.0002948157489299774,0.06115319579839705,0.03862094879150391,987.9490966796876,0,13.0,1,1
10.52,0.06074691,-0.16027577,9.766122,0.00031772226793691516,6.058311555534601e-06,0.00021275749895721674,-5.571389675140381,22.036954879760746,-36.94947814941406,0.00021053850650787356,0.08454374223947525,0.052822113037109375,987.9788818359376,0,13.0,1,1
10.56,0.06551278,-0.14120923,9.775589,-0.00034793297527357936,-0.0002602793392725289,0.0010117627680301666,-5.385679244995117,21.47335624694824,-36.94511413574219,0.005053255707025528,0.06505539268255234,0.04335212707519531,987.9539794921876,0,13.0,1,1
10.6,0.058329105,-0.15312524,9.75665,0.0004511490114964545,-0.0002603011962492019,0.0006123466300778091,-4.7424278259277335,20.96949958801269,-37.09173583984375,-0.008979007601737976,0.06956799328327179,0.043349266052246094,987.9585571289062,0,13.0,1,1
10.64,0.05592525,-0.16980784,9.768486,0.00018496782286092642,5.99282793700695e-06,0.00047924631508067245,-5.6250877380371085,22.039308547973636,-36.864349365234375,0.005272962152957915,0.08342646062374115,0.03387737274169922,987.9843139648438,0,13.0,1,1
10.68,0.05176562,-0.15314014,9.768541,-0.00034752959618344903,-0.0001271868823096156,0.0002129881177097559,-5.429945945739746,22.11667823791504,-36.89895248413086,0.009459678083658218,0.08275663107633591,0.03381538391113281,987.9540405273438,0,13.0,1,1
10.72,0.05894679,-0.15075715,9.768543,-0.0006159801851026714,-0.00025999837089329963,0.0002120731514878571,-5.543291091918945,22.22140312194824,-37.118568420410156,-0.0006530508399009705,0.0631597638130188,0.04328155517578125,987.9517822265624,0,13.0,1,1
10.76,0.054178357,-0.13645776,9.766176,-0.0007529537542723119,0.0013385163620114324,-5.587807390838862e-05,-5.302360534667969,21.656923294067386,-37.276634216308594,0.01353127509355545,0.05329649150371552,0.048012733459472656,987.9515380859376,0,13.0,1,1
10.8,0.0709191,-0.15075774,9.766178,0.0001790418173186481,6.954825948923826e-06,-5.5925163906067617e-05,-5.226652145385742,21.833127975463867,-37.22162628173828,-0.0197596438229084,0.06258310377597809,0.03854084014892578,987.9844970703124,0,13.0,1,1
10.84,0.07093051,-0.15314128,9.759077,0.0004452476860024035,-0.00039250112604349846,-0.00045544607564806933,-5.070424556732178,21.189523696899414,-37.6699447631836,-0.014880031347274782,0.05768777430057525,0.05274105072021485,987.9566650390624,0,13.0,1,1
10.88,0.058992445,-0.14837496,9.768547,0.0007114533218555152,6.9906236603856095e-06,-0.0005886512808501719,-5.490029811859131,21.48099708557129,-36.929481506347656,-0.005078107118606567,0.062073402106761925,0.033797264099121094,987.9795532226562,0,13.0,1,1
10.92,0.063783646,-0.14360876,9.749611,-8.760421769693494e-05,-0.00025930744595825667,0.00034340721322223544,-5.192358016967773,20.9171199798584,-37.32727813720703,-0.0048249587416648865,0.056769520044326775,0.06219577789306641,987.9820556640624,0,13.0,1,1
10.96,0.07335466,-0.16267519,9.763815,-0.00048718816833570594,-0.0006587633979506791,0.00034336006501689553,-5.151379585266113,21.27128028869629,-36.89241027832031,-0.014607075601816176,0.08001353591680528,0.05272197723388672,987.9566650390624,0,13.0,1,1
11.0,0.063806534,-0.13645945,9.773285000000001,-0.0007536139455623925,0.00014020217349752784,7.699697744101286e-05,-5.0900726318359375,21.27629280090332,-37.36405944824219,-0.009612303227186205,0.04136573523283005,0.029043197631835938,987.98974609375,0,13.0,1,1
11.04,0.06142798,-0.14599289,9.773285000000001,-0.00035425025271251803,7.062044460326433e-06,-0.0003225239925086498,-5.207983016967773,21.376596450805664,-37.35175323486328,-0.004726134240627289,0.05515179038047791,0.03377056121826172,987.9845581054688,0,13.0,1,1
11.08,0.059049517,-0.14360978,9.77092,-8.804438402876258e-05,-0.0005255518481135368,0.00034321844577789307,-5.3509488105773935,21.29540061950684,-37.324974060058594,-0.009705360978841782,0.04528046399354935,0.029033660888671875,987.9517822265624,0,13.0,1,1
11.12,0.05906093,-0.14122684,9.763819,-0.00035447039408609266,0.0006728874868713318,0.000476329296361655,-5.0011024475097665,20.72770500183105,-37.7305908203125,0.004685889929533005,0.05940094590187073,0.03376483917236328,987.96435546875,0,13.0,1,1
11.16,0.061462224,-0.15314348,9.770922,0.00031120941275730735,0.00014027359429746866,-5.634961416944861e-05,-4.7544660568237305,21.063631057739254,-37.17237854003906,-0.004963364452123642,0.06397642195224762,0.04796600341796875,987.9744262695312,0,13.0,1,1
11.2,0.061473667999999995,-0.15314378,9.763821,-0.00035469053545966744,-0.0002591824159026146,0.0002099190605804324,-5.467880725860597,21.76546669006348,-37.48843002319336,0.004305634647607803,0.05385834723711014,0.043227195739746094,987.9795532226562,0,13.0,1,1
11.24,0.06148511,-0.15314414,9.76619,0.00017783133080229166,0.0009392569190822543,-0.0004559177905321121,-5.19550895690918,22.02052116394043,-37.545326232910156,-0.00029582902789115906,0.0679309293627739,0.04322338104248047,987.9871826171876,0,13.0,1,1
11.28,0.05910659,-0.12931158,9.763823,0.0008435110212303697,0.00027348508592695,-5.649100057780743e-05,-4.737563610076903,21.606050491333008,-36.898780822753906,-0.0006646290421485901,0.05343160033226013,0.04322242736816406,987.952392578125,0,13.0,1,1
11.32,0.059118032,-0.15076132,9.780395,-0.00022186251590028402,0.0005398188368417324,0.000476093526231125,-5.46537971496582,22.136701583862305,-37.741493225097656,0.008858110755681992,0.05338329821825028,0.02901744842529297,987.9674072265624,0,13.0,1,1
11.36,0.06629914,-0.16506131,9.7661915,0.00031065900111570954,-0.0007917426992207767,-0.00032290129456669087,-5.244097232818604,21.658994674682614,-37.593666076660156,-0.005344867706298828,0.06720732897520065,0.04321479797363281,987.9947509765624,0,13.0,1,1
11.4,0.06153074,-0.15076192,9.770927,4.4233223889023066e-05,0.0004066965775564313,0.00034284126013517385,-5.177818775177002,21.194223403930664,-37.49970245361328,-0.005312476307153703,0.06669319421052933,0.038474082946777344,987.9622192382812,0,13.0,1,1
11.44,0.06393209,-0.16029523,9.761459,-0.000355350726749748,0.00014039856614544988,-0.00032299570739269257,-5.078577041625977,21.55045509338379,-37.381874084472656,-0.005045078694820404,0.07576882094144821,0.038466453552246094,987.9922485351562,0,13.0,1,1
11.48,0.054383904000000004,-0.1436127,9.761461,4.4013082515448325e-05,-0.0010580049129202962,7.643108256161213e-05,-5.0698819160461435,20.821237564086914,-37.57149505615234,0.00434422492980957,0.056746788322925575,0.04320240020751953,987.9976196289062,0,13.0,1,1
11.52,0.06156501,-0.15314601,9.770931,0.0015086405910551546,0.0006730661843903363,7.638393435627222e-05,-5.195944786071777,21.2824649810791,-37.2711181640625,-0.005336754024028778,0.05669692903757095,0.038466453552246094,987.9570922851562,0,13.0,1,1
11.56,0.05679664,-0.14837976,9.761463000000001,-0.00044212967623025184,2.9211834771558642e-05,-0.0011324509978294373,-5.030425071716309,21.173921585083008,-37.05931854248047,-0.005497198551893234,0.04687563329935074,0.06213569641113281,987.9800415039062,0,13.0,1,1
11.6,0.06397772,-0.15076335,9.761463000000001,0.0003567078383639455,0.0008281773189082742,-0.0005998663837090135,-5.103631973266602,21.368959426879886,-37.36739349365234,-0.0007599592208862305,0.060689188539981835,0.04319381713867188,987.9495239257812,0,13.0,1,1
11.64,0.069081604,-0.14600475,9.775698,-0.00017603382002562284,-0.00010391042451374233,-0.0002004394773393869,-5.2601585388183585,21.38041877746582,-37.34394073486328,-0.01054418832063675,0.050730131566524506,0.04786109924316406,987.979736328125,0,13.0,1,1
11.68,0.059865028,-0.15316291,9.754423,-0.00017603382002562284,-0.00010391042451374233,-0.0002004394773393869,-5.2601585388183585,21.38041877746582,-37.34394073486328,0.008713576942682266,0.06942789256572722,0.057323455810546875,987.979736328125,0,13.0,1,1
11.72,0.06707156,-0.15078057,9.76863,0.00035648781340569263,-0.0005033663474023342,0.00046530299005098635,-5.170889854431152,21.463960647583008,-37.28559875488281,-0.014893073588609697,0.059508934617042535,0.028908729553222656,987.96728515625,0,13.0,1,1
11.76,0.05037898,-0.14601494,9.759165,-0.000709120649844408,-0.0011725439690053465,-0.00033806293504312634,-4.928437232971191,20.900957107543945,-37.52096939086914,-0.00027864426374435425,0.0494982972741127,0.0667734146118164,987.9727783203124,0,13.0,1,1
11.8,0.062365294,-0.14124925,9.768637,0.00048709660768508917,-0.0005063964053988457,6.046640919521452e-05,-5.0545010566711435,21.3621883392334,-37.22059631347656,0.00963113084435463,0.049289047718048096,0.038360595703125,987.9574584960938,0,13.0,1,1
11.84,0.057622254000000005,-0.15554987,9.759172,-0.00031220540404319763,-0.0015716024208813904,-0.0002060015103779733,-5.110562324523926,21.099214553833008,-37.58148956298828,-0.00925453379750252,0.04900170117616653,0.047820091247558594,987.9601440429688,0,13.0,1,1
11.88,0.050489335999999996,-0.14840086,9.759174,0.0012853353982791305,-0.00037312333006411785,6.016239058226346e-05,-5.04094123840332,21.2695255279541,-37.217262268066406,0.009909193962812424,0.05835093557834625,0.04781532287597656,987.96728515625,0,13.0,1,1
11.92,0.05291599,-0.1507851,9.759178,-0.0004460724303498863,-0.000373065791791305,-0.0006057791761122644,-5.359102249145508,21.656328201293945,-37.03689956665039,0.014627553522586824,0.053589701652526855,0.05254650115966797,987.9652099609376,0,13.0,1,1
11.96,0.06012249,-0.14125295,9.754447,0.0003525206120684743,0.00015962350880727172,0.00019301642896607518,-5.4353532791137695,21.848413467407227,-37.19036102294922,0.005110766738653183,0.05293113738298416,0.0525360107421875,987.9476928710938,0,13.0,1,1
12.0,0.04581988,-0.14125378,9.766287,-0.0005799395730718969,0.00015968107618391514,-0.00020660931477323172,-5.835065841674805,21.052690505981445,-37.08220291137695,0.009670745581388474,0.043195940554142,0.03359413146972656,987.9724731445312,0,13.0,1,1
12.04,0.055416285999999995,-0.14363800000000002,9.754453999999999,-0.0003139781765639782,2.658070297911763e-05,0.00019271258497610688,-5.253826141357422,20.38588523864746,-37.97957992553711,0.004989039152860642,0.04729822278022766,0.04305267333984375,987.9981689453124,0,13.0,1,1
12.08,0.055453062000000004,-0.15078871,9.773396,-4.801678005605936e-05,-0.0005059934919700028,-7.375533459708095e-05,-5.318667411804199,22.3787784576416,-36.70048522949219,-0.004562560468912125,0.05683110654354096,0.03357887268066406,987.988037109375,0,13.0,1,1
12.12,0.055489838,-0.14840631,9.775766,0.00035110244061797857,-0.00023962004343047735,-0.0006065389025025071,-5.1884727478027335,21.18391227722168,-36.95856475830078,0.00981929525732994,0.04688800126314163,0.03357124328613281,987.9727783203124,0,13.0,1,1
12.16,0.04835692,-0.16270693,9.763933,-0.0007145156851038338,0.0001599112874828279,0.0001922567025758326,-5.509976387023926,20.93563270568848,-37.04846572875977,0.019169572740793228,0.07508882135152818,0.05250358581542969,987.962646484375,0,13.0,1,1
12.2,0.057953298,-0.13410844,9.775772,0.00035039335489273066,-0.00023950496688485143,0.00045842066174373025,-5.027923583984375,21.5451602935791,-37.31238555908203,-0.004565335810184479,0.027216486632823944,0.03355884552001953,987.9527587890624,0,13.0,1,1
12.24,0.060379982,-0.1436425,9.780510000000001,8.372298907488586e-05,-0.00023944739950820806,0.00019195280037820342,-5.748704433441162,21.239206314086914,-37.56833267211914,-0.009129785001277924,0.05059196054935455,0.01934528350830078,987.9498901367188,0,13.0,1,1
12.28,0.04607737,-0.14840995,9.771044,8.3368388004601e-05,-0.0011714955326169731,0.0009907485218718648,-5.463750839233398,21.031831741333008,-37.446136474609375,0.019573569297790527,0.05067702382802963,0.04774951934814453,987.9476928710938,0,13.0,1,1
12.32,0.048504084,-0.15079410000000001,9.768680999999999,0.00021617161110043528,0.00016014155698940158,0.0003248068678658456,-5.541226387023926,21.854585647583008,-37.09741973876953,0.015181049704551697,0.05025199055671692,0.03353404998779297,987.9807739257812,0,13.0,1,1
12.36,0.058100462,-0.14602853,9.766316999999999,0.00034897506702691317,-0.0011713802814483645,-7.481890497729182e-05,-5.167004585266113,21.730756759643555,-36.91688919067383,-0.004055939614772797,0.05011507868766785,0.03826427459716797,987.98291015625,0,13.0,1,1
12.4,0.058137268,-0.15079589,9.759217999999999,0.0002154626417905092,-0.00023921718820929527,5.818705540150404e-05,-4.8639259338378915,21.43514442443848,-37.02327728271485,0.0006203204393386841,0.04029668867588043,0.042995452880859375,987.9428100585938,0,13.0,1,1
12.44,0.0533942,-0.14364703,9.766323,-0.00018436566460877657,0.0004266301402822137,-0.00020828080596402287,-5.615412712097168,21.67985343933105,-37.229736328125,0.014223396778106691,0.04964213818311691,0.03352546691894531,987.9503784179688,0,13.0,1,1
12.48,0.055820942,-0.15318097,9.76396,-5.156232509762049e-05,0.0017582671716809273,-0.0007410643738694488,-5.3379316329956055,21.57103157043457,-37.42008972167969,-0.005031473934650421,0.04471740871667862,0.042990684509277344,987.97021484375,0,13.0,1,1
12.52,0.05585766,-0.15318187,9.756862,0.0002143988385796547,2.727139508351684e-05,-0.0002085846499539912,-4.669626235961914,21.24867057800293,-37.581199645996094,0.004745185375213623,0.04443708062171936,0.057185173034667976,987.985595703125,0,13.0,1,1
12.56,0.058284402,-0.15318282,9.77817,-5.227152723819018e-05,-0.0006384607404470444,-7.557863136753441e-05,-5.15330696105957,21.7440128326416,-37.61263275146485,-0.0093594528734684,0.05826155841350555,0.038238525390625,987.9707641601562,0,13.0,1,1
12.6,0.05593124,-0.14603384,9.756867999999999,-0.00031894177664071316,-0.0009047191124409435,-0.0004752043751068413,-4.966073036193848,21.181886672973636,-37.68557739257813,0.0053569041192531594,0.0338541641831398,0.04769420623779297,987.960205078125,0,13.0,1,1
12.64,0.06954506,-0.14839931,9.771006,-0.0003192963777109981,-0.0007715036044828594,-0.0004753562971018255,-5.823432922363281,21.432764053344727,-37.799095153808594,-0.0184977762401104,0.05274026095867157,0.028751373291015625,987.963623046875,0,13.0,1,1
12.68,0.044874727999999996,-0.13408075,9.770935,0.00021479057613760236,0.00016036577289924026,-0.00020841689547523856,-5.322850227355957,21.47984504699707,-37.49406433105469,0.01631307229399681,0.033504165709018714,0.04782676696777344,987.943115234375,0,13.0,1,1
12.72,0.061579943,-0.15314634,9.759096000000001,0.0006246581324376166,-0.00010566946002654731,-0.0008673116681165992,-5.545111656188965,21.587793350219727,-37.46613311767578,-0.002744931727647781,0.04287942498922348,0.04309654235839844,987.9605102539062,0,13.0,1,1
12.76,0.049606323,-0.14599596,9.773296,0.0006246581324376166,-0.00010566946002654731,-0.0008673116681165992,-5.545111656188965,21.587793350219727,-37.46613311767578,0.006670016795396805,0.04760603606700897,0.04309749603271485,987.9605102539062,0,13.0,1,1
12.8,0.05436206,-0.14837863,9.763826,-4.089920548722148e-05,0.0012258723145350814,6.48934510536492e-05,-4.859796047210693,20.701509475708008,-36.98098754882813,0.006512429565191269,0.028105854988098145,0.03362560272216797,987.966064453125,0,13.0,1,1
12.84,0.061507642,-0.14122827,9.7638235,9.249098366126418e-05,-0.0005052186897955835,6.499298615381122e-05,-4.979090690612793,20.906251907348636,-37.59046173095703,-0.007755111902952193,0.04704083502292633,0.03362751007080078,987.9611206054688,0,13.0,1,1
12.88,0.0423643,-0.15314408,9.773291,9.272334864363074e-05,0.0005600071744993329,-0.0004675392410717905,-5.525601387023926,21.395109176635746,-37.07294464111328,0.015673115849494934,0.046954624354839325,0.02889728546142578,987.9483032226562,0,13.0,1,1
12.92,0.06384933,-0.15314348,9.766188,0.0003592713619582355,0.0005599694559350611,6.519199814647436e-05,-5.080641746520996,21.91726875305176,-37.40301513671875,-0.008402552455663681,0.05620023608207703,0.04783439636230469,987.9509887695312,0,13.0,1,1
12.96,0.05187571,-0.15314288,9.773286,0.0004926617839373648,0.00016045788652263582,-0.0012662876397371292,-5.13974666595459,21.65135383605957,-37.60930252075195,0.006410699337720871,0.046330519020557404,0.04783058166503906,987.9408569335938,0,13.0,1,1
13.0,0.049461722,-0.14360918,9.754347000000001,-0.00043921155156567693,-0.001038001268170774,-6.776663940399885e-05,-5.204939365386963,21.379549026489254,-37.50636672973633,0.010911662131547928,0.04596434533596039,0.04783153533935547,987.9635009765624,0,13.0,1,1
13.04,0.047047704,-0.13407548,9.773282,-0.00043921155156567693,-0.001038001268170774,-6.776663940399885e-05,-5.527666091918945,21.761926651000977,-37.094085693359375,0.005974840372800827,0.03175368905067444,0.028898239135742188,987.9635009765624,0,13.0,1,1
13.08,0.054193318,-0.14122473,9.759076,-0.00020576128736138344,0.0011280847247689962,0.0003625822719186544,-5.627749443054199,21.141847610473636,-37.73524475097656,0.010721981525421144,0.04611845314502716,0.043105125427246094,987.9662475585938,0,13.0,1,1
13.12,0.058949022999999996,-0.15314049999999998,9.768543,0.0005936509696766733,0.00019590376177802682,-0.0007024822407402098,-5.6836490631103525,21.405099868774414,-36.9721908569336,-0.003731284290552139,0.04097650945186615,0.043105125427246094,987.963623046875,0,13.0,1,1
13.16,0.03980568,-0.14837332,9.766174000000001,0.0003275674534961581,-0.0002036077348748222,-0.000302908883895725,-5.097139358520508,20.9006404876709,-36.87908172607422,0.015342801809310913,0.03619512170553208,0.05257511138916016,987.9483032226562,0,13.0,1,1
13.2,0.054121017,-0.14598949,9.7709055,-0.0002048321766778827,0.00046214432222768654,0.0008956122910603881,-5.257114887237549,21.383363723754886,-37.49855041503906,0.000713590532541275,0.04535461962223053,0.024168968200683597,987.9509887695312,0,13.0,1,1
13.24,0.04931709,-0.14360563,9.773271000000001,-0.00020459969528019428,0.0003289486048743129,0.0006293959449976683,-5.1425461769104,20.64798164367676,-37.78111267089844,0.014821678400039671,0.0403238832950592,0.033638954162597656,987.9560546875,0,13.0,1,1
13.28,0.06124252,-0.14837159,9.766167,0.00019510637503117323,0.00032891082810238004,-3.6294281017035246e-05,-5.485869407653809,21.959627151489254,-37.95892333984375,-0.0043003037571907035,0.045026488602161414,0.04310894012451172,987.9610595703124,0,13.0,1,1
13.32,0.05165881,-0.14360444,9.768532,0.000195338623598218,0.0005951890489086509,-3.619462950155139e-05,-5.31676197052002,21.485734939575195,-37.80328369140625,0.009788084775209429,0.044624440371990204,0.04784393310546875,987.9509887695312,0,13.0,1,1
13.36,0.054024577000000004,-0.16028674,9.780366,0.00019557098858058453,0.000328835507389158,-0.0009682007948867977,-5.318284034729004,21.48426628112793,-37.725982666015625,0.014685425907373428,0.058687277138233185,0.03837299346923828,988.0012817382812,0,13.0,1,1
13.4,0.04922068,-0.15551962,9.766161,-0.00033682852517813444,-0.00020383398805279285,-3.599555930122733e-05,-5.692643165588379,21.50217628479004,-37.207435607910156,0.0004107244312763214,0.043918564915657037,0.043105125427246094,987.9713134765624,0,13.0,1,1
13.44,0.05158651,-0.1602856,9.768525,-0.0006029120413586497,6.24441890977323e-05,0.00023041991516947744,-5.262223243713379,21.74723625183105,-37.365081787109375,0.01438678428530693,0.06773056834936142,0.03364086151123047,987.9916381835938,0,13.0,1,1
13.48,0.06112203,-0.14121879999999998,9.770891,0.001527847140096128,0.00032872235169634223,-3.579637268558145e-05,-5.311491966247559,21.64808464050293,-36.81280517578125,-0.00429559126496315,0.029004819691181183,0.038369178771972656,987.9610595703124,0,13.0,1,1
13.52,0.046758472999999995,-0.15075128,9.756685000000001,-0.0007356053683906794,-7.078918861225246e-05,0.0007632507476955652,-5.5571489334106445,21.681921005249023,-37.54676818847656,0.014941837638616562,0.0382535383105278,0.05730438232421875,987.9613647460938,0,13.0,1,1
13.56,0.053904115999999995,-0.14598413,9.759049000000001,-0.0014011629391461609,-0.000736616610083729,-0.0005682290648110211,-5.182384490966797,21.18980598449707,-37.26778793334961,0.005022313445806503,0.033104650676250465,0.05730533599853516,987.9381713867188,0,13.0,1,1
13.6,0.058659792,-0.15313338,9.7614155,0.0001969647128134966,0.0003286091960035264,-0.00030181376496329904,-5.23358154296875,21.563390731811523,-37.43572616577149,-0.004802372306585312,0.05206724256277085,0.03837013244628906,987.9436645507812,0,13.0,1,1
13.64,0.054175435999999993,-0.1483741,9.763809,0.0003303551347926259,0.001127519179135561,9.775959188118576e-05,-5.52918815612793,21.760454177856445,-37.01678466796875,0.004521351307630539,0.037567682564258575,0.03834152221679688,988.0067749023438,0,13.0,1,1
13.68,0.061333715999999996,-0.14360721,9.768542,0.00032658956479281187,-0.0004683552542701364,9.782804409042e-05,-4.711422920227051,21.05097007751465,-36.71636199951172,-0.009602788835763931,0.037558317184448235,0.03834152221679688,987.9741821289062,0,13.0,1,1
13.72,0.046982884,-0.14837356,9.756705,0.000458367052488029,-6.86574203427881e-05,-0.00056855333968997,-5.409457206726074,22.293760299682614,-36.6815185546875,0.004533860832452774,0.04211417585611344,0.05254364013671875,987.9843139648438,0,13.0,1,1
13.76,0.051751285999999994,-0.15313978,9.76854,-0.0004736282862722874,0.0007302723242901267,0.001029389095492661,-5.001920700073242,20.8841609954834,-36.430885314941406,0.004400309175252914,0.036876045167446136,0.04307174682617188,987.9741821289062,0,13.0,1,1
13.8,0.061299473,-0.14360638,9.75907,-0.0006066763307899238,-0.00033500901190564036,0.0006299624801613389,-5.350949287414551,21.2954044342041,-37.324974060058594,-0.005237780511379242,0.03140256553888321,0.04306507110595703,987.9741821289062,0,13.0,1,1
13.84,0.05889815,-0.15313922,9.7638035,-0.00047340826131403446,-0.0002018689556280151,-0.0003020958974957466,-5.900908470153809,22.25551414489746,-37.45037460327149,0.004352904856204987,0.045475974678993225,0.03359413146972656,987.99169921875,0,13.0,1,1
13.88,0.05410695,-0.14360587,9.759068,-0.00020698225125670436,0.0005970607744529842,-0.00043520657345652586,-5.478534698486328,21.75515937805176,-36.94729614257813,0.004712071269750595,0.035782240331172936,0.061999320983886726,987.9462280273438,0,13.0,1,1
13.92,0.056485415,-0.14360557,9.761435,0.00019271159544587133,-0.000734554254449904,0.00023067730944603682,-5.153444290161133,21.638093948364254,-36.91355895996094,0.0003605037927627564,0.03574453294277191,0.047794342041015625,987.9767456054688,0,13.0,1,1
13.96,0.049304277,-0.1436053,9.751965,0.00019271159544587133,-0.000734554254449904,0.00023067730944603682,-5.153444290161133,21.638093948364254,-36.91355895996094,0.014441236853599547,0.030767314136028286,0.06199741363525391,987.9767456054688,0,13.0,1,1
14.0,0.061242399999999995,-0.14598824,9.78037,-0.00020665209740400314,0.000996480928733945,-0.00016874924767762425,-5.20882511138916,21.112749099731445,-37.87507629394531,-0.009827185422182085,0.04003877192735672,0.02885723114013672,987.991943359375,0,13.0,1,1
14.04,0.061230957999999995,-0.16267093,9.773268,0.000725563382729888,-6.880040746182203e-05,9.761366527527572e-05,-5.4722023010253915,20.760622024536133,-37.58293533325195,-0.009723450988531113,0.049401529133319855,0.03832530975341797,987.9744873046876,0,13.0,1,1
14.08,0.05404985,-0.1602874,9.780369,5.9883808717131615e-05,0.00033065566094592214,0.0004971346934325993,-5.3148345947265625,21.013002395629886,-37.08306121826172,0.004578288644552231,0.058938264846801765,0.033591270446777344,987.9467163085938,0,13.0,1,1
14.12,0.06359804,-0.15552048,9.770899,0.0003263098187744617,0.00019747979240491984,-3.54499788954854e-05,-5.385242938995361,22.21141242980957,-37.219322204589844,-0.004993993788957596,0.044511564075946815,0.02885723114013672,987.971923828125,0,13.0,1,1
14.16,0.051637113,-0.15075372,9.766163,0.0003264198312535882,0.00019746192265301943,0.0003640711074694991,-5.2161359786987305,21.737524032592773,-37.06368255615234,0.009161345660686493,0.04891163855791092,0.04305839538574219,987.956787109375,0,13.0,1,1
14.2,0.044455975,-0.1722029,9.754325999999999,6.02139625698328e-05,0.0009963915217667818,-0.00043482927139848465,-4.953493118286133,20.719465255737305,-37.506492614746094,0.018696431070566174,0.05819995701313019,0.04779052734375,987.9619140625,0,13.0,1,1
14.24,0.061173915999999995,-0.15075313,9.763794,-7.283384911715984e-05,-0.0008678372832946478,-0.00016846635844558477,-5.426114082336426,20.75090980529785,-37.281532287597656,-0.004909012466669083,0.03879611939191818,0.043051719665527344,987.9744873046876,0,13.0,1,1
14.28,0.06355235,-0.15075289,9.785097,0.00019359192810952663,-0.0003352233907207846,0.00023105461150407794,-5.4115753173828125,21.02800941467285,-37.453956604003906,-0.0049078091979026794,0.053105972707271576,0.024115562438964844,987.9796752929688,0,13.0,1,1
14.32,0.053981304,-0.14598604,9.77326,0.00032685999758541584,-0.0002020833344431594,-0.00016837194561958313,-4.9515342712402335,21.458986282348636,-37.858001708984375,-0.004893679171800613,0.03852763772010803,0.04305076599121094,987.9644775390624,0,13.0,1,1
14.36,0.04441029,-0.15313555,9.768524000000001,-0.0006051354575902224,0.00046368851326405997,0.0007637807866558433,-5.14170503616333,20.911828994750977,-37.257789611816406,0.01402035728096962,0.03812841325998306,0.04304981231689453,987.9973754882812,0,13.0,1,1
14.4,0.06351811,-0.14360224,9.76379,-7.23936827853322e-05,-0.00020211905939504504,0.0011633017566055062,-5.176977634429932,21.458070755004886,-36.97637939453125,-0.009854175150394441,0.033203572034835815,0.03831386566162109,987.97998046875,0,13.0,1,1
14.44,0.041997552,-0.13883539,9.759053999999999,-7.23936827853322e-05,-0.00020211905939504504,0.0011633017566055062,-5.7683515548706055,21.32597541809082,-37.26244354248047,0.023577608168125156,0.03276977688074112,0.057248115539550774,987.97998046875,0,13.0,1,1
14.48,0.058715433,-0.15313475,9.780357,0.00032719015143811703,-0.0003352948697283864,0.0006307170842774212,-5.496416091918945,20.842973709106445,-37.04513549804688,0.004299774765968323,0.04704836010932922,0.033577919006347656,987.9924926757812,0,13.0,1,1
14.52,0.051534325,-0.15075125,9.76852,-0.0003384893061593175,6.41611113678664e-05,0.0002312905271537602,-5.396195411682129,21.5689640045166,-37.10305786132813,0.01398911327123642,0.041908442974090576,0.04304313659667969,987.9796752929688,0,13.0,1,1
14.56,0.04196328,-0.13645120000000002,9.744847,-0.0001182954292744398,-0.0005495327641256154,0.0008987975888885557,-5.633538246154785,21.76809501647949,-37.00115203857422,0.01878945901989937,0.03698431700468064,0.07618331909179688,987.9649658203124,0,13.0,1,1
14.6,0.061228693,-0.14598794,9.773268,0.00028128852136433125,0.0003825549501925707,-3.32608469761908e-05,-5.492530822753906,21.109766006469727,-36.67642211914063,-0.0008799657225608826,0.036685094237327576,0.02410507202148437,987.9367065429688,0,13.0,1,1
14.64,0.05182478,-0.15075828,9.778015,1.5082652680575848e-05,0.0005156950210221112,9.994424181059004e-05,-5.184450149536133,21.556623458862305,-37.28893280029297,0.009005110710859299,0.041305884718894965,0.02407169342041016,987.9671020507812,0,13.0,1,1
14.68,0.05182603,-0.14837508,9.778016000000001,-0.00012065016198903322,-0.0008154664537869394,9.884074097499251e-05,-5.41929292678833,22.12699317932129,-37.440086364746094,0.0039457082748413095,0.0364939272403717,0.01933765411376953,987.9777221679688,0,13.0,1,1
14.72,0.04226768,-0.15552492,9.763813,-0.00012103805784136057,0.0003830179921351373,-0.0007002732018008827,-5.276762962341309,21.47013282775879,-37.19266128540039,0.013504933565855026,0.04547802358865738,0.05247211456298828,987.9674682617188,0,13.0,1,1
14.76,0.058998287,-0.15552495,9.759079,-0.0005205239867791533,-0.0001496117329224944,-0.000700278440490365,-5.064038276672363,21.82755851745605,-37.554290771484375,0.004101276397705078,0.030657917261123657,0.057200431823730476,987.9824829101562,0,13.0,1,1
14.8,0.051829815,-0.14599182,9.768547,-0.0006536945002153517,-0.0004159256059210748,9.866396430879831e-05,-5.200075626373291,22.01609992980957,-37.31340789794922,0.004161711782217026,0.04937434196472168,0.03825855255126953,987.97998046875,0,13.0,1,1
14.84,0.04944122,-0.16029163,9.759079,-0.00012107472866773604,-0.00014960771659389138,0.0007644484867341816,-5.026945114135742,21.9149227142334,-37.488136291503906,0.00391703099012375,0.03994600474834442,0.05719661712646485,987.9828491210938,0,13.0,1,1
14.88,0.05900204,-0.14599197,9.77565,0.0008110187482088804,0.00024986802600324154,0.00023181142751127481,-5.161757946014403,21.472803115844727,-37.74943161010742,0.013618558645248413,0.0444333553314209,0.028787612915039062,987.95263671875,0,13.0,1,1
14.92,0.05183363,-0.15552507,9.773283000000001,-0.00012109940871596335,-0.000815393403172493,-0.0008334573358297348,-5.387499809265137,20.839746475219727,-37.29267883300781,0.013631854206323624,0.03442787379026413,0.03824996948242188,987.9879150390624,0,13.0,1,1
14.96,0.049445033,-0.15075852,9.763814,-0.001053216983564198,0.0006493457476608455,-0.0001676728716120124,-5.479376316070557,21.49131202697754,-37.470619201660156,0.01804974302649498,0.043538644909858704,0.05718421936035156,987.9573364257812,0,13.0,1,1
15.0,0.049446285,-0.14599209,9.763814,-0.0003874393878504634,0.0005161899025551975,0.0007644275319762527,-5.21599817276001,21.84343910217285,-37.76276016235352,0.02272215485572815,0.024268977344036102,0.04298019409179688,987.9752197265624,0,13.0,1,1
15.04,0.061397075999999995,-0.15552520000000003,9.768549,0.0006778116803616285,-0.00028275579097680753,-0.00030084128957241774,-5.206460952758789,21.378068923950195,-37.42906188964844,-0.015078611671924591,0.033544212579727166,0.03350543975830078,987.9522094726562,0,13.0,1,1
15.08,0.0351094,-0.15790845,9.778017,-0.0006537799490615727,-0.00041591166518628597,-3.4530647099018104e-05,-5.071946144104004,21.18805503845215,-37.5926399230957,0.02291528880596161,0.042819693684577935,0.03350353240966797,987.9527587890624,0,13.0,1,1
15.12,0.056619793,-0.15552516,9.763813,1.1997879482805729e-05,-0.00014959380496293306,9.862205479294063e-05,-5.405625820159912,20.927988052368164,-37.0640983581543,-0.0008364208042621613,0.04207419604063034,0.03822898864746094,987.9752197265624,0,13.0,1,1
15.16,0.05184126,-0.13884239,9.763815,-0.0005206464556977153,-0.00041590776527300477,0.0002317747566848993,-5.257795333862305,21.64574241638184,-36.897926330566406,0.0038816891610622406,0.027563251554965973,0.04769420623779297,987.954833984375,0,13.0,1,1
15.2,0.056622325999999994,-0.13645913,9.763815,-0.000786974560469389,0.00038304185727611184,-3.454630495980382e-05,-4.841776847839356,21.719614028930664,-37.58222579956055,0.003906723111867905,0.02257727086544037,0.03348827362060547,987.934814453125,0,13.0,1,1
15.24,0.051843762,-0.15790857,9.775651,-0.0002543546725064516,-1.642995630390942e-05,-0.00016770942602306604,-4.674191951751709,21.244253158569336,-37.349281311035156,0.00369555875658989,0.046123906970024116,0.03348541259765625,987.957763671875,0,13.0,1,1
15.28,0.05662483,-0.14837556,9.766182,-0.00038752518594264973,0.0005162038723938167,-0.0007003465434536338,-5.641989707946777,21.49688148498535,-37.13794708251953,-0.0011018440127372742,0.03136537969112396,0.0476837158203125,987.9424438476562,0,13.0,1,1
15.32,0.049456417999999995,-0.15075888,9.778018,-0.0006538530578836799,-1.642596907913685e-05,0.0004980697995051743,-5.48905086517334,21.85076332092285,-37.1052360534668,0.013727013021707537,0.037212498486042016,0.04295921325683594,987.9476318359376,0,13.0,1,1
15.36,0.054237485,-0.14837559,9.759081,0.0040066628716886035,-0.0022801088634878397,-0.0005671989638358356,-5.055480003356934,20.9924259185791,-37.04484176635742,0.009289506822824478,0.03632956743240357,0.04768085479736328,988.067138671875,0,13.0,1,1
15.4,0.056628644000000006,-0.15314217,9.75908,-0.003583352081477642,0.0009156835149042306,-0.00043404637835919857,-5.084665298461914,21.5445613861084,-37.07264709472656,-0.005556181073188782,0.026010267436504364,0.061879158020019524,988.0316162109376,0,13.0,1,1
15.44,0.06140971,-0.14360912,9.756713000000001,-0.0005207319045439364,0.0002498958492651582,9.858026169240476e-05,-5.0421648025512695,21.90019416809082,-36.715087890625,-0.0007908791303634644,0.030457600951194763,0.04293632507324219,987.8839721679688,0,13.0,1,1
15.48,0.056631207,-0.14360918,9.761448,-0.00012126995716243982,-0.00041589190368540585,-0.0008335305610671638,-5.84237813949585,21.677465438842773,-36.27080535888672,0.0043736621737480155,0.021706953644752502,0.03820991516113281,987.9069213867188,0,13.0,1,1
15.52,0.05663246,-0.1483757,9.761448,0.001476612756960094,-0.0006822057766839862,9.856978431344032e-05,-5.619573593139648,21.20122718811035,-36.200286865234375,0.004366617649793625,0.03496803343296051,0.06660270690917969,988.0266723632812,0,13.0,1,1
15.56,0.04707411,-0.1602921,9.76855,-0.0013197162188589573,0.00011674384586513042,-0.00016775133553892374,-4.983794689178467,20.79591941833496,-36.65946578979492,0.014213185757398604,0.044040828943252563,0.028720855712890625,987.9174194335938,0,13.0,1,1
15.6,0.07504478,-0.15795015,9.775805,-0.0005207804497331381,-0.000815359759144485,-0.0004340724553912878,-4.975886344909668,21.4354190826416,-36.6211166381836,-0.02144946902990341,0.038987956941127784,0.01909828186035156,987.9348754882812,0,13.0,1,1
15.64,0.048824400000000004,-0.15556855,9.761608,-0.0003936482826247811,0.0014493032358586788,-0.00043665478006005287,-5.2168169021606445,21.99989128112793,-36.46305465698242,0.007451206445693971,0.04394165426492691,0.05223369598388672,987.9276123046876,0,13.0,1,1
15.68,0.05367276,-0.16272004,9.752146,0.0006669933209195732,-0.0009514041012153027,-0.00044446473475545645,-4.791260719299316,21.608400344848636,-36.81365966796875,0.007021177560091019,0.038819953799247735,0.0569601058959961,987.9781494140624,0,13.0,1,1
15.72,0.06330097,-0.15795512,9.7592535,5.430774763226509e-07,0.001578704104758799,-0.0005779057973995805,-5.115808486938477,21.3571720123291,-36.74894714355469,-0.0028600096702575684,0.03862154483795166,0.061687469482421875,987.9453735351562,0,13.0,1,1
15.76,0.060979545,-0.14842369,9.773463000000001,0.00039935624226927757,-1.9084021914750334e-05,8.760089986026287e-05,-5.567941188812256,21.565698623657227,-36.306556701660156,0.0016109757125377655,0.019440777599811557,0.03327369689941406,987.96826171875,0,13.0,1,1
15.8,0.06104812,-0.14365895,9.764000999999999,0.00039935624226927757,-1.9084021914750334e-05,8.760089986026287e-05,-5.266926765441895,21.63689994812012,-36.4340934753418,-0.008117910474538803,0.024187006056308743,0.04273700714111328,987.96826171875,0,13.0,1,1
15.84,0.073066175,-0.14604385,9.766374,-7.783528417348863e-07,0.0009131288388743997,-4.584027919918299e-05,-5.021973609924316,21.445131301879886,-36.922523498535156,-0.008683603256940842,0.0334482342004776,0.04273128509521485,987.9374389648438,0,13.0,1,1
15.88,0.065965,-0.15319534,9.768747,0.00013171916361898184,0.0007800781168043612,-0.00044559722300618887,-5.312578201293945,22.384668350219727,-37.00970458984375,-0.008492510765790941,0.042591191828250885,0.04271793365478516,987.95556640625,1,1.0,2,2
15.92,0.06603354,-0.15081371,9.761652,-0.0002690762048587203,-0.0012170764384791255,-0.0005793215241283177,-5.307065010070801,21.54659080505371,-36.34563827514648,-0.017768967896699902,0.023600362241268158,0.061648368835449226,987.986083984375,1,1.0,2,2
15.96,0.058932394000000006,-0.15319867,9.759291000000001,-3.420980647206306e-06,-0.00028486366500146687,-0.00031328876502811914,-4.600823402404785,21.575437545776367,-35.917266845703125,0.0009693801403045654,0.027752943336963654,0.06637096405029297,987.9481201171876,1,1.0,2,2
16.0,0.05900094,-0.13890074,9.752195,-0.0002703974023461342,0.0015794547507539392,-0.0005798877682536839,-4.953577041625977,22.24611091613769,-36.05612182617188,-0.003741923719644547,0.013358943164348602,0.03795433044433594,987.986083984375,1,1.0,2,2
16.04,0.06623921,-0.14605226,9.782976,0.00026157358661293983,-0.0006841229624114932,-0.00044701294973492617,-4.836645126342773,21.77604103088379,-35.892662048339844,-0.0035800933837890625,0.03725026547908783,0.03794765472412109,987.9511108398438,1,1.0,2,2
16.08,0.05913803,-0.14843722,9.766411999999999,0.00014682323671877381,-0.0004238024703226984,0.00013424304779618979,-4.918440818786621,21.593950271606445,-35.63845443725586,0.006054267287254334,0.018101602792739868,0.0474090576171875,987.9555053710938,1,1.0,2,2
16.12,0.056816697,-0.15082215,9.766418,0.00014616257976740601,-0.00042369513539597387,-0.0011976195964962244,-5.201871871948242,21.802793502807614,-35.83795166015625,0.0008348897099494934,0.01783016324043274,0.03793048858642578,987.9580688476562,1,1.0,2,2
16.16,0.05927515,-0.15320708,9.771158,-0.00012081395834684372,0.0006416755495592952,0.00013367668725550175,-4.764822006225586,21.685457229614254,-36.20636749267578,-0.004121869802474976,0.03673948347568512,0.03792572021484375,987.9559936523438,1,1.0,2,2
16.2,0.071293175,-0.14844222,9.773532000000001,1.1683208867907526e-05,0.00024230900453403595,0.00026655144756659865,-4.978089332580566,21.69632148742676,-35.94318771362305,-0.008242245763540268,0.027057766914367683,0.028444290161132806,987.9379272460938,1,1.0,2,2
16.24,0.06658196400000001,-0.13652755,9.773538,-0.00012213550508022308,-0.0017549527110531926,-0.0018642586655914786,-5.0259971618652335,21.07242774963379,-36.59215545654297,-0.0180731862783432,0.03519628942012787,0.04262542724609375,987.9912109375,1,1.0,2,2
16.28,0.009292841,-0.05549778,9.962921000000001,-0.004250692203640939,0.001707260962575674,0.0006654590833932161,-5.110400676727295,21.625436782836914,-36.4575424194336,0.1561131477355957,-0.17455168068408966,-0.1806783676147461,987.97119140625,1,1.0,2,2
16.32,0.22684252,-0.38915843,9.882442,-0.15405401587486267,-0.05861317738890647,-0.06005484238266945,-5.139342308044434,21.177148818969727,-36.81177520751953,-0.061468049883842475,0.0376298725605011,-0.06398582458496094,987.92041015625,1,1.0,2,2
16.36,0.12414527,-0.3057453,9.970036,-0.2262262850999832,-0.0022872628178447485,-0.08721935749053955,-5.513945579528809,22.195486068725586,-35.96680450439453,-0.13250067830085754,-0.07609790563583374,-0.12998008728027344,987.8695678710938,1,1.0,2,2
16.4,0.14094308,-0.52024204,9.896658,-0.3880138397216797,-0.01866558194160461,0.050066206604242325,-5.390191555023193,23.101503372192386,-35.96190643310547,-0.1535927951335907,-0.7235645055770874,-0.18947792053222656,987.8771362304688,1,1.0,2,2
16.44,-0.16728571,-1.0755476000000002,9.830381,-0.6143829822540283,-0.21427448093891144,-0.004528836347162724,-5.6517486572265625,23.38298225402832,-35.32219696044922,0.5673666596412659,0.3831911683082581,-0.05616474151611328,987.8870239257812,1,1.0,2,2
16.48,0.19126815,-1.1708806,9.662317,-0.7972095012664795,0.0949183627963066,-0.2166496962308884,-6.119208335876465,24.68312263488769,-34.479415893554695,-0.05761893093585967,-0.15109515190124512,0.009546279907226562,987.9225463867188,1,1.0,2,2
16.52,0.17938715,-1.5688897,9.882474,-0.9044023752212524,0.1990479826927185,-0.3530037403106689,-6.2388858795166025,25.78237724304199,-34.06339263916016,0.03562470525503158,-0.6085060834884644,-0.33682918548583984,987.9384155273438,1,1.0,2,2
16.56,0.2835011,-2.4173112,9.103569,-0.9711151123046876,0.0569685585796833,-0.305732935667038,-6.2607364654541025,26.13004493713379,-33.07956695556641,-0.28498685359954834,0.3630671501159668,0.4580583572387695,987.9708862304688,1,1.0,2,2
16.6,0.14377731,-2.4077506,9.517728,-1.109067440032959,0.023945493623614308,-0.0767015740275383,-6.515311241149902,28.31382942199707,-31.47446632385254,-0.17242766916751862,0.2216510772705078,0.0872488021850586,987.973876953125,1,1.0,2,2
16.64,-0.16215168,-2.6794439999999997,9.20999,-0.8062474131584167,-0.02399633638560772,0.1211773231625557,-6.635125160217285,29.30716896057129,-30.35936164855957,0.3730747103691101,-0.1546630859375,0.22165489196777344,987.9229125976562,1,1.0,2,2
16.68,-0.19802178,-2.98212,9.444342,-0.7841376662254333,-0.024663019925355908,0.08376231044530869,-6.716868877410889,30.75763893127441,-29.35386085510254,0.1539960503578186,-0.015106201171875,-0.1065359115600586,988.0037841796876,1,1.0,2,2
16.72,-0.17414431,-3.2752627999999997,8.9259205,-0.6826710700988771,0.024871699512004845,-0.09347080439329147,-6.154274940490723,30.967660903930664,-28.29807472229004,0.3478505313396454,-0.1259009838104248,0.10844612121582033,987.9937744140624,1,1.0,2,2
16.76,0.3611722,-3.4826074,9.370953,-0.7752156853675842,0.15549960732460022,-0.449535071849823,-6.825325965881348,31.91921424865723,-27.5574893951416,-0.050103269517421715,0.022704362869262692,0.19441986083984372,988.0089721679688,1,1.0,2,2
16.8,0.3563708,-3.7852836,9.063215,-0.5275416374206543,0.24378329515457156,-0.6796318888664246,-7.694862365722656,32.15831756591797,-27.052568435668945,-0.5023300647735596,-0.06543183326721191,-0.2833070755004883,988.0396728515624,1,1.0,2,2
16.84,-0.39407998,-4.130858,8.537692999999999,-0.8630995154380798,0.12926742434501648,-0.31491222977638245,-7.932044982910156,32.8836669921875,-25.82671165466309,0.5027390718460083,0.004653453826904297,0.4657249450683594,988.0115356445312,1,1.0,2,2
16.88,0.14123648,-4.3382025,8.914078,-0.8421934843063354,0.0926489531993866,-0.1936052143573761,-8.017427444458008,33.066917419433594,-25.51634407043457,0.12295813113451005,-0.06964254379272461,-0.2570228576660156,987.98876953125,1,1.0,2,2
16.92,0.19857252,-4.669478,8.353048,-0.6477826833724976,0.2954484820365906,-0.6094573736190796,-8.684595108032228,34.285255432128906,-24.407041549682614,-0.1774907410144806,0.030607223510742188,0.2990083694458008,988.0090942382812,1,1.0,2,2
16.96,0.09339532,-4.826773,8.445367,-0.6985155940055847,0.2769394516944885,-0.5327582955360413,-8.67878246307373,34.07932281494141,-23.31810569763184,-0.04839220643043518,0.04833507537841797,0.17429542541503906,987.9655151367188,1,1.0,2,2
17.0,0.22242844,-4.9769197,8.547155,-0.4847969710826874,0.2244752198457718,-0.4103860557079315,-9.142111778259276,34.64582061767578,-22.43303108215332,-0.09020917117595673,0.048348426818847656,-0.08438301086425781,987.9735107421876,1,1.0,2,2
17.04,0.35146165,-5.024585,8.180237,-0.4500425457954407,0.21675202250480646,-0.3868170380592346,-9.085508346557617,34.54050445556641,-21.973684310913086,-0.3516286015510559,0.019269466400146484,0.2551107406616211,987.99365234375,1,1.0,2,2
17.08,0.3681693,-4.92687,8.608699,-0.5318012833595276,0.043779827654361725,-0.17642739415168762,-9.973031997680664,34.9737548828125,-21.93925666809082,-0.5964382290840149,-0.5389304161071777,-0.6683883666992188,987.9756469726562,1,1.0,2,2
17.12,-0.07159418,-4.4049309999999995,8.469031,-0.3131557404994965,0.09531191736459732,0.1800365000963211,-10.077359199523926,35.40170288085937,-20.100595474243164,0.026378318667411804,-1.0035219192504885,-0.7027730941772461,988.0060424804688,1,1.0,2,2
17.16,0.17215425,-5.7181169999999995,7.538719,0.31228730082511896,0.5300725102424622,0.16645447909832,-9.482803344726562,35.642662048339844,-20.668222427368164,-0.4625402092933655,0.8438210487365723,1.198267936706543,988.1688842773438,1,1.0,2,2
17.2,0.46609056,-5.4917050000000005,9.314117,0.31228730082511896,0.5300725102424622,0.16645447909832,-8.795255661010742,35.707740783691406,-21.9327449798584,-1.0641707181930542,0.7066020965576172,-0.3631553649902344,988.1688842773438,1,1.0,2,2
17.24,-1.8258468999999997,-4.762421,10.46221,0.558896005153656,0.05389972776174545,0.7166631817817688,-7.339890480041504,35.2265625,-21.743932723999023,1.0652409791946411,0.3498029708862305,-1.9381275177001955,988.227294921875,1,1.0,2,2
17.28,-0.9965725000000001,-3.7733602999999993,7.8748565,0.7196180820465088,-0.0024261558428406715,0.4649948477745056,-5.439207553863525,33.95272827148437,-24.73371696472168,0.5378074049949646,-0.16439294815063474,0.5034933090209961,988.1409912109376,1,1.0,2,2
17.32,-0.83169085,-3.62083,7.941136,1.4096426963806152,0.5563045144081116,0.4491491317749024,-5.1762895584106445,33.146499633789055,-26.57468223571777,-0.1029987335205078,-0.13306093215942386,1.3510961532592771,988.1154174804688,1,1.0,2,2
17.36,-0.8699509,-3.4825992999999995,9.678659,0.8138943314552307,0.2821322977542877,0.2592659890651703,-4.503715991973877,32.19641876220703,-27.3925724029541,-0.03297901153564453,0.11398839950561525,-0.039485931396484375,988.0162963867188,1,1.0,2,2
17.4,-0.8867017,-3.5064316,11.515607000000001,0.5923197269439697,-0.4311948418617249,0.1209149956703186,-5.093024730682373,31.6975040435791,-27.65749168395996,0.3452317714691162,0.20374655723571775,-2.2842273712158203,988.0031127929688,1,1.0,2,2
17.44,-0.9679799000000001,-2.7533152000000003,10.793608,0.6626273393630981,-0.7074976563453674,-0.07509341090917587,-6.0082645416259775,31.05180549621582,-28.47947120666504,0.42321252822875977,-0.13293695449829102,-1.5404014587402344,988.0595092773438,1,1.0,2,2
17.48,-0.9703914,-2.8534122,10.885927,0.6331996321678162,0.03539053723216057,-0.132084921002388,-5.827035903930664,28.95713996887207,-29.693559646606445,0.4751541018486023,0.14712238311767578,-1.4868097305297852,988.0670776367188,1,1.0,2,2
17.52,-0.9393442,-2.2838082,11.241007000000002,0.7984488606452942,0.12127737700939177,-0.1504606306552887,-6.6214280128479,29.3204288482666,-31.05510902404785,0.3222314119338989,-0.005412101745605469,-1.531721115112305,988.023193359375,1,1.0,2,2
17.56,-1.0013286,-2.0764666000000003,11.799679,0.926280677318573,0.22434160113334656,-0.04246944561600685,-6.5637617111206055,28.0582218170166,-32.22188949584961,0.18045032024383545,0.09602975845336914,-2.142262458801269,987.997802734375,1,1.0,2,2
17.6,-1.8543599999999998,-2.0550213,11.517998,1.0059088468551636,0.32514217495918274,-0.08055270463228226,-5.8996925354003915,25.20436668395996,-33.92786407470703,0.778677225112915,0.385016679763794,-1.9020118713378904,987.9853515625,1,1.0,2,2
17.64,-2.090968,-2.1336694,11.861239999999999,1.2180267572402954,0.3385915756225586,-0.203192338347435,-5.97075080871582,23.505937576293945,-35.665157318115234,1.256460428237915,1.3277883529663086,-2.0913448333740234,988.0086669921876,1,1.0,2,2
17.68,-1.7492193999999999,-0.7489843,11.278908,1.3714247941970823,0.2159531116485596,-0.13940967619419098,-6.330923080444336,21.5362491607666,-36.495201110839844,0.6432620286941528,0.4734703004360199,-1.656167984008789,987.9799194335938,1,1.0,2,2
17.72,-2.5211653999999997,-0.80379945,10.713146,1.5470601320266724,0.2885241508483887,-0.08095330744981766,-5.912510871887207,18.71623420715332,-38.93514633178711,1.178746461868286,0.9815484285354614,-1.1354131698608398,987.951904296875,1,1.0,2,2
17.76,-2.2606737999999997,0.0017488003,9.257317,1.5055149793624878,0.3488447070121765,-0.2635128200054169,-5.600353240966797,16.796894073486328,-40.25666046142578,1.0238932371139526,0.9351013898849488,-0.0022144317626953125,987.9061889648438,1,1.0,2,2
17.8,-1.8711271,0.8644957,8.016900999999999,1.315898060798645,0.37307941913604736,-0.17909063398838046,-5.822423458099365,14.271846771240234,-41.306434631347656,0.628705620765686,0.2532445788383484,1.2854290008544922,987.8832397460938,1,1.0,2,2
17.84,-1.3764251,0.19002815,8.187339,0.7832664251327515,0.06907986104488373,-0.3649791181087494,-6.5348052978515625,12.60453987121582,-42.1768798828125,0.0950303077697754,0.5360711216926575,2.443212985992432,987.8756713867188,1,1.0,2,2
17.88,-1.2449881999999999,-0.31046015,12.441202,-0.040448542684316635,-0.4258682131767273,-0.7779017686843872,-6.979764461517334,12.082380294799805,-41.84680938720703,0.17231160402297974,1.0494354963302612,-2.3055543899536133,987.8018188476562,1,1.0,2,2
17.92,-1.2641151000000002,-0.37480843,10.630291,-0.03179321438074112,-1.0759452581405642,-0.7945465445518494,-9.658151626586914,12.103139877319336,-41.820213317871094,0.7436714768409729,1.8508827686309812,-1.9823055267333984,987.9517822265624,1,1.0,2,2
17.96,-1.2689024,0.90262896,9.522439,1.378083109855652,-0.6582288146018982,-0.4818917214870453,-11.280505180358887,9.952482223510742,-42.52215576171875,0.7080085873603821,1.210443377494812,0.6214866638183594,987.9537963867188,1,1.0,2,2
18.0,-0.9725621999999999,1.7963586,11.125034,1.0840704441070557,-0.2674103379249573,-0.24966417253017426,-11.825983047485352,8.072193145751951,-42.559024810791016,0.28900450468063354,0.1842390298843384,-1.2305498123168943,987.9133911132812,1,1.0,2,2
18.04,-1.3669037,0.8335142,10.358061,0.32760027050971985,0.3869277834892273,-0.1645762175321579,-11.305368423461914,7.1379947662353525,-43.58538055419922,0.1772315502166748,1.1938204765319824,-1.3567390441894531,987.9487915039062,1,1.0,2,2
18.08,-2.7554445,0.68098456,8.996917999999999,0.7897916436195374,0.7894642949104309,-0.3946731686592102,-10.477790832519533,6.174976348876952,-44.34941864013672,1.123014211654663,2.038270711898804,0.9266462326049804,987.9359741210938,1,1.0,2,2
18.12,-2.3682876,1.3292365,10.895414,0.6904557943344116,0.8579074144363403,-0.20851829648017886,-9.147021293640137,4.523931503295898,-44.68882751464844,1.1660544872283936,1.3053148984909058,-2.0858774185180664,987.8622436523438,1,1.0,2,2
18.16,-2.4089236,1.3316199,8.79097,0.7060353755950928,0.5389941334724426,0.4000134766101837,-7.985222339630128,3.452692031860352,-45.8829574584961,0.4207286834716797,2.0478801727294917,0.04685878753662109,987.9664306640624,1,1.0,2,2
18.2,-2.4901881,2.3063812,9.534271,1.367564082145691,0.5465840697288513,0.7937616109848022,-7.1077022552490225,1.5344934463500977,-44.90514373779297,1.0909764766693115,1.5190105438232422,-0.2896442413330078,987.9407348632812,1,1.0,2,2
18.24,-1.6035421,2.6066747,8.452458,1.127613544464111,0.4909241199493408,1.100956916809082,-5.770707130432129,-0.004743576049804688,-46.25284957885742,-0.3246110677719116,1.7436261177062988,-0.22385692596435547,987.9051513671876,1,1.0,2,2
18.28,-2.0098328999999997,3.4217557999999997,7.578961,0.7810035943984985,1.2508565187454224,1.3683379888534546,-4.113027572631837,-1.139240264892578,-46.21095275878906,-0.11654210090637207,1.283379077911377,0.7583160400390625,987.8873901367188,1,1.0,2,2
18.32,-2.2034225,4.110523000000001,7.3138337,0.9149605631828308,1.347529053688049,1.4575539827346802,-1.6519851684570312,-3.154404640197754,-46.39529418945313,-0.07607555389404297,0.995102882385254,0.6901140213012695,987.8212890625,1,1.0,2,2
18.36,-1.9046923999999998,4.4680157,6.972956,1.176083207130432,1.169230818748474,1.4234654903411863,0.4229059219360352,-6.0579514503479,-46.46814727783203,-0.1890723705291748,1.1539773941040041,0.9151973724365234,987.8109741210938,1,1.0,2,2
18.4,-1.4769077,4.599096,7.09605,1.367963790893555,0.9543136954307556,1.486981987953186,1.845306396484375,-7.360130310058594,-46.303199768066406,-0.6037230491638184,1.6373047828674316,0.05016756057739258,987.8262939453124,1,1.0,2,2
18.44,-0.6595688,5.3927274,6.9729543000000005,1.2103050947189329,0.8595052361488342,1.5395792722702026,2.5253210067749023,-9.621021270751953,-45.7368049621582,-1.0743861198425293,1.333353042602539,0.1348729133605957,987.8492431640624,1,1.0,2,2
18.48,-0.31304058,5.909899,6.459271,1.115097165107727,0.9196925759315492,1.6622178554534912,3.729293823242188,-12.1810302734375,-45.92650604248047,-1.558794617652893,1.2451462745666504,-0.2450690269470215,987.8516845703124,1,1.0,2,2
18.52,-0.10034692,6.386555,5.3537865,1.1471883058547974,1.0794820785522459,1.5463705062866209,4.420665740966797,-14.27367877960205,-44.67884063720703,-1.4766998291015625,1.1500387191772459,0.8137445449829102,987.8740234375,1,1.0,2,2
18.56,-0.31066588,6.813162299999999,5.6804595,1.1471883058547974,1.0794820785522459,1.5463705062866209,5.385091781616211,-16.373655319213867,-44.08870697021485,-1.69337797164917,0.7353301048278809,0.4490070343017578,987.8740234375,1,1.0,2,2
18.6,-0.37281096,6.9204097,5.9905624,0.8695541024208069,1.4423375129699707,1.438645601272583,7.422508239746094,-18.47005844116211,-43.20221710205078,-0.9137682914733888,1.1825852394104004,-0.2045807838439941,987.8235473632812,1,1.0,2,2
18.64,0.23421651,8.247895,5.9029755999999995,0.5160198211669922,1.3752259016036987,1.2377104759216309,8.915369033813477,-19.338085174560547,-42.14971160888672,-2.0746407508850098,-0.17245006561279294,-0.4237003326416016,987.8305053710938,1,1.0,2,2
18.68,-0.2605008,8.2717285,5.973991000000001,0.5060331225395203,1.4318181276321411,1.1401057243347168,11.949329376220705,-22.9773063659668,-41.17254638671875,-1.1877092123031616,-0.12703514099121094,-0.7457442283630371,987.8355102539062,1,1.0,2,2
18.72,0.32262766,9.415702,5.692293,0.5415863990783691,1.3248921632766724,0.8570120930671692,13.026611328125,-23.18114852905273,-39.70995330810547,-1.9750070571899412,-0.811248779296875,-0.8104147911071777,987.8511352539062,1,1.0,2,2
18.76,-0.38718084,9.699311999999999,5.100492,0.4924511313438416,1.3501921892166138,0.7958926558494568,13.659475326538086,-24.27544021606445,-37.81883239746094,-1.4333144426345823,-1.323826789855957,-0.3098735809326172,987.8684692382812,1,1.0,2,2
18.8,-0.690706,10.10447,5.202281,0.2474406063556671,1.3639074563980105,0.4430240094661713,15.546783447265625,-24.510093688964844,-37.86497497558594,-1.154589056968689,-1.4300613403320312,-0.5576095581054688,987.8556518554688,1,1.0,2,2
