Timestamp,Ax,Ay,Az,Gx,Gy,Gz,Mx,My,Mz,LiAx,LiAy,LiAz,P,Value,Type,GroupType,Activities
0.0,0.08751765,-0.15611982,9.755836500000001,-0.0006593373254872859,0.0017380244098603725,-0.000277864484814927,4.707545757293701,19.931419372558594,-13.234067916870115,-0.005859032273292542,-0.0014889240264892578,0.06984615325927734,990.6300659179688,0,13.0,1,1
0.04,0.0779466,-0.16565272,9.746367,0.0012178515316918492,0.001862838282249868,-2.6377616450190544e-05,1.3593535423278809,16.321895599365234,-12.275960922241213,-0.004757940769195557,-0.005766332149505615,0.06429290771484375,990.5448608398438,0,13.0,1,1
0.08,0.082714975,-0.15373603,9.751101,-0.00011350764543749392,-0.0006671983283013105,-2.628326183184981e-05,1.2118220329284668,16.236282348632812,-12.017263412475586,-0.009236022830009459,-0.010492265224456787,0.05008983612060547,990.5525512695312,0,13.0,1,1
0.12,0.07314399,-0.15373573,9.741631,-0.00011350764543749392,-0.0006671983283013105,-2.628326183184981e-05,1.2118220329284668,16.236282348632812,-12.017263412475586,0.0003568679094314575,-0.010170981287956238,0.07850170135498047,990.5525512695312,0,13.0,1,1
0.16,0.07074264,-0.15611875,9.751097999999999,0.0013513397425413134,0.0003980473557021469,-0.00015939399600028992,1.3830246925354004,16.607837677001953,-12.912210464477539,0.0003026202321052551,-0.01474481821060181,0.05483531951904297,990.56298828125,0,13.0,1,1
0.2,0.08268076,-0.16565159,9.767667,0.00041934425826184446,-0.0005340761272236705,0.00024012700305320323,1.421501874923706,16.590763092041016,-12.224283218383787,-0.009406611323356628,-0.009669184684753418,0.04063987731933594,990.5400390625,0,13.0,1,1
0.24,0.08266935,-0.16803458,9.767667,-0.0003794933727476746,0.00039801164530217653,-0.00015929969958961007,1.4598193168640137,16.047462463378903,-12.660303115844727,-0.009087786078453064,-0.0005291253328323363,0.05483531951904297,990.5830078125,0,13.0,1,1
0.28,0.07787812,-0.15373465,9.753463,-0.0007788572693243622,-0.0005341118667274714,0.00024022127036005253,1.1376354694366455,16.061553955078125,-12.149576187133787,0.010081760585308077,-0.010093867778778076,0.04536724090576172,990.568115234375,0,13.0,1,1
0.32,0.07786667,-0.15611756,9.748727,0.00028651647153310483,-1.4979013940319419e-06,-2.60474334936589e-05,0.9254846572875975,16.548099517822266,-12.761224746704102,0.005392409861087799,-0.009968310594558716,0.05483818054199219,990.5604858398438,0,13.0,1,1
0.36,0.0802452,-0.16326717,9.760562,0.00041978430817835033,0.00013164219853933898,0.0003734735364560038,0.9593968391418456,16.526603698730472,-11.841386795043945,-0.008824035525321959,-0.000456005334854126,0.05483818054199219,990.5529174804688,0,13.0,1,1
0.4,0.08740345,-0.16565022,9.755825999999999,2.4307533749379214e-05,-0.00046086707152426243,-0.00011828294373117387,1.108450412750244,16.613689422607422,-12.177385330200195,-0.008920133113861084,-0.005132824182510376,0.02643394470214844,990.5375366210938,0,13.0,1,1
0.44,0.09217185,-0.15135017,9.767661,-0.00024189821851905435,0.0006043785833753644,-0.000784025527536869,1.4061222076416016,16.049808502197266,-12.57518196105957,-0.01791873574256897,-0.024083182215690613,0.05010509490966797,990.5479125976562,0,13.0,1,1
0.48,0.09455034,-0.16088304,9.755824,-0.00024189821851905435,0.0006043785833753644,-0.000784025527536869,1.5140595436096191,15.676822662353516,-12.646974563598633,-0.013127669692039491,-0.00012226402759552002,0.05957698822021485,990.5479125976562,0,13.0,1,1
0.52,0.08019948,-0.16088274,9.746354,2.4527675122953948e-05,-0.0013930083950981498,-0.001050294260494411,1.1226911544799805,16.258655548095707,-12.774682998657227,0.0062342435121536255,0.004398539662361145,0.05483818054199219,990.5582275390624,0,13.0,1,1
0.56,0.07779819,-0.15849918,9.762922999999999,-0.0002416783099761233,0.00047118490329012275,-0.0006507730577141048,0.9535841941833496,16.7325439453125,-12.930318832397461,-0.003133460879325867,-0.01457943022251129,0.04063606262207031,990.5631103515624,0,13.0,1,1
0.6,0.08017665,-0.1608822,9.767657,0.0004242216236889362,-0.0007272543734870851,0.00041453749872744083,1.1040220260620115,16.715187072753903,-12.644548416137695,-0.012567773461341858,-0.014795318245887756,0.04536724090576172,990.5302734375,0,13.0,1,1
0.64,0.073456794,-0.15850999999999998,9.76533,-0.0001083002280211076,-6.14825839875266e-05,-0.00011804714449681343,1.412071704864502,15.949787139892578,-12.185327529907227,0.0013624951243400574,-0.005199655890464783,0.040637969970703125,990.5579223632812,0,13.0,1,1
0.68,0.08349379999999999,-0.15852168,9.755906,-0.0014397695194929838,-0.0003278163494542241,-0.0005174737889319658,1.2460088729858398,16.426618576049805,-12.495576858520508,0.005259200930595398,-0.004974126815795898,0.06422710418701172,990.5402221679688,0,13.0,1,1
0.72,0.078739345,-0.16090557,9.755908,0.00015119166346266866,0.00020482271793298423,0.0001435026642866433,1.6337904930114746,16.210128784179688,-12.311708450317385,0.010012388229370115,-0.01459309458732605,0.05475521087646485,990.5631103515624,0,13.0,1,1
0.76,0.07876477,-0.17520586,9.760645,0.00015119166346266866,0.00020482271793298423,0.0001435026642866433,1.6337904930114746,16.210128784179688,-12.311708450317385,-0.008834205567836761,0.00914815068244934,0.04054546356201172,990.5631103515624,0,13.0,1,1
0.8,0.093129545,-0.1680567,9.763015,0.00028386065969243646,-0.0008603614987805487,0.0008090827614068985,1.520988702774048,15.946561813354492,-12.43287467956543,-0.02783637493848801,0.004398182034492493,0.03580760955810547,990.5635375976562,0,13.0,1,1
0.84,0.090765,-0.165674,9.758283,-0.0003821740974672138,7.178384839789942e-05,0.00014318813919089737,1.5460443496704102,16.128059387207028,-12.447355270385742,-0.017997466027736664,-0.005168646574020386,0.059474945068359375,990.5811157226562,0,13.0,1,1
0.88,0.07884091,-0.17520776,9.755918,-0.00011610244837356731,7.182356057455763e-05,-0.00038954845513217146,1.3373422622680664,16.14334487915039,-12.41609001159668,0.010466597974300385,0.013849198818206787,0.050004005432128906,990.5331420898438,0,13.0,1,1
0.92,0.08125615,-0.15852538,9.755919,1.681067078607157e-05,0.0003381791757419705,-0.000522811315022409,1.2760357856750488,16.138328552246097,-11.94444465637207,-0.0039807409048080436,0.009046673774719238,0.050002098083496094,990.5709838867188,0,13.0,1,1
0.96,0.07411188,-0.15137622,9.758289,0.00028288195608183736,-6.125499930931255e-05,0.00014287370140664282,1.3087010383605957,16.327190399169922,-12.345449447631836,0.005469851195812225,-0.009814247488975523,0.05947303771972656,990.5585327148438,0,13.0,1,1
1.0,0.08847666,-0.16567647,9.770127,0.0002826376003213227,0.00047141651157289743,0.00027592683909460897,1.635993480682373,15.949230194091795,-12.989641189575195,-0.018539920449256897,-1.195073127746582e-05,0.03106975555419922,990.5731811523438,0,13.0,1,1
1.04,0.08372220400000001,-0.16091058,9.760661,0.0002823926624841988,0.0004714562674053013,0.00014266397920437154,0.9836108684539796,16.444252014160153,-12.379186630249025,-0.004226401448249817,-0.01896706223487854,0.04527187347412109,990.5635375976562,0,13.0,1,1
1.08,0.08135772,-0.15614459,9.767764999999999,0.0006816221284680067,0.0003383379662409425,9.40129393711686e-06,1.5724840164184568,16.20511245727539,-11.840066909790039,-0.004299968481063843,-0.01873029768466949,0.05000782012939453,990.5330810546876,0,13.0,1,1
1.12,0.07899314,-0.16329512,9.774869,0.00028190360171720386,-0.00032741198083385825,0.0005419282242655754,1.4160947799682615,16.32249641418457,-12.515687942504885,0.004837647080421448,-0.013866394758224487,0.02633953094482422,990.5559692382812,0,13.0,1,1
1.16,0.09335795,-0.15376255,9.753566000000001,1.53430228237994e-05,0.001004207064397633,0.00027550742379389703,1.2490527629852295,16.4295654296875,-12.650186538696287,-0.018985487520694733,-0.014172703027725218,0.03579902648925781,990.5608520507812,0,13.0,1,1
1.2,0.08621365,-0.15852979,9.755937,-0.0006506909267045557,0.0004716150579042732,0.0012075082631781695,1.4643850326538086,16.051881790161133,-12.892221450805664,-0.019212841987609863,0.0005213171243667604,0.05000782012939453,990.5761108398438,0,13.0,1,1
1.24,0.09579858,-0.16568023,9.7535715,0.0009469591896049677,7.218101382022725e-05,0.0005416135536506771,1.6416449546813965,15.217071533203125,-13.024656295776367,-0.02435171604156494,0.0007684379816055298,0.06895065307617188,990.5512084960938,0,13.0,1,1
1.28,0.081484616,-0.15614775,9.767777,0.00014776707394048572,0.0008711683913134037,0.0008078247192315757,1.1913328170776367,16.0592041015625,-12.234697341918945,0.004249729216098785,-0.00393366813659668,0.035808563232421875,990.5479125976562,0,13.0,1,1
1.32,0.09345946,-0.16568145,9.760677000000001,0.0004138383665122092,7.226036541396752e-05,0.0004082460945937783,1.181497573852539,15.892436981201172,-12.993265151977539,-0.010022588074207306,0.010215774178504944,0.04053783416748047,990.5585327148438,0,13.0,1,1
1.36,0.08392522,-0.156149,9.758312,1.4119963452685626e-05,0.00127072143368423,0.0004081412043888122,1.0584781169891355,16.356609344482422,-12.847505569458008,-0.014584206044673918,-0.013817936182022095,0.05473423004150391,990.566162109375,0,13.0,1,1
1.4,0.08395064,-0.15376629999999997,9.774885000000001,-0.0005187562783248723,-0.0013923976803198455,8.562637958675623e-06,1.0472807884216309,16.714588165283207,-12.404817581176758,-0.009614743292331696,-0.008745938539505005,0.031063079833984375,990.5484008789062,0,13.0,1,1
1.44,0.08636588,-0.16568336,9.751216000000001,-0.0003858430427499116,-0.0005934101645834744,0.00027477359981276095,1.6555037498474119,15.756546020507812,-12.596452713012695,-0.009572669863700868,-0.0042452216148376465,0.06419563293457031,990.5684204101562,0,13.0,1,1
1.48,0.08878118,-0.15615085,9.755952,0.00014629965880885718,0.0007382485782727599,0.00014140608254820108,1.2083725929260254,16.707542419433597,-12.660181045532227,-0.0194314643740654,-0.009001731872558594,0.059460639953613274,990.57861328125,0,13.0,1,1
1.52,0.081636846,-0.16330132,9.767791,0.00014629965880885718,0.0007382485782727599,0.00014140608254820108,1.2083725929260254,16.707542419433597,-12.660181045532227,0.004378579556941986,0.00029315054416656494,0.05472087860107422,990.57861328125,0,13.0,1,1
1.56,0.07927233,-0.1561521,9.758325,-0.0007860507466830312,0.00033881451236084104,-0.0001250147761311382,1.7523822784423828,15.847454071044922,-12.924638748168945,0.004298321902751923,-0.004871353507041931,0.04524421691894531,990.5512084960938,0,13.0,1,1
1.6,0.08407754,-0.15853602,9.760694,-0.0010526110418140886,-6.06196335866116e-05,0.0004075122706126421,1.5056076049804688,15.40561294555664,-12.783773422241213,-0.014480210840702057,9.85264778137207e-05,0.04050731658935547,990.5585327148438,0,13.0,1,1
1.64,0.08419865,-0.16092220000000002,9.751236,-0.00012075009726686403,-0.0005932116182520987,-0.0007910141721367836,1.6108007431030271,15.661815643310547,-12.276086807250975,-0.005528330802917481,-0.00952322781085968,0.06417083740234375,990.5684204101562,0,13.0,1,1
1.68,0.091397464,-0.15377313,9.753606,-0.00011886884021805601,0.0015353095950558784,0.0004054140881635249,1.520988702774048,15.946561813354492,-12.432878494262695,-0.01507321000099182,-0.009337738156318665,0.05470085144042969,990.5457763671876,0,13.0,1,1
1.72,0.08903676,-0.17522344,9.770178999999999,-0.00025281246053054934,0.0008696475415490568,0.0006713932962156832,1.2866888046264648,16.14864158630371,-12.485578536987305,-0.015623100101947784,0.009531632065773009,0.040495872497558594,990.57373046875,0,13.0,1,1
1.76,0.08906594,-0.15854117,9.760713,-0.00038625154411420237,-0.00032872828887775535,-0.0001276748371310532,1.261335849761963,15.335004806518555,-12.895967483520508,-0.005671665072441101,-0.014363855123519897,0.049957275390625,990.57080078125,0,13.0,1,1
1.8,0.08670521,-0.16569170000000003,9.7559805,-0.00038625154411420237,-0.00032872828887775535,-0.0001276748371310532,1.261335849761963,15.335004806518555,-12.895967483520508,-0.015000797808170319,-0.004894539713859558,0.049953460693359375,990.57080078125,0,13.0,1,1
1.84,0.0819546,-0.15139276,9.753616000000001,-0.00038625154411420237,-0.00032872828887775535,-0.0001276748371310532,1.0999994277954102,16.342475891113278,-12.314184188842773,-0.0008583143353462219,-0.01466403901576996,0.06415081024169922,990.57080078125,0,13.0,1,1
1.88,0.08437365,-0.15854332,9.753619,-0.0009191645658574998,-6.23667729087174e-05,-0.000260953267570585,1.6907758712768557,15.210304260253904,-12.877862930297852,-0.005844622850418091,-0.009716004133224487,0.049948692321777344,990.5634155273438,0,13.0,1,1
1.92,0.07962304,-0.16569385,9.760724,0.0002789755235426128,-6.232110899873078e-05,-0.0001279159332625568,1.7750742435455322,15.763631820678713,-13.385133743286133,0.008538857102394104,0.0047548264265060425,0.04047966003417969,990.57861328125,0,13.0,1,1
1.96,0.09399164,-0.16092801,9.763093,0.0007092762971296906,0.00036370352609083056,7.036831812001765e-05,1.554196834564209,15.767135620117188,-12.735429763793945,-0.029526628553867337,-3.685057163238525e-05,0.05467891693115234,990.5509033203124,0,13.0,1,1
2.0,0.08446121,-0.16807857,9.763096,-8.99524602573365e-05,-0.0005683563649654387,-6.291011231951416e-05,1.030379056930542,16.172164916992188,-12.678407669067385,-0.014771871268749237,-0.009448781609535216,0.035737037658691406,990.5555419921876,0,13.0,1,1
2.04,0.089270115,-0.15139629999999998,9.753630000000001,0.00030923998565413063,-0.0005683107301592827,-0.0004625044530257583,1.4232687950134275,15.591804504394533,-12.628011703491213,-0.014527872204780582,-0.009767025709152222,0.05466461181640625,990.5559692382812,0,13.0,1,1
2.08,0.06779021,-0.15139702,9.770204,-0.00035683086025528615,-0.00016879127360880375,-0.00019630906172096732,1.5035433769226074,15.772430419921875,-12.80491828918457,0.02355702221393585,-0.01922738552093506,0.03572654724121094,990.5433349609376,0,13.0,1,1
2.12,0.08932853,-0.16331413,9.756002,0.00017523849965073168,9.761590627022088e-05,-0.0011286556255072355,1.3735942840576172,15.966863632202148,-12.873254776000975,-0.01923132687807083,0.004694759845733643,0.06412792205810547,990.53564453125,0,13.0,1,1
2.16,0.089357674,-0.17046470000000002,9.760739,0.00017495735664851964,-0.0005681281327269971,-0.00019667053129523995,1.363919973373413,16.32631492614746,-12.507875442504885,-0.019237428903579712,0.004872545599937439,0.04045772552490234,990.5582275390624,0,13.0,1,1
2.2,0.08938682,-0.16331556,9.763110000000001,0.00030783427064307034,0.00023086511646397406,0.00020268277148716152,1.873198747634888,15.644182205200195,-12.392473220825195,-0.024106115102767944,0.000262334942817688,0.05466079711914063,990.5379638671876,0,13.0,1,1
2.24,0.08463621,-0.16569957,9.765479,-9.192081051878631e-05,0.0008967005996964873,0.00033572016400285065,1.585202693939209,15.84860610961914,-12.360052108764648,-0.0054087936878204354,0.004881963133811951,0.04519081115722656,990.5433349609376,0,13.0,1,1
2.28,0.07510579,-0.15140057,9.756013000000001,0.00030727186822332436,0.0006304302951321006,-0.0001970321172848344,0.9229838848114014,16.176860809326172,-12.50816535949707,-0.0005729719996452332,-0.014097660779953003,0.054656028747558594,990.5506591796876,0,13.0,1,1
2.32,0.072745085,-0.16331771,9.751281,-9.24830965232104e-05,9.784410940483211e-05,-0.00033031043130904436,1.373051404953003,16.335153579711914,-12.971708297729492,0.003957614302635193,-0.0043296217918396,0.05465888977050781,990.5455932617188,0,13.0,1,1
2.36,0.079943955,-0.16093513,9.770222,0.00030670958221890027,-3.526818181853741e-05,0.0002022007538471371,1.0493464469909668,16.347770690917972,-12.383672714233398,-0.0007639080286026001,-0.004185989499092102,0.040454864501953125,990.5757446289062,0,13.0,1,1
2.4,0.09192258,-0.15855256,9.760756,0.0005727441748604177,-0.0001683804439380765,-6.423564627766609e-05,1.1276626586914062,15.788867950439453,-12.209070205688475,-0.01967421174049377,-0.01850704848766327,0.059390068054199226,990.5782470703124,0,13.0,1,1
2.44,0.09195179,-0.15378669,9.756024,-9.33267583604902e-05,-0.00030149274971336126,0.000201959686819464,1.3774800300598145,16.233657836914062,-12.504545211791992,-0.015313521027565002,-0.018404871225357056,0.054656028747558594,990.5529174804688,0,13.0,1,1
2.48,0.08720112,-0.16808710000000002,9.763128,-9.360778494738042e-05,0.001163290347903967,0.00020183922606520357,1.2797603607177734,15.878902435302734,-12.699678421020508,-0.020434454083442688,0.0006982982158660889,0.04992103576660156,990.5580444335938,0,13.0,1,1
2.52,0.08245051,-0.1728544,9.763131,0.0003055848937947303,0.0007638621027581394,0.00046803458826616406,1.8120293617248533,15.74508285522461,-12.619897842407227,-0.006137162446975708,0.005429282784461975,0.03571605682373047,990.5527954101562,0,13.0,1,1
2.56,0.07292008400000001,-0.16808853,9.77497,0.00017214546096511185,0.00023127594613470137,-0.00019787566270679235,1.2100021839141846,15.602672576904295,-12.364831924438475,-0.006115376949310303,0.010202229022979736,0.0262451171875,990.557861328125,0,13.0,1,1
2.6,0.09143728,-0.18237343,9.763079,3.870649379678071e-05,-3.4994256566278636e-05,0.0004677935503423214,1.159646987915039,16.240104675292972,-12.00944709777832,-0.02007897198200226,0.024348780512809757,0.04043960571289063,990.5629272460938,0,13.0,1,1
2.64,0.093187094,-0.15852499,9.765388,-0.0008921745466068387,-0.0007009828113950789,0.00033516038092784584,0.9549682140350342,16.628101348876953,-12.308549880981445,-0.009616263210773468,-0.01870208978652954,0.06422615051269531,990.5452270507812,0,13.0,1,1
2.68,0.083605945,-0.15852439999999998,9.772487,5.046409205533564e-05,0.0012946764472872019,-5.9799174778163426e-05,1.3488378524780271,16.417503356933597,-12.433904647827148,-0.00966179370880127,-0.01889088749885559,0.031085968017578125,990.5604248046876,0,13.0,1,1
2.72,0.09314394,-0.16090718,9.758281,-0.0004819596360903232,-0.0001700946595519781,7.344785262830555e-05,1.1974208354949951,16.065093994140625,-12.543916702270508,-0.019091337919235233,-0.00021339952945709229,0.050018310546875,990.568115234375,0,13.0,1,1
2.76,0.08595267,-0.16567323,9.76538,-0.0008812256855890155,-0.0004364443593658507,-0.00019277888350188727,1.2223381996154783,16.140678405761722,-11.859323501586914,-0.02351067215204239,-0.00951559841632843,0.04055309295654297,990.5604248046876,0,13.0,1,1
2.8,0.09071091,-0.151373,9.763012,-8.206986240111291e-05,-0.00017016215133480728,-0.0008584795286878942,0.9660272598266602,16.164203643798828,-12.052152633666992,-0.013776965439319609,-0.024126708507537842,0.050017356872558594,990.5679931640624,0,13.0,1,1
2.84,0.085909545,-0.15375575,9.755908,-0.00048133576638065284,-0.0001701959117781371,-0.00045891653280705214,1.4491653442382812,16.037151336669922,-12.119165420532227,0.005240336060523987,-0.004807412624359131,0.05475902557373047,990.5451049804688,0,13.0,1,1
2.88,0.08110815,-0.16328833,9.760639999999999,0.00045097785186953837,-3.707170253619552e-05,0.0008727521053515375,1.2064149379730225,15.968017578125,-12.30866813659668,0.0003579780459403992,0.004624471068382263,0.06896305084228516,990.5731811523438,0,13.0,1,1
2.92,0.07391685,-0.16328779,9.758271,5.171206430532038e-05,0.0014276318252086642,-0.0008582121226936579,1.0854604244232178,16.065376281738278,-12.141763687133787,0.014611341059207916,-9.8496675491333e-05,0.03582572937011719,990.5629272460938,0,13.0,1,1
2.96,0.08823472,-0.15137088,9.758269,-0.0003475538396742195,-0.0008360868669115008,0.0006066144560463728,1.176931619644165,15.888015747070312,-12.761350631713867,-0.018410570919513702,-0.01453953981399536,0.05002498626708984,990.5702514648438,0,13.0,1,1
3.0,0.08582324,-0.16090351,9.7559,-0.0007468197727575897,-0.00017033098265528682,-0.0004585600108839572,0.7268638610839844,15.729724884033205,-12.297815322875975,-0.013330116868019104,-0.005199894309043884,0.059490203857421875,990.5702514648438,0,13.0,1,1
3.04,0.07863194,-0.16090295,9.753531,-0.00021397994714789093,-0.0011024703271687029,7.416092557832599e-05,1.3449525833129885,16.15070915222168,-12.802614212036133,0.010487250983715056,-0.0003988444805145264,0.05002498626708984,990.5499877929688,0,13.0,1,1
3.08,0.0905599,-0.16805229,9.7464285,-0.00034672205219976604,0.0004953573807142675,-0.00019197666551917794,1.2053289413452148,16.704595565795902,-12.505571365356445,-0.008560046553611755,0.008990883827209473,0.06896305084228516,990.5371704101562,0,13.0,1,1
3.12,0.088148385,-0.15851858,9.765363,-8.019813685677946e-05,0.0004953236202709377,-0.0005913613131269813,1.224540948867798,15.879776000976562,-12.537252426147461,-0.003676339983940125,-0.010172322392463684,0.031087875366210938,990.5546264648438,0,13.0,1,1
3.16,0.08573693,-0.1585181,9.765361,-8.019813685677946e-05,0.0004953236202709377,-0.0005913613131269813,1.224540948867798,15.879776000976562,-12.537252426147461,-0.01338975876569748,-0.005354762077331543,0.03582477569580078,990.5546264648438,0,13.0,1,1
3.2,0.07854563,-0.17043391,9.767726,-8.019813685677946e-05,0.0004953236202709377,-0.0005913613131269813,1.5391154289245603,15.858322143554688,-12.661455154418945,-0.008693188428878784,0.004423201084136963,0.04530143737792969,990.5546264648438,0,13.0,1,1
3.24,0.09525335,-0.16566688,9.751154,0.0001863256620708853,0.0006284479168243706,-0.0001917984918691218,1.3695712089538574,15.594156265258787,-12.542890548706055,-0.013468675315380095,0.004254579544067383,0.05476856231689453,990.5498046875,0,13.0,1,1
3.28,0.0856722,-0.16328308,9.758253999999999,0.0004530574951786548,-3.740936517715454e-05,0.0007404853822663425,1.3012280464172363,16.425743103027347,-12.657999038696287,-0.01307910680770874,-0.00990945100784302,0.05477142333984375,990.5498046875,0,13.0,1,1
3.32,0.08087081,-0.15851596,9.755884,0.0004530574951786548,-3.740936517715454e-05,0.0007404853822663425,1.3012280464172363,16.425743103027347,-12.657999038696287,-0.003490068018436432,0.004200801253318787,0.04530048370361328,990.5498046875,0,13.0,1,1
3.36,0.09518865,-0.1656653,9.760617,0.00018715756596066058,-0.00017063482664525512,0.0004743477620650083,1.0114111900329592,15.996559143066404,-12.973150253295898,-0.007887937128543855,0.004627123475074768,0.05004119873046875,990.5244140625,0,13.0,1,1
3.4,0.08799735,-0.15613163,9.760615,0.00032052342430688435,-0.0008364582899957894,-0.00045766867697238917,1.0900259017944336,16.069791793823242,-12.373674392700195,-0.008045203983783722,-0.009691119194030762,0.045310020446777344,990.5648193359376,0,13.0,1,1
3.44,0.092755586,-0.16804749,9.739308,-0.0003026137128472328,0.0008693387499079107,-0.0003469756920821965,1.1754086017608645,15.886545181274414,-12.684045791625975,-0.017311908304691315,-0.00029957294464111334,0.05951118469238281,990.561767578125,0,13.0,1,1
3.48,0.08317441,-0.1608971,9.7582445,-0.00016924783994909376,-0.00019595849153120068,0.0005852190079167485,1.5768887996673584,15.68331527709961,-13.195924758911133,-0.0125599205493927,0.009665295481681824,0.059520721435546875,990.5972900390624,0,13.0,1,1
3.52,0.087932646,-0.17042977,9.772445,0.0006299077067524196,-0.00019599216466303915,5.2676419727504247e-05,1.507566213607788,16.145137786865234,-13.135286331176758,-0.012339405715465546,0.009576186537742616,0.04058074951171875,990.5670776367188,0,13.0,1,1
3.56,0.08313125,-0.16327932,9.770076,0.0004969578003510833,-0.00019602598331402987,-0.00034670828608796,1.6024868488311768,15.49652099609375,-13.111959457397461,-0.002284646034240723,0.005060762166976929,0.03585052490234375,990.5718994140624,0,13.0,1,1
3.6,0.08893758,-0.1656878,9.763067999999999,0.00023084985150489962,-0.0008618494030088186,-8.030334720388055e-05,1.4037582874298096,15.78449249267578,-13.021200180053713,-0.012475036084651949,0.0006152838468551637,0.031023025512695312,990.5667724609376,0,13.0,1,1
3.64,0.08895790599999999,-0.16092178,9.758336,0.0006255184998735785,-0.001260543242096901,-0.00021552061662077904,1.6790368556976318,15.936569213867188,-12.533628463745115,-0.003059297800064087,-0.013390123844146729,0.049965858459472656,990.589599609375,0,13.0,1,1
3.68,0.08180845,-0.16330555,9.748869000000001,0.001019884366542101,0.0007376550929620862,-0.0008834993350319564,1.3979692459106443,16.410736083984375,-12.287111282348633,0.0018290281295776367,0.0011346936225891113,0.049965858459472656,990.5848999023438,0,13.0,1,1
3.72,0.08421862,-0.16568929,9.767808,0.0008865309646353127,-0.0007270505884662272,-0.00035095127532258635,1.0339651107788086,15.806821823120115,-12.734575271606445,-0.011970482766628264,-0.0036340206861495967,0.031023025512695312,990.5868530273438,0,13.0,1,1
3.76,0.08662882400000001,-0.17045632,9.758341999999999,-0.00031208584550768137,-0.0011264925124123693,0.0001815966097638011,1.6600694656372068,15.760965347290039,-12.828367233276367,0.0024637803435325627,0.015293672680854797,0.0546875,990.5588989257812,0,13.0,1,1
3.8,0.07947939999999999,-0.16092375,9.770178999999999,-4.5965643948875374e-05,7.196063234005123e-05,4.8354879254475236e-05,1.4967517852783203,15.60860824584961,-13.718095779418945,-0.006929382681846619,0.0012063384056091306,0.035750389099121094,990.5592041015624,0,13.0,1,1
3.84,0.08427948,-0.1680741,9.772548,8.699683530721812e-05,-0.0005937973619438707,-0.00021804479183629155,1.3759582042694092,16.232181549072266,-12.427240371704102,0.007708527147769928,0.0009265691041946412,0.0452117919921875,990.5943603515624,0,13.0,1,1
3.88,0.093859375,-0.16092476,9.758347500000001,-0.0005789882270619272,-0.0005937656969763339,4.818732850253582e-05,0.994126319885254,16.34864616394043,-12.221246719360352,-0.0064410120248794564,-0.01302911341190338,0.04047775268554688,990.589599609375,0,13.0,1,1
3.92,0.08432007,-0.15854195,9.770184500000001,0.000752395484596491,-0.00032741803443059325,-0.0004845283110626042,1.1175823211669922,16.62252426147461,-12.641218185424805,-0.0019537582993507385,0.0012805461883544922,0.04521274566650391,990.56396484375,0,13.0,1,1
3.96,0.07956058,-0.16569227,9.751248,-4.674772208090872e-05,0.000604719331022352,0.0008469673339277506,1.7062942981719968,15.857170104980467,-13.226041793823242,-0.006871394813060761,0.001263558864593506,0.06888484954833984,990.5791015625,0,13.0,1,1
4.0,0.08436066,-0.16569278,9.751251,-4.694318340625614e-05,0.0007379089365713298,0.0003142517525702715,1.5316429138183594,15.956872940063475,-12.974008560180664,-0.017156608402729034,-0.007998421788215637,0.04995441436767578,990.5462036132812,0,13.0,1,1
4.04,0.09155062,-0.15139362,9.763089,0.0006186510436236857,0.0012705723056569695,-8.530577179044485e-05,1.7961063385009766,15.572420120239258,-13.069250106811525,-0.007414214313030244,-0.017546579241752625,0.0546865463256836,990.5540161132812,0,13.0,1,1
4.08,0.07245171,-0.15616068,9.748887,0.0003521394683048129,-0.0003272910544183105,0.0004472421132959426,1.445716381072998,16.508411407470707,-12.762086868286133,0.002001382410526276,-0.017250701785087585,0.07362651824951172,990.5489501953124,0,13.0,1,1
4.12,0.074861884,-0.16807756,9.748889,0.0003519441233947873,0.00047168834134936327,0.00044715835247188807,1.319896936416626,15.96921157836914,-12.78813362121582,0.001996241509914398,0.006390988826751709,0.05941963195800781,990.5587768554688,0,13.0,1,1
4.16,0.0892216,-0.14901176,9.767828999999999,-0.00044719909783452755,-0.00032722760806791484,0.0004470745334401728,1.607351779937744,16.133075714111328,-12.919000625610352,-0.012243688106536863,-0.012892633676528929,0.035739898681640625,990.5765380859376,0,13.0,1,1
4.2,0.09880149,-0.16331199,9.770197999999999,-0.0008470639586448669,-6.084820779506117e-05,0.0008463807753287256,1.2013053894042969,16.331890106201172,-12.175207138061525,-0.02142826467752457,-0.008303701877593994,0.04046630859375,990.586669921875,0,13.0,1,1
4.24,0.07970253,-0.17046240000000001,9.7702,-0.0008470639586448669,-6.084820779506117e-05,0.0008463807753287256,1.2013053894042969,16.331890106201172,-12.175207138061525,0.007182404398918152,0.015421420335769653,0.04519844055175781,990.586669921875,0,13.0,1,1
4.28,0.077332914,-0.15616319,9.758366,-0.0001814697025110945,-6.0816499171778566e-05,-0.0004852824495173991,1.3022065162658691,16.795509338378903,-12.83375358581543,0.00231759250164032,0.005490213632583618,0.04045677185058594,990.5686645507812,0,13.0,1,1
4.32,0.07974309,-0.1466305,9.758367999999999,-0.00044798117596656084,0.0002055310906143859,-8.589233038946986e-05,1.27921724319458,16.247190475463867,-12.798131942749025,-0.002454869449138641,-0.02764767408370972,0.04045772552490234,990.5487060546876,0,13.0,1,1
4.36,0.09171289,-0.16331396,9.763104,0.0002176130801672116,-6.0752994613721974e-05,-8.597614942118526e-05,1.5045223236083984,16.14219093322754,-12.980672836303713,-0.021511338651180267,-0.008450910449028015,0.05466079711914063,990.5813598632812,0,13.0,1,1
4.4,0.0869534,-0.15139803,9.760739,-4.889826232101768e-05,-0.00046019512228667736,4.709794302470982e-05,1.37609601020813,16.33810043334961,-13.126314163208008,-0.002268195152282715,-0.017708346247673038,0.0499267578125,990.5813598632812,0,13.0,1,1
4.44,0.08697367,-0.15139863,9.756006,0.0004835379077121616,-0.0007264792220667005,-0.00021930172806605697,1.0219273567199707,15.90095329284668,-12.815206527709961,0.007574066519737244,-0.003504887223243713,0.04992103576660156,990.54345703125,0,13.0,1,1
4.48,0.08699393,-0.17284861,9.760741000000001,8.386863919440657e-05,-6.0657795984297984e-05,-8.622754830867052e-05,1.2843263149261477,15.883321762084961,-12.931596755981445,-0.001648247241973877,0.005998596549034119,0.04044818878173828,990.5637817382812,0,13.0,1,1
4.52,0.07745463,-0.16093269,9.758376,-0.0003158007748425007,-0.0005932578351348639,-8.6311309132725e-05,1.3084020614624023,15.69505500793457,-12.770318984985352,-0.00626688450574875,0.001226082444190979,0.040444374084472656,990.54833984375,0,13.0,1,1
4.56,0.08153504,-0.16091555,9.774883,0.00048295140732079744,0.0002057215460808948,0.0007125524571165442,1.175952434539795,15.518253326416016,-12.585596084594727,0.004342369735240936,0.0014119893312454224,0.02164173126220703,990.5460815429688,0,13.0,1,1
4.6,0.08079195,-0.16089734,9.77955,0.00048295140732079744,0.0002057215460808948,0.0007125524571165442,1.175952434539795,15.518253326416016,-12.585596084594727,0.004200980067253114,-0.003144159913063049,0.03585147857666016,990.5460815429688,0,13.0,1,1
4.64,0.08075386,-0.16566297,9.765344,-4.987603460904211e-05,7.25953868823126e-05,-0.0006191107095219195,1.0910053253173828,16.439556121826172,-12.549432754516602,0.009136155247688292,0.006306126713752747,0.05005550384521485,990.5787963867188,0,13.0,1,1
4.68,0.07354608,-0.16327873,9.753503,-0.00017373992886859924,-6.007528281770647e-05,0.0004527585406322032,1.5360708236694336,15.85537338256836,-12.506845474243164,9.722262620925905e-05,-0.003122031688690185,0.059527397155761726,990.5562133789062,0,13.0,1,1
4.72,0.073508024,-0.16089448,9.777172,0.0007604578859172761,-0.00032673077657818794,5.418123328126967e-05,1.3163108825683594,16.334556579589847,-12.731973648071287,-0.0002505406737327576,-0.0076788216829299935,0.02166080474853516,990.575927734375,0,13.0,1,1
4.76,0.08302963,-0.16089356,9.760598,0.0002281928173033521,7.26835132809356e-05,-0.0004782932228408754,1.5566983222961426,16.138370513916016,-12.988489151000975,-0.004408314824104309,-0.017240017652511597,0.05480098724365234,990.5536499023438,0,13.0,1,1
4.8,0.08777133,-0.16804245,9.765328,0.00022855975839775053,-0.0007263236911967398,0.0001876536698546261,1.4147109985351562,16.426939010620114,-13.13746452331543,-0.004011712968349457,0.006629124283790588,0.05006694793701172,990.5408935546876,0,13.0,1,1
4.84,0.09012321,-0.17042479,9.751122,9.61351179284975e-05,7.250487396959215e-05,-0.0008772956789471209,1.421884536743164,15.696252822875975,-13.249784469604492,0.00043179839849472046,0.006637454032897949,0.059542655944824226,990.5633544921876,0,13.0,1,1
4.88,0.07574576,-0.16327405,9.751119000000001,0.000495975895319134,0.000738235074095428,0.0001881252392195165,1.254161357879639,16.065692901611328,-12.783647537231445,0.0050625428557395935,-0.01221415400505066,0.05955410003662109,990.5507202148438,0,13.0,1,1
4.92,0.08765718,-0.170423,9.748747,0.00036318454658612614,0.0003387017059139908,0.0007209141040220858,1.5979208946228027,15.492101669311525,-12.880041122436525,-0.004701010882854462,0.021050617098808292,0.059557914733886726,990.5536499023438,0,13.0,1,1
4.96,0.10195851,-0.15135583,9.777151,-0.0004231685597915202,0.0008693731506355108,-0.0003529377863742411,1.372615098953247,15.597103118896484,-12.69749641418457,-0.03799055516719818,-0.02144753932952881,0.02642345428466797,990.5457763671876,0,13.0,1,1
5.0,0.07324171,-0.16327128,9.765311,0.0009087777580134573,-0.0007285817409865558,-8.646451169624926e-05,1.1337497234344482,15.794761657714846,-12.518289566040039,0.010385289788246157,0.007018208503723145,0.045357704162597656,990.5556640625,0,13.0,1,1
5.04,0.09232283,-0.15850374,9.760572999999999,-0.00042243502684868867,-0.0008617990533821285,4.6850473154336214e-05,1.7379803657531738,15.67626953125,-13.451292037963867,-0.01764620095491409,-0.012363582849502563,0.05008697509765625,990.5607299804688,0,13.0,1,1
5.08,0.08272517,-0.1561195,9.755836,-0.0006883842288516463,-0.0013944902457296848,-8.615030674263835e-05,1.4272913932800293,15.964515686035154,-12.958375930786133,-0.0078573077917099,-0.01704832911491394,0.06429290771484375,990.5606689453124,0,13.0,1,1
5.12,0.077907324,-0.14896873,9.762934,0.0003772464988287538,-0.0004624443827196956,-8.599302964285016e-05,1.281282901763916,15.880373001098633,-12.776983261108398,-0.0030620992183685303,-0.022102832794189453,0.03588390350341797,990.5380859375,0,13.0,1,1
5.16,0.08742887,-0.17041731,9.770032,-0.0010871242266148329,0.0006027595954947174,0.0003136379236821085,1.129322528839111,15.896257400512695,-12.985452651977539,-0.008108809590339659,0.0018357634544372559,0.05483055114746094,990.5430297851562,0,13.0,1,1
5.2,0.08500089999999999,-0.15850008,9.760558999999999,0.0003779795661102981,0.00033638416789472103,0.0007132688770070673,1.266199827194214,15.971561431884766,-12.703012466430664,0.006706349551677704,-0.00782795250415802,0.05009269714355469,990.5580444335938,0,13.0,1,1
5.24,0.08018309,-0.15611586,9.767657,-0.0008200747543014586,-0.0009952548425644636,0.00031395239057019353,1.3820452690124512,16.238075256347653,-12.736459732055664,0.01144617795944214,-0.01261758804321289,0.05009651184082031,990.5582275390624,0,13.0,1,1
5.28,0.08970463,-0.16564801,9.760552,-2.0760497136507183e-05,-0.0005958405672572553,4.779361188411713e-05,1.4390850067138672,16.870811462402347,-12.55131721496582,-0.0023348331451416016,-0.007950171828269958,0.05483055114746094,990.5606689453124,0,13.0,1,1
5.32,0.077717066,-0.16088054,9.770017,0.00011276403529336675,-0.0003295841161161661,0.00018110868404619398,1.6791749000549316,16.042486190795902,-13.232706069946287,0.012461468577384949,0.006352812051773071,0.04536247253417969,990.5631713867188,0,13.0,1,1
5.36,0.07767901,-0.17041269,9.770014999999999,0.00011313120921840891,-0.0008622755995020269,0.0004475819005165249,1.4447374343872068,16.138648986816403,-12.586336135864258,0.007669158279895782,0.011215299367904665,0.04063034057617188,990.555419921875,0,13.0,1,1
5.4,0.08242077,-0.16564515,9.772378,-0.0005522920400835575,-0.0001965452975127846,-0.0006175244343467058,1.3730518817901611,16.335153579711914,-12.971704483032227,0.002989232540130615,0.005778461694717407,0.04062271118164063,990.5580444335938,0,13.0,1,1
5.44,0.07760286,-0.16802749,9.746335,-0.00148403097409755,-0.0007292365771718322,0.0004478961345739663,1.2942988872528076,16.156003952026367,-12.872102737426758,0.012531928718090056,0.010195508599281313,0.0737619400024414,990.5631103515624,0,13.0,1,1
5.48,0.089514375,-0.17040983,9.774738000000001,-0.0009510319796390833,0.0003359673428349197,-0.0008835259941406547,1.6019444465637207,15.864810943603516,-13.210409164428713,-0.011304885149002077,0.00017702579498291016,0.040617942810058594,990.5658569335938,0,13.0,1,1
5.52,0.091866195,-0.16087589,9.758164,-0.00028487565577961504,6.959190068300813e-05,0.00031505266088061035,1.3810667991638184,15.86831283569336,-12.560705184936525,-0.001733139157295227,0.005010440945625304,0.054825782775878906,990.5679321289062,0,13.0,1,1
5.56,0.08257055,-0.15373251,9.760556,-1.819319004425779e-05,0.0004690062487497926,-8.426402928307652e-05,1.360034704208374,16.059524536132812,-12.876588821411133,-0.006329432129859924,-0.023236587643623352,0.0453643798828125,990.5732421875,0,13.0,1,1
5.6,0.08524251,-0.16088924,9.760582000000001,0.0009128420497290789,-0.0007292414666153492,4.843514761887491e-05,1.1792948246002195,16.153335571289062,-12.315336227416992,0.0027528554201126103,0.00539650022983551,0.045310020446777344,990.5758056640624,0,13.0,1,1
5.64,0.08522856,-0.16565543,9.758213,0.00010604195995256303,-0.0007253985968418419,-0.0002175602130591869,1.5485453605651855,16.49929428100586,-12.700414657592773,0.008051842451095581,0.014912381768226625,0.05477619171142578,990.5681762695312,0,13.0,1,1
5.68,0.08760449,-0.17518821,9.75111,-0.00016013957792893052,-0.0007254204829223454,-0.0007501342333853245,1.5787096023559568,16.31692123413086,-12.848360061645508,-0.010912075638771055,0.010140150785446169,0.045307159423828125,990.5579223632812,0,13.0,1,1
5.72,0.078030944,-0.16327152,9.755842999999999,-2.6846824766835198e-05,0.0004729791253339499,0.0005815027398057282,1.1135597229003906,16.24981689453125,-12.310853958129885,0.008001744747161865,-0.0041410475969314575,0.05004405975341797,990.5753784179688,0,13.0,1,1
5.76,0.0875766,-0.16088787,9.765311,-0.00015973584959283468,-0.00045917014358565217,0.0003153021389152855,0.9282302856445312,15.91891098022461,-13.340707778930664,-0.001723848283290863,0.0003329366445541382,0.031105995178222656,990.5452880859376,0,13.0,1,1
5.8,0.08517271,-0.15850422,9.767676,-0.00015973584959283468,-0.00045917014358565217,0.0003153021389152855,0.9282302856445312,15.91891098022461,-13.340707778930664,0.0032548680901527405,-0.009047582745552065,0.040576934814453125,990.5452880859376,0,13.0,1,1
5.84,0.08276886,-0.16088715,9.760572999999999,0.0006393461371771991,7.34398199710995e-05,-0.00021727202693000439,1.287370204925537,15.886268615722654,-13.086206436157227,0.012729667127132416,-0.004166379570960999,0.045314788818359375,990.56298828125,0,13.0,1,1
5.88,0.08036499999999999,-0.16327015,9.770041,-0.000159466580953449,-0.00045921382843516767,-0.0006166880484670402,1.388974666595459,16.507814407348633,-12.522356033325195,-0.006299450993537903,0.005348086357116699,0.04531383514404297,990.5782470703124,0,13.0,1,1
5.92,0.08752078,-0.16565305,9.765305499999998,0.00024014146765694022,0.0008723438368178903,0.0004486330726649612,1.1979634761810305,15.696807861328125,-12.445466995239258,-0.011365644633769987,0.0005889087915420532,0.045319557189941406,990.5855102539062,0,13.0,1,1
5.96,0.08511692,-0.16565272,9.758203,-0.0004255134263075888,0.0008723219507373869,0.0008481645490974188,0.7830615043640137,16.098613739013672,-12.635995864868164,-0.00192917138338089,0.010226503014564514,0.050057411193847656,990.5528564453124,0,13.0,1,1
6.0,0.085102975,-0.16326907,9.767671,-0.0004255134263075888,0.0008723219507373869,0.0008481645490974188,0.7830615043640137,16.098613739013672,-12.635995864868164,0.0026248246431350712,-0.00425378978252411,0.040589332580566406,990.5528564453124,0,13.0,1,1
6.04,0.08030921,-0.15850213,9.758201,0.000373568560462445,-0.00032612140057608485,4.9274589400738484e-05,1.1452453136444092,16.068916320800778,-12.536104202270508,0.007336445152759551,-0.008904978632926941,0.04059314727783203,990.5732421875,0,13.0,1,1
6.08,0.08268514,-0.15373531,9.770035,-0.0005584024474956095,0.0007391202962026,-0.00021698360797017813,1.5240330696105957,15.949508666992188,-12.587484359741213,-0.002223573625087738,-0.0044474154710769645,0.040589332580566406,990.5653686523438,0,13.0,1,1
6.12,0.08984086,-0.15611821,9.772401,0.00010752183152362704,0.00020646674965973943,0.0003157057799398899,1.2616338729858398,15.967140197753904,-12.471094131469727,-0.011932753026485443,-0.00883302092552185,0.031128883361816406,990.5452880859376,0,13.0,1,1
6.16,0.085047096,-0.1513513,9.753463,0.00024081423180177808,0.000206444863579236,0.0005820792866870762,0.6841180324554443,16.374523162841793,-12.328958511352539,-0.002638399600982666,-0.018462523818016045,0.05006885528564453,990.552490234375,0,13.0,1,1
6.2,0.07547355,-0.16088411,9.755828,-0.0009573381976224482,7.324326725210993e-05,0.0005821945960633457,1.2184531688690186,15.873884201049805,-12.228033065795898,0.016531877219676968,-0.009000122547149658,0.0453338623046875,990.57275390625,0,13.0,1,1
6.24,0.08740908,-0.16803363,9.765296000000001,0.00024121796013787392,-0.00019309448543936014,-0.00021669536363333464,1.2628579139709473,15.33647918701172,-12.973272323608398,-0.007720746099948883,-0.008908197283744812,0.04534149169921875,990.5404663085938,0,13.0,1,1
6.28,0.08261534599999999,-0.16803327,9.76056,0.00010819424642249942,0.0011384631507098675,4.967814311385155e-05,1.3965847492218018,16.515178680419922,-12.908884048461914,-0.002671815454959869,-0.004480019211769104,0.0453338623046875,990.5755004882812,0,13.0,1,1
6.32,0.08021146,-0.15373322,9.772395,-2.4828765162965286e-05,-0.00019313814118504524,-0.00048289587721228605,1.670585870742798,15.665359497070312,-12.67042350769043,-0.0028931796550750732,-0.013697832822799684,0.04060649871826172,990.565185546875,0,13.0,1,1
6.36,0.08258742,-0.16088268,9.751088000000001,0.00024162133922800424,0.0006057876744307578,-0.00034968036925420165,1.5416159629821775,16.229557037353516,-12.914522171020508,-0.007284171879291534,0.0008141547441482544,0.05954837799072265,990.552490234375,0,13.0,1,1
6.4,0.08735329,-0.15611586,9.753455,0.000241756031755358,-0.0013916034949943425,0.00018300910596735773,1.5324835777282717,16.220720291137695,-12.450689315795898,-0.016987942159175873,-0.00868496298789978,0.05481624603271485,990.5526123046876,0,13.0,1,1
6.44,0.08494937400000001,-0.15134892,9.781858999999999,-0.00015758333029225469,0.00033942805021069944,0.00018306676065549252,1.0835332870483398,16.538105010986328,-12.861978530883787,-0.002815969288349152,-0.018234550952911373,0.040615081787109375,990.5598754882812,0,13.0,1,1
6.48,0.08015567,-0.16564825,9.753451,9.205643436871469e-05,0.0005429902230389416,-0.0001292471133638173,1.356447696685791,16.42486572265625,-12.820428848266602,0.0017414093017578125,0.000662580132484436,0.06428718566894531,990.567626953125,0,13.0,1,1
6.52,0.0920912,-0.16803119,9.760552,-0.0001741247542668134,0.0009424421587027607,3.9683945942670115e-06,1.8312721252441408,16.13252067565918,-13.72331428527832,-0.02185250818729401,-0.003945395350456239,0.05008602142333984,990.565185546875,0,13.0,1,1
6.56,0.08816138,-0.15613565,9.760631,-0.00017399029457010331,-0.0010549486614763737,0.00013718398986384273,1.6019444465637207,15.864810943603516,-13.210412979125975,0.006120339035987854,-0.004122942686080933,0.05947303771972656,990.5726318359376,0,13.0,1,1
6.6,0.08340189,-0.16090271,9.7606325,-0.0005794975440949203,-0.00012186373351141809,0.00013459823094308376,1.316011667251587,15.702423095703125,-13.15684700012207,-0.003669679164886474,0.0004448145627975464,0.04526710510253906,990.565185546875,0,13.0,1,1
6.64,0.081032276,-0.16566971,9.763001,-0.0003153919533360749,0.000677442760206759,-0.0001326648343820125,1.176931619644165,15.888015747070312,-12.761350631713867,0.0010350346565246582,0.0004488825798034668,0.04999923706054688,990.549560546875,0,13.0,1,1
6.68,0.076272726,-0.15852043,9.758269,0.0003502020554151386,-0.00012147316010668875,-0.0001327487698290497,1.4162328243255615,16.428413391113278,-13.21476936340332,0.0010597482323646543,-0.013994291424751282,0.04526042938232422,990.56005859375,0,13.0,1,1
6.72,0.083462745,-0.16328752,9.767739,-0.0005820989608764647,-0.00012144142237957568,-0.0007986221462488173,1.4819684028625488,16.33193016052246,-13.219255447387695,-0.003440752625465393,-0.009329378604888916,0.035785675048828125,990.555419921875,0,13.0,1,1
6.76,0.078703225,-0.15613815,9.755906,-0.001114926184527576,-0.0005208834772929549,-0.00039923223084770143,1.4231624603271484,16.698150634765625,-13.000665664672852,0.0060240477323532104,-0.014092609286308287,0.06418991088867188,990.5447998046876,0,13.0,1,1
6.8,0.09306294,-0.16805503,9.763009,0.0002164576144423336,0.0001449379196856171,-0.00013300011050887406,2.0744285583496094,15.727447509765625,-12.736288070678713,0.0013219043612480164,-0.0001204758882522583,0.04524517059326172,990.5802612304688,0,13.0,1,1
6.84,0.07635391,-0.16567221,9.758275999999999,-0.00018321190145798028,-0.0003876620612572879,-0.0003993998107034713,1.7403440475463867,15.941587448120115,-13.005277633666992,0.01115546375513077,0.009400784969329834,0.04524040222167969,990.5499877929688,0,13.0,1,1
6.88,0.08832368,-0.16328946,9.763013,0.00021606634254567325,-0.00025447236839681864,-0.00013316774857230484,1.0047810077667236,16.358955383300778,-12.762380599975586,0.01144246757030487,-0.004628583788871765,0.05944252014160156,990.5604858398438,0,13.0,1,1
6.92,0.07400459,-0.15852344,9.758280000000001,0.00021587099763564763,-0.0007870724075473845,-9.362702257931232e-08,1.8704304695129397,15.853069305419922,-13.636014938354492,0.0066048577427864075,-0.00927487015724182,0.04524040222167969,990.5673217773438,0,13.0,1,1
6.96,0.08836427,-0.15852392,9.76775,-5.064057768322528e-05,-0.0006538826855830847,0.00013298049452714622,1.5899062156677246,15.958942413330078,-13.291048049926758,-0.0027355030179023747,-0.013959109783172607,0.04997348785400391,990.5626831054688,0,13.0,1,1
7.0,0.08838457,-0.1704408,9.76065,-5.0836039008572704e-05,-0.00012121921463403852,-0.0006660509388893843,1.273672103881836,15.873008728027346,-12.390459060668945,0.0019339770078659055,0.014363572001457213,0.0547027587890625,990.5372314453124,0,13.0,1,1
7.04,0.08123517,-0.14660847,9.760652,-0.000716821406967938,0.0012103918706998231,-3.450550138950348e-07,1.1754093170166016,15.886545181274414,-12.684045791625975,0.0018895864486694336,-0.019116416573524475,0.04049491882324219,990.5601196289062,0,13.0,1,1
7.08,0.09081504,-0.15852539999999998,9.755919,0.0003480509330984205,-0.0001211239141412079,0.00013264524750411508,1.0052165985107422,17.09701156616211,-13.036584854125975,-0.012103304266929626,7.18235969543457e-06,0.05469417572021485,990.5675659179688,0,13.0,1,1
7.12,0.08605552,-0.1632925,9.767757000000001,0.0003480509330984205,-0.0001211239141412079,0.00013264524750411508,1.0052165985107422,17.09701156616211,-13.036584854125975,-0.01194622367620468,-0.00961551070213318,0.035752296447753906,990.5675659179688,0,13.0,1,1
7.16,0.083685935,-0.16805953,9.770126,-0.0007174080237746239,-0.0007868819520808756,-0.00013375442358665168,1.6012630462646484,16.127185821533207,-12.609781265258787,-0.007136054337024689,3.841519355773926e-05,0.05468940734863281,990.570068359375,0,13.0,1,1
7.2,0.078926384,-0.15614360000000002,9.781964,-0.00031812980887480086,1.2097498256480321e-05,-0.0002669961249921471,1.5557188987731934,15.76860809326172,-12.81273078918457,0.011480383574962616,0.004649445414543153,0.02628326416015625,990.5775756835938,0,13.0,1,1
7.24,0.083726525,-0.16329393,9.758294,0.0004806222568731755,0.0017431824235245585,0.0006650255527347326,1.7186307907104492,16.395172119140625,-12.72053337097168,-0.0035561844706535344,-0.004720702767372131,0.03575706481933594,990.5703735351562,0,13.0,1,1
7.28,0.07657710000000001,-0.15376133,9.76303,8.095274097286165e-05,0.0013437402667477727,-0.00013400588068179786,0.7144200801849365,16.298065185546875,-13.175981521606445,0.00638239085674286,-0.014328956604003906,0.04521846771240234,990.5902709960938,0,13.0,1,1
7.32,0.08376706,-0.15614513,9.760665,8.095274097286165e-05,0.0013437402667477727,-0.00013400588068179786,0.7144200801849365,16.298065185546875,-13.175981521606445,-0.007865853607654572,-0.014142155647277832,0.05942440032958984,990.5902709960938,0,13.0,1,1
7.36,0.090957105,-0.16567874,9.763034,-0.00018555860151536765,-0.0013193867634981868,0.00039854209171608085,0.9170334339141846,16.276885986328125,-12.898027420043945,-0.0030673667788505554,0.005108669400215149,0.05469036102294922,990.5724487304688,0,13.0,1,1
7.4,0.07663798,-0.14899626,9.758302,0.0007463514339178801,-0.0006535652210004628,-0.00026733140111900866,1.0684504508972168,16.629295349121097,-12.788007736206055,0.0020377039909362797,-0.01836544275283813,0.045223236083984375,990.5724487304688,0,13.0,1,1
7.44,0.081438065,-0.1656797,9.751202000000001,0.0004798400623258203,1.2256172340130432e-05,0.0001320585724897683,1.5877034664154053,16.219844818115234,-12.613115310668945,0.0020790249109268193,0.0006576180458068848,0.040485382080078125,990.5928344726562,0,13.0,1,1
7.48,0.08145833,-0.14899728,9.758306,-5.31829718966037e-05,-0.0007866279338486493,-0.00026758285821415484,1.1272568702697754,16.263072967529293,-13.006593704223633,0.0118226557970047,-0.018147334456443787,0.04048442840576172,990.5927124023438,0,13.0,1,1
7.52,0.08587995,-0.15137175,9.763007,-5.31829718966037e-05,-0.0007866279338486493,-0.00026758285821415484,1.1272568702697754,16.263072967529293,-13.006593704223633,-0.011974774301052094,-0.012984976172447205,0.04522418975830078,990.5927124023438,0,13.0,1,1
7.56,0.07354942,-0.1465958,9.770074000000001,0.0006131185218691826,-0.0007867109961807728,0.00013211023178882894,1.192556858062744,15.428539276123047,-12.736871719360352,0.017486289143562317,-0.008199840784072876,0.050026893615722656,990.5674438476562,0,13.0,1,1
7.6,0.08309889,-0.16089529,9.765338,0.00048624965711496765,0.001209637033753097,0.0001348055666312575,1.32584810256958,15.869186401367188,-12.398271560668945,0.007478460669517517,-0.0031569600105285645,0.04056835174560547,990.5597534179688,0,13.0,1,1
7.64,0.08786851,-0.1680449,9.760603999999999,0.000486347678815946,0.00027751567540690303,0.0002680055040400475,1.3139464855194092,16.069236755371097,-13.177988052368164,-0.006767198443412782,0.001693427562713623,0.04056930541992188,990.5521850585938,0,13.0,1,1
7.68,0.08546847,-0.17042792,9.760602,8.6971529526636e-05,0.0002774998138193041,0.0008006790885701777,1.683602809906006,15.940990447998047,-12.765542984008787,-0.01181461662054062,0.006295233964920044,0.04530525207519531,990.5369873046876,0,13.0,1,1
7.72,0.08784824599999999,-0.15851128,9.760602,-0.0012445098254829645,0.000543799833394587,-0.00026454243925400084,1.194077968597412,15.430011749267578,-12.814176559448242,-0.0069243386387825,-0.00828784704208374,0.05003452301025391,990.53466796875,0,13.0,1,1
7.76,0.08066839,-0.1513612,9.753499,-0.0001791487738955766,-0.0007877955213189125,0.00013497329200617972,1.3950626850128174,16.51370620727539,-12.831575393676758,0.007570229470729828,-0.008275985717773438,0.06423664093017578,990.58740234375,0,13.0,1,1
7.8,0.07826835,-0.1632773,9.765334,0.00022042306954972446,-0.0002551796496845782,-0.0005307744722813368,1.502319574356079,16.403091430664062,-12.302743911743164,-0.0010242387652397156,-0.0029054582118988037,0.05003643035888672,990.539794921875,0,13.0,1,1
7.84,0.07586831,-0.15612718,9.755864,0.001285784412175417,-0.0019862486515194178,-0.0002644167107064277,1.2966618537902832,16.42132568359375,-12.426088333129885,0.008225537836551666,-0.0077134519815444955,0.04530620574951172,990.5521850585938,0,13.0,1,1
7.88,0.078248054,-0.15851024,9.772434,8.746070670895278e-05,0.0006768941530026495,1.941138179972768e-06,1.4324002265930176,15.60064697265625,-13.091840744018555,0.0030033886432647705,-0.00277109444141388,0.03584480285644531,990.5441284179688,0,13.0,1,1
7.92,0.085407615,-0.16565982,9.772433,0.00022071643616072836,0.0006768784369342028,0.00026829889975488186,1.5748238563537598,16.050128936767578,-13.217073440551758,-0.006336942315101624,0.011491879820823671,0.031108856201171875,990.56201171875,0,13.0,1,1
7.96,0.083007574,-0.15850973,9.74876,-4.550153971649706e-05,-0.0005215590354055166,0.0005346568068489431,1.283782958984375,16.251609802246097,-13.030046463012695,-0.006585143506526947,-0.016895174980163574,0.0642557144165039,990.5545654296876,0,13.0,1,1
8.0,0.06626809,-0.16804263,9.751126,0.0002083620784105733,0.0010462262434884906,0.00014172017108649015,1.729828119277954,16.037193298339847,-13.163217544555664,0.017274528741836548,0.02132080495357513,0.0595254898071289,990.5448608398438,0,13.0,1,1
8.04,0.09015694,-0.15612599,9.758225999999999,0.0006079337908886372,-0.0006848428165540099,-0.0002577117411419749,1.580911636352539,16.056022644042972,-13.52629280090332,-0.011188335716724396,-0.0024446994066238408,0.04532241821289063,990.5801391601562,0,13.0,1,1
8.08,0.08058721,-0.16804215,9.751124,0.0002085577725665644,-0.0005517007084563375,0.000408119842177257,1.2732670307159424,16.347217559814453,-13.187990188598633,0.007997043430805206,0.011922910809516908,0.059527397155761726,990.5369873046876,0,13.0,1,1
8.12,0.09013665,-0.14897567,9.7724285,-5.7660203310661025e-05,0.00038038889761082833,0.00014184592873789367,1.422863483428955,16.06601333618164,-13.425539016723633,-0.006149478256702422,-0.01193886995315552,0.03585243225097656,990.5369873046876,0,13.0,1,1
8.16,0.08056691,-0.16089186,9.7534895,-5.756241444032639e-05,-0.0006848904304206371,-0.0007902177749201655,1.122392177581787,15.626520156860352,-13.199548721313475,-0.001168757677078247,-0.011672943830490112,0.06426239013671875,990.557373046875,0,13.0,1,1
8.2,0.08055672,-0.15374169,9.762958,0.0006083250627852976,0.0005135150859132409,-0.000523859984241426,0.7834982872009277,16.836664199829098,-12.91020393371582,0.01773796230554581,-0.002234742045402527,0.04059314727783203,990.5548706054688,0,13.0,1,1
8.24,0.09249616,-0.17042437,9.767691000000001,7.579122029710561e-05,-0.0008180801523849367,0.00027512959786690766,1.3841099739074707,15.871259689331055,-12.715311050415039,-0.01986481994390488,0.0075598061084747314,0.04532814025878906,990.5623168945312,0,13.0,1,1
8.28,0.07814652,-0.16089103,9.755854,0.00020914473861921581,-0.0008181119337677956,0.0008078452083282173,1.2656569480895996,16.339851379394528,-12.801462173461914,0.014099843800067903,0.0077179521322250375,0.05953025817871094,990.5621337890624,0,13.0,1,1
8.32,0.08052632,-0.16565731,9.75822,0.000475558394100517,0.00011397774505894631,-0.00039053434738889337,1.201305866241455,16.33188819885254,-12.175203323364258,0.0043245404958724976,0.00793825089931488,0.04059886932373047,990.5746459960938,0,13.0,1,1
8.36,0.09007576,-0.16327381,9.748750999999999,0.000475558394100517,0.00011397774505894631,-0.00039053434738889337,1.201305866241455,16.33188819885254,-12.175203323364258,0.004219360649585724,0.007955312728881836,0.06427192687988281,990.5746459960938,0,13.0,1,1
8.4,0.082895935,-0.16327357,9.751117,-0.0004563516122289002,-0.0009513174882158637,0.0006748130545020102,1.044917345046997,16.449268341064453,-12.850831985473633,-0.004963427782058716,-0.011404469609260559,0.06426525115966797,990.5670776367188,0,13.0,1,1
8.44,0.08766553,-0.16089007,9.765319,-0.0004563516122289002,-0.0009513174882158637,0.0006748130545020102,1.044917345046997,16.449268341064453,-12.850831985473633,-0.0003859102725982666,0.0026616156101226807,0.035858154296875,990.5670776367188,0,13.0,1,1
8.48,0.087655425,-0.16088983,9.77242,-0.0004561558016575873,0.00024707213742658496,-0.00025720865232869983,1.2309269905090332,16.517803192138672,-12.421602249145508,-0.005101911723613739,0.0072620660066604606,0.03585529327392578,990.5675659179688,0,13.0,1,1
8.52,0.07629904,-0.15375450000000002,9.765372,-0.0004561558016575873,0.00024707213742658496,-0.00025720865232869983,1.2309269905090332,16.517803192138672,-12.421602249145508,0.004122234880924225,-0.011558666825294495,0.04053783416748047,990.5675659179688,0,13.0,1,1
8.56,0.08348268,-0.16328800000000002,9.755904,0.0007365160272456706,0.0003811634960584343,-0.00025967281544581056,1.5186254978179932,15.681241989135742,-12.878889083862305,-0.0008199959993362428,-0.006449192762374878,0.05474662780761719,990.5596313476562,0,13.0,1,1
8.6,0.08110675,-0.160905,9.758272999999999,0.0007365160272456706,0.0003811634960584343,-0.00025967281544581056,1.5186254978179932,15.681241989135742,-12.878889083862305,0.008664831519126892,-0.006442666053771973,0.05001163482666016,990.5596313476562,0,13.0,1,1
8.64,0.06678128,-0.16328862,9.763009,-0.00019572423479985448,0.0003811852948274464,-0.0013249940238893034,1.3625357151031494,16.43075942993164,-13.129648208618164,0.017963051795959473,-0.0019406378269195559,0.05000782012939453,990.5927124023438,0,13.0,1,1
8.68,0.09069428,-0.16090572,9.763011,-0.00019585869449656454,-1.82666553882882e-05,-0.000392946123611182,1.3770742416381836,16.707862854003903,-13.302068710327148,0.0038116797804832463,0.0029666125774383545,0.050006866455078125,990.5673217773438,0,13.0,1,1
8.72,0.081148624,-0.15852278,9.75591,-0.00019585869449656454,-1.82666553882882e-05,-0.000392946123611182,1.3770742416381836,16.707862854003903,-13.302068710327148,0.008512206375598906,-0.006510138511657715,0.06421089172363281,990.5673217773438,0,13.0,1,1
8.76,0.088332295,-0.16567299,9.758279,0.00020348055113572627,-1.8244798411615196e-05,0.00013962801313027742,1.541722536087036,15.123210906982422,-12.541864395141602,0.013463854789733887,-0.0017627477645874023,0.05947303771972656,990.5723876953124,0,13.0,1,1
8.8,0.074006855,-0.1489903,9.760647,-0.00019612773030530659,-0.0002845388080459088,-0.00025990349240601063,1.0644280910491943,16.256584167480472,-12.457647323608398,0.01824298501014709,-0.011632397770881651,0.04052925109863281,990.5597534179688,0,13.0,1,1
8.84,0.08597034,-0.15614054,9.774852000000001,-6.310459866654128e-05,-0.00028451698017306626,0.0004058285849168897,1.2195696830749512,16.349563598632812,-13.102869033813475,-0.005809642374515533,-0.0020213276147842407,0.04526519775390625,990.5670776367188,0,13.0,1,1
8.88,0.08837417,-0.16090742,9.767750999999999,-6.337363447528332e-05,-0.00041763126500882214,-0.00012691854499280453,1.2451677322387695,16.162771224975586,-13.018896102905273,-0.005918070673942566,-0.006471320986747743,0.04526901245117188,990.5623168945312,0,13.0,1,1
8.92,0.09794775,-0.14184156,9.763019,0.0010017554741352797,0.0003813382645603269,0.0006719714147038758,1.4203627109527588,15.694780349731445,-13.172479629516602,-0.01566752791404724,-0.016071751713752747,0.05000114440917969,990.5289306640624,0,13.0,1,1
8.96,0.08840209,-0.14660838,9.760652,-0.0011289063841104507,0.0006476759444922209,-0.0006596656749024987,1.2025299072265625,15.70122528076172,-12.67738151550293,0.003279164433479309,-0.020794808864593502,0.05473804473876953,990.5724487304688,0,13.0,1,1
9.0,0.07407665,-0.15614188,9.767755000000001,0.000468854617793113,0.0002482239797245711,0.0002723822253756225,1.0955710411071775,16.443975448608402,-12.781343460083008,0.01754278689622879,-0.0016147047281265259,0.040535926818847656,990.60009765625,0,13.0,1,1
9.04,0.09320986,-0.16329208,9.765389,6.924588524270803e-05,0.0007808775408193469,0.00013916660100221634,1.5065870285034182,15.775375366210938,-12.959527969360352,-0.011490821838378906,-0.0017672330141067505,0.03579998016357422,990.5674438476562,0,13.0,1,1
9.08,0.0908339,-0.15614259,9.758288,-0.00033036229433491826,0.0006477414863184093,0.0004054248274769634,1.461341142654419,16.048934936523438,-12.737607955932615,0.0026373714208602905,-0.0016772300004959106,0.05473995208740234,990.5673217773438,0,13.0,1,1
9.12,0.086068034,-0.15614295,9.755923,-0.0001973391481442377,0.00038144746213220065,-0.000127264647744596,1.0605430603027344,15.989791870117188,-12.826356887817385,-0.0021843835711479187,-0.0015631765127182007,0.03580284118652344,990.5573120117188,0,13.0,1,1
9.16,0.08847195,-0.1513767,9.760659,0.00020200021390337494,-1.800450263544917e-05,-0.0006599540356546639,1.5672142505645752,16.042766571044922,-12.830549240112305,-0.016501948237419132,-0.01122117042541504,0.04526710510253906,990.5745239257812,0,13.0,1,1
9.2,0.07414645,-0.16806,9.763026,-0.0003307661390863359,-1.798267476260662e-05,-0.0001273798989132047,1.3019089698791504,16.16337013244629,-13.258630752563475,0.012035667896270752,0.002843931317329407,0.04526424407958984,990.5774536132812,0,13.0,1,1
9.24,0.07416043,-0.17521021,9.760661,-0.00019774264364968985,0.00011519710824359208,0.0002720362099353224,1.4297926425933838,16.33575439453125,-13.21143913269043,0.011633530259132384,0.017427697777748108,0.05000495910644531,990.5647583007812,0,13.0,1,1
9.28,0.09090367,-0.14422789,9.760663000000001,0.0006010702927596867,0.0009141666814684867,0.00013882064376957715,1.612460374832153,15.769207000732422,-13.052465438842773,-0.0025582388043403625,-0.01591479778289795,0.04526805877685547,990.56201171875,0,13.0,1,1
9.32,0.09091768,-0.15852788,9.760664,-0.0003311697510071099,-1.79171038325876e-05,-0.000660184770822525,1.362941026687622,15.956554412841795,-12.332120895385742,-0.0027624145150184627,-0.006112322211265564,0.0452728271484375,990.5721435546876,0,13.0,1,1
9.36,0.08376193,-0.16091153,9.760665,0.0007339589647017419,-1.7895261407829818e-05,-0.0005270844558253884,1.2646780014038086,15.970088958740234,-12.625707626342773,-0.007401511073112488,-0.001323997974395752,0.050004005432128906,990.5645141601562,0,13.0,1,1
9.4,0.0909456,-0.1561453,9.763034,-6.512300751637667e-05,-0.0004173472116235644,-0.0007934580789878963,0.9730949401855468,16.53985595703125,-12.537134170532227,-0.017125077545642853,-0.0060869455337524405,0.04053688049316406,990.5594482421876,0,13.0,1,1
9.44,0.08139995,-0.1656788,9.7583,0.000600531988311559,0.0011805698741227386,-0.00026088394224643707,0.9027934074401855,16.631919860839847,-12.300729751586914,0.016629919409751892,0.008105024695396423,0.03106212615966797,990.57470703125,0,13.0,1,1
9.48,0.08366281,-0.15614259,9.765389,-0.0004648658796213566,-0.0008167773485183716,-0.0001277836854569614,1.0559773445129397,15.985374450683596,-12.594442367553713,0.002180822193622589,-0.020409435033798214,0.031063079833984375,990.5543212890624,0,13.0,1,1
9.52,0.08830699,-0.15375593,9.760643,-0.0005284567596390842,0.0004902418586425483,0.00023332462296821177,1.167799472808838,15.879180908203125,-12.297525405883787,-0.0022403225302696232,-0.006072938442230225,0.05949497222900391,990.569580078125,0,13.0,1,1
9.56,0.08352971,-0.15852258,9.753542999999999,6.455258699133993e-06,-0.000442233809735626,-3.201415529474616e-05,1.2641348838806152,16.338376998901367,-12.724157333374025,0.0073857903480529785,-0.006133332848548889,0.05949306488037109,990.5621337890624,0,13.0,1,1
9.6,0.08114231,-0.16805574,9.751175,6.7686487454921016e-06,0.0003566628438420594,0.0005007520085200667,1.4293572902679443,15.597696304321287,-12.937227249145508,0.0071866437792778015,0.008089974522590637,0.04528999328613281,990.5823364257812,0,13.0,1,1
9.64,0.10026410000000001,-0.16805586,9.77248,0.0002730601991061121,-4.280696884961799e-05,0.0006338994717225432,1.4444384574890137,15.506511688232422,-13.011201858520508,-0.02172484248876572,-0.010904103517532349,0.035823822021484375,990.5647583007812,0,13.0,1,1
9.68,0.10265654,-0.16328928,9.765378,-0.0005259366007521749,0.0006229907739907503,0.0007670364575460553,0.9600772857666016,16.264226913452152,-12.442014694213867,-0.007806651294231416,0.012613728642463684,0.05002498626708984,990.5673217773438,0,13.0,1,1
9.72,0.08592975,-0.16090610000000002,9.753542999999999,-0.0005259366007521749,0.0006229907739907503,0.0007670364575460553,0.9600772857666016,16.264226913452152,-12.442014694213867,-0.007934324443340302,-0.0062509775161743155,0.0737009048461914,990.5673217773438,0,13.0,1,1
9.76,0.08354241,-0.15852284,9.748809,0.0002729868574533612,0.0008893104968592526,0.0002343941887374968,1.4595212936401367,15.415325164794922,-13.085176467895508,0.006182432174682617,0.0034175515174865727,0.06423664093017578,990.579345703125,0,13.0,1,1
9.8,0.08593488,-0.17043939,9.763012,0.0009387520840391516,0.00035668277996592224,0.0006338575622066855,1.0349450111389158,16.176582336425778,-12.91032600402832,0.0011716559529304507,0.012994170188903809,0.04056739807128906,990.5670776367188,0,13.0,1,1
9.84,0.07637778,-0.16328952,9.767747,0.0002729377301875502,0.0011556342942640185,0.00010121529339812696,1.230085372924805,16.253957748413086,-12.944925308227539,-0.01308722048997879,-0.015413716435432434,0.05003833770751953,990.5416870117188,0,13.0,1,1
9.88,0.09071976,-0.16567293,9.758279,-0.0001265848695766181,-0.0005754110170528293,-0.00043143739458173513,1.186361312866211,16.52899169921875,-12.800310134887695,-0.012978717684745787,0.0034472793340682983,0.054767608642578125,990.5647583007812,0,13.0,1,1
9.92,0.08594245,-0.16090634,9.758279,-0.0001265848695766181,-0.0005754110170528293,-0.00043143739458173513,1.186361312866211,16.52899169921875,-12.800310134887695,0.006133280694484711,0.0034626424312591553,0.06897163391113281,990.5647583007812,0,13.0,1,1
9.96,0.08833489,-0.16805634,9.763013,-0.000526083167642355,0.0004898565821349621,0.0006338156526908277,1.5362083911895752,15.961292266845705,-13.205926895141602,-0.003258228302001953,-0.0013363659381866455,0.026358604431152344,990.5594482421876,0,13.0,1,1
10.0,0.073998034,-0.16090652,9.758279,-0.000526083167642355,0.0004898565821349621,0.0006338156526908277,1.804694890975952,15.94955062866211,-13.631532669067385,0.0017112046480178833,0.0032730251550674443,0.035823822021484375,990.5594482421876,0,13.0,1,1
10.04,0.08117026,-0.16567317,9.765381,0.000405998231144622,-0.0012411928037181494,-0.00016514240996912122,1.2455730438232422,15.68856430053711,-12.221368789672852,-0.012935683131217957,0.0033336281776428227,0.04056167602539063,990.5466918945312,0,13.0,1,1
10.08,0.08595264,-0.16567323,9.763014,0.00027279116329737013,-4.276335675967857e-05,-0.0008309531258419156,1.4840331077575684,15.965112686157227,-13.19810676574707,0.005868673324584961,0.003541499376296997,0.03583240509033203,990.5670776367188,0,13.0,1,1
10.12,0.08834505,-0.16329000000000002,9.760647,0.00027279116329737013,-4.276335675967857e-05,-0.0008309531258419156,1.4840331077575684,15.965112686157227,-13.19810676574707,0.010571308434009552,-0.0011970102787017822,0.0453033447265625,990.5670776367188,0,13.0,1,1
10.16,0.08595765,-0.15852349999999998,9.760647,-0.0002598896098788828,0.00035671849036589265,0.00010113147436641157,1.4960715770721436,15.870979309082033,-13.117471694946287,0.0008550733327865602,-0.0060370564460754395,0.05003643035888672,990.5848999023438,0,13.0,1,1
10.2,0.07879051599999999,-0.153757,9.763015,-0.0002598896098788828,0.00035671849036589265,0.00010113147436641157,1.4960715770721436,15.870979309082033,-13.117471694946287,0.01039724797010422,-0.0015039145946502686,0.04529857635498047,990.5848999023438,0,13.0,1,1
10.24,0.09074253,-0.16329017,9.751178999999999,0.0001395599974785,9.04065600479953e-05,0.0009000686695799233,1.2656564712524414,16.339851379394528,-12.801462173461914,-0.017991334199905396,-0.0014032870531082153,0.04529762268066406,990.5594482421876,0,13.0,1,1
10.28,0.08596530599999999,-0.16567352,9.746445,0.0002726689272094518,9.041449084179476e-05,-0.000165215868037194,1.2677218914031982,15.973033905029295,-12.780313491821287,-0.008765250444412231,0.0033403187990188603,0.05950260162353516,990.57177734375,0,13.0,1,1
10.32,0.08835775,-0.160907,9.751178999999999,0.0002726689272094518,9.041449084179476e-05,-0.000165215868037194,1.2677218914031982,15.973033905029295,-12.780313491821287,0.0003768056631088257,0.012608826160430908,0.054767608642578125,990.57177734375,0,13.0,1,1
10.36,0.08597037,-0.16090709,9.755914,0.00027262003277428454,0.0012888439232483506,0.0006337108789011836,1.662134885787964,15.394145965576172,-12.807222366333008,-0.004365235567092896,-0.0011905282735824585,0.05004024505615234,990.5492553710938,0,13.0,1,1
10.4,0.07880324,-0.16805699999999998,9.758281,0.0008052273187786341,-0.0009748371085152029,-3.208930138498545e-05,1.1738872528076172,15.885072708129885,-12.606744766235352,0.00492444634437561,-0.0013194680213928225,0.04057216644287109,990.5315551757812,0,13.0,1,1
10.44,0.078805745,-0.16329047,9.767750999999999,6.255257176235317e-06,0.0008893781341612338,-0.0004315736005082727,0.8973860740661621,16.363655090332028,-12.592138290405273,-0.004446618258953095,0.003504842519760132,0.03110218048095703,990.5645751953124,0,13.0,1,1
10.48,0.08545309,-0.15851116,9.758233,-0.00039324312820099294,-0.0001758814905770123,0.00023420556681230664,1.215003490447998,16.345144271850586,-12.870950698852539,0.0015043020248413086,0.0032090693712234497,0.05013084411621094,990.5668334960938,0,13.0,1,1
10.52,0.08967918,-0.15373102,9.758183500000001,8.7045191321522e-06,-0.0004425990046001972,0.0005015815841034055,1.44281005859375,16.611381530761722,-13.306554794311525,-0.022498227655887604,-0.010986194014549257,0.04540252685546875,990.55712890625,0,13.0,1,1
10.56,0.08247012,-0.15372995,9.765281,-0.00011968178296228872,9.086099453270435e-05,-0.00042567681521177286,1.222614288330078,16.352510452270508,-13.257478713989258,-0.003687262535095215,-0.015809744596481327,0.04067230224609375,990.5921020507812,0,13.0,1,1
10.6,0.0704813,-0.16802868,9.760542999999998,-0.00025246068253181875,0.0010229051113128662,-2.604053588584065e-05,1.178889274597168,16.62754249572754,-13.112863540649414,-0.0039684921503067025,0.0030081123113632198,0.03593921661376953,990.5693969726562,0,13.0,1,1
10.64,0.08478141,-0.14657822,9.760539,-0.00011892368638655171,0.0008896855870261787,0.0005067536840215325,1.7081146240234375,16.490779876708984,-12.878473281860352,-0.013764463365077972,-0.011175170540809631,0.04541683197021485,990.5745239257812,0,13.0,1,1
10.68,0.07996231,-0.16087696,9.743965,-0.0006511766114272177,0.0010227820603176954,0.00010744226165115832,1.2150039672851562,16.345144271850586,-12.870950698852539,-0.00451061874628067,-0.0018679499626159668,0.06435775756835938,990.5820922851562,0,13.0,1,1
10.72,0.07992297400000001,-0.160876,9.765266,-0.0002513238869141788,0.000356930831912905,0.00024076260160654786,1.3175339698791504,15.70389175415039,-13.234148025512695,0.00016761571168899536,-0.011388570070266724,0.04069042205810547,990.5770874023438,0,13.0,1,1
10.76,0.07271397,-0.16325834,9.7605295,0.00014852898311801255,0.0004900272469967604,0.00024092503008432692,1.0061640739440918,16.254514694213867,-12.140607833862305,0.004964865744113922,-0.002068430185317993,0.0454254150390625,990.5772094726562,0,13.0,1,1
10.8,0.07506454,-0.17279049999999999,9.748689,-0.0005168817588128151,-0.00017582398140802982,-0.00042470218613743777,1.6580047607421875,16.12778091430664,-12.849512100219727,0.009850561618804932,0.012010976672172545,0.04542350769042969,990.561767578125,0,13.0,1,1
10.84,0.07980502,-0.15372327,9.765255999999999,-0.000782818824518472,0.0004899041960015894,0.0009070395026355983,1.3962860107421875,15.883045196533205,-13.33375358581543,-0.004895910620689392,-0.01672099530696869,0.04069328308105469,990.552001953125,0,13.0,1,1
10.88,0.09649503,-0.15610555,9.762885,-0.0002498079265933484,0.0007561586098745465,0.00010825428762473166,1.258047103881836,16.33248519897461,-12.414937973022461,-0.004735395312309265,-0.01156562566757202,0.04070472717285156,990.5748901367188,0,13.0,1,1
10.92,0.07494658,-0.168021,9.751044,0.0005498974933288991,0.00022340375289786607,0.00024173702695406973,1.397808313369751,15.884515762329102,-13.41105842590332,-0.00013549625873565674,-0.001796424388885498,0.05491733551025391,990.56201171875,0,13.0,1,1
10.96,0.07968706,-0.16563675,9.76051,0.0005498974933288991,0.00022340375289786607,0.00024173702695406973,1.397808313369751,15.884515762329102,-13.41105842590332,1.730024814605713e-05,0.0032234340906143193,0.04545497894287109,990.56201171875,0,13.0,1,1
11.0,0.08203766,-0.15610269,9.751039,5.4281095799524344e-05,5.9336627600714564e-05,-0.0007842223858460784,1.4313149452209473,16.337223052978516,-13.28874397277832,0.004888169467449188,-0.01589404046535492,0.06439495086669922,990.5545654296876,0,13.0,1,1
11.04,0.086778134,-0.15848503,9.76287,5.4281095799524344e-05,5.9336627600714564e-05,-0.0007842223858460784,1.4313149452209473,16.337223052978516,-13.28874397277832,-0.009442590177059174,0.003357112407684326,0.03125953674316406,990.5545654296876,0,13.0,1,1
11.08,0.08912873,-0.15610078,9.758133,-0.0003444348694756627,-0.0011392078595235946,-0.0009170555276796223,1.3810665607452393,15.86831283569336,-12.560701370239258,-0.013567887246608734,-0.001342564821243286,0.035994529724121094,990.5643310546876,0,13.0,1,1
11.12,0.08430961,-0.15609983,9.758128999999998,-0.0003444348694756627,-0.0011392078595235946,-0.0009170555276796223,1.3810665607452393,15.86831283569336,-12.560701370239258,0.005410782992839813,-0.0011989474296569824,0.05020427703857422,990.5643310546876,0,13.0,1,1
11.16,0.07471073,-0.15848204,9.760492,5.5797056120354675e-05,-0.00047354123671539133,-0.0003840991121251136,1.3651437759399414,15.69565200805664,-13.010049819946287,0.005741119384765625,-0.010573849081993105,0.05967903137207031,990.5592651367188,0,13.0,1,1
11.2,0.0794512,-0.16086438,9.769958,0.00018933380488306284,0.0005916607333347201,-0.0002507787139620632,1.6646356582641602,15.765384674072266,-13.060281753540039,0.0008159428834915161,-0.001122117042541504,0.036009788513183594,990.579345703125,0,13.0,1,1
11.24,0.08419168,-0.16086343,9.772322,0.00018933380488306284,0.0005916607333347201,-0.0002507787139620632,1.6646356582641602,15.765384674072266,-13.060281753540039,-0.022717639803886414,-0.010748371481895449,0.03600788116455078,990.579345703125,0,13.0,1,1
11.28,0.09610182,-0.16324577,9.758115,-0.0004760769661515951,-0.0006068221991881727,0.0005483313580043613,1.2923409938812256,15.416481018066404,-12.520593643188475,-0.00854349136352539,0.0034797340631484985,0.05494976043701172,990.5748901367188,0,13.0,1,1
11.32,0.084113,-0.17277792,9.755744,-0.0002093821531161666,-0.00020740987383760512,0.0001490199065301567,1.7735519409179688,15.762161254882812,-13.307832717895508,-0.012708403170108795,0.013061493635177612,0.0502166748046875,990.5693969726562,0,13.0,1,1
11.36,0.081683815,-0.16562715,9.765208,-0.0002093821531161666,-0.00020740987383760512,0.0001490199065301567,1.7735519409179688,15.762161254882812,-13.307832717895508,0.0070645809173583984,0.013641908764839172,0.05495738983154297,990.5693969726562,0,13.0,1,1
11.4,0.07925460000000001,-0.1513265,9.762838,0.00019047071691602468,-0.00047378728049807245,-0.00011713348794728518,1.6068081855773926,16.501367568969727,-13.017454147338867,-0.011133857071399687,-0.008647367358207703,0.031307220458984375,990.5645751953124,0,13.0,1,1
11.44,0.07682538,-0.16085863,9.758100500000001,0.005117693450301886,-0.00406911363825202,-0.0006496029673144221,1.2673163414001465,16.447240829467773,-13.577844619750975,0.0022153854370117188,0.00367012619972229,0.05022335052490234,990.5645751953124,0,13.0,1,1
11.48,0.08813768599999999,-0.16566819,9.753525999999999,-0.001406666822731495,0.0013903009239584208,0.00014950719196349382,1.518625259399414,15.681243896484375,-12.878889083862305,-0.003687158226966858,0.003368914127349853,0.05005455017089844,990.7244873046876,0,13.0,1,1
11.52,0.088169456,-0.15136927,9.774835000000001,-0.003936288878321648,0.00032497590291313827,-0.001048751873895526,1.1470651626586914,16.702526092529293,-12.188535690307615,0.01652040332555771,-0.004451155662536621,0.05480480194091797,990.569580078125,0,13.0,1,1
11.56,0.09059107,-0.16090322,9.753531,-0.00035343924537301064,-0.0008714302675798535,-0.0002551250217948109,1.7764577865600586,15.659191131591795,-12.763360977172852,-0.012367866933345795,-0.0044919997453689575,0.04059982299804688,990.4806518554688,0,13.0,1,1
11.6,0.07867327,-0.16328722,9.765369999999999,0.006433130241930485,-0.0035338611342012882,-0.00012388918548822406,1.45731782913208,15.676225662231445,-12.407243728637695,-0.008137799799442291,0.012840941548347471,0.03583812713623047,990.518310546875,0,13.0,1,1
11.64,0.08587468,-0.16567132,9.774842999999999,-0.0014237990835681558,-0.0003379711415618658,-0.00025730920606292784,1.5791137218475342,15.842718124389648,-12.050832748413086,-0.00328894704580307,-0.010810419917106628,0.04057121276855469,990.5541381835938,0,13.0,1,1
11.68,0.09068626,-0.15852225,9.755908,-9.252514428226276e-05,-0.0003379214904271066,0.000408349558711052,1.7422711849212646,15.468852996826172,-12.285051345825195,-0.012383565306663513,0.0036522597074508663,0.054770469665527344,990.4859619140624,0,13.0,1,1
11.72,0.08593812599999999,-0.15375647,9.758278,0.0007061163196340202,-0.0006041877204552293,-0.0009233609307557343,1.8657262325286863,15.742733001708984,-12.705022811889648,0.006678052246570586,-0.010465025901794434,0.04530143737792969,990.5435791015624,0,13.0,1,1
11.76,0.085969865,-0.17759004,9.76775,4.002091736765578e-05,0.00019480957416817543,-0.0001245443127118051,1.812870502471924,16.008930206298828,-12.096582412719727,-0.002837568521499634,0.022547334432601932,0.03108978271484375,990.5466918945312,0,13.0,1,1
11.8,0.09078139,-0.16567442,9.758284,3.971474507125095e-05,-0.0003377725661266595,-0.00012467536726035178,1.4713139533996582,16.32162094116211,-12.678117752075195,-0.012243762612342834,0.0035135596990585327,0.05949211120605469,990.5442504882812,0,13.0,1,1
11.84,0.074083835,-0.16567520000000002,9.758286,-0.0004932227311655879,0.00019490884733386335,-0.0006574381841346623,1.4938685894012451,16.131881713867188,-12.439538955688475,0.011420533061027529,-0.0010861307382583618,0.04055595397949219,990.5518188476562,0,13.0,1,1
11.88,0.09084481,-0.16329268,9.758289999999999,0.0003054194385185838,-7.135742635000497e-05,-0.0010570430895313618,1.3288912773132324,15.872133255004885,-12.552888870239258,-0.0029797777533531193,0.008357971906661987,0.059489250183105476,990.5594482421876,0,13.0,1,1
11.92,0.08609676,-0.15137711,9.755925,0.00030511396471410984,-0.00033762370003387327,-0.0003913843829650432,1.6386010646820068,15.214122772216795,-12.87004280090332,-0.02188403159379959,-0.010371804237365723,0.050019264221191406,990.5465087890624,0,13.0,1,1
11.96,0.07656887,-0.16567749,9.760663000000001,0.0004379658494144678,-7.125810952857138e-05,-0.0005246734945103526,1.5180821418762207,16.04953384399414,-12.97734260559082,0.0068790391087532035,0.003948956727981567,0.031080245971679688,990.5614624023438,0,13.0,1,1
12.0,0.083770335,-0.16329506,9.74883,0.0007039759075269103,-0.0006038403371348977,0.00014098529936745763,1.9002118110656736,16.565208435058597,-12.758462905883787,-0.0025890916585922237,-0.010165274143218994,0.06421947479248047,990.5665893554688,0,13.0,1,1
12.04,0.09097171,-0.1632958,9.774871000000001,-0.00036159355659037834,0.00032831492717377836,0.0002740122145041824,1.5334632396697998,16.59048080444336,-12.626443862915039,-0.0026934444904327393,-0.005145758390426636,0.04055023193359375,990.5621337890624,0,13.0,1,1
12.08,0.10295302,-0.14899689,9.760671,0.000570206088013947,-7.110922888386995e-05,0.00014072321937419474,1.5365066528320312,16.593429565429688,-12.78105354309082,-0.017056427896022797,-0.005197584629058838,0.05948448181152344,990.5846557617188,0,13.0,1,1
12.12,0.071915984,-0.16329736,9.760674,0.00017042679246515036,-0.0006036914419382812,-0.00025888162781484425,1.4908246994018557,16.128934860229492,-12.284929275512695,0.011986501514911652,-0.004897698760032654,0.05474567413330078,990.594482421875,0,13.0,1,1
12.16,0.08867699,-0.16091487,9.772513,0.0008359110215678811,-0.00047048379201442003,-0.00012585474178195,1.6913728713989258,16.47457504272461,-12.028116226196287,-0.0021857023239135747,0.009143278002738951,0.050004005432128906,990.5567016601562,0,13.0,1,1
12.2,0.08631885,-0.17283210000000002,9.758313000000001,-0.0004959740908816457,-0.00033727625850588083,-0.00025914367870427674,2.404924869537353,15.878652572631836,-12.411142349243164,0.017069242894649506,0.009202420711517334,0.05946922302246094,990.5665893554688,0,13.0,1,1
12.24,0.08874047,-0.16091639,9.755948,0.0001695094397291541,-0.0004703845188487321,-0.00012611685087904334,1.8801283836364744,15.913921356201172,-12.178369522094727,-0.01146940141916275,0.00936676561832428,0.059468269348144524,990.5919799804688,0,13.0,1,1
12.28,0.08399239,-0.15853393,9.751218,0.000568677787669003,-0.000204019044758752,-0.00012624781811609864,1.5816154479980469,16.213951110839847,-12.303895950317385,0.002797864377498627,0.009376883506774902,0.049996376037597656,990.5742797851562,0,13.0,1,1
12.32,0.07685441,-0.16806784,9.760689,3.5740558814723045e-05,0.00019550448632799092,0.0002730948617681861,1.6519169807434082,16.121891021728516,-12.540292739868164,0.012270800769329071,0.013939917087554932,0.04998970031738281,990.5590209960938,0,13.0,1,1
12.36,0.08644575,-0.16091874,9.74649,-0.000763512565754354,0.00019555407925508922,0.0008055957150645554,1.8791799545288088,16.756416320800778,-13.074350357055664,-0.01144859939813614,-0.014715194702148438,0.0689229965209961,990.57177734375,0,13.0,1,1
12.4,0.07691783,-0.156153,9.7654295,0.00016828661318868401,-0.0008696598233655095,0.00027283283998258406,1.5521323680877686,16.13395118713379,-12.756570816040039,-0.006880372762680054,-0.014489710330963138,0.04998779296875,990.5869140625,0,13.0,1,1
12.44,0.08358261,-0.14660746,9.763015,-0.0006309665041044353,0.0007282850565388799,-0.000259929831372574,1.670585870742798,15.66535758972168,-12.670427322387695,0.011609360575675964,-0.00969742238521576,0.045256614685058594,990.569091796875,0,13.0,1,1
12.48,0.07826555,-0.15374413,9.753497,0.00043527106754481787,0.0013939166674390435,-0.0006589861586689949,1.5290350914001465,16.69198226928711,-13.093606948852539,0.007780797779560089,9.232759475708008e-05,0.05482769012451172,990.5668334960938,0,13.0,1,1
12.52,0.075864255,-0.16566023,9.758231,0.0005773180164396763,0.0004603680281434208,1.0613090125843884e-05,1.9609451293945312,15.72624969482422,-12.25682258605957,0.01697971671819687,0.01911376416683197,0.04536247253417969,990.578857421875,0,13.0,1,1
12.56,0.071072996,-0.15851009,9.746394,0.0005867411382496357,0.0002895273210015148,-0.0004656212986446917,1.2800583839416504,16.511035919189453,-12.274808883666992,0.0029615238308906555,-0.01411527395248413,0.054831504821777344,990.5740356445312,0,13.0,1,1
12.6,0.078231335,-0.1632764,9.765331,0.00018737741629593077,-0.0007757541607134044,0.00020021555246785283,1.5039794445037842,16.510480880737305,-13.079126358032227,-0.0018682181835174558,-0.009332463145256042,0.05009746551513672,990.5589599609376,0,13.0,1,1
12.64,0.07821989,-0.1751925,9.774797999999999,-7.882868521846831e-05,-0.00024314018082804975,-0.00019921123748645184,1.7684431076049805,16.126029968261722,-13.174367904663086,0.007635265588760377,0.00028176605701446533,0.031164169311523438,990.5869140625,0,13.0,1,1
12.68,0.08059838400000001,-0.15135944,9.748757000000001,-7.882868521846831e-05,-0.00024314018082804975,-0.00019921123748645184,1.8124649524688718,16.483135223388672,-12.894109725952148,0.007659658789634705,-0.008974432945251465,0.05957794189453125,990.5869140625,0,13.0,1,1
12.72,0.06863749,-0.15135917,9.7653265,0.0012529708910733461,0.00028945584199391305,0.0008661466417834162,1.5540900230407717,16.873477935791016,-13.108087539672852,0.026705928146839145,-0.004051268100738525,0.04064369201660156,990.5664672851562,0,13.0,1,1
12.76,0.06623614,-0.1561254,9.7724285,0.0012529708910733461,0.00028945584199391305,0.0008661466417834162,1.3824820518493652,16.976127624511722,-13.010663986206055,0.01233045756816864,-0.008893683552742004,0.03590869903564453,990.5664672851562,0,13.0,1,1
12.8,0.06861466,-0.16327497,9.762958,5.465917638503015e-05,0.00015628008986823258,0.0005998779088258742,1.4722938537597656,16.691383361816403,-12.853876113891602,0.007633604109287263,0.0005500167608261108,0.04064273834228516,990.569091796875,0,13.0,1,1
12.84,0.08055273,-0.15612492,9.767692,-0.00034470463288016623,-0.00011005366832250728,-0.00033218064345419407,1.7692842483520508,16.389877319335938,-12.651044845581055,-0.002082422375679016,0.0008698403835296631,0.035915374755859375,990.5488891601562,0,13.0,1,1
12.88,0.07098174,-0.16089115,9.76769,-0.00047775244456715876,-0.000243229471379891,-0.00046529149403795595,1.4728364944458008,16.323091506958008,-12.755422592163086,0.007437646389007568,0.005608484148979187,0.05485439300537109,990.5360717773438,0,13.0,1,1
12.92,0.07814005,-0.15374103,9.748752,0.0005876210052520037,0.00015622656792402267,-0.0007315601105801762,1.428133487701416,16.228361129760742,-12.435056686401367,0.011869743466377258,-0.003886014223098755,0.050124168395996094,990.5913696289062,0,13.0,1,1
12.96,0.0661791,-0.16327387,9.755853,5.509910988621414e-05,-0.00011010721937054768,0.000733224384021014,1.5506095886230469,16.132476806640625,-12.679269790649414,0.011956848204135895,0.010479167103767395,0.04539108276367188,990.5664672851562,0,13.0,1,1
13.0,0.075727284,-0.15850702,9.762953,-0.0002109967463184148,-0.0006427747430279852,-0.00033194490242749447,1.6088733673095703,16.13454818725586,-12.996305465698242,-0.0069320276379585275,-0.0038339644670486455,0.05486011505126953,990.5740356445312,0,13.0,1,1
13.04,0.0852755,-0.15850678,9.765319,0.0003217451449017972,-0.00024331870372407133,-0.00046505575301125646,1.6423797607421875,16.587257385253903,-12.873994827270508,0.0027200281620025635,0.005786746740341186,0.04065895080566406,990.5865478515624,0,13.0,1,1
13.08,0.08048427,-0.16565629999999998,9.758216000000001,5.5539159802719944e-05,2.297931496286765e-05,-0.0004650086048059166,1.7662401199340818,16.386932373046875,-12.496431350708008,0.0077180564403533936,-0.0038339644670486455,0.05959510803222656,990.5735473632812,0,13.0,1,1
13.12,0.07330316,-0.16088948,9.765317,5.5649055866524584e-05,-0.00037651235470548267,-0.00019864551723003387,1.7276251316070557,16.298091888427734,-12.485284805297852,0.002674609422683716,0.005604445934295654,0.035923004150390625,990.561279296875,0,13.0,1,1
13.16,0.07090187,-0.17757219,9.75348,-0.0004768725775647909,0.00028925950755365193,0.00033403333509340877,1.298865795135498,16.160423278808597,-13.10401725769043,0.007064715027809144,0.01036679744720459,0.04539680480957031,990.5460815429688,0,13.0,1,1
13.2,0.073280334,-0.17280534,9.774783,0.0001890270214062184,0.0008218733128160237,0.0011330281849950552,1.6628694534301758,16.764335632324222,-12.656557083129885,0.0022354647517204285,0.015036776661872862,0.04539680480957031,990.5684204101562,0,13.0,1,1
13.24,0.07804876599999999,-0.15373877,9.760579,5.5978976888582104e-05,0.0004223817377351224,-0.00033166207140311604,1.419980525970459,16.589286804199222,-12.146982192993164,0.011292889714241028,0.010017290711402891,0.054866790771484375,990.5585327148438,0,13.0,1,1
13.28,0.073257536,-0.16565496,9.76768,-0.0006097005680203438,0.0008218376897275447,0.0002010168391279876,1.707977056503296,16.38486099243164,-12.17939567565918,0.016354694962501526,0.0005675256252288817,0.031194686889648438,990.5659790039062,0,13.0,1,1
13.32,0.08280569,-0.16088805,9.767679,0.0004556728235911578,-0.0009092334075830877,0.0004673798102885484,1.7662401199340818,16.386932373046875,-12.496438980102539,0.008365660905838013,0.011968478560447693,0.03594684600830078,990.5784912109376,0,13.0,1,1
13.36,0.07323471,-0.15850452,9.74874,0.005249468609690665,-0.0037055681459605694,6.795307854190469e-05,1.8660244941711424,16.374870300292972,-12.280153274536133,0.01706453412771225,0.010584652423858644,0.06907463073730469,990.6036376953124,0,13.0,1,1
13.4,0.082782865,-0.16088757,9.760575,-0.003938319161534309,0.0020202056039124727,0.0006006320472806692,1.57857084274292,16.211006164550778,-12.149282455444336,-0.011711359024047852,0.005810365080833435,0.04540443420410156,990.6575317382812,0,13.0,1,1
13.44,0.06352517,-0.15611756,9.748727,-0.0006092607509344816,0.00015597659512422982,-0.0004645843873731792,1.4893026351928709,16.12746238708496,-12.207620620727539,0.016752958297729492,-0.003897517919540405,0.06435394287109375,990.4970703125,0,13.0,1,1
13.48,0.089797586,-0.15850043,9.765296000000001,5.724673974327743e-05,0.0012211236171424387,-0.0005974346422590315,1.935783863067627,16.651098251342773,-12.614999771118164,-0.0014517828822135925,0.002751722931861877,0.04070758819580078,990.5528564453124,0,13.0,1,1
13.52,0.08261138,-0.16803315,9.753458,0.003919581416994332,-0.0023742634803056717,-0.0007302690646611153,1.7294449806213381,16.93170166015625,-12.137720108032227,0.002564750611782074,0.010738223791122437,0.059626579284667976,990.6038208007812,0,13.0,1,1
13.56,0.07781508599999999,-0.170416,9.77476,-0.002871314063668251,0.0016204490093514323,0.0007345363264903426,1.9248316287994385,16.008649826049805,-12.498735427856445,0.0024726316332817078,0.005760490894317627,0.03122234344482422,990.6444702148438,0,13.0,1,1
13.6,0.08257842,-0.15849927,9.755822,-0.00047431225539185107,0.0005551596987061204,0.0006014464888721704,1.7405047416687012,16.46780776977539,-11.881326675415039,-0.0070355087518692025,0.0008413344621658325,0.0501556396484375,990.52490234375,0,13.0,1,1
13.64,0.07300231,-0.15849885,9.753453,-0.0014062589034438133,-0.0009096034918911756,-0.0005969068151898682,1.3532662391662598,16.31600570678711,-11.966737747192385,0.00291161984205246,0.0004669874906539917,0.06435298919677734,990.5452270507812,0,13.0,1,1
13.68,0.07776564,-0.15373185,9.767655,5.879622767679393e-05,-0.00024386527366004882,-0.0009962443727999926,1.3273687362670898,15.870662689208984,-12.475580215454102,-0.011390134692192078,0.0005800575017929077,0.035948753356933594,990.5753784179688,0,13.0,1,1
13.72,0.07296935,-0.16326454,9.765286,5.879622767679393e-05,-0.00024386527366004882,-0.0009962443727999926,1.3273687362670898,15.870662689208984,-12.475580215454102,-0.0015825405716896055,0.005287811160087586,0.040680885314941406,990.5753784179688,0,13.0,1,1
13.76,0.075342745,-0.16564742,9.765285,0.0005915870424360037,-0.00011073321365984155,0.00033540316508151585,1.6354506015777588,16.317520141601562,-13.088094711303713,-0.0018481388688087466,0.0006399303674697876,0.04542255401611328,990.5452880859376,0,13.0,1,1
13.8,0.07054645,-0.15849724,9.762916,-0.000606675399467349,0.00015555688878521323,0.00033547126804478467,1.6833577156066897,16.941417694091793,-12.439126968383787,0.002563647925853729,-0.009038403630256651,0.059626579284667976,990.5804443359376,0,13.0,1,1
13.84,0.07530975,-0.16326332,9.760547,-0.00047335846466012304,0.0006881627487018704,0.0006018553394824266,1.1848392486572266,16.527519226074222,-12.723005294799805,0.011719636619091034,0.009898215532302856,0.0596303939819336,990.5783081054688,1,1.0,2,2
13.88,0.072903395,-0.15849641,9.767648,0.0009916966082528234,-0.00037715226062573487,0.0002025176945608109,1.5514512062072754,16.396324157714847,-12.155946731567385,-0.002529650926589966,0.010375186800956726,0.0501708984375,990.5523681640624,1,1.0,2,2
13.92,0.08005658,-0.15849599,9.767646000000001,0.0009916966082528234,-0.00037715226062573487,0.0002025176945608109,1.5514512062072754,16.396324157714847,-12.155946731567385,0.0024344101548194885,0.010355830192565918,0.03596687316894531,990.5523681640624,1,1.0,2,2
13.96,0.082429975,-0.15611228,9.751074000000001,0.00019290784257464108,-0.0006434940733015537,0.000335743767209351,1.9211063385009768,16.26807975769043,-11.743501663208008,-0.002179771661758423,-0.0039300769567489615,0.05963897705078125,990.5699462890624,1,1.0,2,2
14.0,0.07285389,-0.15134537,9.760542,-0.0007390385726466775,2.2269923647399995e-05,0.0002026539295911789,1.4559571743011477,16.200971603393555,-11.205987930297852,0.002539798617362976,-0.004209458827972412,0.040699005126953125,990.56005859375,1,1.0,2,2
14.04,0.08239704,-0.16564456,9.770009,-7.308987551368773e-05,-0.0010430194670334456,-6.359379040077329e-05,1.5996036529541016,16.019794464111328,-11.833398818969727,0.003021635115146637,-0.004052579402923584,0.0359649658203125,990.5776977539062,1,1.0,2,2
14.08,0.07282093,-0.16802749,9.765272999999999,0.00013759618741460145,-0.0003626970865298063,-0.0006361384876072407,1.5816152095794678,16.213951110839847,-12.303895950317385,0.012925565242767334,0.00522826611995697,0.03595924377441406,990.5726318359376,1,1.0,2,2
14.12,0.068024606,-0.16326052,9.770005000000001,0.00013759618741460145,-0.0003626970865298063,-0.0006361384876072407,1.5816152095794678,16.213951110839847,-12.303895950317385,0.01778522878885269,-0.004665553569793701,0.02648544311523437,990.5726318359376,1,1.0,2,2
14.16,0.068008155,-0.15849355,9.767636,-0.0003948765515815466,-0.0008953546057455242,0.0008286669617518783,1.7928173542022705,16.569904327392578,-12.588220596313475,0.012179203331470491,-0.011031240224838257,0.054874420166015625,990.544677734375,1,1.0,2,2
14.2,0.053652227000000004,-0.19900888,9.777104,-0.0011936654336750507,0.0001698830456007272,0.0013613668270409107,2.5115015506744385,16.030412673950195,-11.281679153442385,0.02851138263940811,0.003750920295715332,0.03081989288330078,990.559326171875,1,1.0,2,2
14.24,0.008227587,-0.14180976,10.252911,-0.01783824898302555,0.0005693310522474349,0.0024266985710710287,1.6890096664428709,16.20925521850586,-12.474138259887695,0.17157325148582458,0.0004990845918655397,-0.17816734313964844,990.5318603515624,1,1.0,2,2
14.28,0.49575108,-0.33723828,10.115611,-0.05445652455091477,-0.02832596562802792,-0.01581587269902229,1.7079768180847168,16.38486099243164,-12.17939567565918,0.16858503222465515,-0.15600401163101196,-0.7150449752807617,990.4886474609376,1,1.0,2,2
14.32,1.3226407,-0.7137959,9.289456,-0.11704059690237045,-0.1769302636384964,-0.1056974157691002,0.6170215606689453,16.99574851989746,-11.12321662902832,0.17385196685791016,-0.010887384414672852,0.4034605026245117,990.4703369140624,1,1.0,2,2
14.36,2.1614795,-0.8281927,9.703714999999999,-0.6308967471122742,-2.0892114639282227,0.09577067941427232,-5.08555269241333,18.397979736328125,-9.171754837036133,0.05508387088775635,-0.09598731994628906,-0.1918010711669922,990.5388793945312,1,1.0,2,2
14.4,2.5583433999999996,-1.09274,9.556962,-0.4773654937744141,-1.664570689201355,0.0911102294921875,-6.913593769073486,19.424766540527344,-7.795381546020508,-0.3665568828582764,0.002692580223083496,-0.10593128204345703,990.516357421875,1,1.0,2,2
14.44,2.9313173,-1.4550021999999998,9.220832000000001,-0.8364923596382141,-0.8744117617607117,-0.01821237988770008,-8.248523712158201,20.597187042236328,-6.42652702331543,0.23899483680725095,-0.1450413465499878,-0.16312789916992188,990.5770874023438,1,1.0,2,2
14.48,2.7568507,-1.7266958,8.936769,-0.9548723101615906,-1.0001122951507568,0.1516960859298706,-9.417932510375977,21.661060333251953,-4.84587287902832,0.021516084671020508,-0.08355259895324707,0.1877422332763672,990.6253051757812,1,1.0,2,2
14.52,2.6277923999999997,-2.2367172,8.941502,-0.9062699675559998,0.05476491153240204,0.4273328483104706,-8.776992797851562,22.524444580078125,-4.687223434448242,0.09860992431640624,-0.17710232734680176,0.4578561782836914,990.6555786132812,1,1.0,2,2
14.56,1.0241644,-2.1771352000000004,9.566443,-0.5849598050117493,1.4883434772491455,0.5120213627815247,-6.485109806060791,23.72207260131836,-4.648565292358398,0.4178136587142944,-0.27707719802856445,-0.2844648361206055,990.6272583007812,1,1.0,2,2
14.6,1.4184945,-3.3544745000000002,9.147449,-0.5159839391708374,1.7912777662277222,0.6913851499557495,-3.4093422889709477,25.443981170654297,-6.301065444946289,-0.7085529565811157,0.4871542453765869,0.19984912872314453,990.596923828125,1,1.0,2,2
14.64,0.8544738000000002,-2.8754356,9.270541,-0.5551323294639587,1.6799577474594116,0.5775351524353027,-1.5145344734191897,26.323036193847656,-7.106393814086914,-0.30971211194992065,-0.1842284202575684,0.057094573974609375,990.53857421875,1,1.0,2,2
14.68,-0.2568344,-3.4569553999999996,9.235033999999999,-0.5596596598625183,0.9173620343208312,0.14703546464443207,-0.1572718620300293,26.381614685058594,-6.087221145629883,0.4791263937950134,0.13408422470092773,0.5022010803222656,990.5101928710938,1,1.0,2,2
14.72,-0.048916787,-3.633318,11.952580000000001,-0.38482320308685297,0.4841992259025574,0.2960391938686371,0.8209357261657715,27.13971710205078,-6.5132713317871085,0.6845723986625671,1.2419586181640625,-2.0286903381347656,990.6144409179688,1,1.0,2,2
14.76,-0.24967232,-2.5346265,10.705066,-0.5438138246536255,0.7213534712791443,0.7049672603607178,2.575546979904175,27.728694915771484,-6.048269271850586,-0.3959116935729981,-1.3565056324005127,-2.3984575271606445,991.0238647460938,1,1.0,2,2
14.8,-0.30703378,-1.9030576000000001,9.038554,0.8247835636138916,1.001251459121704,0.4596903324127197,3.9446635246276855,26.746612548828125,-7.895437240600586,-0.08921915292739868,0.3824009895324707,-0.03558826446533203,990.8201904296876,1,1.0,2,2
14.84,0.032328486000000003,-0.98072886,8.740287,1.7439728975296018,0.10549803823232652,0.3070913255214691,3.600147485733032,25.52970886230469,-9.772733688354492,-0.5764786005020142,-1.808249592781067,1.6749153137207031,990.7617797851562,1,1.0,2,2
14.88,-0.23056453,-1.7481444,11.334741000000001,0.9807115793228148,-0.5831948518753052,-0.2099608778953552,2.89621639251709,24.13361740112305,-10.506380081176758,0.04790891706943512,0.08846473693847656,-1.4094018936157229,990.6829223632812,1,1.0,2,2
14.92,-0.48389792,-1.7243116000000003,12.40945,0.3691171705722809,-0.8010412454605103,-0.3548367619514465,0.7819228172302246,23.945571899414066,-11.324338912963867,0.4653535783290863,-0.107171893119812,-2.729731559753418,990.6803588867188,1,1.0,2,2
14.96,-0.47434214,-1.7386110000000001,9.838667999999998,0.3020056486129761,-0.1701389104127884,-0.2612266540527344,-0.6108040809631348,22.69476318359375,-12.114313125610352,0.4405251145362854,0.33673322200775146,-0.4070310592651367,990.6392822265624,1,1.0,2,2
15.0,-0.29510328,-1.4407012,11.041205,0.6657931804656982,0.3819338977336884,-0.046442892402410514,-0.5868878364562988,21.98027801513672,-13.076990127563475,0.4577093720436096,0.4718118906021118,-0.9433383941650392,990.448974609375,1,1.0,2,2
15.04,0.37406540000000005,-0.6804352,10.172442,0.9499521851539612,-0.3453747630119324,0.09616927802562714,-0.9596409797668456,20.473018646240234,-14.086118698120115,-0.3960626125335693,-0.15646541118621826,-0.5896339416503906,990.4838256835938,1,1.0,2,2
15.08,0.18047956,-0.60178685,10.69086,0.9189264178276062,-0.05402519926428795,0.14503824710845947,-1.581776142120361,19.259017944335934,-15.073976516723633,-0.0022198930382728572,0.292153537273407,-0.9341554641723632,990.4660034179688,1,1.0,2,2
15.12,0.223494,-0.20854592,10.080121,0.6860332489013672,-0.14270839095115662,0.14091037213802338,-1.3782367706298828,17.975040435791016,-15.72307014465332,-0.2402247488498688,-0.27603599429130554,-0.09946727752685547,990.4710693359376,1,1.0,2,2
15.16,0.3883934,-0.82104826,12.572783,0.6685895323753357,-0.328730046749115,0.023065611720085144,-2.134045124053955,17.21490478515625,-16.024030685424805,0.13900041580200195,1.1527436971664429,-2.48846435546875,990.4508056640624,1,1.0,2,2
15.2,0.013174981,0.48737162,9.883641,0.5347658991813661,-0.3222053050994873,0.04676774516701698,-3.096052646636963,16.841289520263672,-16.546789169311527,-0.3000226318836212,-0.2997116446495056,-0.6145076751708984,990.5575561523438,1,1.0,2,2
15.24,-0.5484558,0.63036835,10.768975,0.7886981368064879,0.7877992987632751,0.01787248253822327,-2.7498459815979004,15.006370544433596,-17.647531509399414,0.7009376883506775,-0.07150411605834961,-0.5726079940795898,990.4889526367188,1,1.0,2,2
15.28,-0.7874496999999999,-0.10606459,11.427058,1.0512856245040894,-0.2736026644706726,-0.08492543548345566,-2.6557679176330566,14.093908309936525,-18.14752769470215,0.8982120752334595,1.327800989151001,-2.0581064224243164,990.501220703125,1,1.0,2,2
15.32,-0.8400314,0.96402764,10.437567999999999,1.418002724647522,-0.21221686899662015,-0.05549750104546547,-2.9369421005249023,11.30294418334961,-19.403589248657227,1.1600610017776491,0.9515024423599244,-0.8187503814697266,990.5340576171876,1,1.0,2,2
15.36,-0.96669996,1.3834846,9.398364,1.5069521665573118,0.08019796013832092,0.2694078683853149,-3.148197650909424,9.314430236816406,-19.870553970336914,1.0818471908569336,0.9774055480957032,-0.00879669189453125,990.4987182617188,1,1.0,2,2
15.4,-0.9714835999999999,2.0412695,8.505929,1.5069521665573118,0.08019796013832092,0.2694078683853149,-3.525516986846924,7.8027496337890625,-20.647768020629886,1.010875940322876,0.8225972652435303,0.927952766418457,990.4987182617188,1,1.0,2,2
15.44,-0.25929666,2.4821763,8.442014,1.3370428085327148,0.28739169239997864,0.4747374355792999,-3.162163734436035,5.50982666015625,-21.801340103149414,0.8729900121688843,0.9530670642852784,0.5577764511108398,990.4828491210938,1,1.0,2,2
15.48,-0.14458519,3.2424421000000003,7.5282729999999995,1.3048185110092163,-0.280660092830658,0.5204105973243713,-3.270781993865967,1.7737150192260742,-22.258852005004886,0.7743828892707825,0.5347297191619873,1.5392842292785645,990.45458984375,1,1.0,2,2
15.52,-0.34773059999999995,3.2948741999999998,8.898883,1.3048185110092163,-0.280660092830658,0.5204105973243713,-3.270781993865967,1.7737150192260742,-22.258852005004886,0.8363553881645203,0.4843158721923828,0.6266317367553711,990.45458984375,1,1.0,2,2
15.56,0.027480125,3.3496900000000003,8.853906,0.8472878932952881,0.1377221792936325,0.3871195316314697,-2.877891063690185,1.1933555603027344,-22.20844841003418,0.11086484789848328,0.6734902858734131,-0.1084146499633789,990.3809814453124,1,1.0,2,2
15.6,-0.21629363,4.0384574,8.141377,0.16725033521652222,0.5065696835517883,0.41268590092659,-2.1265645027160645,0.4224262237548828,-23.125940322875977,0.14980703592300415,0.2352092266082764,0.8445730209350586,990.3885498046876,1,1.0,2,2
15.64,-1.0384238000000001,3.3592231,10.735831,0.4701847136020661,0.3290700912475586,0.3365195691585541,-1.1301250457763672,-0.01405048370361328,-23.40791893005371,0.6487883925437927,-0.0014567375183105467,-0.9876365661621094,990.4647827148438,1,1.0,2,2
15.68,-1.95376,2.5274591,9.968858,0.20613250136375427,0.4414553642272949,0.1494326889514923,-0.8045983314514159,0.6069393157958984,-23.648386001586914,1.4291996955871582,1.518068790435791,-1.4043807983398438,990.4566040039062,1,1.0,2,2
15.72,-1.7988283999999999,3.1661878,9.395957000000001,0.011056223884224892,0.8989860415458679,0.1092190220952034,2.231680154800415,0.7639026641845703,-24.741323471069336,0.9609602093696594,0.682603120803833,-0.14026165008544922,990.5253295898438,1,1.0,2,2
15.76,-1.3929756000000002,3.9884293,10.158156,0.12304209172725675,0.9485207796096802,0.670213520526886,3.689408302307129,0.5480403900146484,-24.10650062561035,0.3783900141716003,-0.09038877487182616,-1.8864974975585935,990.4920654296876,1,1.0,2,2
15.8,-1.3738848,3.661921,10.330960000000001,0.2849656045436859,0.4443871676921845,0.8892645835876465,4.2694244384765625,0.5118961334228516,-24.50169944763184,0.2825338840484619,0.2854533195495605,-1.8745174407958984,990.4717407226562,1,1.0,2,2
15.84,-1.7347884999999998,3.7715525999999997,9.698914,0.4498154222965241,0.7043114304542542,0.8138972520828247,6.480000019073486,-0.4734225273132324,-24.86166572570801,1.0355370044708252,0.8878161907196045,-0.7931404113769531,990.514892578125,1,1.0,2,2
15.88,-1.2544467,4.0599300000000005,8.957977,0.8652684688568115,0.6053749918937683,0.8988522291183472,7.475706100463867,-2.2800893783569336,-25.29431343078613,0.09482121467590332,0.7985048294067383,-0.9111499786376952,990.4866943359376,1,1.0,2,2
15.92,-1.7993728,4.1195126,7.6938877,1.2911078929901123,0.6463875770568848,0.908572793006897,8.658943176269531,-4.016751289367677,-25.37502479553223,0.698650598526001,1.2133994102478027,0.2105364799499512,990.4666137695312,1,1.0,2,2
15.96,-1.5078332,4.7391653,6.462939700000001,1.0805853605270386,0.9884702563285828,0.9866034388542176,10.268280029296877,-6.513197422027588,-25.707895278930664,0.39959871768951416,1.0430316925048828,1.3790326118469238,990.4278564453124,1,1.0,2,2
16.0,-1.8950258000000002,4.4007406,7.459529400000001,0.8231914043426514,0.7750181555747986,1.0302793979644775,11.335968017578125,-7.884232997894287,-25.33029365539551,0.9096057415008544,1.5060043334960938,0.6764912605285645,990.38720703125,1,1.0,2,2
16.04,-0.99167144,4.846414599999999,8.306987,0.6562115550041199,0.371549516916275,0.9241526126861572,11.473634719848633,-9.177650451660156,-25.275819778442386,0.08899462223052979,1.4926676750183103,-0.7608985900878906,990.3495483398438,1,1.0,2,2
16.08,-0.93434227,5.4327016,7.4476886,0.7614066004753113,0.365291029214859,1.0204259157180786,12.071884155273438,-10.408376693725586,-25.526945114135746,0.1494044065475464,1.25030517578125,-0.5568180084228516,990.4351806640624,1,1.0,2,2
16.12,-0.58544505,5.8426266,6.193069,0.935311198234558,0.8807453513145447,0.9897996783256532,12.97500228881836,-12.513364791870115,-24.46516227722168,-0.3518734574317932,0.931316375732422,0.6457467079162598,990.4580688476562,1,1.0,2,2
16.16,-0.6810695999999999,6.271617,6.3161607,0.9715304374694824,1.0205612182617188,0.8358693122863771,14.207233428955078,-14.362710952758787,-23.70000648498535,-0.39579224586486816,0.923748016357422,0.5568814277648926,990.4198608398438,1,1.0,2,2
16.2,-0.9224781999999999,6.4932623,6.1338835,0.9574159383773804,0.8637010455131531,0.6465188264846802,15.381772994995115,-15.370149612426758,-23.59109306335449,-0.2634686231613159,0.8706426620483398,0.0576333999633789,990.3893432617188,1,1.0,2,2
16.24,-0.87470865,6.714908599999999,5.3361335,0.7811151146888733,1.2107106447219849,0.5177551507949829,16.66191291809082,-16.595598220825195,-22.176965713500977,-0.3117465376853943,0.9183735847473145,0.6011819839477539,990.4147338867188,1,1.0,2,2
16.28,-0.8675674000000001,6.722059,5.9160953,0.7554159164428711,1.3543881177902222,0.5443869233131409,18.866943359375,-17.955102920532227,-22.1292667388916,-0.6998118162155151,0.9376869201660156,0.204744815826416,990.4326171875,1,1.0,2,2
16.32,-0.7409311,7.1438994000000005,4.978681,0.6370388269424438,1.2445327043533323,0.5003117322921753,20.847211837768555,-19.5778923034668,-21.80056953430176,-0.6876861453056335,1.130366325378418,0.16708707809448242,990.41943359375,1,1.0,2,2
16.36,-0.7314,7.89225,4.3276973,0.7897711992263794,1.2482609748840332,0.5826035141944885,22.334774017333984,-21.820528030395508,-20.666826248168945,-0.8845871686935425,0.3836774826049805,0.9194860458374025,990.4573974609376,1,1.0,2,2
16.4,-2.036315,6.8150086,5.0023475,0.5787161588668823,0.8924629688262941,0.4551714062690735,23.53409576416016,-22.858306884765625,-19.17424201965332,0.05132746696472168,1.1533751487731934,0.02894878387451172,990.4446411132812,1,1.0,2,2
16.44,-1.3958496999999999,7.0676369999999995,5.364527,0.18976208567619324,0.7917954325675964,0.3085646331310272,24.233949661254886,-23.46748161315918,-18.861520767211914,0.05574429035186768,1.3394899368286133,-0.1978187561035156,990.4569091796876,1,1.0,2,2
16.48,-0.5880913000000001,7.6014919999999995,5.7148699999999995,0.21945685148239136,0.7980538010597229,0.9245535135269164,25.14236831665039,-24.197866439819336,-17.8809871673584,-1.0488653182983398,0.6861152648925781,-0.8474984169006348,990.45947265625,1,1.0,2,2
16.52,-0.40648726,8.025716000000001,4.685134400000001,0.21945685148239136,0.7980538010597229,0.9245535135269164,25.14236831665039,-24.197866439819336,-17.8809871673584,-1.0538424253463743,0.5188150405883789,-0.3566823005676269,990.45947265625,1,1.0,2,2
16.56,-0.6909141,7.9089365,4.311114,0.3783145844936371,0.8587737679481506,0.7722209692001343,25.17804527282715,-25.21831321716309,-17.364870071411133,-0.7076286077499391,0.5510034561157227,0.4926567077636719,990.4439697265624,1,1.0,2,2
16.6,-0.7459103,7.7564077000000005,4.576238,0.1640637069940567,0.7546442151069641,0.5640951991081238,25.470333099365234,-25.630157470703125,-16.231046676635742,-0.32722747325897217,0.8550572395324707,0.05648946762084961,990.43896484375,1,1.0,2,2
16.64,-0.35399488,7.9589868,5.130161,-0.015299773775041103,0.7336052656173706,0.5827374458312988,26.41957092285156,-26.53260040283203,-15.939592361450195,-0.7539837956428528,0.6910181045532227,-0.5853977203369141,990.4491577148438,1,1.0,2,2
16.68,0.36772698,8.271196,4.6425147,-0.12795111536979675,0.8759510517120361,0.6639639139175415,26.22374725341797,-26.347604751586914,-15.30436897277832,-1.2434335947036743,0.4553661346435547,-0.1220545768737793,990.4310913085938,1,1.0,2,2
16.72,0.37344277,8.178225999999999,4.4532237,-0.034607119858264916,0.8598389029502869,0.6465203166007996,27.16497039794922,-26.783206939697266,-15.423917770385742,-1.510189652442932,0.3930139541625977,0.0325160026550293,990.4412231445312,1,1.0,2,2
16.76,0.6004936,8.216358,5.258074,-0.034607119858264916,0.8598389029502869,0.6465203166007996,27.812074661254886,-28.23252868652344,-14.130094528198242,-1.3139643669128418,0.5165596008300781,-0.3216366767883301,990.4412231445312,1,1.0,2,2
16.8,1.104773,8.619132,5.7575544999999995,-0.06536980718374252,0.689130961894989,0.5065699815750122,28.28347206115723,-27.63331413269043,-13.852876663208008,-1.8430752754211424,0.07702350616455078,-1.2763934135437012,990.4356079101562,1,1.0,2,2
16.84,0.99723756,8.745444,4.732557,-0.15845295786857605,0.4542413055896759,0.556901216506958,28.281408309936523,-27.266498565673828,-13.874021530151367,-1.869158387184143,-0.20051956176757807,-0.23608827590942386,990.4482421875,1,1.0,2,2
16.88,0.8514636999999999,8.607215,5.3243585,-0.10052935779094696,0.619223952293396,0.590323805809021,28.362224578857425,-27.45416259765625,-13.952478408813475,-1.6397888660430908,0.01639270782470703,-0.5471463203430176,990.473388671875,1,1.0,2,2
16.92,0.5957544,8.678714,4.8793254,-0.14140893518924713,0.8855398297309875,0.44864368438720703,29.02887344360352,-27.88391876220703,-13.337202072143555,-1.518646001815796,-0.08677005767822266,-0.4071769714355469,990.4810791015624,1,1.0,2,2
16.96,0.48104924,8.831242999999999,4.98585,-0.2585880160331726,0.7866035103797913,0.3419841229915619,29.92538833618164,-28.41425323486328,-13.136384963989258,-1.1787015199661257,-0.2931194305419922,0.3496270179748535,990.4454956054688,1,1.0,2,2
17.0,0.4452108,8.602447999999999,6.0771313,-0.10106229037046432,0.6566413640975952,0.2562303841114044,30.365482330322266,-28.52864074707031,-13.65941047668457,-1.646620512008667,-0.04212760925292969,-2.544280529022217,990.4508056640624,1,1.0,2,2
17.04,-0.18093331,8.962322,3.0139723,0.057661786675453186,0.5606345534324646,0.10922393947839737,31.28363037109375,-27.98591232299805,-12.292966842651367,-0.6506974697113037,-0.7973365783691406,2.2189791202545166,990.4730834960938,1,1.0,2,2
17.08,0.16083276,8.638197,4.9077353,0.12557224929332733,0.15170656144618988,0.025867024436593056,31.263141632080078,-28.162994384765625,-12.510400772094727,-1.021763801574707,-0.3062715530395508,-0.376375675201416,990.488037109375,1,1.0,2,2
17.12,0.06285697,8.728761,6.1623535,-0.5392854213714601,-0.38345518708229065,0.06781173497438431,30.95395278930664,-28.2935791015625,-13.917814254760742,-0.8755725622177124,-0.4636964797973633,-0.8063960075378418,990.5316162109376,1,1.0,2,2
17.16,0.28034818,8.602447,5.9469389999999995,-0.4759024083614349,-0.5340569019317627,0.04956905543804169,30.29684066772461,-28.32919311523437,-14.199396133422852,-0.7423336505889893,-0.13287734985351562,-1.1565694808959959,990.4091796875,1,1.0,2,2
17.2,0.12501466,8.719227,4.9716525,-0.16191604733467102,-0.22499720752239227,0.13399115204811096,29.50551605224609,-27.542659759521484,-13.892526626586914,-0.8610157966613771,-0.4492921829223633,0.001986980438232422,990.43896484375,1,1.0,2,2
17.24,-0.41509300000000005,8.202055999999999,5.094748,-0.19161036610603333,0.030266568064689636,0.07526845484972,29.554540634155273,-26.44308090209961,-14.118387222290039,-0.22361373901367188,-0.005910873413085938,0.22000932693481445,990.421630859375,1,1.0,2,2
17.28,-0.31948677,8.039992,5.693651,-0.1910778284072876,-0.21034981310367584,-0.0347200483083725,29.31733703613281,-26.13803482055664,-14.71556282043457,-0.039458900690078735,0.2631263732910156,-0.3708863258361816,990.4237060546876,1,1.0,2,2
17.32,-0.13784409,8.116257000000001,5.485338,-0.13568422198295593,-0.2658766508102417,-0.00036534122773446137,28.75642395019531,-25.82036590576172,-14.724695205688475,-0.3170154690742493,-0.01098918914794922,-0.322843074798584,990.4594116210938,1,1.0,2,2
17.36,-0.27405837,8.025692,5.2699237,-0.04859903454780578,-0.10622025281190872,-0.04430750384926796,28.719032287597656,-26.53986549377441,-15.215723037719727,-0.11569815874099733,0.31564807891845703,0.310213565826416,990.4619750976562,1,1.0,2,2
17.4,-0.006379187,7.7921309999999995,5.745732299999999,-0.06577650457620621,-0.09130656719207764,-0.056158602237701416,28.34426689147949,-26.04775047302246,-15.494707107543945,-0.4662422835826874,0.34827089309692383,-0.6597890853881836,990.4390869140624,1,1.0,2,2
17.44,-0.020708442,7.7778306,4.966924,0.07057712227106094,-0.164277121424675,-0.0633491724729538,28.61856842041016,-26.26543617248535,-14.831384658813475,-0.3599345982074737,0.5183486938476562,0.2689676284790039,990.4769287109376,1,1.0,2,2
17.48,0.32822740000000006,7.997092200000001,5.0829177,0.045010700821876526,-0.19503659009933472,0.012683969922363758,28.111595153808594,-26.950538635253906,-15.252058029174805,-0.4957561194896698,0.3552370071411133,0.4149675369262695,990.4891967773438,1,1.0,2,2
17.52,0.74886024,8.013775,5.98719,-0.18335527181625366,-0.3267297446727753,0.08658658713102341,27.21301460266113,-26.053394317626953,-15.474023818969727,-0.977597951889038,0.07024288177490234,-0.6536240577697754,990.45654296875,1,1.0,2,2
17.56,0.43579322,7.7516136,5.0687165,-0.21611222624778748,-0.30489182472229004,0.029461789876222614,26.92004776000977,-25.37917709350586,-16.007219314575195,-0.696856677532196,0.35648298263549805,0.27087926864624023,990.4534912109376,1,1.0,2,2
17.6,0.2087627,7.703948,5.3007035,-0.04859961941838265,-0.24057653546333316,-0.08145881444215775,26.76990509033203,-24.72968292236328,-15.868120193481445,-0.32779553532600403,0.429229736328125,0.07426881790161133,990.4357299804688,0,0.0,0,1
17.64,0.16575456,7.556184299999999,5.639214,-0.1440739631652832,-0.3436407744884491,-0.0890488550066948,27.09621810913086,-25.477405548095703,-16.336557388305664,-0.322654128074646,0.6018614768981934,-0.05727195739746094,990.4457397460938,0,0.0,0,1
17.68,0.21720296,7.980436,5.6533136,-0.1046593263745308,-0.35522553324699396,-0.1090225949883461,26.715068817138672,-25.62331962585449,-16.731195449829098,-0.2052990645170212,0.238642692565918,-0.2832450866699219,990.4179077148438,0,0.0,0,1
17.72,0.35700822,8.480953999999999,5.134786599999999,-0.07403308898210527,-0.1854491233825684,-0.08066000044345856,26.414875030517575,-25.850982666015625,-17.90336036682129,-0.43646690249443054,-0.3196563720703125,0.5407552719116211,990.4559326171876,0,0.0,0,1
17.76,0.120325446,8.700217,5.672134,-0.1508520245552063,-0.14110569655895233,-0.12645404040813446,25.85189819335937,-25.1664981842041,-17.933645248413086,-0.2353231012821197,-0.704681396484375,0.1351776123046875,990.4505004882812,0,0.0,0,1
17.8,-0.037490577000000004,8.297444,6.3302093,-0.3271495997905731,-0.1718657612800598,-0.1895693987607956,25.971904754638672,-24.42136001586914,-18.99653434753418,-0.0831107422709465,-0.5183525085449219,-0.4644932746887207,990.4861450195312,0,0.0,0,1
17.84,0.22770607,8.187816999999999,6.3278337,-0.15444216132164,-0.1046212688088417,-0.1044807955622673,25.403276443481445,-23.00471496582031,-18.99180793762207,-0.4544057846069336,-0.3099350929260254,-0.3966917991638184,990.468017578125,0,0.0,0,1
17.88,0.029261707999999997,7.651581,6.065067,-0.15444216132164,-0.1046212688088417,-0.1044807955622673,25.403276443481445,-23.00471496582031,-18.99180793762207,-0.27055186033248896,0.05228757858276367,-0.26113080978393555,990.468017578125,0,0.0,0,1
17.92,-0.1142149,7.637283,5.5371733,0.05528238043189049,-0.13298402726650238,-0.14775678515434265,25.4514274597168,-23.381244659423828,-18.669252395629886,-0.03803826868534088,0.32117223739624023,0.08600330352783203,990.503173828125,0,0.0,0,1
17.96,0.038656324,8.061509,4.940631,0.04756001755595207,0.005500099156051874,-0.05454589053988457,25.380146026611328,-23.65894317626953,-18.25709724426269,-0.1850578933954239,-0.2128691673278809,1.0958685874938965,990.4547119140624,0,0.0,0,1
18.0,-0.15500824,7.4752244999999995,5.617643,-0.10903292149305344,0.005100497510284185,-0.041895542293787,25.82013702392578,-22.6669921875,-19.152788162231445,-0.0973929613828659,0.21399497985839844,0.3582305908203125,990.4375610351562,0,0.0,0,1
18.04,-0.34150308,7.229748700000001,6.249678,-0.2665579617023468,-0.07332965731620789,-0.11646365374326705,25.72782325744629,-22.75348281860352,-19.056520462036133,0.11044833064079283,0.4398989677429199,0.0039033889770507812,990.467529296875,0,0.0,0,1
18.08,-0.040457934,7.5038279999999995,6.3254220000000005,-0.24751558899879456,-0.17572824656963348,-0.03829959034919739,25.70624923706055,-22.19398498535156,-19.470853805541992,0.008413955569267273,0.4154071807861328,-0.4604310989379883,990.4596557617188,0,0.0,0,1
18.12,-0.45638332,8.090116,6.081592,-0.24751558899879456,-0.17572824656963348,-0.03829959034919739,25.35319709777832,-22.15545082092285,-20.034578323364254,0.2274888753890991,-0.2501688003540039,0.11976194381713867,990.4596557617188,0,0.0,0,1
18.16,-0.49709415,8.607289,6.3798523000000005,0.01507265493273735,-0.18478313088417053,0.06223499029874801,25.202077865600586,-21.875717163085934,-19.7197208404541,0.5479130148887634,-0.7923207283020021,-0.4455924034118652,990.4800415039062,0,0.0,0,1
18.2,-0.61667174,8.2498,5.9584823,0.035313453525304794,-0.1909085065126419,-0.0031452160328626637,24.21835517883301,-21.79574584960937,-19.957735061645508,0.4515912830829621,-0.7783913612365723,0.10780811309814453,990.4644165039062,0,0.0,0,1
18.24,-0.769708,7.60155,6.4295480000000005,-0.054034724831581116,-0.050427008420228965,0.01722828671336174,24.413360595703125,-21.824289321899414,-19.29325294494629,0.7361131906509399,0.027046680450439453,-0.18529462814331052,990.447021484375,0,0.0,0,1
18.28,0.018877149,7.706417,6.585775999999999,-0.12620551884174347,0.1620929390192032,-0.040428757667541504,24.96916198730469,-21.77808380126953,-19.15065193176269,0.16745370626449585,-0.08099651336669922,-0.327667236328125,990.4542846679688,0,0.0,0,1
18.32,0.5445732,7.792217,6.850894500000001,-0.2391226589679718,0.19351807236671448,0.1172305792570114,25.052913665771484,-20.856460571289066,-19.756372451782227,-0.4725435674190521,-0.15621137619018555,-0.7288298606872559,990.479736328125,0,0.0,0,1
18.36,0.6615958000000001,7.944748,5.889803,-0.1123555228114128,0.14864371716976166,0.3502573072910309,25.32028579711914,-21.343883514404297,-19.307153701782227,-0.6252527236938477,-0.3111968040466309,-0.012174606323242188,990.4593505859376,0,0.0,0,1
18.4,0.32453716,7.787453999999999,5.731193,0.18631935119628906,0.21788561344146729,0.2477263957262039,25.045551300048828,-21.864253997802734,-19.69626808166504,-0.33837851881980896,-0.18541288375854487,0.5619597434997559,990.4818725585938,0,0.0,0,1
18.44,0.0926342,7.4228144,6.263806,-0.002231513150036335,0.2272065132856369,0.07701824605464935,25.46281623840332,-22.0007438659668,-19.059724807739254,-0.15079380571842196,0.12491130828857422,-0.0548558235168457,990.44580078125,0,0.0,0,1
18.48,-0.026943415,7.074857700000001,6.4579086,-0.15589497983455658,0.29325273633003235,0.022024357691407204,26.339824676513672,-22.3383903503418,-19.25209617614746,-0.04349828138947487,0.4579062461853027,-0.13147926330566406,990.4431762695312,0,0.0,0,1
18.52,-0.027025878,7.031961,6.7987785,-0.0953073352575302,0.20630046725273127,0.06383629888296127,26.391998291015625,-22.34221076965332,-19.259912490844727,0.04832489043474197,0.5694150924682617,-0.6617293357849121,990.4736328125,0,0.0,0,1
18.56,0.27162933,7.45142,6.237744,0.02666614204645157,0.11016029864549637,0.2048509120941162,26.03079605102539,-21.942752838134766,-19.53556251525879,-0.12585027515888214,0.2942495346069336,-0.1931295394897461,990.4761352539062,0,0.0,0,1
18.6,0.54877543,7.713583,6.221166,0.05409746989607811,0.1724780797958374,0.33800917863845825,26.05777740478516,-22.233991622924805,-18.82982063293457,-0.4526240825653076,-0.08554792404174805,0.09908151626586914,990.47607421875,0,0.0,0,1
18.64,0.47460604,7.482406599999999,6.552567,-0.03897913172841072,0.11974742263555528,0.2938010394573212,26.20226287841797,-22.15132141113281,-18.933908462524414,-0.4119293391704559,0.02315855026245117,-0.3670773506164551,990.4581909179688,0,0.0,0,1
18.68,0.09313929,7.2607393,6.053171599999999,-0.012346748262643814,0.0829956978559494,0.14200137555599213,26.51129150390625,-22.546953201293945,-18.650442123413086,-0.04767465591430664,0.3152165412902832,0.013901710510253906,990.450439453125,0,0.0,0,1
18.72,0.041538924,7.387028699999999,5.894658,0.038915097713470466,0.13852320611476898,0.059574905782938,26.54091453552246,-22.361040115356445,-18.89683723449707,0.07111714780330658,0.2363572120666504,0.30954742431640625,990.4856567382812,0,0.0,0,1
18.76,-0.061229408,7.4656773,6.0201197,-0.022218365222215646,0.1057686060667038,0.07554786652326584,26.52012634277344,-23.170255661010746,-19.539140701293945,0.14418530464172366,0.1445450782775879,0.2611708641052246,990.4678344726562,0,0.0,0,1
