Timestamp,Ax,Ay,Az,Gx,Gy,Gz,Mx,My,Mz,LiAx,LiAy,LiAz,P,Value,Type,GroupType
0.0,0.07644862,-0.15487221,9.757707,8.93e-05,0.00014,-0.000157,1.261909485,16.17897415,-13.86925316,0.005218945,0.006058305999999999,0.060201645,990.7657471000001,0,0.0,0
0.04,0.081204295,-0.16202146,9.757705,0.000755,0.0008060000000000001,-0.0006900000000000001,1.0011930470000001,16.72430229,-12.70622063,0.014495842,0.011060357,0.046006202999999996,990.7933960000001,0,0.0,0
0.08,0.0764004,-0.15010446,9.771905,0.000356,0.000273,0.000109,0.6700148579999999,16.83547211,-12.43073845,0.00017900000000000001,-0.017516971,0.050744057,990.7684937000001,0,0.0,0
0.12,0.07398641,-0.14057076,9.764802,-4.31e-05,0.00040599999999999995,-2.3899999999999998e-05,0.76757431,16.66400528,-13.35955238,-0.009445682,-0.022202267999999997,0.027076721,990.8062133999999,0,0.0,0
0.16,0.08830172,-0.15725312,9.757698,0.000223,0.00014,-0.000956,0.905676842,16.10864639,-13.57929039,-0.00934352,0.00162527,0.055484772,990.831543,0,0.0,0
0.2,0.07632807,-0.1620191,9.755328,-0.000176,-0.00026000000000000003,-0.00042300000000000004,0.8828458790000001,16.08655167,-12.41971397,0.00034700000000000003,-0.00813739,0.041280746,990.8366699,0,0.0,0
0.24,0.070387244,-0.15489945,9.760176,-0.000176,-0.00026000000000000003,-0.00042300000000000004,0.8828458790000001,16.08655167,-12.41971397,0.018049553,0.001090035,0.045897484,990.8366699,0,0.0,0
0.28,0.07997221,-0.15966657,9.750709,-0.001116426,0.001206361,0.00037200000000000004,0.846869469,16.47486687,-13.36070442,-0.00118953,0.005669266,0.050627708,990.8265991000001,0,0.0,0
0.32,0.084777385,-0.14060095,9.767282000000002,0.000212,8.45e-06,-0.0005610000000000001,1.0880987640000002,16.54252625,-13.09390068,-0.011160903,-0.027697712000000003,0.036424637,990.8444214,0,0.0,0
0.36,0.08002296,-0.14775142,9.750712,-0.000321,0.000541,-0.0009609999999999999,0.637188911,16.12038803,-13.153680800000002,0.002727747,-0.00851427,0.060100555,990.8343506000001,0,0.0,0
0.4,0.08243823,-0.14536878,9.767287,-0.000321,0.000807,-0.00042800000000000005,0.9762759209999999,16.64871979,-13.39081764,-0.011315048000000001,-0.013812736,0.045881270999999994,990.8544922,0,0.0,0
0.44,0.0752939,-0.15251923,9.764921000000001,-0.000321,0.000807,-0.00042800000000000005,0.9762759209999999,16.64871979,-13.39081764,0.002764598,-0.004332572,0.036413192999999996,990.8544922,0,0.0,0
0.48,0.07531926,-0.15966967,9.762557000000001,0.00021099999999999998,0.000808,-2.9100000000000003e-05,0.46946740200000003,16.48983002,-12.68754768,0.002939448,0.005105257,0.050609589,990.8670653999999,0,0.0,0
0.52,0.07773453,-0.14537063,9.750722999999999,0.00021099999999999998,0.000808,-2.9100000000000003e-05,0.46946740200000003,16.48983002,-12.68754768,-0.011354625,-0.009234443,0.050607680999999995,990.8670653999999,0,0.0,0
0.56,0.07775992,-0.14537129,9.767294999999999,-5.56e-05,-0.000391,0.00010400000000000001,0.820154905,16.18597794,-12.56984138,0.012393072,-0.008983745999999999,0.045876503,990.8366699,0,0.0,0
0.6,0.07778525,-0.15490499,9.743627,-0.000588,-0.000391,0.00023700000000000001,0.6863212590000001,16.11362076,-13.00688744,-0.001980089,0.0005639999999999999,0.064811707,990.8192139,0,0.0,0
0.64,0.08020055,-0.15252233,9.774402,0.00061,0.000541,-0.000562,0.98290658,16.28632355,-13.601587300000002,0.0029701890000000002,-0.008851737,0.031669617000000004,990.8292847000001,0,0.0,0
0.68,0.07305622,-0.15728953,9.7578335,-0.000323,-0.000524,0.00010400000000000001,0.558437824,15.9412384,-13.05407906,-0.001761049,0.00044,0.04113102,990.8444214,0,0.0,0
0.72,0.082641184,-0.16205668,9.753102,-0.00018999999999999998,0.00014199999999999998,0.00037,0.44509244,16.04596138,-13.27369499,-0.001761526,0.01007688,0.06480217,990.8494873,0,0.0,0
0.76,0.08027667,-0.1429911,9.769674,-0.00018999999999999998,-0.000524,-0.000962,1.008505344,16.09952927,-13.51761818,-0.001973651,-0.018496066000000002,0.050598145,990.8266602,0,0.0,0
0.8,0.08269194,-0.15490809,9.767309,-5.73e-05,0.000808,-0.000696,0.6280584339999999,16.11154938,-12.68985176,-0.011667036,-0.004247099,0.036392212,990.8243408,0,0.0,0
0.84,0.07554757599999999,-0.15252545,9.762578,7.56e-05,0.000542,-0.000962,0.497267485,16.04214096,-13.28151131,0.007394813,0.00040199999999999996,0.031654358,990.8519897,0,0.0,0
0.88,0.07318306,-0.16444245,9.767314,-5.7799999999999995e-05,0.000675,-0.00016299999999999998,0.7252345090000001,16.83459473,-12.59316444,-0.002500318,-0.004303068,0.036390305,990.8395995999999,0,0.0,0
0.92,0.08515793,-0.14776015,9.764949,-0.000324,0.000675,0.0006360000000000001,0.6246085170000001,16.58281136,-13.33277321,-0.01664263,-0.013933167,0.055321693,990.8165893999999,0,0.0,0
0.96,0.08518332,-0.15014401,9.767319,0.000341,-0.001056175,-0.000297,1.054592371,16.08981705,-13.21621513,-0.002438501,-0.013907716,0.036382675,990.8115845000001,0,0.0,0
1.0,0.0804289,-0.15491125,9.762587,-0.000591,0.00040899999999999997,0.00036899999999999997,0.8634743690000001,16.38515091,-13.51198006,0.002129808,0.009815425,0.050583839000000005,990.8395995999999,0,0.0,0
1.04,0.08045423,-0.15252855,9.750752,-0.000192,0.000542,-0.00043,1.055273533,15.82744408,-13.81684303,-0.002648175,0.000188,0.055314064,990.8218383999999,0,0.0,0
1.08,0.08047962,-0.15014592,9.75549,-0.000325,-0.00025699999999999996,0.000236,0.591102123,16.13010025,-13.45508766,-0.012456833999999998,-0.014072135,0.045845985,990.8369751,0,0.0,0
1.12,0.07333529,-0.14537993,9.750757,-0.000192,0.001873458,0.000102,1.066087246,16.36397362,-13.23402596,0.010836616,-0.014008626000000001,0.078989029,990.8343506000001,0,0.0,0
1.16,0.070970744,-0.16444686,9.774432000000001,7.37e-05,9.29e-06,0.000102,0.7591238020000001,16.39279366,-13.49634743,0.005865633,0.009479284000000001,0.045842170999999994,990.8446045,0,0.0,0
1.2,0.07758033,-0.15489998,9.772014,-0.000725,0.000808,-0.0009630000000000001,0.794694424,16.47868729,-13.35288429,0.005700946,0.004396424,0.036367416,990.8065186000001,0,0.0,0
1.24,0.0674254,-0.15965196,9.750653,-0.000325,0.00040899999999999997,0.000502,0.434576511,16.14156723,-13.43163872,0.006814025,-0.00023799999999999998,0.060150145999999995,990.84198,0,0.0,0
1.28,0.07696351400000001,-0.15488485,9.764855,0.00035099999999999997,0.000407,0.0005059999999999999,0.877577305,15.92420387,-13.41020012,-0.0075145590000000005,-0.00032599999999999996,0.036478042999999995,990.8319092,0,0.0,0
1.32,0.07694203,-0.14296791,9.760118499999999,-0.0005809999999999999,-0.000525,0.00010700000000000001,0.505856514,16.41926575,-13.84379387,0.006909534,-0.009895026999999999,0.041213036,990.8471069,0,0.0,0
1.36,0.081700295,-0.14773396,9.774321,-0.000182,-0.000126,-0.000292,0.890594482,16.19983292,-13.5053196,-0.002544656,-0.014692247,0.031744957000000004,990.8067017000001,0,0.0,0
1.4,0.07689899,-0.15011668,9.767217,-0.00044800000000000005,0.0006730000000000001,-0.000292,0.896544456,16.09980774,-13.11546135,0.011488453000000001,-0.004887626,0.050691605,990.8269042999999,0,0.0,0
1.44,0.07926738,-0.14773294,9.767215,0.000884,0.00054,-0.000559,0.819314003,15.92213058,-13.09316444,-0.002469055,-0.019074574,0.03175354,990.8117064999999,0,0.0,0
1.48,0.07685596,-0.15011564,9.76958,0.00021899999999999998,-0.001324197,-2.59e-05,0.979863167,16.28337669,-13.44697762,-0.006887592,-0.004416868,0.041228294,990.8395995999999,0,0.0,0
1.52,0.081614226,-0.15488169,9.767211,0.001150896,-0.001191073,0.000906,1.136824608,17.009967800000002,-13.74463081,-0.0068151209999999995,-0.008942216999999999,0.045969009000000005,990.8268433000001,0,0.0,0
1.56,0.08876243,-0.14296469,9.755374,-0.00058,0.00014,-0.000292,1.126416206,15.99922943,-13.52991676,-0.00655897,-0.013814524,0.06017017400000001,990.8394775,0,0.0,0
1.6,0.0744015,-0.15011409,9.750636,-0.000446,0.00054,0.0005070000000000001,0.817386389,16.39486504,-13.81338692,-0.001961201,-0.004505858,0.060172080999999995,990.8319092,0,0.0,0
1.64,0.07676989,-0.15726337,9.760102999999999,-0.000446,0.00054,0.0005070000000000001,0.817386389,16.39486504,-13.81338692,-0.006736584,-0.004504025,0.045969009000000005,990.8319092,0,0.0,0
1.68,0.09108779,-0.14534643,9.7601,0.00022,0.0006730000000000001,0.00037400000000000004,0.72257328,15.9371376,-13.4640522,-0.006834656,-0.004277691,0.041243552999999995,990.8193358999999,0,0.0,0
1.72,0.07194704,-0.14057934,9.755364,0.00022,0.0006730000000000001,0.00037400000000000004,0.72257328,15.9371376,-13.4640522,0.002545439,-0.023181856,0.0507164,990.8193358999999,0,0.0,0
1.76,0.07670534,-0.15726176,9.7529955,0.00022,0.0006730000000000001,0.00037400000000000004,0.46419715899999997,16.32748413,-13.67803383,0.002488531,0.009947121,0.050715446,990.8193358999999,0,0.0,0
1.8,0.07668382,-0.15964451,9.760096,-0.000312,0.00014,-2.52e-05,0.47623634299999995,16.23334885,-13.59739494,-0.001954205,0.000135,0.045975685,990.8192749,0,0.0,0
1.84,0.07905221,-0.15964398,9.76246,-0.000312,0.00014,-2.52e-05,0.47623634299999995,16.23334885,-13.59739494,-0.006599024,0.004794255,0.050709724000000005,990.8192749,0,0.0,0
1.88,0.08381051,-0.14534381,9.76956,-0.00044500000000000003,-0.000526,0.00010800000000000001,1.175982952,16.73051453,-13.65732765,-0.011445895,-0.014101028,0.036512375,990.8446045,0,0.0,0
1.92,0.0861789,-0.15964293,9.760089,0.000475,-0.000784,0.000227,0.531860352,15.75827026,-12.96229744,-0.006109543,-0.0043613309999999995,0.041248322000000004,990.8242798,0,0.0,0
1.96,0.07898766,-0.15010932,9.762454,0.000475,-0.000784,0.000227,0.531860352,15.75827026,-12.96229744,0.00837446,0.00031099999999999997,0.055450439000000004,990.8242798,0,0.0,0
2.0,0.08374596,-0.15010872,9.760086,-0.000723,-0.000252,0.000493,0.9804060459999999,15.91508675,-13.34852791,-0.0062470730000000006,-0.009529248,0.050715446,990.8369751,0,0.0,0
2.04,0.08611432,-0.16202465,9.755349,-0.000723,-0.000252,0.000493,0.9804060459999999,15.91508675,-13.34852791,-0.020203091,0.00925751,0.041240692,990.8369751,0,0.0,0
2.08,0.06697363,-0.15010771,9.774284,-0.0008560000000000001,-0.0013171720000000001,9.379999999999999e-05,1.377318859,15.70743561,-13.62849236,0.009251863,-0.005477755999999999,0.031761169,990.8294066999999,0,0.0,0
2.12,0.093241036,-0.15487376,9.764813,-0.001388149,-0.000918,9.39e-05,0.65477252,16.40044022,-13.480714800000001,-0.014941685,-0.001045406,0.031761169,990.8292847000001,0,0.0,0
2.16,0.07649019,-0.15725651,9.7624445,-0.000589,0.000414,-0.000305,0.652271748,16.02920151,-13.22765541,0.01365409,0.008370906,0.041230202,990.8218383999999,0,0.0,0
2.2,0.08440077,-0.16919103,9.750676,-0.00018899999999999999,-0.00011899999999999999,-0.000439,0.6803708079999999,16.21364594,-13.39674568,-0.006146677,0.008551463,0.045898438,990.8444214,0,0.0,0
2.24,0.072460175,-0.15250832,9.76488,0.000472,0.000148,0.000625,0.47623539,16.23335075,-13.59739494,0.017758533,-0.0008730000000000001,0.05063343,990.7991332999999,0,0.0,0
2.28,0.08202869,-0.15965839999999998,9.771983,0.00020299999999999997,-0.000118,0.00022400000000000002,0.581129551,15.85741806,-13.51457787,-0.010843702,0.004053742,0.03643322,990.8344727,0,0.0,0
2.32,0.07008803,-0.14774224,9.764882,0.000869,-0.000517,0.00022400000000000002,0.36981964100000003,16.60781097,-13.60290718,0.008492664,-0.009979784,0.050637245,990.8243408,0,0.0,0
2.36,0.08204648,-0.15012577,9.750680000000001,6.97e-05,-0.0011829339999999999,-0.000442,0.834831715,16.56900024,-13.44133949,0.00912068,-0.0004980000000000001,0.055364609,990.8318481000001,0,0.0,0
2.4,0.07249576,-0.15250921,9.757782,-0.000463,-0.000384,-4.22e-05,0.662245274,16.3018856,-13.16816521,0.008860625,-0.005448774,0.050629615999999995,990.8469848999999,0,0.0,0
2.44,0.07489458,-0.16680908,9.76015,0.000469,0.00028199999999999997,9.09e-05,0.727437019,16.57369614,-13.27109718,-0.0007769999999999999,0.004215732,0.041161537000000005,990.8218383999999,0,0.0,0
2.48,0.07251358,-0.14774308,9.764886,-0.000197,0.0013471079999999999,0.000357,0.974318027,15.90919495,-13.03930855,0.008139245,-0.024435982000000002,0.045898438,990.8090210000001,0,0.0,0
2.52,0.079692185,-0.15489313,9.76962,6.94e-05,0.00028199999999999997,9.08e-05,0.570613146,15.953022,-13.67252159,-0.006210163,-0.00037999999999999997,0.036434174,990.8140868999999,0,0.0,0
2.56,0.06775159,-0.14536026,9.755417999999999,0.000202,1.56e-05,0.001156051,0.819015741,15.28999329,-13.5180378,0.022059254,-0.010008841999999999,0.055372238,990.8165893999999,0,0.0,0
2.6,0.070150405,-0.15251032,9.760154,-0.00033,0.0014803079999999998,0.000357,0.9723906520000001,16.38192749,-13.75953102,-0.002270401,-0.014775947,0.04117012,990.8419188999999,0,0.0,0
2.64,0.07493907,-0.15966043,9.745951,-0.000197,0.000149,0.000357,0.604960442,16.66958046,-13.02688026,0.002390236,0.004395306,0.055376053,990.8469848999999,0,0.0,0
2.68,0.08211768,-0.15727726,9.774358,0.000602,0.00028199999999999997,0.00049,0.396802425,16.3165741,-12.897165300000001,-0.006908968000000001,-0.004731402,0.03170681,990.8292847000001,0,0.0,0
2.72,0.08690637,-0.15012765,9.760156,0.000602,-0.000384,0.000357,0.364411831,16.3395462,-13.89431572,-0.011503793,-0.004867211,0.060109138,990.8343506000001,0,0.0,0
2.76,0.074965805,-0.13821149,9.745954,-0.000597,-0.000384,0.000357,0.628876209,15.95509338,-13.98955727,0.012050055,-0.019060582,0.060112,990.8292847000001,0,0.0,0
2.8,0.074974686,-0.14536157,9.764892,0.000601,0.000681,-0.000442,0.640233755,16.12333298,-13.3082943,-0.002590775,-0.00931704,0.045915604000000006,990.8065186000001,0,0.0,0
2.84,0.077373505,-0.1596615,9.760159,0.000202,0.001080918,9.05e-05,0.712057114,16.03274536,-13.62199593,-0.0027749309999999996,0.0049261,0.04591465,990.8192139,0,0.0,0
2.88,0.08216219999999999,-0.1501286,9.769627999999999,-0.000198,0.0005480000000000001,9.05e-05,0.492297173,16.51192474,-13.8471241,-0.012425296,-0.023689388999999998,0.041179657,990.8115845000001,0,0.0,0
2.92,0.08456099,-0.15251198,9.7719965,-0.000198,-0.00065,-4.270000000000001e-05,0.602054358,16.77254868,-13.57134819,-0.00727509,0.00019099999999999998,0.041176796,990.8241577,0,0.0,0
2.96,0.06306076,-0.15489551,9.762527,6.840000000000001e-05,1.57e-05,-4.270000000000001e-05,0.401506424,16.4269104,-13.82815742,0.020925149,0.004727721,0.055379868,990.8494873,0,0.0,0
3.0,0.070239365,-0.14536265,9.750693,-6.49e-05,-0.00104954,-0.000176,0.6221079829999999,16.21157455,-13.07971382,0.007093579,-0.01415436,0.069581032,990.8519897,0,0.0,0
3.04,0.07263818400000001,-0.14774618,9.769631,-6.49e-05,-0.00104954,-0.000176,0.6221079829999999,16.21157455,-13.07971382,-0.011945963,-0.018855378,0.036438942,990.8519897,0,0.0,0
3.08,0.072647065,-0.14536312,9.755429,-6.49e-05,-0.00104954,-0.000176,0.5458569529999999,16.40365982,-13.23316765,0.002733663,-0.013974175,0.045905113,990.8519897,0,0.0,0
3.12,0.08221558,-0.15489647,9.753062,0.000601,-0.00065,-0.000309,0.743200064,16.22013474,-13.94569588,-0.0022332,0.000425,0.064846992,990.8165893999999,0,0.0,0
3.16,0.0798029,-0.15251258,9.757794,6.8e-05,0.00028199999999999997,-4.29e-05,0.611186504,16.78138733,-14.03518105,-0.011878639,-0.013700172,0.045915604000000006,990.8164673,0,0.0,0
3.2,0.06543881,-0.15251198,9.7672615,0.000601,0.000682,0.00049,0.782901525,15.57239342,-13.75994682,0.011730783,-0.013810545,0.041181564,990.8265991000001,0,0.0,0
3.24,0.08217442,-0.16442853,9.7719965,0.000601,0.000682,0.00049,0.782901525,15.57239342,-13.75994682,-0.002451934,0.000392,0.036445618,990.8265991000001,0,0.0,0
3.28,0.07979089,-0.14297917,9.767261999999999,-6.47e-05,0.00041500000000000006,-0.000176,0.867741585,15.75743484,-14.16876793,-0.016946547,-0.013939798,0.045912743,990.8416138,0,0.0,0
3.32,0.07740736,-0.15966229999999998,9.762528999999999,-6.48e-05,0.000149,-4.28e-05,1.2194089890000002,15.82334518,-14.22681618,0.007048041,-0.004330188,0.045912743,990.8065186000001,0,0.0,0
3.36,0.079803586,-0.15966246,9.774365,-6.48e-05,0.000149,-4.28e-05,1.2194089890000002,15.82334518,-14.22681618,0.00687705,0.005093679,0.04117775,990.8065186000001,0,0.0,0
3.4,0.07503015,-0.15727934,9.755427000000001,-0.00015900000000000002,0.00084,-0.0008820000000000001,0.893638134,16.20278168,-13.65992546,0.011649847,-0.009097427,0.055382729000000006,990.8340454,0,0.0,0
3.44,0.07981625,-0.15727952,9.760163,0.00023999999999999998,-0.000359,-8.329999999999999e-05,0.671376705,16.31072617,-13.63199043,-0.012332171000000001,-0.009053081,0.045913696,990.8165283,0,0.0,0
3.48,0.07982260000000001,-0.15489635,9.764897999999999,-0.00015900000000000002,0.000573,0.000449,0.7372496129999999,16.32015991,-14.33555412,-0.002853788,-0.004348919000000001,0.041178703,990.831665,0,0.0,0
3.52,0.070269346,-0.16204628,9.753062,-2.6000000000000002e-05,0.000174,-0.000616,0.568548203,16.31983948,-13.69366646,0.0020766779999999998,-0.004553273,0.041173935,990.8164673,0,0.0,0
3.56,0.070275664,-0.14536354,9.760164999999999,-0.000425,-0.000625,0.000183,0.46571922299999996,16.328956599999998,-13.75534248,0.002114028,-0.009061679,0.041176796,990.8291016000001,0,0.0,0
3.6,0.07028201,-0.15728012,9.776736,0.001172335,4.09e-05,-8.340000000000001e-05,0.5401506420000001,15.50325775,-13.94944954,0.011626892,-0.0040399879999999996,0.036446571000000004,990.8567505000001,0,0.0,0
3.64,0.075068176,-0.15489694,9.757799,-2.61e-05,-0.000225,-0.000616,0.9424710270000001,15.563875199999998,-13.93800545,-0.012033522,-0.00854893,0.036447525,990.8063965,0,0.0,0
3.68,0.07746439999999999,-0.15013057,9.772002,0.000373,-0.000359,-0.00035,0.731024265,16.20835114,-13.32725716,0.012165077,-0.013287588999999999,0.031710625,990.8316039999999,0,0.0,0
3.72,0.06791115,-0.1548973,9.764901,0.000373,-0.000891,-0.001015562,0.7996659279999999,16.00889969,-12.7872715,-0.001982331,-0.00354746,0.041181564,990.8287964,0,0.0,0
3.76,0.07747710000000001,-0.16919711,9.764902000000001,0.00023999999999999998,-0.000625,-0.000749,0.61104846,16.67547226,-13.33609962,-0.006468705999999999,0.020513161999999998,0.050650597,990.8062133999999,0,0.0,0
3.8,0.07270360000000001,-0.15251431,9.760169,0.000773,-0.000625,4.96e-05,0.522322655,16.22363663,-13.295991899999999,0.007979795,-0.008081049,0.045913696,990.8213501,0,0.0,0
3.84,0.07270998,-0.15013120000000002,9.769639,0.00023999999999999998,-0.000492,-8.35e-05,0.64730072,16.49898911,-13.7932682,0.007773489000000001,-0.008007422,0.045916557000000004,990.8340454,0,0.0,0
3.88,0.0751062,-0.15728119,9.764904,0.00023999999999999998,0.000307,-0.001015667,0.8279027940000001,16.29925919,-13.65544319,0.002975695,-0.003000617,0.050654410999999996,990.8110352,0,0.0,0
3.92,0.07989237,-0.1382151,9.757803,0.000373,-0.000625,-8.36e-05,1.004076719,16.20102692,-13.98478127,0.01278948,-0.007618025,0.055389404,990.8289795,0,0.0,0
3.96,0.07033908,-0.15489826,9.760171000000001,0.0005059999999999999,-0.000758,-0.00035,0.7211887840000001,16.04158401,-14.08582497,0.008061744000000001,0.002022758,0.045919418,990.8239745999999,0,0.0,0
4.0,0.065565616,-0.16919807,9.760171000000001,-0.0006929999999999999,0.000307,0.000582,0.493680954,16.40748215,-13.22535133,-0.001787156,0.020965457,0.055390358,990.8491821,0,0.0,0
4.04,0.0846912,-0.15251526,9.764907000000001,0.000373,-0.00035800000000000003,-8.37e-05,0.671919823,15.94243622,-13.53354073,0.003169343,-0.007420078,0.045921326,990.8414307,0,0.0,0
4.08,0.08230764,-0.14774886,9.764907000000001,0.000373,-0.00035800000000000003,-8.37e-05,0.671919823,15.94243622,-13.53354073,-0.00161539,-0.012026682,0.050658225999999994,990.8414307,0,0.0,0
4.12,0.0775342,-0.14774898,9.757806,0.0005059999999999999,-0.00035800000000000003,-0.000217,0.580724239,16.33162308,-14.31210518,0.012919202,-0.0021752860000000002,0.031723022000000003,990.8286132999999,0,0.0,0
4.16,0.073171556,-0.16682550000000002,9.769680000000001,0.0005059999999999999,-0.00035800000000000003,-0.000217,0.580724239,16.33162308,-14.31210518,0.012468293,0.016662747,0.017478943,990.8286132999999,0,0.0,0
4.2,0.08036411,-0.15252635,9.76258,-3.09e-05,-0.000221,-0.0008849999999999999,0.618520737,16.57691956,-13.02355003,-0.001533426,0.007288739,0.041147232,990.8212279999999,0,0.0,0
4.24,0.08755666,-0.15491018,9.772052,-3.09e-05,-0.000221,-0.0008849999999999999,0.618520737,16.57691956,-13.02355003,-0.010711372,0.002374545,0.036405562999999995,990.8212279999999,0,0.0,0
4.28,0.07801989,-0.14537764,9.762585000000001,-3.13e-05,-0.000621,-0.00035299999999999996,0.446071148,16.41572571,-13.44944954,-0.001039661,-0.016680375,0.041136742000000004,990.8441162,0,0.0,0
4.32,0.07326293,-0.17159432,9.76022,-0.000964,4.52e-05,0.000446,0.8164076809999999,16.02510071,-13.63762856,-0.006054386,0.016255215,0.045863152000000004,990.8638916000001,0,0.0,0
4.36,0.08284533,-0.15729517,9.757854,-0.000964,4.52e-05,0.000446,0.8164076809999999,16.02510071,-13.63762856,-0.001022108,0.001757696,0.055326462,990.8638916000001,0,0.0,0
4.4,0.07330859,-0.15252915,9.769692,0.00023500000000000002,-0.000221,-0.00035299999999999996,0.638849735,16.22777748,-13.93006325,0.018391348000000002,-0.012264028,0.04585647599999999,990.8111572,0,0.0,0
4.44,0.073331386,-0.15729627,9.743656,0.00023500000000000002,-0.000221,-0.00035299999999999996,0.638849735,16.22777748,-13.93006325,-0.000314,-0.007508308000000001,0.06952285799999999,990.8111572,0,0.0,0
4.48,0.07813406,-0.15729684,9.767329,-0.000165,-0.000754,-0.000886,0.845485687,16.57931137,-13.98247719,-0.000475,0.001982868,0.036379813999999996,990.8137816999999,0,0.0,0
4.52,0.07815686,-0.16206393,9.76023,-0.000165,-0.000754,-0.000886,0.845485687,16.57931137,-13.98247719,0.009248964,0.011552155,0.060049057,990.8137816999999,0,0.0,0
4.56,0.07578981,-0.15491468,9.764966000000001,-0.00043200000000000004,-0.000354,-0.00035299999999999996,0.44523000700000004,16.15187836,-13.972772599999999,0.013855748000000001,-0.007885724,0.036371231000000004,990.8210449,0,0.0,0
4.6,0.07342273,-0.15014872,9.762601,-0.0008320000000000001,-0.000487,0.00017900000000000001,0.517895222,16.32513428,-13.76315498,0.014085568,-0.003159747,0.055301666,990.8236694,0,0.0,0
4.64,0.07583544,-0.15729907,9.762605,0.000233,0.00017900000000000001,0.000712,0.282616615,16.15745163,-13.64010429,0.009188689,0.0016331229999999998,0.045832634000000004,990.8236694,0,0.0,0
4.68,0.07346839,-0.13823339999999998,9.774442,9.98e-05,4.55e-05,0.00017900000000000001,0.780836344,15.93920898,-13.78109169,0.014313281,-0.007817522,0.031625747999999995,990.798645,0,0.0,0
4.72,0.06871139999999999,-0.15253365,9.757873,-0.000167,-0.001019772,4.59e-05,0.17870092399999998,16.90314865,-13.89867592,-7.979999999999999e-05,-0.002839267,0.055299759000000004,990.8011475,0,0.0,0
4.76,0.07590395,-0.16683385,9.76261,0.000233,-0.000221,-8.73e-05,0.710672855,16.13718796,-14.24376869,-0.000205,0.015827894,0.045824051,990.8513793999999,0,0.0,0
4.8,0.07831669,-0.15015149,9.772081,-0.000433,-8.759999999999999e-05,0.00017900000000000001,0.916329145,16.11895752,-14.12042427,-0.00021600000000000002,-0.008015975,0.031617165,990.7984618999999,0,0.0,0
4.84,0.061610192,-0.15253532,9.762614,-0.000301,0.0005780000000000001,-8.75e-05,0.554009438,16.04273605,-13.52124214,0.013764061000000001,-0.003354996,0.05055522900000001,990.8134766000001,0,0.0,0
4.88,0.08314216,-0.15491918,9.776819,-0.000434,0.000312,4.55e-05,1.0361680979999999,15.54592133,-13.41250038,-0.000333,0.005971238,0.026875496000000002,990.8210449,0,0.0,0
4.92,0.06882554,-0.1453866,9.757883999999999,-0.00036899999999999997,-0.0014682229999999998,0.00022799999999999999,0.670535564,16.04687881,-14.15531349,0.023758076,-0.0036244690000000004,0.041074753,990.8259888,0,0.0,0
4.96,0.06884837,-0.15492025,9.755519,-0.00036899999999999997,0.000396,-3.85e-05,1.165168762,16.19398117,-14.24014473,0.013926543000000001,0.005738124,0.05053997,990.8112183000001,0,0.0,0
5.0,0.07126111,-0.16207066,9.762622,2.9999999999999997e-05,0.00013000000000000002,0.000361,0.689801216,16.85462189,-13.43570137,-0.000299,0.001000777,0.041069031,990.8059082000001,0,0.0,0
5.04,0.07606375,-0.15968800000000002,9.772094000000001,0.000296,-0.000536,0.000627,-0.0038580890000000003,16.36334991,-13.68499184,0.00449691,-0.00346154,0.036336899,990.7983398,0,0.0,0
5.08,0.071306765,-0.1501554,9.769729,0.00016299999999999998,0.000396,-0.000305,0.27902936899999997,16.52279282,-13.58394432,0.013562411000000002,-0.008543581,0.045801163,990.8085327,0,0.0,0
5.12,0.07371953,-0.15015593,9.767362,-0.0007700000000000001,0.000796,0.000227,0.374385834,16.6122303,-13.83482552,0.018471077,0.0008470000000000001,0.041062355,990.8134766000001,0,0.0,0
5.16,0.08118266,-0.16202092,9.755336,-0.00023700000000000001,-0.00027,-3.9e-05,0.276527882,16.15155983,-13.33088112,0.0013361570000000001,0.010082677,0.055452347,990.8109131000001,0,0.0,0
5.2,0.07156217,-0.16678602,9.762431,-0.00035800000000000003,-0.000671,0.000106,0.927144527,16.65548706,-13.53760719,0.00659804,0.010330915,0.036520958,990.8059082000001,0,0.0,0
5.24,0.07867098,-0.13818511,9.76716,0.000713,-0.000805,0.000508,0.923259735,16.38869476,-13.90632057,0.002058528,-0.018073916000000002,0.045995712,990.8388062000001,0,0.0,0
5.28,0.08338988,-0.16916633,9.755319,-8.51e-05,0.000127,-0.0006900000000000001,0.408573389,16.80256462,-14.31313515,0.006346106999999999,0.005964875,0.055478096,990.843689,0,0.0,0
5.32,0.08571893,-0.15009853,9.764782,0.000848,0.00026000000000000003,0.000376,0.475693226,16.60163879,-13.69584846,-0.0031048359999999997,0.0012024639999999999,0.050748825,990.8261107999999,0,0.0,0
5.36,0.08326813599999999,-0.14771375,9.752939999999999,4.92e-05,0.00026000000000000003,0.00024300000000000002,0.475394249,15.9695034,-14.12071419,-0.003165789,-0.017919108,0.050755500999999995,990.8438721000001,0,0.0,0
5.4,0.0808174,-0.16201198,9.760035499999999,0.000183,0.0014585689999999998,0.00011,0.551102161,16.14570618,-14.06571007,-0.01759474,0.006010756,0.046029090999999994,990.81604,0,0.0,0
5.44,0.07358676,-0.14532748,9.778967999999999,-0.000349,-6.26e-06,0.00024300000000000002,0.7220304009999999,16.30542755,-13.56250954,0.001430251,-0.013074785,0.027098656000000002,990.8235473999999,0,0.0,0
5.48,0.071136,-0.14532605,9.769492999999999,0.000984,0.001191967,-0.00042199999999999996,0.321529865,16.87842369,-13.2263813,0.000919,-0.007936195,0.027118682999999998,990.8261107999999,0,0.0,0
5.52,0.08302462,-0.15962419,9.762387,0.000984,0.001191967,-0.00042199999999999996,0.321529865,16.87842369,-13.2263813,0.010481045,0.010946468,0.04605484,990.8261107999999,0,0.0,0
5.56,0.07101416599999999,-0.14770629999999998,9.762382,-0.00088,0.000792,-2.24e-05,0.823879719,15.92655182,-13.32507515,0.005278885,-0.008438602,0.036590576,990.843689,0,0.0,0
5.6,0.06617355,-0.15962121,9.755274,0.000719,0.00026000000000000003,0.0005110000000000001,0.645235777,16.86580658,-13.81441689,0.024342537,0.006413996,0.05554676099999999,990.7955933000001,0,0.0,0
5.64,0.080452085,-0.15961969,9.769471000000001,0.000719,0.00026000000000000003,0.0005110000000000001,0.7109708790000001,16.76932526,-13.81889915,0.000889,0.011067763000000001,0.050813675,990.7955933000001,0,0.0,0
5.68,0.07800126,-0.16438481,9.771832,-0.000212,-0.0009390000000000001,-2.17e-05,0.34378624,16.05654907,-13.41267586,0.001109116,0.006533771999999999,0.017680168,990.8109131000001,0,0.0,0
5.72,0.065990865,-0.14770034,9.774194999999999,0.000454,-0.00040599999999999995,0.00011200000000000001,0.32275390600000003,16.24776077,-13.72855568,0.015011199,-0.017186998999999998,0.041363716,990.8413086000002,0,0.0,0
5.76,0.070709765,-0.15484866,9.767087,0.000454,-0.00040599999999999995,0.00011200000000000001,0.32275390600000003,16.24776077,-13.72855568,0.005573153000000001,-0.012165815,0.046104430999999994,990.8413086000002,0,0.0,0
5.8,0.08020851,-0.15723047,9.757613000000001,0.000721,-0.000407,0.000778,0.353216171,16.69752502,-13.45163155,0.0054355409999999995,0.001953095,0.060314177999999996,990.8411255000001,0,0.0,0
5.84,0.08253753,-0.16437882,9.767076,0.000721,-0.000407,0.000778,0.353216171,16.69752502,-13.45163155,-0.013984092,0.016108409,0.041380882,990.8411255000001,0,0.0,0
5.88,0.08008677,-0.14292779999999997,9.750501,-0.000343,0.000925,0.000379,0.664746046,16.67312241,-13.42122459,0.00533168,-0.017249689,0.074524879,990.8312377999998,0,0.0,0
5.92,0.07285616,-0.15007612,9.757596000000001,-0.000609,0.0006580000000000001,-0.00028700000000000004,0.526889563,16.22805405,-13.52790642,0.005667947,-0.007551461,0.05085945099999999,990.8284912,0,0.0,0
5.96,0.060845792,-0.15722448,9.764692,-7.58e-05,-0.0006730000000000001,0.000379,0.67982769,16.58193588,-13.49519539,0.019577943,0.00205484,0.036667824,990.8335571,0,0.0,0
6.0,0.07034448,-0.15007314,9.7575865,0.000192,0.000791,-0.000819,0.017174243999999998,16.17213821,-13.36910439,0.0050345879999999996,-0.012093544,0.050879478,990.8109131000001,0,0.0,0
6.04,0.08701292,-0.13100547,9.745744,0.000459,-7.69e-06,0.001045875,0.501290798,16.41484833,-13.61187553,-0.014063463,-0.030849934,0.05088996900000001,990.8210449,0,0.0,0
6.08,0.0773924,-0.15483674,9.764676,-7.340000000000001e-05,-7.79e-06,0.00037999999999999997,0.711514235,16.40103531,-13.72044563,0.005328104,0.0026769040000000003,0.046162605,990.8259888,0,0.0,0
6.12,0.07821807,-0.13817403,9.764750999999999,0.000193,-7.88e-06,0.0005139999999999999,0.9391829970000001,16.56135559,-13.45697594,0.005178057,-0.016530454,0.05563736,990.8261107999999,0,0.0,0
6.16,0.08148694,-0.14296213,9.762464999999999,-7.43e-05,-0.00014099999999999998,0.000513,0.6853728290000001,16.95611763,-13.90287209,-0.010862283,-0.00212124,0.036540031,990.8235473999999,0,0.0,0
6.2,0.0886668,-0.14534566,9.7671995,4.4200000000000004e-05,0.000794,0.000773,0.709012985,16.02980042,-13.46738625,-0.006136641,-0.01165472,0.041274071,990.8286132999999,0,0.0,0
6.24,0.08389711400000001,-0.14534589999999997,9.750630000000001,-0.0006219999999999999,-5.25e-06,-2.58e-05,0.598711491,16.13746643,-13.84161186,0.008015037,-0.011981875,0.06020546,990.8133545,0,0.0,0
6.28,0.07195777,-0.15964583,9.752997,-0.0008880000000000001,-5.23e-06,-0.000559,0.5746364589999999,16.32572937,-14.00288582,-0.001899675,0.00214465,0.05547142,990.8337402000001,0,0.0,0
6.32,0.076747715,-0.15487951,9.764835,-0.00022200000000000003,0.0013263620000000002,-2.59e-05,0.781815052,16.30897331,-13.95684624,-0.011683352,0.002105221,0.046001434,990.8312377999998,0,0.0,0
6.36,0.08631748,-0.1620296,9.753,-0.00022200000000000003,0.000394,0.0005070000000000001,0.582651615,15.85889053,-13.59188271,-0.006711966999999999,0.0019990060000000002,0.050733565999999994,990.8383788999998,0,0.0,0
6.4,0.06720841,-0.1501135,9.764837,0.00016999999999999999,-0.000304,6.2e-05,0.700454473,16.86493301,-13.97683907,0.016561784,0.0063526780000000005,0.03652668,990.8335571,0,0.0,0
6.44,0.086337775,-0.14534721,9.757736999999999,-0.001161406,0.001294236,0.000728,0.8043699259999999,16.11923409,-13.71826744,-0.012160316000000001,-0.012461111,0.045998573,990.8185425,0,0.0,0
6.48,0.07678828,-0.16203043,9.769573,0.00057,-0.000437,0.000328,0.6789865490000001,16.31808853,-14.01851845,-0.006740800999999999,0.00199914,0.041261673,990.8059082000001,0,0.0,0
6.52,0.06723884,-0.15964738,9.750637,3.68e-05,-0.001102575,-0.000338,0.610207081,16.41162491,-13.859426500000001,0.002720237,-0.007547393,0.06493187,990.8108520999999,0,0.0,0
6.56,0.07441866400000001,-0.1620309,9.769575,0.000303,0.000362,-0.000471,0.776407957,16.04070663,-14.24825096,-0.0018108039999999998,0.00684537,0.036525726,990.8310547,0,0.0,0
6.6,0.07920861,-0.14534816,9.771942999999998,0.000303,-0.0008359999999999999,-0.000604,0.8283391,17.03731155,-13.92965126,-0.01140403,-0.016997978,0.02705574,990.8209229,0,0.0,0
6.64,0.08638847,-0.15011498,9.764842999999999,0.00016999999999999999,-0.00016999999999999999,-0.0008699999999999999,0.7015407090000001,16.12835121,-13.77993965,-0.011114246999999999,-0.007104442,0.055464745,990.8335571,0,0.0,0
6.68,0.07205921400000001,-0.15249848,9.771945,-0.000496,-3.72e-05,-0.000471,0.6832768920000001,16.110673900000002,-12.85227776,0.0034073590000000004,-0.0027218309999999996,0.036517142999999995,990.8109741000001,0,0.0,0
6.72,0.08162898,-0.14773217,9.767211999999999,-0.000496,-3.72e-05,-0.000471,0.6832768920000001,16.110673900000002,-12.85227776,-0.0063707830000000005,-0.012267709,0.036519051000000004,990.8109741000001,0,0.0,0
6.76,0.07446939,-0.13581601,9.760112,0.000303,0.000229,0.000328,0.575041771,15.85152435,-13.20535851,-0.00623367,-0.016860545,0.045989037,990.8486937999999,0,0.0,0
6.8,0.08403915,-0.14296612,9.767214,0.000302,9.6e-05,-7.159999999999999e-05,0.959916592,15.73801041,-13.56595802,-0.001680061,-0.011839926,0.036523819,990.8284912,0,0.0,0
6.84,0.07687959,-0.15011626,9.767215,0.000968,0.000895,0.000195,0.928368568,16.02482414,-14.0397892,0.002728902,-0.001954094,0.031795502,990.8261107999999,0,0.0,0
6.88,0.07210994,-0.16441616,9.767216000000001,0.000968,0.000895,0.000195,0.928368568,16.02482414,-14.0397892,0.012280323000000001,0.007508725,0.036529541,990.8261107999999,0,0.0,0
6.92,0.08406961,-0.15964988,9.76485,-9.740000000000001e-05,0.000362,-0.001136995,0.588739157,15.86478233,-13.90110207,-0.01657287,-0.0069930999999999995,0.050728798,990.8084106000001,0,0.0,0
6.96,0.07213023,-0.14773372,9.769586,-9.740000000000001e-05,0.000362,-0.001136995,0.588739157,15.86478233,-13.90110207,-0.002564609,-0.011878163,0.045994759,990.8084106000001,0,0.0,0
7.0,0.084089875,-0.15488377,9.760117999999999,-9.75e-05,0.000762,-0.000604,0.641212702,16.49309921,-13.48404503,-0.002515696,0.011767133999999999,0.04598999,990.8411255000001,0,0.0,0
7.04,0.07932019,-0.15250072,9.767219,-9.75e-05,0.000762,-0.000604,0.641212702,16.49309921,-13.48404503,-0.007510706999999999,0.006826535,0.041254997,990.8411255000001,0,0.0,0
7.08,0.08411017,-0.15488425,9.760119,-0.0004969999999999999,0.001161332,-0.000205,0.436640739,15.77474976,-13.41049004,-0.003236145,-0.007103115,0.045996666,990.8084106000001,0,0.0,0
7.12,0.07503861,-0.14536312,9.767265,0.000701,0.000762,-0.000205,0.261584759,16.34865952,-13.95598793,-0.003658861,-0.01179029,0.041217804,990.8286132999999,0,0.0,0
7.16,0.07506779,-0.1477471,9.772002,0.000701,0.000762,-0.000205,0.261584759,16.34865952,-13.95598793,-0.013104983,-0.006997287,0.041215897,990.8286132999999,0,0.0,0
7.2,0.07748687,-0.16443077,9.779107000000002,0.000165,-0.0007,-0.00020800000000000001,0.700018644,16.12687683,-13.70263481,0.00613863,0.011890188000000001,0.01280117,990.8334351,0,0.0,0
7.24,0.07512617,-0.15251508,9.767274,0.000165,-0.0007,-0.00020800000000000001,0.700018644,16.12687683,-13.70263481,0.020335697,0.006897151,0.045937538,990.8334351,0,0.0,0
7.28,0.08710486,-0.15489909,9.774378,-0.000768,-3.41e-05,-0.000341,0.67884922,16.21217155,-13.31944466,-0.017732419,0.002181858,0.036464691,990.8108520999999,0,0.0,0
7.32,0.07757443,-0.14774993,9.767278999999998,-0.00023500000000000002,-3.41e-05,-0.000341,0.6593389510000001,16.40485573,-13.71263313,-0.003048189,-0.011920393,0.031729698,990.8337402000001,0,0.0,0
7.36,0.07521367,-0.15728375,9.779117,0.000696,-3.4e-05,0.000724,0.473329306,16.33631897,-14.14186287,0.0013878270000000001,-0.006960317,0.02699852,990.8388062000001,0,0.0,0
7.4,0.08002269,-0.15966776,9.767283,0.00043,0.00023199999999999997,-7.52e-05,0.155711651,16.35482979,-13.86304665,0.006138645,0.002049312,0.041189194,990.8310547,0,0.0,0
7.44,0.08722159,-0.14298552,9.757817,-0.0006360000000000001,-3.39e-05,-7.53e-05,1.177069187,15.99393463,-13.46042824,-0.0083666,-0.0074049680000000005,0.064861298,990.8463744999999,0,0.0,0
7.48,0.08725077,-0.14060295,9.762555,-0.000503,0.000366,-0.001140667,1.027066469,16.74934387,-14.02041054,-0.008737758,-0.012235983999999998,0.04118824,990.8159789999999,0,0.0,0
7.52,0.087279946,-0.15252012,9.774394000000001,-0.00010400000000000001,0.000898,-0.00020899999999999998,0.6734418870000001,15.94390678,-13.61084938,-0.003922209,0.002008855,0.022246361,990.8312377999998,0,0.0,0
7.56,0.08013939999999999,-0.15490416,9.767294999999999,0.000296,-0.000566,0.00045700000000000005,0.567026377,16.318367000000002,-13.61636162,-0.008536555,0.002295271,0.045919418,990.8007202,0,0.0,0
7.6,0.092118114,-0.16682127,9.76493,0.000295,0.0007650000000000001,0.00019099999999999998,0.9363832470000001,15.5579834,-13.62878609,-0.018482283000000002,0.0025700329999999998,0.036455154,990.8310547,0,0.0,0
7.64,0.07780784,-0.1525223,9.753097,0.0005610000000000001,9.95e-05,-0.000875,0.5715923310000001,16.32278442,-13.84827614,-0.003978811,-0.011660546,0.045919418,990.8184204,0,0.0,0
7.68,0.06588754,-0.16682270000000002,9.762568,0.000162,-0.0003,-0.00020899999999999998,0.643415451,16.23219681,-14.16198158,0.005477488000000001,0.007229343,0.041181564,990.8209839,0,0.0,0
7.72,0.077866256,-0.15014046,9.757836,-0.000638,0.000366,0.00045700000000000005,0.650589705,15.50150681,-14.27429771,0.000721,0.006848842,0.055374146,990.8433228,0,0.0,0
7.76,0.08028531,-0.14299133,9.760207000000001,-0.00037200000000000004,-0.000167,0.000323,0.103536129,16.35865402,-13.85523415,-0.009004369,-0.002512947,0.036437988,990.8458862,0,0.0,0
7.8,0.07792461,-0.14775863,9.760209,0.000161,0.000499,-0.00047599999999999997,0.516372681,16.3236618,-13.68585014,0.01029063,0.002579153,0.045907021,990.8458862,0,0.0,0
7.84,0.08512348,-0.15014258,9.769681,0.000294,-0.000566,-7.65e-05,0.5511026379999999,16.14570618,-14.06571007,0.005570792,-0.002228931,0.04590416,990.8312377999998,0,0.0,0
7.88,0.08037287,-0.13584363,9.764949,0.00016,-3.34e-05,-0.000742,0.34794664399999997,16.53517532,-14.44211769,0.000601,-0.026186897999999997,0.06010341599999999,990.8134766000001,0,0.0,0
7.92,0.08757174,-0.15729389,9.750748,-0.0007769999999999999,0.000672,2.08e-05,1.065927505,15.83775711,-14.35797691,-0.008419178000000001,-0.007098286999999999,0.050628662000000005,990.8261107999999,0,0.0,0
7.96,0.08282113,-0.15729457,9.772056,0.0005549999999999999,-0.001325159,0.00042,0.961576462,15.84539795,-14.34234047,-0.013153546,0.002556279,0.036423683,990.8209229,0,0.0,0
8.0,0.09002,-0.14776215,9.7720585,0.000155,0.000273,-0.000113,0.562054634,16.7881546,-14.181970600000001,-0.008753351999999999,-0.011712655,0.060096740999999995,990.8413086000002,0,0.0,0
8.04,0.08287948,-0.15967926,9.762592,-0.0005110000000000001,0.00014,0.000154,0.8731484409999999,16.02569962,-13.87735939,-0.008970767,0.00708133,0.045887947000000005,990.8084106000001,0,0.0,0
8.08,0.07531488,-0.15728632,9.76729,-0.000512,0.001338136,2.0300000000000002e-05,0.823038101,15.66270447,-13.84839821,0.005386241,0.002199471,0.045883179,990.8387451,0,0.0,0
8.12,0.07967418400000001,-0.15965929999999998,9.762518,-0.00010400000000000001,0.001203726,2.36e-05,0.39305400799999995,16.15570068,-13.96495628,-0.003729403,0.00676398,0.060162544000000005,990.8261107999999,0,0.0,0
8.16,0.08683878,-0.15012601,9.762516999999999,-0.00010400000000000001,0.001203726,2.36e-05,0.39305400799999995,16.15570068,-13.96495628,-0.022621147,-0.007563367,0.050692558,990.8261107999999,0,0.0,0
8.2,0.086833715,-0.15012589,9.753048,-0.000371,-0.000128,2.37e-05,0.791788578,16.58165741,-13.89735603,-0.013075866,-0.012068688999999999,0.060165405,990.8108520999999,0,0.0,0
8.24,0.08204883,-0.15489229999999998,9.760148,0.000562,-0.000128,-0.000109,0.345743656,16.79607773,-13.76418495,0.001238637,-0.002527297,0.05543232,990.8312377999998,0,0.0,0
8.28,0.07726398,-0.15012565,9.745946,-0.00010400000000000001,0.000671,-0.000109,1.0894603729999999,16.0177784,-14.29515266,-0.008571357,0.00682734,0.060166359,990.8385619999999,0,0.0,0
8.32,0.0724791,-0.14774224,9.77435,-0.00010400000000000001,0.000671,-0.000109,0.41908884,16.70696259,-14.15519142,0.000863,0.002424866,0.036502837999999996,990.8385619999999,0,0.0,0
8.36,0.07964373,-0.14535883,9.757781,0.000162,0.000405,0.00029,0.9013860229999999,16.31605911,-14.74553108,-0.018581964,-0.026095226000000003,0.045974731,990.843811,0,0.0,0
8.4,0.08919826,-0.15489182,9.760147,0.000562,0.000538,0.00029,0.350309849,16.80049515,-13.99609947,-0.014168523,-0.0022756160000000003,0.050713539,990.8337402000001,0,0.0,0
8.44,0.09158307,-0.15012518,9.767248,-0.00010400000000000001,0.0008039999999999999,0.00029,1.277672291,15.82541656,-14.54385185,-0.018636912,-0.007218838000000001,0.036504745,990.7905883999999,0,0.0,0
8.48,0.06767899,-0.14774176,9.77435,-0.00010400000000000001,0.0008039999999999999,0.00029,1.277672291,15.82541656,-14.54385185,0.009748831,-0.012211963999999999,0.022299767,990.7905883999999,0,0.0,0
8.52,0.07723352,-0.14535835,9.769614,-0.0007700000000000001,-0.000394,-0.000242,0.5787658689999999,15.59209824,-13.96059608,-0.009459935,-0.012321055,0.036503792,990.7958374,0,0.0,0
8.56,0.08200824,-0.15250811,9.762512,-0.0009029999999999999,0.0013368129999999998,2.3800000000000003e-05,0.266693592,15.98478889,-14.08944893,-0.014734931000000001,-0.007238746,0.050715446,990.798645,0,0.0,0
8.6,0.06527388,-0.14297479999999999,9.769614,0.000296,0.000405,-0.000509,0.641893148,16.23072433,-14.08467293,0.013635166,-0.011878281999999999,0.031783104,990.8387451,0,0.0,0
8.64,0.0796082,-0.15250781,9.764878,0.000296,0.000405,-0.000509,0.641893148,16.23072433,-14.08467293,0.00909628,0.007117733,0.045982361,990.8387451,0,0.0,0
8.68,0.067653626,-0.15965751,9.750675,0.00016299999999999998,-0.000261,0.0006900000000000001,0.955488443,15.83950424,-14.03312111,0.004627608,0.0071912109999999994,0.041249275,990.8363037,0,0.0,0
8.72,0.07242834599999999,-0.15727413,9.741206,-0.00010400000000000001,-0.001193228,2.3899999999999998e-05,0.411181211,16.06745911,-14.19353676,-0.000172,0.002205729,0.060182571,990.8236694,0,0.0,0
8.76,0.07003337,-0.15727398,9.771979,-0.0006360000000000001,5.19e-06,-0.000109,0.353460789,15.69709778,-13.77805519,0.000139,-0.007781953,0.045969962999999996,990.8235473999999,0,0.0,0
8.8,0.070028335,-0.14774075,9.76961,-0.001035668,-0.000394,-0.000509,0.932390928,16.39753342,-14.37014961,-0.000171,-0.007701665,0.041241646,990.8361206000001,0,0.0,0
8.84,0.06524342,-0.14535734,9.771977,0.00016299999999999998,0.000138,-0.000109,0.6277902129999999,16.69167519,-14.18645668,0.01407484,-0.00297679,0.036507607000000004,990.8236694,0,0.0,0
8.88,0.079577774,-0.1620402,9.757774000000001,0.000296,0.000538,0.000557,0.48093915,16.34368515,-14.52839088,-0.000349,-0.002690449,0.045981407,990.8363037,0,0.0,0
8.92,0.06762317,-0.15727349999999998,9.76961,0.000429,0.000671,2.4e-05,0.477459431,15.60268784,-14.09957314,0.009238243,-0.002626494,0.036514282,990.8463744999999,0,0.0,0
8.96,0.07239795,-0.16203997,9.767242,0.000562,-0.000261,2.4100000000000003e-05,0.392511845,16.52398872,-14.06340599,-0.010282791999999999,0.016751528,0.04598999,990.843811,0,0.0,0
9.0,0.08434236,-0.1477401,9.755405999999999,0.000296,0.0010704010000000001,0.0006900000000000001,0.491019011,15.51002693,-14.09623909,-0.014933713000000001,0.002614453,0.060195923,990.8235473999999,0,0.0,0
9.04,0.072387815,-0.15250656,9.7696085,0.00016299999999999998,-0.000528,-0.000109,0.7326836590000001,16.31574059,-14.103639600000001,0.013710745,0.016711995,0.04598999,990.8513793999999,0,0.0,0
9.08,0.07923651,-0.15488192,9.755376,-0.000103,-0.000261,-0.000242,0.565099239,16.79109955,-14.33658409,-0.009590767,0.006874651,0.060216904,990.8235473999999,0,0.0,0
9.12,0.07682887,-0.16203144,9.760108,-0.000502,0.000138,-0.000109,0.84518671,15.94717407,-14.40735054,0.005047798,-0.0028989759999999997,0.041275978,990.8032227,0,0.0,0
9.16,0.0839808,-0.15249783,9.771942999999998,-0.000766,-0.001060663,-0.00037400000000000004,0.866219521,15.75595856,-14.09146309,-0.00941366,-0.00753209,0.031809807,990.8286132999999,0,0.0,0
9.2,0.07918325,-0.15249738,9.767207,-0.000233,0.000271,-0.00037400000000000004,0.6147735120000001,16.41604233,-14.09134102,-0.014167361000000002,-0.012433171000000002,0.0365448,990.8236694,0,0.0,0
9.24,0.07916549,-0.15964678,9.757736999999999,0.000167,0.000271,2.57e-05,0.35723877,17.0702343,-13.78199959,-0.009507640999999999,-0.007798821,0.064950943,990.821167,0,0.0,0
9.28,0.07436794,-0.15011325,9.764836,-0.000366,0.000537,-0.00037400000000000004,0.8813014029999999,15.66477585,-14.16543388,-0.004589289,0.011305496000000002,0.046014785999999995,990.8286132999999,0,0.0,0
9.32,0.09585929,-0.1453462,9.767201,0.0007,-0.000129,-0.000241,0.450775146,16.526058199999998,-14.38044167,-0.018552721,-0.007719353000000001,0.041280746,990.8413086000002,0,0.0,0
9.36,0.09106174,-0.15249562,9.762467,-0.000499,-0.0009279999999999999,2.59e-05,0.968069077,15.37708282,-13.85403633,-0.023390092,-0.021856755,0.046017647,990.8234863,0,0.0,0
9.4,0.09343389,-0.13819554,9.75773,-3.91e-05,-0.000669,8.43e-06,0.323732376,16.617525099999998,-13.90431404,-0.02276329,-0.016953318999999998,0.050754547000000004,990.8666382000001,0,0.0,0
9.44,0.07907671,-0.15249476,9.767196,-3.91e-05,-0.000669,8.43e-06,0.323732376,16.617525099999998,-13.90431404,0.005829885999999999,0.006716921999999999,0.055487633,990.8666382000001,0,0.0,0
9.48,0.08383876,-0.15249434,9.767196,0.000361,0.001328464,0.000408,0.7326836590000001,16.31574059,-14.103639600000001,-0.00884515,-0.012142986000000001,0.041293144,990.8159789999999,0,0.0,0
9.52,0.07904121,-0.15726048,9.774295,0.000361,0.001328464,0.000408,0.7326836590000001,16.31574059,-14.103639600000001,-0.018532543999999998,0.006971359,0.02709198,990.8159789999999,0,0.0,0
9.56,0.074243635,-0.15249345,9.774294,-3.86e-05,0.000529,0.001073914,0.457703829,16.79579926,-14.16633797,0.005183198,-0.007583544,0.031825066,990.8213501,0,0.0,0
9.6,0.08856529,-0.14057663,9.755355,-0.000571,-0.00027,-0.000657,0.86111021,16.11983299,-13.95799828,-0.013837673,-0.022281691,0.03655529,990.8463135,0,0.0,0
9.64,0.078987956,-0.1548759,9.757719999999999,-0.000571,-0.00027,-0.000657,0.07946014400000001,16.54691696,-14.016508100000001,-0.018676788,-0.007837966,0.050762177,990.8463135,0,0.0,0
9.68,0.076580256,-0.15487543,9.76482,0.000495,0.000663,-0.000124,0.724232674,16.04452896,-14.24043465,-0.004570477,-0.003087431,0.050766945,990.8337402000001,0,0.0,0
9.72,0.09568176,-0.15964156,9.755349,9.53e-05,0.000263,-0.000124,0.769777775,16.40310478,-14.03748512,-0.01845143,0.001687989,0.055500031,990.8084106000001,0,0.0,0
9.76,0.08132458,-0.1548746,9.755349,9.53e-05,0.000263,-0.000124,0.769777775,16.40310478,-14.03748512,-0.008882836,-0.002895325,0.060236930999999994,990.8084106000001,0,0.0,0
9.8,0.081306815,-0.15487412,9.767182,0.000362,-0.00027,0.00014199999999999998,0.8186106679999999,15.76420212,-14.31556129,-0.013768829,-0.007878765,0.046032906,990.8590088,0,0.0,0
9.84,0.08367896,-0.15725699,9.755344000000001,0.000362,-0.00027,0.00014199999999999998,0.8186106679999999,15.76420212,-14.31556129,-0.004267663,0.00161241,0.050769805999999994,990.8590088,0,0.0,0
9.88,0.07888138,-0.16440639,9.767178999999999,-0.000437,0.000396,-0.000124,0.491317987,16.14216232,-13.67136955,-0.004407421,0.020436749,0.036565781,990.8134766000001,0,0.0,0
9.92,0.08364344,-0.1572561,9.767178999999999,-0.000437,0.000529,0.000542,0.38294363,15.77709961,-13.32536888,-0.00896921,-0.003554255,0.031826973,990.8209229,0,0.0,0
9.96,0.09557521,-0.15487239,9.762443,-3.7e-05,0.000529,0.000542,0.445230484,16.15187645,-13.972772599999999,-0.018589936,-0.008122653,0.046035767000000005,990.8514403999999,0,0.0,0
10.0,0.06448871,-0.15010542,9.764808,9.65e-05,0.000396,0.00040899999999999997,0.432213306,15.87624741,-13.87765694,0.000802,-0.0030279609999999996,0.041308403,990.8188477,0,0.0,0
10.04,0.07403055,-0.15010494,9.75297,0.00102876,-0.000669,0.000808,0.5421092510000001,16.24278641,-14.30095863,0.015030503,-0.0032673629999999997,0.060243607000000005,990.8213501,0,0.0,0
10.08,0.08475983,-0.15251699,9.760178,-0.000303,0.000396,0.000276,0.6102075579999999,16.411623000000002,-13.85942268,-0.018908678999999998,-0.003334254,0.041193962,990.8588257000001,0,0.0,0
10.12,0.087178946,-0.13583472,9.757813,-4.44e-05,-0.00173028,-0.000129,0.589175224,16.60283661,-14.17531013,-0.013585686999999999,-0.017543852,0.055391312000000005,990.8084106000001,0,0.0,0
10.16,0.08242828,-0.14536855,9.767285000000001,-0.00044699999999999997,-0.000665,2.72e-06,0.96462059,15.8483448,-14.49695396,-0.008785560999999999,-0.022364452000000003,0.036449432000000004,990.8213501,0,0.0,0
10.2,0.08962718,-0.1549024,9.755452,-0.000314,-0.000398,0.000269,0.560234785,16.15454483,-14.52954292,-0.008990376999999999,-0.003370047,0.060119629,990.8413086000002,0,0.0,0
10.24,0.08248663,-0.16443625,9.764923,-0.0005809999999999999,0.000534,-0.000131,0.627789974,16.69167519,-14.18645668,-0.009286336999999999,0.005839065,0.045908927999999995,990.8312377999998,0,0.0,0
10.28,0.0896855,-0.14537069,9.767292999999999,-0.000181,0.000401,0.000535,0.487432241,15.87537193,-14.04007912,-0.018622316,-0.008316278,0.045907974000000004,990.8312377999998,0,0.0,0
10.32,0.09927428,-0.1596711,9.767294999999999,0.000617,-0.000132,0.000668,1.025789261,15.74744415,-14.26952171,-0.027953557999999996,-0.0036345270000000002,0.041167259,990.8234863,0,0.0,0
10.36,0.08496404,-0.14537212,9.772033,-0.00044800000000000005,-0.000531,0.00120054,0.548058271,16.14276123,-13.911104199999999,-0.013552508999999999,-0.008272215999999999,0.045900345,990.8161620999999,0,0.0,0
10.4,0.07782352,-0.14298955,9.764934,-0.000315,1.54e-06,0.000135,0.384465218,15.7785759,-13.40267372,0.01046177,-0.017949119,0.045893669000000005,990.8136597000001,0,0.0,0
10.44,0.08263248,-0.14299026,9.769671,-0.00031600000000000004,-0.000132,-0.000531,0.588876724,15.97069931,-14.60018349,-0.008334219,-0.008429989,0.036417961,990.8112183000001,0,0.0,0
10.48,0.09222129,-0.15490738,9.757838000000001,-0.000183,-0.000531,0.000135,0.431807995,16.35045242,-14.67518044,-0.008294314,-0.003848404,0.050616264,990.8388672,0,0.0,0
10.52,0.08030096,-0.16920778,9.767309,-0.000183,1.68e-06,-0.000664,0.5400443079999999,16.60960007,-14.32209969,-0.012895681,0.005641669,0.031674385,990.8237914999999,0,0.0,0
10.56,0.08510995,-0.15252551,9.764944999999999,-0.000583,-0.001196697,1.52e-06,0.5983071329999999,16.61167526,-14.63914299,-0.007659391,-0.004012749,0.060071945,990.8163452,0,0.0,0
10.6,0.08274919,-0.15252623,9.757846,0.0008810000000000001,-0.000131,0.000401,0.5360202789999999,16.2368927,-13.99173927,-0.012193576000000001,-0.0037232190000000003,0.055335999000000004,990.8161620999999,0,0.0,0
10.64,0.07321873,-0.15491024,9.762584,0.0008810000000000001,-0.000131,0.000401,0.5360202789999999,16.2368927,-13.99173927,0.006652907,0.005913346999999999,0.045868874000000004,990.8161620999999,0,0.0,0
10.68,0.08758736,-0.15014437,9.76732,0.001014173,1.86e-06,0.000267,0.568142891,16.79404831,-14.49119759,-0.021733351,-0.01311627,0.04113102,990.8264770999999,0,0.0,0
10.72,0.08044678,-0.15729496,9.7578535,-0.000584,-0.000131,-0.000265,0.548494816,16.88081551,-14.18530464,-0.007405058000000001,-0.008617133,0.055327415,990.8185425,0,0.0,0
10.76,0.08764571,-0.15252909,9.767325,-0.000717,-0.000398,0.0004,0.668470621,16.41369247,-14.17646217,-0.012239076000000002,-0.003787875,0.036388397,990.7958983999999,0,0.0,0
10.8,0.08289507,-0.15491307,9.772061,0.00088,0.000268,-0.000266,0.47637295700000004,16.33926773,-14.29647255,-0.016927056,-0.0034071509999999998,0.036389351,990.8112183000001,0,0.0,0
10.84,0.08292425,-0.15014723,9.760228999999999,0.00088,0.000268,-0.000266,0.47637295700000004,16.33926773,-14.29647255,-0.002621457,-0.008295253,0.045853615,990.8112183000001,0,0.0,0
10.88,0.07578373,-0.16921419,9.757864999999999,-0.000452,-0.00053,0.000533,0.659338474,16.40485764,-13.71263313,0.0024096820000000002,0.024787739,0.050578117,990.8212279999999,0,0.0,0
10.92,0.073423,-0.16683161,9.757867,-0.000452,-0.00053,0.000533,0.659338474,16.40485764,-13.71263313,-0.007081069000000001,0.0056847930000000005,0.045840263,990.8212279999999,0,0.0,0
10.96,0.08062187,-0.14776608,9.767339,-0.000452,-0.00053,0.000533,0.6935253140000001,16.59519196,-14.19094276,-0.006961576999999999,-0.008623347,0.050571442,990.8212279999999,0,0.0,0
11.0,0.092600524,-0.15491661,9.76024,3.8e-05,-0.000176,-2.98e-05,0.698091507,16.59961319,-14.42285728,-0.030694827,-0.008651093,0.05056572,990.826355,0,0.0,0
11.04,0.08731222,-0.14775434,9.762561,3.8e-05,-0.000176,-2.98e-05,0.698091507,16.59961319,-14.42285728,-0.006623082,0.0009119999999999999,0.041093826,990.826355,0,0.0,0
11.08,0.08916128,-0.15727422,9.767244999999999,-9.54e-05,-0.000575,-2.99e-05,0.8089354040000001,16.12365341,-13.95018196,-0.014811464,0.005807936,0.031723022000000003,990.8364257999999,0,0.0,0
11.12,0.081977665,-0.15965715,9.750674,0.00043799999999999997,-0.000176,0.00010400000000000001,0.733227253,15.94744873,-14.005189900000001,-0.0051878390000000005,-0.0034782740000000004,0.05539894099999999,990.8237914999999,0,0.0,0
11.16,0.08913344,-0.13820729,9.767242999999999,4.7600000000000005e-05,-0.00031,0.000241,0.582544088,16.96523285,-13.96454048,-0.0052967,-0.013096645,0.04593181599999999,990.8162842,0,0.0,0
11.2,0.07955989,-0.15488988,9.764874,0.000181,-0.000177,-0.000292,0.59885025,16.24338341,-14.54068947,0.009042941,-0.003524855,0.036464691,990.8137816999999,0,0.0,0
11.24,0.07476616,-0.14297318,9.7601385,0.000181,-0.00044400000000000006,-0.000691,0.626512527,15.68977356,-14.43557167,0.00441847,-0.008204743,0.05066967,990.8337402000001,0,0.0,0
11.28,0.09387147400000001,-0.16203907,9.764872,0.000181,0.000488,0.0005070000000000001,0.5585746770000001,16.04715729,-13.75315666,-0.015057154,0.001231968,0.041204452999999995,990.8314819,0,0.0,0
11.32,0.084297895,-0.15012231,9.771972,-8.48e-05,0.000488,0.00064,0.744178772,16.58989906,-14.12145424,-0.014890157,-0.003595904,0.045936584,990.8087158,0,0.0,0
11.36,0.07950419,-0.14058885,9.764869000000001,-0.000484,-0.00044400000000000006,-0.00015800000000000002,0.823176384,15.76861954,-14.54747963,0.004237548,-0.013211608,0.060139656,990.8239745999999,0,0.0,0
11.4,0.079490244,-0.14773831,9.760133,-0.00035099999999999997,0.000488,0.000241,0.7855401040000001,16.04954529,-14.71208382,0.0039034559999999996,-0.003812835,0.041205406,990.8213501,0,0.0,0
11.44,0.069916695,-0.15250460000000002,9.771968,-0.00075,0.00035499999999999996,-0.000558,0.339357853,16.15804672,-13.87983513,0.013532698000000001,0.000958,0.027003287999999997,990.8340454,0,0.0,0
11.48,0.07468259,-0.16203734,9.762497999999999,4.8899999999999996e-05,-0.000177,0.00010800000000000001,0.203459263,16.45250702,-14.33802986,-0.005660929,0.010442108,0.04120636,990.8365479,0,0.0,0
11.52,0.08183837,-0.15727046,9.764864999999999,-0.000217,0.00035499999999999996,0.000241,0.18837642699999999,16.54369354,-14.26405525,-0.005595379,-0.003992409000000001,0.050674437999999995,990.8060912999999,0,0.0,0
11.56,0.077044606,-0.14773703,9.757761,-0.00075,-0.000177,-0.000558,0.633985519,15.59122086,-14.12301826,0.0040952340000000005,-0.008786842,0.060142517,990.8237305,0,0.0,0
11.6,0.07225089999999999,-0.14297011,9.762494,0.000449,-0.000177,0.00010800000000000001,0.65211153,15.50297928,-14.35160255,-0.000663,-0.018217534,0.060146332000000004,990.8264770999999,0,0.0,0
11.64,0.06745717,-0.15250286,9.748289999999999,4.94e-05,-0.00044400000000000006,-0.000691,0.447295189,15.78506088,-13.95162773,0.008785628,-0.003977254,0.050678253,990.8338623,0,0.0,0
11.68,0.07939273,-0.1429694,9.776694,0.000449,0.0008880000000000001,-0.000424,0.30294466,15.80831146,-14.54661751,-0.010519221,-0.01312831,0.036483765,990.7960814999999,0,0.0,0
11.72,0.07937884,-0.16441855,9.764857000000001,0.000849,0.000755,0.00010800000000000001,0.49381899799999995,16.51339722,-13.92442894,-0.015568323,0.00148347,0.045960426,990.798645,0,0.0,0
11.76,0.07458508,-0.15011856,9.767222,0.000183,8.88e-05,-2.47e-05,0.5610761639999999,16.41839027,-14.00621986,0.008044541,-0.003299624,0.041231155,990.8289795,0,0.0,0
11.8,0.072181284,-0.15965134,9.757753999999998,-8.32e-05,0.00022200000000000003,-0.000557,0.41879081700000004,16.07482338,-14.58006477,-0.006274096999999999,-0.00303854,0.036501884,990.8239745999999,0,0.0,0
11.84,0.074557245,-0.15011787,9.764853500000001,0.000849,0.00035499999999999996,0.000375,1.031197548,16.01570892,-13.97811317,0.00334432,0.001704693,0.02703476,990.8137816999999,0,0.0,0
11.88,0.08171302,-0.15488407,9.764852000000001,0.000982,-0.000178,0.000508,0.38058090200000005,15.51177788,-13.771387099999998,-0.01560352,0.011465371,0.041240692,990.826355,0,0.0,0
11.92,0.07452938,-0.14773396,9.7530155,-8.28e-05,-0.0007099999999999999,0.000109,0.687001228,15.85124969,-13.60751534,0.003625713,-0.002350926,0.060185432000000004,990.8086548,0,0.0,0
11.96,0.081685156,-0.16203326,9.757749,0.0007160000000000001,8.87e-05,-0.000557,1.034784317,15.65036392,-14.03427315,-0.005889706,0.011700407,0.060182571,990.8213501,0,0.0,0
12.0,0.062552005,-0.15249977,9.757747,0.000717,-4.45e-05,0.000508,1.0628833770000001,15.83480835,-14.20336342,0.013137341,-0.011811674,0.055457115,990.8062133999999,0,0.0,0
12.04,0.07697177,-0.15488508,9.755386999999999,0.000717,-4.45e-05,0.000508,1.0628833770000001,15.83480835,-14.20336342,-0.001276195,-0.007041736999999999,0.041245461000000004,990.8062133999999,0,0.0,0
12.08,0.07218182,-0.15488485,9.764855,-0.00048300000000000003,0.000488,-0.00015800000000000002,0.31375885,16.344841,-13.96380043,0.01259169,0.002308547,0.041248322000000004,990.831543,0,0.0,0
12.12,0.07456154,-0.1525012,9.753017999999999,0.000849,-4.45e-05,0.000641,0.908314705,16.58580017,-14.53142738,0.007873915,0.002704844,0.045988083,990.8137816999999,0,0.0,0
12.16,0.07216149599999999,-0.15488425,9.760119,0.000849,-4.45e-05,0.000641,0.908314705,16.58580017,-14.53142738,0.012687631000000001,0.007538065,0.05072403,990.8137816999999,0,0.0,0
12.2,0.07215133,-0.15726729999999997,9.7577505,-0.00021600000000000002,-0.0007099999999999999,-2.45e-05,0.6630635260000001,16.1454277,-14.467866899999999,-0.0017896670000000002,0.002560839,0.04598999,990.8213501,0,0.0,0
12.24,0.079310894,-0.15488377,9.764852000000001,-0.00021600000000000002,-0.0007099999999999999,-2.45e-05,0.6630635260000001,16.1454277,-14.467866899999999,-0.016175307,0.011987641,0.036519051000000004,990.8213501,0,0.0,0
12.28,0.07213101,-0.14058384,9.769586,-0.00021600000000000002,-0.0007099999999999999,-2.45e-05,0.701540947,16.12835121,-13.77993965,-0.0019914729999999997,-0.02591297,0.03178978,990.8213501,0,0.0,0
12.32,0.08168045,-0.15488329999999997,9.755381,0.00045,-0.000178,-0.00015800000000000002,0.24011564300000002,15.80182266,-13.99766731,-0.00206022,0.003056958,0.050736427,990.8012695,0,0.0,0
12.36,0.08167028400000001,-0.15488306,9.762481,0.00045,-0.000178,-0.00015800000000000002,0.24011564300000002,15.80182266,-13.99766731,0.002461851,-0.0016177589999999999,0.050740242000000005,990.8012695,0,0.0,0
12.4,0.07927018400000001,-0.14773297,9.75538,-0.00021600000000000002,0.001020711,0.000109,0.926846504,16.02334976,-13.96248817,-0.007420576999999999,-0.006845579,0.074409485,990.8466187000001,0,0.0,0
12.44,0.06970042,-0.14534947,9.760112,-0.00021600000000000002,0.001020711,0.000109,0.926846504,16.02334976,-13.96248817,-0.0025433079999999998,-0.011721015,0.041266441,990.8466187000001,0,0.0,0
12.48,0.06252059,-0.15011579,9.760111,-0.000308,-0.000283,-0.00011200000000000001,0.507516861,16.5266571,-14.62017632,0.011454276999999999,0.007487848,0.055477142,990.8213501,0,0.0,0
12.52,0.08401954,-0.16441512,9.750642,-0.000308,-0.000283,-0.00011200000000000001,0.507516861,16.5266571,-14.62017632,-0.012530118,0.007587463000000001,0.074416161,990.8213501,0,0.0,0
12.56,0.08400935,-0.14773193,9.774312,-4.16e-05,0.00011599999999999999,-0.00011200000000000001,0.80048418,15.8524437,-14.08698082,-0.0075962619999999995,-0.002101749,0.04600811,990.8239745999999,0,0.0,0
12.6,0.074439585,-0.15726479999999998,9.769578,-4.15e-05,-1.67e-05,0.00042,0.855703115,15.85156631,-14.249403,-0.0028059179999999997,0.0027854290000000003,0.031806946,990.831543,0,0.0,0
12.64,0.072039515,-0.16679770000000002,9.769575999999999,0.00035800000000000003,-0.00015,-0.000245,0.747766018,16.22455215,-14.17761421,-0.002867259,0.017001182,0.022338867000000002,990.8291016000001,0,0.0,0
12.68,0.07202935,-0.15726432,9.771942999999998,0.001157127,-0.000283,-0.000245,0.41506624200000003,16.3342514,-13.82483101,0.00222671,0.007584855,0.027074814,990.8340454,0,0.0,0
12.72,0.07440907,-0.15249753,9.750636,-0.00084,-0.00015,2.11e-05,0.7789092059999999,16.41194344,-14.50131416,0.0021500589999999997,-0.0019272120000000002,0.05548286400000001,990.8340454,0,0.0,0
12.76,0.074398935,-0.14296415,9.75537,-4.11e-05,0.00011599999999999999,2.12e-05,0.835512638,16.30662346,-14.04196739,0.011849083,-0.006796539,0.064949036,990.8213501,0,0.0,0
12.8,0.06960893,-0.1596469,9.760104,-0.000174,-0.00015,0.000288,0.899725676,16.20867157,-13.96914864,0.007191673000000001,0.012101203,0.036540031,990.8516846000001,0,0.0,0
12.84,0.07198869999999999,-0.14534697,9.76247,0.000225,-0.000816,0.000154,0.61270833,16.7828598,-14.11248589,-0.002151445,-0.00680165,0.041276932,990.8416138,0,0.0,0
12.88,0.07436845,-0.15011325,9.76247,-0.000307,-0.00015,0.000288,0.7055637840000001,16.50106049,-14.11030769,-0.007031985,-0.006875246999999999,0.046010017,990.8341063999999,0,0.0,0
12.92,0.074358255,-0.15726279999999998,9.762468,-0.000174,-0.000283,-0.0005110000000000001,0.9570102690000001,15.84098053,-14.11042976,0.002344906,0.0023703870000000003,0.050743103,990.8086548,0,0.0,0
12.96,0.09107739,-0.15964583,9.7601,-0.000307,0.0013147060000000001,-0.000245,0.26919508,16.3560257,-14.34251213,0.002245449,0.007036448000000001,0.046009064,990.8340454,0,0.0,0
13.0,0.07729298,-0.16204277,9.76962,-4.05e-05,-0.00015,0.000554,0.969346285,16.37898254,-13.60492134,-0.00335902,-0.016186893,0.031711578,990.8240967,0,0.0,0
13.04,0.07071251,-0.15252408,9.767306,0.000892,-1.6899999999999997e-05,2.15e-05,1.3511776919999998,16.26251984,-13.81091118,-0.008259214,-0.006723568,0.03644371,990.8316039999999,0,0.0,0
13.08,0.089867264,-0.16205809,9.760209,0.000215,0.00025699999999999996,-0.000784,0.551102161,16.14570808,-14.06571007,-0.018062718000000002,-0.00192827,0.045910835,990.8413696,0,0.0,0
13.12,0.07795328,-0.15014252,9.769681,-0.000584,-0.000143,-0.000252,0.42778492,15.97774506,-14.34481239,0.001476139,-0.006745473,0.045903205999999995,990.8164673,0,0.0,0
13.16,0.07320899,-0.1644431,9.75548,0.000348,-0.001474065,-0.000918,0.7213268279999999,16.14749908,-14.78490639,0.011406697,0.021773264,0.055364609,990.831665,0,0.0,0
13.2,0.07802433,-0.16206071,9.76732,8.13e-05,-0.000675,1.4400000000000001e-05,0.185332298,16.5407486,-14.10944557,0.006635971,0.012133017,0.026952744,990.8060912999999,0,0.0,0
13.24,0.08522951599999999,-0.15252843,9.7649555,-0.000319,0.00039,0.000147,0.66847086,16.41369438,-14.17646217,-0.012453355,-0.007050275999999999,0.041150093,990.8188477,0,0.0,0
13.28,0.092434764,-0.15491259,9.772061,-0.00018600000000000002,-0.000542,1.4099999999999999e-05,0.519554615,16.43252373,-14.53953743,-0.012228116,-0.011762053,0.045879364000000006,990.7937012,0,0.0,0
13.32,0.09247029,-0.14538035,9.776797,-0.000452,-0.00040899999999999997,1.39e-05,0.59276247,16.23749161,-14.23147011,-0.021651596000000002,-0.007189571999999999,0.03640461,990.8391723999999,0,0.0,0
13.36,0.07577652,-0.15014777,9.772067,-0.000719,-0.000275,-0.000519,0.223404408,16.99787521,-14.21904182,0.002551816,-0.002773136,0.02692318,990.8139648,0,0.0,0
13.4,0.09254134,-0.15729848,9.762601,7.92e-05,0.000657,0.00028,0.7036061290000001,15.76153374,-13.75879097,-0.016617946,-0.012201413999999999,0.050592422000000005,990.8265991000001,0,0.0,0
13.44,0.08062732,-0.14776626,9.772074,7.92e-05,0.000657,0.00028,0.7036061290000001,15.76153374,-13.75879097,-0.0021554079999999997,-0.007557899,0.031648636,990.8265991000001,0,0.0,0
13.48,0.08066285,-0.15730020000000003,9.755506,-0.000587,0.00025699999999999996,-0.0006519999999999999,0.647981644,16.23661423,-14.39389229,-0.016998321,0.002125666,0.050590515,990.8110352,0,0.0,0
13.52,0.08786809400000001,-0.14776805,9.750775,-5.4600000000000006e-05,0.000524,0.000146,0.7789092059999999,16.41194344,-14.50131416,0.001842968,0.006841749,0.064791679,990.8338623,0,0.0,0
13.56,0.08790362,-0.15015212,9.764981,0.000611,0.000391,-0.000653,0.47332906700000005,16.33632088,-14.14186287,0.002082877,-0.007400081,0.045847893,990.8291016000001,0,0.0,0
13.6,0.075989604,-0.16921929,9.760251,-0.000188,0.000258,-0.00011999999999999999,0.320688725,16.61457825,-13.74970055,0.007162318000000001,0.006817058000000001,0.050574303,990.8416138,0,0.0,0
13.64,0.07124531,-0.15968704,9.755519,0.00021099999999999998,-0.001207083,-0.0005200000000000001,0.409115314,16.43427658,-14.21468544,0.011769041000000001,0.011322141,0.05530262,990.831665,0,0.0,0
13.68,0.08084047,-0.14300492,9.760257000000001,0.00021099999999999998,-0.001207083,-0.0005200000000000001,0.409115314,16.43427658,-14.21468544,-0.007532491999999999,-0.007656738000000001,0.041101456,990.831665,0,0.0,0
13.72,0.08326584,-0.14538908,9.757894,-5.629999999999999e-05,-0.000541,0.000279,1.000191689,15.93423462,-14.35349083,-0.007259384,-0.012750178999999999,0.045822144,990.8165283,0,0.0,0
13.76,0.08569127,-0.14777324,9.769732000000001,-5.629999999999999e-05,-0.000541,0.000279,1.000191689,15.93423462,-14.35349083,0.0021466239999999998,-0.008105636,0.041086197000000005,990.8165283,0,0.0,0
13.8,0.07616719599999999,-0.1692236,9.753165,-0.000989,0.000524,-0.0005200000000000001,0.885867119,15.66919518,-14.3973484,0.002213188,0.015731931,0.060018539,990.8341063999999,0,0.0,0
13.84,0.08576232,-0.16207466,9.765004,-0.00018999999999999998,0.000258,1.22e-05,1.050844669,15.92893982,-14.28399849,-0.012233748999999999,0.010823771000000001,0.04107666,990.8164673,0,0.0,0
13.88,0.08340794,-0.1668421,9.765007,0.00020899999999999998,0.000125,0.000278,0.704041481,16.49958801,-14.03299904,-0.007298969000000001,0.011184707,0.041077614,990.8419188999999,0,0.0,0
13.92,0.07866365,-0.15969309,9.767377999999999,0.000608,-0.00014099999999999998,-0.000121,1.189787865,15.63742828,-13.98041725,-0.0024381579999999997,0.00143604,0.041068077,990.8164673,0,0.0,0
13.96,0.08347899,-0.15492743,9.762647,-0.000591,-0.000541,0.000411,0.536999941,16.60665703,-14.16749382,-0.0023316,0.006424829,0.050537109000000004,990.8088989,0,0.0,0
14.0,0.08240938,-0.15490124,9.745978,0.000417,-0.00031800000000000003,-0.00043,0.44620919200000003,16.52164078,-14.14853096,-0.005884021999999999,0.001495555,0.050630569,990.8366699,0,0.0,0
14.04,0.0824005,-0.1429846,9.7743845,-0.00011200000000000001,0.000348,0.00010400000000000001,0.7528746129999999,15.86068344,-14.31107903,-0.019970923999999998,-0.031922773,0.031690598,990.8164673,0,0.0,0
14.08,0.08478153,-0.15251747,9.767282000000002,-0.00037200000000000004,-0.001118247,-0.000293,1.05040884,15.19088745,-14.00979805,-0.010372967,0.001586422,0.036429405,990.8190308000001,0,0.0,0
14.12,0.087162554,-0.14775065,9.760178999999999,2.7899999999999997e-05,-5.3e-05,0.0005059999999999999,0.47928023299999994,16.23629379,-13.75200844,-0.01491788,-0.007842436,0.041164398,990.8215332000001,0,0.0,0
14.16,0.07042432,-0.15728351,9.7530775,0.00042699999999999997,-0.000452,-2.62e-05,0.5470802779999999,15.77299881,-13.73534584,0.008761838000000001,0.011115834,0.060101509000000004,990.8265381000001,0,0.0,0
14.2,0.08236498,-0.15490016,9.772014,-0.000105,8.01e-05,0.000373,0.282753468,16.26337051,-14.339181900000002,-0.000708,-0.0035427809999999996,0.04115963,990.80896,0,0.0,0
14.24,0.08713591,-0.15489992,9.764911,-0.001170293,8.01e-05,-2.61e-05,0.838556767,16.30957031,-14.19657707,-0.000637,0.0056853,0.041155815,990.8014526000001,0,0.0,0
14.28,0.07517749,-0.1525164,9.772012,-0.000371,-5.31e-05,0.00023999999999999998,0.8048052790000001,16.85728645,-13.99247551,0.008672483,-0.003394634,0.036430359,990.8215332000001,0,0.0,0
14.32,0.101457536,-0.15251616,9.755442,0.0006940000000000001,0.001145355,-0.000559,0.569228411,16.05746841,-14.29429054,-0.015112728,-0.00314343,0.060105324,990.8242798,0,0.0,0
14.36,0.07515976,-0.15251592,9.762542,0.0006940000000000001,-0.00018600000000000002,-2.6000000000000002e-05,0.5909416679999999,15.60388184,-14.57903862,0.008562192,0.001528755,0.060106277,990.8215332000001,0,0.0,0
14.4,0.07993066,-0.14774913,9.748338,-0.00023799999999999998,0.0008789999999999999,0.00010700000000000001,0.808392763,16.49194336,-14.04863167,0.003570862,-0.007954687,0.069580078,990.8190308000001,0,0.0,0
14.44,0.077531874,-0.15728205,9.764907000000001,0.00042800000000000005,0.000213,0.0005070000000000001,0.506537437,16.15689278,-14.44442177,0.0038943959999999996,0.006356806,0.045905113,990.7911987,0,0.0,0
14.48,0.087082624,-0.14298221,9.760171000000001,0.0005610000000000001,-0.001118386,-0.00015900000000000002,0.621947765,15.68535233,-14.20366096,-0.001110695,-0.007691443,0.041178703,990.8391723999999,0,0.0,0
14.52,0.084683836,-0.15489838,9.748336,-0.00010400000000000001,0.001012127,0.00010700000000000001,0.762166977,16.39574242,-13.65095711,-0.005904108000000001,0.001995295,0.07432270099999999,990.8164673,0,0.0,0
14.56,0.08945477,-0.14774829,9.764905,-0.00010400000000000001,8e-05,-0.000292,0.8004839420000001,15.85244179,-14.08697701,-0.015367493000000001,-0.002692997,0.036448479,990.8165283,0,0.0,0
14.6,0.08466607,-0.16204771,9.753067999999999,0.000695,-0.000719,-0.000425,0.530070305,16.33691978,-14.3815937,-0.00558389,0.011825918999999999,0.060121535999999996,990.8442382999999,0,0.0,0
14.64,0.091826916,-0.13821470000000002,9.760169,0.000295,8e-05,0.00010700000000000001,0.596349239,15.87214661,-14.28763008,-0.010659263,-0.035525932999999996,0.036458969,990.8316039999999,0,0.0,0
14.68,0.079868525,-0.15489748,9.760168,0.000429,0.000479,0.000241,0.664883614,16.77903938,-14.1203022,-0.005571537,0.002600119,0.050661087,990.8190308000001,0,0.0,0
14.72,0.06552023,-0.1548973,9.743597,0.000162,-5.3200000000000006e-05,0.00010700000000000001,1.068289757,16.10307503,-13.91195869,0.018294938,0.002709478,0.083805084,990.8291016000001,0,0.0,0
14.76,0.09419018,-0.15966365,9.788573,2.9199999999999998e-05,-0.000453,-0.000292,0.45009422299999996,16.78843307,-13.77981758,-0.014802046000000001,0.007466391,0.012785912,990.8012695,0,0.0,0
14.8,0.08462173,-0.16204667,9.772002,0.000429,-0.000453,0.001305977,0.48773098,16.50750732,-13.61520576,-0.014900297,0.007815197,0.031731606,990.8240967,0,0.0,0
14.84,0.075053215,-0.14774674,9.779102,0.001360991,0.0006129999999999999,-0.00015900000000000002,0.586131096,16.59988976,-14.02070045,0.008884788000000001,-0.006375581,0.031734467,990.7937012,0,0.0,0
14.88,0.07982412,-0.15727964,9.760163,-0.000503,-5.3299999999999995e-05,0.00010800000000000001,0.7076284890000001,16.13424301,-14.08915901,-0.00067,-0.00151597,0.04120636,990.8291016000001,0,0.0,0
14.92,0.09415465599999999,-0.16442928,9.753062,-0.000503,-5.3299999999999995e-05,0.00010800000000000001,0.7076284890000001,16.13424301,-14.08915901,-0.0007559999999999999,0.01731804,0.064875603,990.8291016000001,0,0.0,0
14.96,0.07741648,-0.16204584,9.769631,0.000562,0.000346,-0.000425,0.581810236,15.59504318,-14.11520576,-0.000582,0.012410313000000001,0.041200638,990.8316039999999,0,0.0,0
15.0,0.09177905,-0.15489653,9.769633,2.98e-05,7.99e-05,-0.000691,0.682872057,16.58488083,-13.64980507,-0.00061,0.0075674209999999995,0.04593181599999999,990.8190308000001,0,0.0,0
15.04,0.09655124,-0.15012979999999998,9.753061,2.98e-05,7.99e-05,-0.000691,0.682872057,16.58488083,-13.64980507,-0.029190145,-0.015818878999999997,0.055409430999999995,990.8190308000001,0,0.0,0
15.08,0.08459416,-0.15012953,9.767263999999999,-0.00037,-0.00018600000000000002,-0.000292,0.307373047,15.70681381,-14.07945442,-0.000466,-0.001108393,0.045945168,990.8190308000001,0,0.0,0
15.12,0.08697641,-0.15966257,9.760163,0.0010948730000000001,-0.00018600000000000002,0.0005070000000000001,0.580723286,16.33162498,-14.31210518,0.004519813,0.008583993,0.050682068,990.8392944,0,0.0,0
15.16,0.07979911599999999,-0.15251246,9.757794,0.001094946,-0.00018600000000000002,-0.000425,0.548494816,16.880813600000003,-14.18530464,-0.000226,0.013520151000000001,0.050684929000000004,990.8217162999999,0,0.0,0
15.2,0.0845713,-0.15966216,9.764895,0.000696,0.000612,-0.00015900000000000002,0.652409315,16.13511658,-13.92673302,-0.004614539,0.013933137,0.045954704000000006,990.8190308000001,0,0.0,0
15.24,0.08456373,-0.1525121,9.767261999999999,0.000962,-0.000852,0.00010800000000000001,0.912307262,15.74625015,-13.79006004,0.005316846,-0.005071193,0.050688744,990.7989502,0,0.0,0
15.28,0.08694601,-0.15012866,9.757792,2.9999999999999997e-05,-0.001118602,0.0007740000000000001,0.6735794540000001,16.04982376,-14.30992699,-0.008823581,-0.009780943,0.06489086200000001,990.8341675,0,0.0,0
15.32,0.082158566,-0.16681144,9.755424,0.00016299999999999998,-0.000586,0.000241,0.656975269,16.13953781,-14.15864754,-0.003569052,0.014269753999999999,0.055423737,990.8165283,0,0.0,0
15.36,0.07976106,-0.1548948,9.757791000000001,0.00016299999999999998,-0.000719,0.000241,0.762007236,15.86951828,-14.77491188,-0.008453839,0.009232119,0.050686836,990.8165893999999,0,0.0,0
15.4,0.07736358,-0.15251142,9.776729,0.000297,-0.000586,0.00010800000000000001,0.65170598,15.97719002,-15.14913368,0.005973607,-0.00011999999999999999,0.031750679,990.8165283,0,0.0,0
15.44,0.09169537,-0.14774463,9.767259,0.000297,-0.00032,-0.000292,0.432649374,16.61429977,-14.15186119,-0.003352515,-0.01006037,0.036478042999999995,990.8416748,0,0.0,0
15.48,0.0797382,-0.14774445,9.762524,-0.001034921,-5.3400000000000004e-05,0.00010800000000000001,0.460312128,16.06068993,-14.04674339,0.001309387,-0.010043114,0.045948029,990.8039551,0,0.0,0
15.52,0.07734072,-0.15251082,9.76489,-0.000309,0.000857,0.000206,0.660019159,16.14248276,-14.31325722,0.020139687,0.004223779,0.036482811000000004,990.8317870999999,0,0.0,0
15.56,0.074943215,-0.15966049,9.764889,-4.29e-05,0.000857,0.000606,0.432213306,15.87624741,-13.87765694,0.000615,0.004203364,0.036486626,990.8240356000001,0,0.0,0
15.6,0.08449522,-0.16204357,9.753053,0.00049,0.0016555729999999998,0.000606,0.719666958,16.04011154,-14.00852394,-0.005036369000000001,0.008646548,0.055426598,990.8140868999999,0,0.0,0
15.64,0.08926737,-0.15727678,9.774356,-0.000708,0.00099,0.000606,0.49618244200000006,16.77871895,-13.47841072,-0.014560058999999998,0.008823872,0.036493301,990.8065186000001,0,0.0,0
15.68,0.077310264,-0.15012684,9.755417999999999,0.00022400000000000002,0.000324,-5.9699999999999994e-05,0.672760963,16.20627975,-13.01022148,-0.00027,-0.00553073,0.055429459,990.8493652000001,0,0.0,0
15.72,0.08447239,-0.15727642,9.755417999999999,-0.000309,5.7600000000000004e-05,-0.000725,0.359984875,16.44104195,-14.36147881,-0.014556296000000002,0.00363338,0.045956612,990.7938843000001,0,0.0,0
15.76,0.08207488,-0.16680935,9.760152,-0.000575,-0.00020899999999999998,-0.000193,0.554988384,16.41249847,-13.6970005,0.000147,0.022306397999999998,0.041213036,990.8140868999999,0,0.0,0
15.8,0.07011777,-0.15727606,9.762516999999999,-0.000708,-0.000741,-0.000193,0.49490475700000003,15.77681923,-13.72752571,0.014480315,0.022247568,0.050682068,990.8114624,0,0.0,0
15.84,0.09161925,-0.14774272,9.769619,-0.000175,5.7600000000000004e-05,-0.00032599999999999996,1.000191689,15.93423462,-14.35349083,-0.014324783999999998,-0.01078029,0.045953750999999994,990.8291016000001,0,0.0,0
15.88,0.08205205,-0.15489241,9.750680000000001,0.000357,-7.56e-05,-0.000193,0.722710848,16.04305649,-14.16313362,-0.004576825,0.00359866,0.060157775999999996,990.8065186000001,0,0.0,0
15.92,0.07248482,-0.15965876,9.757781,0.000624,-7.56e-05,0.000207,0.940543175,16.03660774,-14.65822792,0.024181612,0.013078376999999999,0.036485672000000004,990.8240356000001,0,0.0,0
15.96,0.08191031,-0.16442207,9.757769,-0.000175,-0.000741,-0.000592,0.046932697,16.463974,-14.314577100000001,-0.004362293,0.013023763999999998,0.05068779,990.8292847000001,0,0.0,0
16.0,0.08176857,-0.15011892,9.745921000000001,0.000491,-0.001010368,7.730000000000001e-05,0.310714722,16.34189415,-13.80919838,0.010759071,-0.005714819,0.060181618,990.8317870999999,0,0.0,0
16.04,0.09609019999999999,-0.15726832,9.755386999999999,-0.000308,0.000454,-0.000455,0.569527149,16.68960571,-13.86942482,-0.017882511,0.003670752,0.055447578,990.8317870999999,0,0.0,0
16.08,0.074563324,-0.14535144,9.757752,-0.000308,0.000454,-0.000455,0.569527149,16.68960571,-13.86942482,0.015583046000000001,-0.0014215410000000001,0.055443764000000006,990.8317870999999,0,0.0,0
16.12,0.08410519,-0.1644173,9.757750999999999,-4.11e-05,0.000587,-0.000322,1.116037607,16.20075035,-14.3869381,-0.008498654,0.01272589,0.050709724000000005,990.8014526000001,0,0.0,0
16.16,0.0745278,-0.1453506,9.760117,-4.11e-05,0.000587,-0.000322,1.116037607,16.20075035,-14.3869381,0.010747351,-0.020644635,0.041240692,990.8014526000001,0,0.0,0
16.2,0.09362924,-0.15011668,9.762483,-0.000174,-0.0007440000000000001,-5.56e-05,0.736814022,15.58210754,-14.06134987,-0.0033608379999999997,-0.0015944239999999999,0.04597663900000001,990.8192139,0,0.0,0
16.24,0.086441815,-0.15011632,9.774317,-0.000174,-0.0007440000000000001,-5.56e-05,0.736814022,15.58210754,-14.06134987,-0.008012988,-0.015753582,0.050712585,990.8192139,0,0.0,0
16.28,0.07447454,-0.15249914,9.755378,9.259999999999999e-05,-0.000478,7.77e-05,0.7929055690000001,17.057334899999997,-14.772192,-0.003315046,-0.001656666,0.050711632,990.8318481000001,0,0.0,0
16.32,0.08401638,-0.15726522,9.76958,9.259999999999999e-05,-0.000478,7.77e-05,0.7929055690000001,17.057334899999997,-14.772192,0.001403183,0.012595578999999999,0.031774521,990.8318481000001,0,0.0,0
16.36,0.08638853,-0.1524983,9.767211,-0.000174,-7.85e-05,-5.5299999999999996e-05,0.7793140409999999,15.93773842,-13.70378304,-0.013460785,0.0029452740000000003,0.036514282,990.8140868999999,0,0.0,0
16.4,0.086370766,-0.16679752,9.753005,-0.000306,0.00072,-0.000455,0.38047385200000006,16.6181221,-14.14404488,0.010894573999999999,0.026747972000000002,0.069654465,990.7913818,0,0.0,0
16.44,0.08157322,-0.15726389999999998,9.757739,-0.000306,0.00072,-0.000455,0.38047385200000006,16.6181221,-14.14404488,-0.0036466940000000002,0.0029500570000000003,0.045984267999999995,990.7913818,0,0.0,0
16.48,0.071995854,-0.14773044,9.757736,-0.000572,-0.000212,-0.000321,0.6212658879999999,15.94773102,-13.60302925,0.001075998,-0.011669918999999999,0.027046204,990.8417357999999,0,0.0,0
16.52,0.069588184,-0.15011325,9.762469,-0.000306,0.000454,0.000611,1.098454475,15.92070198,-14.05990791,0.019871861,0.0071538090000000006,0.036514282,990.8115233999999,0,0.0,0
16.56,0.07912999400000001,-0.13581312,9.767202000000001,-0.000173,0.0008529999999999999,0.00021099999999999998,0.969889879,16.010692600000002,-13.50647163,-0.00857652,-0.030810952000000003,0.03178215,990.8041992000001,0,0.0,0
16.6,0.074332476,-0.15487891,9.7743025,-0.000705,0.000321,0.00034500000000000004,0.24522543,15.43794632,-14.13113213,0.005322859,-0.002752155,0.022310257000000003,990.8242798,0,0.0,0
16.64,0.08626419,-0.16441163,9.760097,-0.000705,-7.87e-05,0.000877,0.593740225,16.60725594,-14.40722466,0.00036899999999999997,0.016030461,0.041248322000000004,990.8269042999999,0,0.0,0
16.68,0.08624643,-0.16202787,9.779033,-0.0008380000000000001,0.0008529999999999999,-0.000321,0.464334488,16.43340111,-14.37710762,0.005241349,0.011224195,0.022309303,990.8266602,0,0.0,0
16.72,0.08144888,-0.16441074,9.752994000000001,0.00022799999999999999,-0.000478,-0.000321,0.906356335,15.84627151,-14.17991447,-0.003886357,-0.0027383570000000003,0.06018734,990.8217162999999,0,0.0,0
16.76,0.06709173,-0.15487722,9.764827,0.000627,-0.000878,-0.000321,0.842686176,15.57593536,-14.15428352,0.005549386,0.001747817,0.036514282,990.8065186000001,0,0.0,0
16.8,0.07902348,-0.15964326,9.771927,-0.000172,0.000454,0.00034500000000000004,0.39968586,15.79330063,-14.17572212,0.0008619999999999999,0.006468967,0.045983315,990.7839355000001,0,0.0,0
16.84,0.07900572,-0.15964288,9.748252,-0.000305,-0.000212,-5.44e-05,0.119161129,15.89917564,-13.83075905,-0.004011407,-0.003277332,0.064920425,990.8217162999999,0,0.0,0
16.88,0.08376777,-0.15725917,9.760088,-0.000704,0.000321,-0.000321,0.737792969,15.95186996,-14.23710442,-0.013879648999999999,-0.012878358000000001,0.031783104,990.8140868999999,0,0.0,0
16.92,0.08375001,-0.15249214,9.757717999999999,-0.000171,0.000587,-0.000321,0.7202098370000001,15.67182159,-13.91007423,0.005277865,-0.00361006,0.055452347,990.8217162999999,0,0.0,0
16.96,0.08169237,-0.14773375,9.771953,-0.00057,0.00018700000000000002,-5.42e-05,0.650887012,16.13364792,-13.84942818,-0.009434155999999999,-0.008015469,0.036489487,990.8343506000001,0,0.0,0
17.0,0.08168858,-0.15488347,9.76485,0.001090062,0.0008439999999999999,0.00011,0.447050571,16.78548813,-13.62520409,0.009324789,0.001686335,0.041231155,990.8090210000001,0,0.0,0
17.04,0.086464584,-0.15250015,9.771952,0.00029,0.00031099999999999997,-0.000557,0.647843838,16.13069916,-13.6948185,-0.000206,-0.0030571070000000003,0.031761169,990.8292847000001,0,0.0,0
17.08,0.08168095,-0.1525,9.767217,-0.000376,-8.809999999999999e-05,0.000109,0.8651342390000001,16.49254227,-14.28836632,-0.018950223999999998,-0.007694289,0.036495209,990.8317870999999,0,0.0,0
17.12,0.07928726,-0.14535013,9.753013000000001,0.000556,-0.000754,-0.000557,0.7462439540000001,16.22307968,-14.10030556,0.005010135,0.006615728,0.060168266,990.8444214,0,0.0,0
17.16,0.06733394,-0.14535001,9.76485,0.00042300000000000004,4.51e-05,-0.000157,0.488411903,16.24513245,-14.21583748,0.010076948,-0.021842062000000002,0.050699234,990.8444214,0,0.0,0
17.2,0.074499846,-0.154883,9.762481,0.0013549579999999999,0.0008439999999999999,0.000775,0.11861848800000001,16.26746559,-13.92920876,0.014572396999999999,0.012078806999999999,0.050711632,990.8469238,0,0.0,0
17.24,0.07449603,-0.15249965,9.75538,0.0013549579999999999,0.0008439999999999999,0.000775,0.11861848800000001,16.26746559,-13.92920876,0.009838231,0.011967018000000001,0.055443764000000006,990.8469238,0,0.0,0
17.28,0.08166194,-0.15726611,9.750645,0.001088715,4.51e-05,0.000109,0.381016016,16.24983215,-14.04559517,-0.004480764,0.0029230859999999997,0.041249275,990.8217162999999,0,0.0,0
17.32,0.07209852,-0.17156574,9.760112,0.001088715,4.51e-05,0.000109,0.381016016,16.24983215,-14.04559517,0.010061546999999999,0.012291357,0.027042389,990.8217162999999,0,0.0,0
17.36,0.07926443,-0.15011609,9.757745,-0.00024300000000000002,-8.809999999999999e-05,-0.00029,0.856544495,16.11541367,-13.72608376,-0.009162493,-0.001849294,0.060185432000000004,990.8192139,0,0.0,0
17.4,0.07926062,-0.15726581,9.769582000000002,0.0006889999999999999,-0.000354,0.000376,0.22601270699999998,16.26276779,-14.09945107,-0.004309259,-0.001821101,0.031778336000000004,990.8192749,0,0.0,0
17.44,0.08164674,-0.15249917,9.755378,-0.00011,0.0008439999999999999,-0.00029,0.448274136,16.1548233,-14.12738228,0.014584452,-0.006426156,0.055457115,990.8140258999999,0,0.0,0
17.48,0.07925302,-0.15488234,9.755378,0.000157,-0.001153376,-0.000157,0.46876311299999995,16.33190155,-13.90995216,0.015112071999999999,0.017510846,0.055454254,990.8446045,0,0.0,0
17.52,0.08163911,-0.15726557,9.75301,0.000157,-0.001153376,-0.000157,0.511944771,16.42515755,-14.15300941,0.000906,0.007847682,0.0507164,990.8446045,0,0.0,0
17.56,0.072075695,-0.15726545,9.748275,0.0006889999999999999,-8.809999999999999e-05,0.000775,0.31625986100000003,16.7160759,-14.21686363,0.000959,-0.0018811820000000001,0.050713539,990.8519897,0,0.0,0
17.6,0.08163151,-0.15011558,9.748275,-0.000509,-0.000621,-0.0006900000000000001,0.589856148,16.34046173,-14.77593803,-0.0042359979999999995,-0.006595507,0.06965637200000001,990.8241577,0,0.0,0
17.64,0.093577206,-0.15011543,9.760110000000001,-0.000109,0.00031099999999999997,-0.00029,0.32884120899999997,16.25365448,-14.03777504,-0.013982102,0.0031499709999999997,0.055458069000000006,990.8368529999999,0,0.0,0
17.68,0.07206428,-0.15249866,9.757743,0.00029,0.00044400000000000006,0.000109,0.622926235,16.05511856,-14.3794117,0.014572278000000001,-0.001629949,0.04598999,990.8192139,0,0.0,0
17.72,0.06967059,-0.1691815,9.755376,0.00029,0.000178,0.00024300000000000002,0.882281065,16.03453827,-14.34118843,0.000503,0.0078028590000000005,0.050721169,990.8344727,0,0.0,0
17.76,0.08400619,-0.15249842,9.755374,0.00029,0.000178,0.00024300000000000002,0.882281065,16.03453827,-14.34118843,-0.009063378,-0.001855686,0.050720215,990.8344727,0,0.0,0
17.8,0.08400237599999999,-0.14296523,9.767211,0.000557,0.00044400000000000006,-0.000157,0.36677599,16.60486412,-13.4482975,-0.0046227429999999995,-0.00604485,0.036529541,990.8115845000001,0,0.0,0
17.84,0.08160868,-0.14773169,9.764844,0.000157,0.0005780000000000001,0.000509,0.594284058,16.23896408,-14.30877495,0.004891217,-0.0057332519999999994,0.046002388,990.8117064999999,0,0.0,0
17.88,0.074435174,-0.14773163,9.764842,0.001222387,0.000178,-0.00042300000000000004,0.44925355899999997,16.52458572,-14.30313683,0.000176,-0.001092404,0.041268348999999996,990.8041992000001,0,0.0,0
17.92,0.08180493,-0.14773649,9.776697,-0.000375,-0.000354,-0.00042300000000000004,0.583767891,16.33457184,-14.46671486,-0.000123,-0.005913898000000001,0.031759262,990.8266602,0,0.0,0
17.96,0.0748477,-0.16442466,9.76488,-0.000375,0.000178,-0.00042300000000000004,0.714557648,16.40398216,-13.87505913,4.7600000000000005e-05,0.003584832,0.036492348,990.8067017000001,0,0.0,0
18.0,0.07725027,-0.15727511,9.764882,-0.000246,-0.00048499999999999997,0.000239,1.056252003,16.1972065,-13.99259377,0.004241385,0.0035468340000000004,0.041227341,990.8218383999999,0,0.0,0
18.04,0.08682257,-0.15965876,9.743578,0.000153,0.0008470000000000001,-0.000293,0.905270815,16.58285332,-14.3768177,-0.005454331999999999,-0.001138508,0.074370384,990.8319092,0,0.0,0
18.08,0.074885786,-0.1548925,9.769618,1.9600000000000002e-05,0.0008470000000000001,0.0006389999999999999,0.408573151,16.80256462,-14.31313515,-0.005889729000000001,-0.0057580769999999995,0.041234016,990.8217162999999,0,0.0,0
18.12,0.07250851400000001,-0.15965936,9.781455000000001,0.00041900000000000005,0.0005809999999999999,0.00037200000000000004,0.416289091,15.70359039,-14.32700539,0.008594692,0.01778774,0.017555236999999998,990.8192139,0,0.0,0
18.16,0.08208084,-0.14774331,9.76962,-0.000646,0.000181,0.000772,0.550123692,15.77594376,-13.88995171,-0.0009029999999999999,-0.02042599,0.04122448,990.8065186000001,0,0.0,0
18.2,0.09165311,-0.15489343,9.767255,0.000152,-0.000884,0.0006389999999999999,0.95146513,15.46679497,-13.70275688,0.004102752,0.008121818000000001,0.045953750999999994,990.8140258999999,0,0.0,0
18.24,0.07493651,-0.15727702,9.771989999999999,-0.00024700000000000004,-0.00048499999999999997,0.00037200000000000004,0.532135963,15.97010231,-14.36045265,0.013528429,-0.001273707,0.050690650999999996,990.8067017000001,0,0.0,0
18.28,0.074949175,-0.15727732,9.76489,0.000285,0.0011133,0.000106,0.49838495299999996,16.51781845,-14.15634346,0.008442305,-0.0061489940000000005,0.041221619,990.8545531999999,0,0.0,0
18.32,0.07257199,-0.15727761,9.764892,0.000552,4.8100000000000004e-05,0.000239,0.7413799759999999,15.58652496,-14.29326057,0.012960285,0.0036231429999999997,0.041225433,990.8140258999999,0,0.0,0
18.36,0.07975435,-0.15727797,9.757791000000001,1.88e-05,0.000714,0.000106,0.366478205,15.97272682,-13.87317085,-0.001680993,-0.00581196,0.05069828,990.814209,0,0.0,0
18.4,0.08932668,-0.14297858,9.767261,1.86e-05,0.000181,0.000106,0.725754738,16.04600143,-14.317743300000002,-0.005986541999999999,-0.001253605,0.041219711,990.8090210000001,0,0.0,0
18.44,0.09411913,-0.14536217,9.753058,-0.000248,-0.000618,-0.00042699999999999997,0.36981988,16.60781097,-13.60290718,-0.010988601,-0.005870536,0.074362755,990.8319092,0,0.0,0
18.48,0.08218235,-0.15012908,9.760161,7.74e-07,-0.001084452,-0.000136,0.44025921799999995,16.62166595,-14.53838539,-0.015155837,0.003534496,0.041213989,990.8218383999999,0,0.0,0
18.52,0.082194984,-0.15966251,9.769631,7.74e-07,-0.001084452,-0.000136,0.44025921799999995,16.62166595,-14.53838539,-0.0056606830000000006,0.003575757,0.045948982,990.8218383999999,0,0.0,0
18.56,0.08459759,-0.14536312,9.774367,0.000533,-0.000285,0.00053,0.607706547,16.04038811,-13.6063633,-0.015183859,-0.020280942,0.027009963999999997,990.8167725,0,0.0,0
18.6,0.07744059,-0.15489653,9.762532,0.000267,-0.000552,-0.000269,0.798418999,16.21925926,-14.10812569,-0.000526,0.013220444,0.045945168,990.8266602,0,0.0,0
18.64,0.09657249,-0.15728012,9.753064,0.000267,-0.000552,-0.000269,0.798418999,16.21925926,-14.10812569,-0.014850117,-0.000973,0.064884186,990.8266602,0,0.0,0
18.68,0.072686136,-0.14298078,9.7578,0.000267,0.00024700000000000004,0.000263,0.17620039,16.53190994,-13.64561653,0.013842128,0.00354211,0.060143471,990.8218383999999,0,0.0,0
18.72,0.07030892,-0.15013089999999998,9.762534,-0.000266,-0.0008179999999999999,-0.000269,1.084351063,16.38165283,-14.16168785,0.009355806,-0.001203775,0.03646946,990.81427,0,0.0,0
18.76,0.08466104,-0.15013120000000002,9.77674,-0.000799,-0.000552,-0.00040300000000000004,0.859045982,16.48664856,-13.97914314,-0.009818465,-0.015763,0.036463737,990.8494873,0,0.0,0
18.8,0.07989392,-0.15251485,9.776741000000001,0.000133,-1.9e-05,0.00013000000000000002,0.44536781299999995,16.25779724,-14.67184639,0.00011100000000000001,-0.0061308890000000005,0.031725882999999996,990.8242798,0,0.0,0
18.84,0.07990658,-0.16204825,9.760172,0.000133,-1.9e-05,0.00013000000000000002,0.787903309,16.31486511,-14.26606941,-0.004180840999999999,0.017904684,0.045927048,990.8242798,0,0.0,0
18.88,0.072749585,-0.16204855,9.748336,-0.000267,-0.001350609,-0.000669,0.38047385200000006,16.61812019,-14.14404488,0.010215566,0.022867693999999997,0.06486702,990.8218383999999,0,0.0,0
18.92,0.07250976599999999,-0.15727612,9.767252000000001,0.001064937,-0.000685,0.00013000000000000002,0.638849497,16.22777748,-13.93006325,0.000834,-0.00085,0.036485672000000004,990.8218383999999,0,0.0,0
18.96,0.07968199,-0.13820994,9.750683,0.000399,0.00024700000000000004,-0.00027,0.520395756,16.69637299,-14.01621437,-0.003810935,-0.019834131,0.055421829000000006,990.8469238,0,0.0,0
19.0,0.082074404,-0.14297655,9.776721,0.0004,-0.000152,0.000263,0.736706495,16.68845177,-14.43400764,-0.008840411999999999,-0.010033816,0.04122448,990.8269042999999,0,0.0,0
19.04,0.07490724,-0.14297661,9.762519000000001,-0.000131,-0.000683,-0.000669,0.647438049,16.60490799,-14.49234962,0.010612331000000001,-0.010083406999999999,0.05542469,990.8243408,0,0.0,0
19.08,0.08207953,-0.16442621,9.767253,0.000269,0.00038199999999999996,-3.12e-06,1.183294535,16.10574341,-14.46872902,0.000842,0.0044425870000000004,0.031757355,990.8268433000001,0,0.0,0
19.12,0.07013255,-0.15489313,9.769621,0.000535,0.000516,-0.000136,0.569229126,16.0574646,-14.29429054,0.019789152,0.009245038,0.041227341,990.8269042999999,0,0.0,0
19.16,0.07969469,-0.1525099,9.764887,-0.000131,0.000516,-0.000136,0.41604471200000004,16.70401573,-14.00058174,-0.004225314,-0.009687543,0.041230202,990.8243408,0,0.0,0
19.2,0.07491743599999999,-0.16204312,9.750684,2.39e-06,-1.7e-05,0.00013000000000000002,0.894180775,15.83448982,-13.56147575,0.000858,0.013649523,0.060156822,990.8419188999999,0,0.0,0
19.24,0.07253006,-0.15251005,9.774356,-0.000797,-0.000816,0.00013000000000000002,0.499906301,16.51929283,-14.23365211,-0.00359641,-0.0004,0.031751633,990.8067017000001,0,0.0,0
19.28,0.06297296,-0.1644265,9.760154,0.000801,-0.000949,0.0009289999999999999,0.579202175,16.3301506,-14.23480415,0.01095064,0.013751,0.036482811000000004,990.8368529999999,0,0.0,0
19.32,0.08209473,-0.15012687,9.769622,2.32e-06,-0.00055,0.00013000000000000002,0.970432758,15.64240265,-13.408014300000001,-0.0032833520000000002,-0.010186836,0.03647995,990.8368529999999,0,0.0,0
19.36,0.08209729,-0.15251029,9.774356,-0.000397,-0.00055,-0.000136,1.321258783,15.44446373,-13.98938942,-0.003142163,-0.005590767,0.031741142,990.8218383999999,0,0.0,0
19.4,0.07970989,-0.150127,9.757786,-0.000397,0.00011599999999999999,-0.000136,0.64730072,16.49898911,-13.7932682,0.00657592,-0.010235876,0.050679207000000004,990.7940062999999,0,0.0,0
19.44,0.07015282,-0.16681007,9.771989,2.25e-06,-0.000816,-0.000136,0.456726074,16.42603302,-13.99058723,0.011242837,0.008750379,0.036475182,990.8016357000001,0,0.0,0
19.48,0.07493517,-0.14536056,9.764889,2.22e-06,-1.6899999999999997e-05,-0.00027,0.577680111,16.32867813,-14.1574955,0.006579651999999999,0.004235253,0.045946121,990.8067017000001,0,0.0,0
19.52,0.070157915,-0.15966037,9.757786999999999,0.0009339999999999999,-1.6899999999999997e-05,0.000263,0.506536961,16.15689468,-14.44442177,0.006602816,0.004118785,0.036476135,990.7991332999999,0,0.0,0
19.56,0.07972005,-0.15966037,9.757786999999999,-0.000397,0.00011599999999999999,-0.00027,0.430148125,16.24306297,-13.89880562,0.011204518,-0.00057,0.055416107,990.8117676,0,0.0,0
19.6,0.07255286,-0.16204375,9.755419999999999,-0.000264,-0.000816,0.000263,0.7350468640000001,16.58106041,-13.657625199999998,0.006590642,0.00860393,0.05540752400000001,990.8469238,0,0.0,0
19.64,0.06299585,-0.15966049,9.76489,-0.000264,0.000383,-0.000136,0.27209997199999997,16.25305557,-13.798044199999998,0.015975296,0.00377205,0.045939445,990.8167725,0,0.0,0
19.68,0.074947864,-0.14536092,9.760156,-0.000131,-0.000683,-0.000136,0.27707147600000004,15.78327179,-13.23243141,0.011373483,-0.005930513,0.031731606,990.8319092,0,0.0,0
19.72,0.077340305,-0.16919377,9.755421,-0.000131,-1.6899999999999997e-05,0.00013000000000000002,0.710672379,16.13718796,-14.24376869,-0.002637312,0.017930463,0.050667763,990.8319092,0,0.0,0
19.76,0.079732716,-0.14774433,9.760156,2.05e-06,-1.6899999999999997e-05,-0.00027,0.8997254370000001,16.20866966,-13.96914864,0.00200408,-0.000909,0.045937538,990.814209,0,0.0,0
19.8,0.08212519,-0.13821125,9.783828,0.000268,-0.000816,0.000263,0.541565895,16.61107635,-14.39940834,0.00729432,-0.020048976,0.026993752000000003,990.7940062999999,0,0.0,0
19.84,0.07256809,-0.16681066,9.767258,-0.000264,-0.001881117,-3.33e-06,0.611867189,16.51901436,-14.63580513,0.012431033000000001,0.017845631,0.045924187000000005,990.8469238,0,0.0,0
19.88,0.07496053,-0.15251103,9.762523,-0.000131,0.00024900000000000004,0.000662,0.6162953379999999,16.417514800000003,-14.16864204,0.007144675,0.003469914,0.064865112,990.8092041000001,0,0.0,0
19.92,0.06804985,-0.14298427,9.7767515,-0.000131,0.00024900000000000004,0.000662,0.6162953379999999,16.417514800000003,-14.16864204,0.006902806,-0.015598282,0.031700134,990.8092041000001,0,0.0,0
19.96,0.08240199,-0.14060129999999998,9.750712,0.0004,0.00011899999999999999,-0.000138,0.49631929399999997,16.88463593,-14.17749214,-0.002820335,-0.014958292,0.060116768,990.8167725,0,0.0,0
20.0,0.072855055,-0.15490133,9.776752,0.000799,-0.000413,-0.000405,0.708607674,16.50400543,-14.26491356,0.016515336999999998,-0.005654946,0.041172981000000004,990.8294066999999,0,0.0,0
20.04,0.080037415,-0.15251836,9.772019,-0.000443,1.67e-05,0.00014099999999999998,0.36705136299999996,16.81669998,-14.84645271,-0.002726488,0.008734091999999999,0.036439896,990.8041992000001,0,0.0,0
20.08,0.07288039,-0.15251866,9.764919,0.000755,-0.00025,-0.000791,0.870785475,15.76037979,-14.32338142,0.002327532,-0.005488038000000001,0.031702995,990.8193358999999,0,0.0,0
20.12,0.07528299,-0.16205212,9.748349000000001,-0.000177,1.67e-05,0.0009400000000000001,0.504878521,16.04950333,-13.66803551,-0.002614185,0.004212305,0.050642967000000004,990.7991332999999,0,0.0,0
20.16,0.0800755,-0.15251926,9.760186000000001,0.0006219999999999999,1.67e-05,-0.000391,0.395012856,16.89522552,-14.31646919,-0.0027760640000000004,0.009015083,0.041174889,990.8369751,0,0.0,0
20.2,0.07769826,-0.14536974,9.760188000000001,0.0006219999999999999,1.67e-05,-0.000391,0.395012856,16.89522552,-14.31646919,0.006885111,-0.014628917,0.050644875,990.8369751,0,0.0,0
20.24,0.07293111,-0.14537004,9.76019,0.00022200000000000003,-0.000516,0.00027400000000000005,0.5334122179999999,16.97200203,-14.11133385,-0.0027326720000000002,-0.014353603000000001,0.050646782,990.8218383999999,0,0.0,0
20.28,0.08011353,-0.14537033,9.76019,0.000754,0.000549,0.00027400000000000005,0.909400463,15.84922028,-14.33452797,-0.002657525,-0.00024700000000000004,0.045907974000000004,990.8344727,0,0.0,0
20.32,0.082516134,-0.15252054,9.76966,0.000754,0.000549,0.00027400000000000005,0.909400463,15.84922028,-14.33452797,-0.007398233000000001,-0.000256,0.026970862999999998,990.8344727,0,0.0,0
20.36,0.075359106,-0.15490410000000002,9.753091,-0.00031099999999999997,-0.00011599999999999999,0.00014099999999999998,0.970027685,16.11660767,-14.20554543,0.00180386,0.0047416540000000005,0.045911789,990.8217162999999,0,0.0,0
20.4,0.08254149599999999,-0.15728769,9.748358999999999,-4.47e-05,0.00015,-0.000125,0.7628479,16.13336754,-14.25158501,0.002278931,0.009511113,0.069580078,990.8067017000001,0,0.0,0
20.44,0.07299456,-0.14775494,9.767297,-0.00031099999999999997,-0.00011599999999999999,-0.000259,0.671216965,15.78450394,-14.75594521,0.02609276,-0.014620245,0.041168212999999995,990.8344727,0,0.0,0
20.48,0.07539719,-0.16205487,9.757829,-0.000711,-0.00024900000000000004,-0.000259,0.663904905,16.40927505,-13.94454384,-0.0023114010000000003,0.013745799999999999,0.045895575999999993,990.8269042999999,0,0.0,0
20.52,0.07779974,-0.15013883,9.767299000000001,-0.000711,-0.000383,0.000807,0.9298903940000001,16.02629662,-14.11709404,-0.002848007,-0.020075008000000002,0.041156768999999996,990.8117064999999,0,0.0,0
20.56,0.087372035,-0.15967223,9.757831,-0.000977,0.000816,0.000407,0.40607214,16.43132782,-14.06007576,-0.007974841,0.0036343490000000003,0.045890808,990.8193358999999,0,0.0,0
20.6,0.07065540599999999,-0.15013939,9.7554655,8.77e-05,0.00134851,7.46e-06,0.195848942,16.44514084,-13.95150566,0.0062113030000000005,-0.000798,0.050628662000000005,990.8369751,0,0.0,0
20.64,0.08022767,-0.15967289,9.760201,0.00062,-0.000383,-0.000925,0.752193928,16.12305641,-13.71045113,0.010714166,0.008594066,0.050628662000000005,990.8369751,0,0.0,0
20.68,0.07546061,-0.15967318,9.762569000000001,-0.0005780000000000001,0.00134855,7.35e-06,0.493957043,16.6193161,-14.62351036,0.000998,0.02258411,0.036419868,990.8220215,0,0.0,0
20.72,0.080253065,-0.15014035,9.760203,-0.00044500000000000003,-0.00024900000000000004,-0.000126,0.48786783200000006,16.61342621,-14.31428719,-0.008420989,-0.006304055,0.041148186,990.8218383999999,0,0.0,0
20.76,0.075485915,-0.15014070000000002,9.760205000000001,-0.000712,-0.00011599999999999999,-0.001058015,0.720508337,16.30395508,-13.48519707,0.01131174,-0.000915,0.064823151,990.8092041000001,0,0.0,0
20.8,0.08027843,-0.15252420000000003,9.764939,0.004215003,-0.0041108659999999995,-0.000525,0.988016129,15.92245102,-13.73505211,0.007653944,0.00072,0.055370330999999995,990.8168945,0,0.0,0
20.84,0.08268099999999999,-0.14537475,9.767308,0.00022,0.0010823130000000001,0.000273,0.45422434799999994,16.05479813,-13.73752785,0.001313604,-0.005965516,0.045883179,990.9608153999999,0,0.0,0
20.88,0.07050723,-0.1477525,9.772022,-0.003774718,0.00321286,0.0006730000000000001,1.081307888,16.37870407,-14.00707817,0.0014084879999999998,-0.01106213,0.026938438,990.7813721000001,0,0.0,0
20.92,0.07504845,-0.15012988,9.748329,-0.000978,-0.000915,0.00014,0.6930899620000001,15.85713959,-13.91673851,0.007487088,-0.00016999999999999999,0.060135840999999995,990.7485352,0,0.0,0
20.96,0.079821944,-0.14774653,9.76253,0.003153875,-0.00198101,-0.000124,0.43957781799999995,16.88404083,-13.93776131,-0.001987584,-0.014227301000000001,0.041202545,990.8016357000001,0,0.0,0
21.0,0.07742569,-0.14536306,9.755429,-0.00044100000000000004,0.00015,0.000275,0.38185811,16.513677599999998,-13.52227211,-0.007840782,-0.015760466,0.045923233,990.9381104,0,0.0,0
21.04,0.07024965,-0.15727928,9.769631,-0.0027049509999999997,0.0013479179999999998,-0.00025699999999999996,0.830947399,16.30220413,-13.81005287,0.016039058999999998,0.012686253,0.0317173,990.7966309000001,0,0.0,0
21.08,0.063073635,-0.15489587,9.757795,-0.000175,0.000549,9.05e-06,0.706404686,16.76490784,-13.58698463,0.02042564,-0.006311864,0.060128212,990.7562866000001,0,0.0,0
21.12,0.07979661,-0.15727898,9.764896,0.00035800000000000003,0.000682,-0.00025699999999999996,0.6378707889999999,15.85801697,-13.75431252,-0.008216277,-0.006335497,0.041192055,990.8218383999999,0,0.0,0
21.16,0.08457008,-0.15251222,9.767261999999999,-0.00044100000000000004,0.000149,-0.000524,0.489795685,16.14068985,-13.59406471,-0.008427799,0.0029759559999999997,0.04592514,990.8344727,0,0.0,0
21.2,0.06305462,-0.14536229,9.7719965,-0.00084,-0.00025,-0.000657,0.7396130559999999,16.58547974,-13.88953972,0.025331742999999997,-0.011395812,0.036453247,990.8371582000001,0,0.0,0
21.24,0.07499778,-0.15012872,9.750691,0.00035800000000000003,1.63e-05,-0.000657,0.589037895,16.49691772,-13.47623253,0.010667428,-0.0018593670000000002,0.055394173,990.8092041000001,0,0.0,0
21.28,0.074991465,-0.1668115,9.7506895,0.000225,0.000283,9.18e-06,0.85447979,16.48223114,-13.74722862,-0.008583471,0.012509391000000002,0.050662994,990.8093262,0,0.0,0
21.32,0.07498512,-0.1596615,9.757791000000001,-4.14e-05,0.00041600000000000003,-0.000124,0.560395718,16.68076324,-13.40558815,0.000599,-0.001685008,0.050667763,990.8192749,0,0.0,0
21.36,0.08692831,-0.15727809,9.764892999999999,0.000491,0.000283,-0.000124,0.651728392,16.39749336,-13.32610512,-0.003978893,0.007611603000000001,0.060131073,990.8167725,1,1.0,1
21.4,0.06780276,-0.15489462,9.767259,-0.001239665,-0.00065,-0.00039,0.648684978,16.3945446,-13.17149544,0.019886978,0.002769142,0.036458969,990.8294066999999,1,1.0,1
21.44,0.07018635,-0.15727773,9.760158,0.000491,0.001081503,0.000276,0.995924473,16.56195068,-13.69670296,0.014836796000000001,0.002638578,0.055397987,990.8319092,1,1.0,1
21.48,0.06779009,-0.15727761,9.762524,0.000491,0.001081503,0.000276,0.946112394,16.83109283,-13.24286842,0.000538,0.002497837,0.045927048,990.8319092,1,1.0,1
21.52,0.09168279,-0.15966073,9.76489,-0.000307,-0.00065,-0.00039,1.112175465,16.35425949,-12.93262291,-0.014385857,0.016726032,0.055400847999999996,990.814209,1,1.0,1
21.56,0.08450675,-0.13582772,9.755421,-0.000307,-0.00065,-0.00039,1.112175465,16.35425949,-12.93262291,-0.009594813,-0.026143685,0.064870834,990.814209,1,1.0,1
21.6,0.07494086,-0.15012729,9.757786999999999,-0.000213,0.002099232,-0.000439,0.950678349,16.83551216,-13.47478676,0.014179535,0.002341285,0.05066680900000001,990.8419188999999,1,1.0,1
21.64,0.06776479,-0.14774385,9.774358,-0.000212,0.000102,9.379999999999999e-05,1.088099003,16.54252625,-13.09390068,0.019094929,0.002171949,0.041194916,990.8218383999999,1,1.0,1
21.68,0.07731807,-0.15727678,9.781459,-0.000479,-3.13e-05,-3.9399999999999995e-05,1.255684137,16.06716537,-12.86095619,-0.009820029000000001,-0.002417013,0.012793541,990.8547363,1,1.0,1
21.72,0.06775212,-0.14774355,9.776722999999999,5.4000000000000005e-05,0.00023500000000000002,0.001025914,1.021384716,16.26924515,-12.91366005,0.023500748,-0.011864558,0.041203499,990.7938843000001,1,1.0,1
21.76,0.067745775,-0.15012667,9.788558,5.41e-05,-0.0005639999999999999,-0.000439,0.663766861,16.30335999,-13.24547005,0.018745579,-0.006837681,0.022270203,990.8192139,1,1.0,1
21.8,0.07490915,-0.15727636,9.776721,5.41e-05,-0.0005639999999999999,-0.000439,0.663766861,16.30335999,-13.24547005,0.009590365,0.0028178390000000004,0.041207314,990.8192139,1,1.0,1
21.84,0.06773314,-0.15727618,9.76962,-7.890000000000001e-05,-0.0005639999999999999,9.39e-05,0.7825191020000001,16.46690369,-12.73444557,0.014030367,0.00720273,0.03173542,990.8317870999999,1,1.0,1
21.88,0.065717995,-0.162052,9.767287,-0.00034500000000000004,0.000634,-3.9200000000000004e-05,0.657380581,15.66533279,-13.36111641,0.004183829,0.002675012,0.036438942,990.8343506000001,1,1.0,1
21.92,0.068116814,-0.15490228,9.788592,0.000585,-3.11e-05,-0.000173,0.8840703959999999,15.45588684,-12.92189217,0.008452021,-0.0065393890000000005,0.017508507,990.8595581000001,1,1.0,1
21.96,0.07051560000000001,-0.15728578,9.786227,0.000583,0.001300795,0.000226,0.6302607060000001,15.85065079,-13.3677845,0.012682937,-0.006260991,0.012782097,990.8266602,1,1.0,1
22.0,0.070524454,-0.1501362,9.786227,0.000184,-0.000164,0.000492,0.457567215,16.68988037,-13.46726418,0.007875726,-0.006367996,0.031718254,990.8294066999999,1,1.0,1
22.04,0.06575358,-0.17396924,9.779126,0.00045,0.000502,0.000225,0.476534367,16.86548615,-13.17252541,0.017208956,0.007931888,0.026986122,990.8217162999999,1,1.0,1
22.08,0.082491755,-0.1572865,9.786228999999999,5.04e-05,0.0006349999999999999,-0.000174,1.081850767,16.01041412,-13.90862846,-0.015430465,-0.009906679,0.01752758,990.8318481000001,1,1.0,1
22.12,0.06338146,-0.15490344,9.800432,0.00524347,-0.0030933609999999998,0.001157498,0.645641327,16.39159775,-13.01688576,0.005504243000000001,0.002497256,0.022291183,990.8192139,1,1.0,1
22.16,0.08728939,-0.1406039,9.776761,0.006441806,-0.005223874,0.000758,0.959915638,15.73801041,-13.56595802,0.023933336,0.008042946,0.017560958999999998,990.8040161,1,1.0,1
22.2,0.18528426,-0.18588644,9.745989,0.017760146,-0.032521233,-0.00084,0.9494006629999999,15.83361435,-13.72390175,-0.000594,0.011794731000000001,0.008060455,990.7915038999998,1,1.0,1
22.24,-0.0035091040000000003,-0.23593551,9.878552,0.004577423,-0.01347964,-0.030267887,0.710833788,16.66340637,-13.11982155,0.141858786,-0.072022751,-0.04425621,990.8063965,1,1.0,1
22.28,-0.029789165,-0.6649258000000001,9.989811999999999,-0.110737436,0.039117765,-0.17580954699999998,0.864017487,16.01686096,-13.41353035,0.018538162,1.0598400829999999,-0.38642501799999995,990.7609863,1,1.0,1
22.32,-0.003491342,0.46236458,9.852514999999999,-0.145225435,0.052699885999999994,0.057616282000000005,0.707383633,17.13467026,-13.76273918,0.022811122000000003,-1.133820772,-0.07946682,990.7330933000001,1,1.0,1
22.36,0.08494395,-0.65539324,9.883289999999999,-0.12525183,0.156962574,-0.065688007,0.91314888,16.01009369,-13.2667408,0.019035846000000002,0.17386633199999998,0.657962799,990.7282715,1,1.0,1
22.4,0.17815899999999998,-0.55052924,9.656039,-0.452154726,0.140850484,-0.139457569,0.240467548,18.06651878,-12.82150459,-0.35158923299999995,-0.19037193100000002,0.659779549,990.7886353,1,1.0,1
22.44,-0.15641835,-0.5958116,9.677344,-0.452154726,0.140850484,-0.139457569,0.240467548,18.06651878,-12.82150459,0.09521275800000001,-0.091974914,0.292912483,990.7886353,1,1.0,1
22.48,0.21641523,-1.2202308000000002,9.757831,-0.49183592200000004,-0.013346384,-0.147846609,0.115245819,18.79159355,-11.99780464,-0.024513572,0.04626953599999999,0.07875156400000001,990.831665,1,1.0,1
22.52,0.32635963,-1.1511159,9.656041,-0.48957237600000003,0.014217325,-0.10496979199999999,-0.062993526,19.25664139,-11.68961525,-0.44942537,-0.17325604,0.05903720900000001,990.8493652000001,1,1.0,1
22.56,0.3574372,-1.3441617000000001,9.916433999999999,-0.48957237600000003,0.014217325,-0.10496979199999999,-0.062993526,19.25664139,-11.68961525,-0.571865022,-0.204250216,-0.17275238,990.8493652000001,1,1.0,1
22.6,-0.5459368,-1.9804973999999997,9.459565,-0.5295198560000001,-0.024398465,0.162677646,0.062580585,20.79626846,-11.33715248,0.6616744999999999,0.054506421,-0.043376923,990.8719482000001,1,1.0,1
22.64,-0.06316770599999999,-1.9685811999999998,9.428792999999999,-0.752026856,-0.18591903199999998,0.083049148,-0.032913685,20.60091591,-10.38719368,0.060807787,-0.044109105999999995,0.27573490100000003,990.8188477,1,1.0,1
22.68,-0.302149,-2.1878428,9.691552,-0.597563744,0.231930599,-0.30750310399999997,-0.561404705,22.10787201,-10.47091484,0.611356616,-0.11585569400000001,-0.298417091,990.8466187000001,1,1.0,1
22.72,0.9764575000000001,-2.5501017999999998,9.426427,-0.655620635,0.117281631,-0.646523237,-0.627820492,22.4667263,-9.865804672000001,-0.779579163,-0.023162365,0.13923454300000002,990.8136597000001,1,1.0,1
22.76,0.23798662,-2.7836632999999997,9.395653999999999,-0.721267581,0.157761663,-0.6493196489999999,-1.358275414,22.52022552,-9.756372452,-0.370419472,-0.063523531,-0.125337601,990.8213501,1,1.0,1
22.8,-0.30212235,-3.0744233,9.125794,-0.813546181,-0.016275762,0.13191798300000002,-1.5775771140000001,24.15776443,-8.43268013,0.362648904,-0.08576512300000001,0.031464577,990.7910767000001,1,1.0,1
22.84,0.13240975,-3.3556397000000007,9.22281,-0.751627803,-0.025996279,0.09197054800000001,-1.6647276880000001,25.33996582,-7.7185840610000005,-0.13174635199999998,-0.056980132999999995,0.038237572000000004,990.8086548,1,1.0,1
22.88,0.28251684,-3.6821375,8.853484,-0.751627803,-0.025996279,0.09197054800000001,-1.6647276880000001,25.33996582,-7.7185840610000005,-0.217476547,-0.081320524,0.013483047,990.8086548,1,1.0,1
22.92,0.24186188,-3.9371476000000003,8.827442999999999,-0.7428394559999999,0.09171535800000001,-0.228673801,-1.730164051,26.06858826,-7.2892284389999995,-0.1223877,0.035197973,0.294208527,990.8364257999999,1,1.0,1
22.96,0.39000916,-4.1087427000000005,8.915027,-0.786908031,0.054295219000000006,-0.135324374,-1.677828312,26.59098434,-6.17309761,-0.175876915,-0.004115105,0.021603584,990.8388672,1,1.0,1
23.0,0.46884929999999997,-4.3446865,7.892392599999999,-0.536569893,-0.011751329,0.037382043999999996,-1.946016788,27.23485947,-5.3226184839999995,-0.419772208,0.115990162,0.598111153,990.8921508999999,1,1.0,1
23.04,-0.26965702,-2.6668582,9.213289999999999,-0.488100111,-0.098304026,0.22260484100000003,-1.737559795,28.22000122,-5.027463913,0.502154231,-1.305915833,-0.242276192,990.9145507999999,1,1.0,1
23.08,0.22980589,-4.409033999999999,9.286671,0.489545971,-0.43799001,0.9270105359999999,-0.663889408,27.96120453,-5.331737518,0.11940997800000001,1.313898563,-0.688951492,990.90448,1,1.0,1
23.12,-0.29121938,-3.3484745000000005,9.873733999999999,0.82044369,-0.242114738,0.5519047979999999,-0.600080967,28.33745575,-6.056444168,0.7655430440000001,-0.293709993,-1.179553032,990.9221802000001,1,1.0,1
23.16,-0.36055315,-6.12261,9.873732,-0.157601088,0.08971481,-0.13598904,-0.705410957,27.97533798,-5.865055084,-0.151755571,2.778182268,-0.574703217,990.9677124,1,1.0,1
23.2,-0.30322212,-3.5343690000000003,10.825345,0.054919243,0.28119590899999997,0.45243597,0.6486465929999999,27.50474167,-5.815221786,0.521692574,0.0224123,-2.1674089430000003,990.8893433000001,1,1.0,1
23.24,0.41850168,-1.5395643,7.854502,0.599668682,0.274804294,1.638873339,2.608050823,27.39134216,-7.573226929,-0.9480527040000001,-2.451285839,2.36614275,990.8536377,1,1.0,1
23.28,-1.0417551,-1.525264,9.558887,1.345885992,0.31381949800000003,1.256443858,2.858251333,26.94161224,-8.894197464,0.796520531,-0.538421869,-0.905005455,990.7780151000001,1,1.0,1
23.32,-1.4815236,-2.8861152999999997,10.302186,0.708326042,-0.565688729,-0.150502801,2.439570904,25.97028732,-9.080781937000001,0.979829252,0.314747095,-1.064216614,990.8638916000001,1,1.0,1
23.36,-1.390734,-2.607271,9.289021,-0.052138715999999995,0.365484715,-0.057824783,2.833876848,26.497741700000002,-9.480344772,0.7251399159999999,0.253611565,-0.239684105,990.8891602,1,1.0,1
23.4,-0.5686344,-2.1449146,10.40397,-0.050007935999999996,0.48466104299999996,0.19584120800000002,3.0511667730000003,26.85958862,-10.07389259,0.104920805,-0.866179705,0.409726143,990.8686523,1,1.0,1
23.44,-0.66186714,-2.583437,11.91661,0.351862997,-0.7565041779999999,0.123669714,1.9342620369999999,25.39256287,-10.27784538,0.16998159899999998,0.28871130899999997,-3.19183445,990.8256836000002,1,1.0,1
23.48,-0.8650353999999999,-2.0185995,10.15541,1.1747792959999999,-0.859568477,0.036185052,0.977905035,24.28679276,-10.83561516,0.344768405,-0.02706027,-0.339487076,990.9570923,1,1.0,1
23.52,-0.46594843,-1.0176216,9.6156845,0.825639427,0.259091377,0.15962258,0.7298851009999999,24.0553093,-12.0156002,-0.058311164000000006,-0.712774992,0.113594055,990.8332519999999,1,1.0,1
23.56,-0.5424519,-2.0138316,11.365045,0.5904828910000001,0.188118115,0.118077405,1.086362362,23.12521362,-12.631982800000001,0.227116793,0.549514174,-1.34478569,990.8383179,1,1.0,1
23.6,-1.2857379999999998,-1.0247703000000001,10.046512,0.982233703,-0.461958975,0.005292741,0.046252250999999994,21.09781647,-12.58402443,0.784264326,0.374492586,-0.8358211520000001,990.8358765,1,1.0,1
23.64,-0.15056126,0.019106358,9.336348,1.300747633,-0.14331208199999998,0.15216606900000001,-0.039888859,19.49057007,-14.24734688,0.472873867,-0.256404728,0.282803535,990.8634033,1,1.0,1
23.68,0.67631817,0.14065427,8.252166,0.8135231140000001,-0.070075259,0.260556728,-0.186059475,18.88021088,-15.18990517,-0.822692931,-0.18315142399999998,1.9385604859999999,990.8051757999999,1,1.0,1
23.72,0.02862814,-1.4871242,10.825313000000001,0.805533946,-0.978345633,0.052564137000000004,-1.57435751,17.5279007,-15.51271248,0.734915435,1.093887806,-1.691555977,990.7697143999999,1,1.0,1
23.76,0.030991405,0.657827,8.306607000000001,0.53495723,-1.1033809190000001,-0.25063636899999997,-3.5069622989999996,16.40354919,-15.99594688,0.053629487999999996,-0.7140539290000001,2.121703625,990.8432007000001,1,1.0,1
23.8,-0.11003941,-1.6634855,13.265894,-1.305951118,1.54726088,-0.036518298,-1.7874865530000001,17.64468765,-15.94861031,0.11994762699999999,1.175728321,-2.8922119139999998,990.7570189999999,1,1.0,1
23.84,0.030938177999999997,-0.97233415,10.240607,-0.24295096100000002,-0.151301771,-0.052763473,-1.042630672,17.76237297,-15.53138924,-0.020233661,0.788127542,-1.4786043169999998,990.9845581000001,1,1.0,1
23.88,-0.8892005999999999,-0.15725234,9.054636,1.942703724,-1.044658422,-0.130128115,-3.154316425,16.83922195,-16.22975349,1.535923243,1.185039043,-0.19898223899999998,990.9870605000001,1,1.0,1
23.92,-0.7338836999999999,0.48385027,9.404978999999999,0.931902111,0.72887218,0.15389788199999999,-3.479215145,14.32329178,-17.34120369,0.699669957,0.27127701,1.0192127229999999,990.668457,1,1.0,1
23.96,-0.30611786,0.45525154,10.252435,0.39461001799999995,0.9288753270000001,0.49211919299999995,-1.691992283,13.46856689,-18.02850151,0.03304711,0.48178130399999997,-0.511804581,990.7266846000001,1,1.0,1
24.0,-0.14602107,0.62208176,9.38367,0.796747267,0.426603556,0.551108181,-0.804331303,13.14122772,-18.76200294,-0.10758268800000001,0.994786739,-0.021648407,990.8277588,1,1.0,1
24.04,-0.11497897,2.1473806,8.690077,0.9189864990000001,0.5373908279999999,0.609032035,0.62399745,11.31872177,-20.03022957,-0.8150676490000001,-0.391559362,1.139399529,990.7719116000001,1,1.0,1
24.08,-0.7047718000000001,1.3918687,9.513910000000001,0.640020907,0.573077202,0.3207452,1.172029734,10.83134079,-20.62504768,-0.040808082,0.22925901399999998,0.32019043,990.6786499,1,1.0,1
24.12,-0.84523714,1.3251235000000001,9.625217999999998,0.640020907,0.573077202,0.3207452,1.918246746,10.42428017,-21.40908241,0.573144853,1.230154157,-0.602226257,990.6786499,1,1.0,1
24.16,-0.03505233,2.3356334999999997,8.74462,0.66745162,-0.158226267,-0.0032279390000000004,0.876614094,8.395412445,-21.283819199999996,-0.037101708,0.083290339,1.17001152,990.7338867000001,1,1.0,1
24.2,0.11790943,1.5563011,10.333013000000001,0.9276320929999999,-0.666222095,0.10941928599999999,-0.364588261,6.390666962,-21.59112358,0.106259495,1.56246686,-1.1909132,990.7821045,1,1.0,1
24.24,0.46684319999999996,3.1221151000000003,9.542369,0.82270354,-1.013231635,0.139113471,-2.3802132609999997,5.714876175,-21.31796455,0.20614725399999997,-0.136734486,-0.006459236,990.7944336000002,1,1.0,1
24.28,0.61024535,2.633543,10.103396,0.581554413,-0.6483789679999999,0.154559761,-3.361464977,4.953825951000001,-20.73729897,0.509236693,0.611050129,-0.6201782229999999,990.7844848999999,1,1.0,1
24.32,1.0332661,3.3771253,9.511596,0.892744482,-0.963430583,0.199567109,-5.6634593010000005,3.3775959010000003,-20.13636971,0.405806541,0.8548793790000001,-0.8768024440000001,990.8500366000001,1,1.0,1
24.36,1.2196866000000002,3.3103933,10.226492,1.04201436,-1.243328571,0.18305549,-6.982818127000001,2.45797348,-19.49433327,-0.024443984,0.238197327,-1.124666214,990.9029541000001,1,1.0,1
24.4,1.0022135,3.3938080000000004,10.160212,0.44799667600000004,-0.088316604,0.42447078200000005,-7.53715086,0.780678749,-20.4655323,0.655468464,0.906139135,-1.522456169,990.7790527000001,1,1.0,1
24.44,1.4324039,4.185055999999999,8.896125,0.7698393459999999,-0.226667702,0.632596552,-7.605386257,0.50592041,-20.20798683,0.18855679,0.160255432,-0.690124512,990.7664795,1,1.0,1
24.48,1.2483896,4.2637043,9.750687,0.684751332,0.34085148600000004,0.6041007039999999,-6.9736323360000005,-0.27209568,-20.3367939,0.278137445,0.583918095,-0.639064789,990.7235107000001,1,1.0,1
24.52,1.4276402,4.5639973,8.55525,0.617240191,0.40383517700000005,0.522341728,-7.072192669,-0.8906993870000001,-21.05525398,0.117503524,0.273195267,-0.910650253,990.6298828,1,1.0,1
24.56,1.6451293999999999,5.157433,6.715934299999999,1.321911931,0.219810918,0.377332747,-6.341088772000001,-2.4188289640000002,-20.69357491,-0.668512702,-0.042975426,1.783465862,990.6954956000001,1,1.0,1
24.6,1.0572215,5.319496,8.578923,0.853462279,0.504103124,-0.0008359999999999999,-5.649302959,-4.193729877,-21.54314995,-0.368044376,-0.065585613,-0.37142086,990.6576537999999,1,1.0,1
24.64,0.26856202,4.235104,8.678347,0.35411983700000005,0.481732637,-0.12254224699999999,-4.962190151000001,-4.866708279,-22.53346443,0.567287028,1.0875101090000001,-0.31351757,990.6145630000001,1,1.0,1
24.68,1.4181129,5.4291263,8.133891,0.512045145,0.6373943089999999,-0.056629099,-3.459514141,-5.988267898999999,-22.54542732,-0.243220508,0.555470467,-0.632401466,990.6522217,1,1.0,1
24.72,0.9377506999999999,5.479175,7.388222,0.8160445690000001,0.604237974,0.195572004,-3.0093388560000003,-6.936319827999999,-22.63630867,-0.602293909,0.5209460260000001,-0.329164505,990.7052612,1,1.0,1
24.76,0.18493965,5.5768889999999995,6.794055499999999,0.9896824959999999,0.29664313800000003,-0.07979865400000001,-2.3895144459999997,-8.726548195,-22.47309685,0.42018047,0.806994915,0.264286995,990.7557982999999,1,1.0,1
24.8,-0.020583868,5.8462,7.2698636,0.554122806,0.705704331,0.136449814,-1.299675465,-9.813117027,-22.65444374,0.43642059,0.499808311,0.508922577,990.7633057,1,1.0,1
24.84,0.89236677,6.151259,7.9090095,0.320430487,0.71981895,0.40849143299999996,0.014787197,-10.74230957,-22.41770363,-0.778145075,0.219472408,-0.578345776,990.7860718000001,1,1.0,1
24.88,-0.030127347000000002,6.1107435,7.55393,0.357315153,0.766024947,0.464151472,0.988971233,-10.35691261,-22.51338768,0.197297737,0.688572884,-0.6010270120000001,990.7860718000001,1,1.0,1
24.92,0.30685693,6.587397999999999,7.113631,0.5530573129999999,0.768288612,0.440582454,2.49371171,-11.84528923,-22.50420189,-0.174625218,0.168666363,0.19481849699999998,990.7886963,1,1.0,1
24.96,0.3116448,6.446785,7.3290467,0.737747312,0.36934742299999995,0.42207345399999996,2.702795029,-12.75508499,-23.560968399999997,-0.313938171,0.28612327600000004,-0.443407059,990.7810059000001,1,1.0,1
25.0,-0.2810428,6.3371544,5.944234,0.432948679,0.960302353,0.33938235,4.257508755,-13.98638344,-22.88167,-0.038899973,0.79624033,0.84424305,990.7936401000001,1,1.0,1
25.04,-0.36229143,6.04401,6.8106313,0.308445901,1.377486229,0.36947602,5.955217837999999,-13.92422199,-23.30088234,0.139522433,0.988428593,0.151605606,990.8161620999999,1,1.0,1
25.08,-0.6451246,6.2370763,5.425742,0.396332979,0.964030266,0.602104127,9.687627792,-14.11701298,-23.32586479,0.549592137,1.091488838,1.578649521,990.704895,1,1.0,1
25.12,-0.597352,6.625551,5.9725633,0.396332979,0.964030266,0.602104127,9.687627792,-14.11701298,-23.32586479,0.5802598000000001,1.062232971,0.98869276,990.704895,1,1.0,1
25.16,0.06701547,6.999726299999999,6.005701999999999,0.434953362,0.06681022,0.816226184,9.703252792,-14.5764904,-23.30138588,-0.374963045,0.146512508,0.445181847,990.6795653999999,1,1.0,1
25.2,0.48761278,6.8781796,6.4104915,0.392742515,0.045504897999999995,0.7785425779999999,8.986602783,-15.61607361,-23.51504326,-0.259444624,0.892255783,-0.5772094729999999,990.6744385,1,1.0,1
25.24,0.7409170999999999,7.516898599999999,5.1037930000000005,0.36291539700000003,0.427268684,0.699446797,8.886680603,-15.70993042,-23.03225136,-0.95475316,-0.014074326000000002,1.465087891,990.6643677000001,1,1.0,1
25.28,0.37045687,7.245206,5.9252105,0.41964095799999995,0.257758588,0.528871655,8.867574692,-15.99145508,-22.62790871,0.028978042000000002,0.556428432,-0.46209430700000004,990.6895142000001,1,1.0,1
25.32,1.0133151,7.5455,5.326306,0.187546894,0.42580384,0.523944914,9.436256409,-15.77553368,-21.88134956,-1.303671002,-0.21959447899999998,1.7730798719999998,990.7299194,1,1.0,1
25.36,-0.6907103,6.5707397,5.903900599999999,-0.276641458,0.970153451,0.390254408,10.44280815,-15.83341408,-22.80291176,0.856458664,1.349439144,-0.710160255,990.744751,1,1.0,1
25.4,1.2976626,7.664664999999999,6.704012400000001,-0.138423264,0.803839207,0.492120296,11.08932495,-13.38358688,-24.12366676,-1.593560934,-0.5455861089999999,0.677259445,990.6970215,1,1.0,1
25.44,0.21023196,7.0068808,6.791597,-0.148676172,0.27600103600000003,0.595051587,11.15362358,-10.63671684,-24.37128639,-0.440996975,0.134507179,-0.042930126,990.6488647,1,1.0,1
