Timestamp,Ax,Ay,Az,Gx,Gy,Gz,Mx,My,Mz,LiAx,LiAy,LiAz,P,Value,Type,GroupType,Activities
0.0,0.10327816,-0.1591705,9.775623,-0.00054421951063,0.0006252197199500001,-0.0008004606352189999,-14.688533782959,17.7740268707275,-35.80088424682621,-0.003102235496044,0.012731701135635001,0.032770156860352,987.650268554688,0,13.0,1,1
0.04,0.098514855,-0.15678759,9.768524000000001,0.00078720098827,-4.05443133786321e-05,-0.0005342127406040001,-14.606194496154801,17.5878314971924,-35.95664596557621,-0.012843877077103001,0.0031032264232640004,0.023299217224121,987.6730346679691,0,13.0,1,1
0.08,0.09136158,-0.15440471,9.777994,-0.00041137915104599995,-0.000173676293343,0.000264666683506,-14.815736770629899,17.3392658233643,-36.448703765869105,-0.0034830123186109993,-0.006413295865059,0.032770156860352,987.680541992187,0,13.0,1,1
0.12,0.09615791,-0.15917169,9.777996,-0.000145222176798,0.000625297019724,0.00039775649202099993,-14.7573137283325,17.8675594329834,-35.641788482666,-0.008098669350147,0.012784689664841,0.028033256530762003,987.7007446289059,0,13.0,1,1
0.16,0.08422488,-0.14487247,9.773264,0.001053040032275,-0.000173624779563,-0.00026810128474599997,-15.063734054565401,17.5280895233154,-35.8056602478027,0.015333794057369,-0.00110174715519,0.028041839599608997,987.6757202148441,0,13.0,1,1
0.2,0.09858078,-0.14487286,9.773264,0.001052881125361,0.001024822471663,-0.000534485385288,-14.465049743652301,17.0354137420654,-36.3309898376465,-0.009178176522255,0.003992259502411,0.037520408630371004,987.7084350585941,0,13.0,1,1
0.24,0.09620738,-0.15917291,9.775634,0.000253774807788,0.001291164197028,0.000530710094608,-14.3656692504883,17.497564315795902,-36.912239074706996,0.0051088109612459996,0.018382146954537,0.028052330017090003,987.7084350585941,0,13.0,1,1
0.28,0.08427435,-0.15202351,9.749595,0.00012045784387699999,0.0004922423395330001,-0.000800937472377,-14.838153839111301,17.6349201202393,-37.3863563537598,5.44413924217224e-05,0.003958657383919,0.065927505493164,987.660522460937,0,13.0,1,1
0.32,0.091460586,-0.14010753,9.768535,0.00012029893696299999,0.0012912156526,-0.00013521575601800002,-14.8082637786865,17.240716934204098,-36.1361503601074,0.013891682028771,-0.005510732531548,0.013851165771484,987.698486328125,0,13.0,1,1
0.36,0.09386694400000001,-0.14249118,9.761435,-1.30180269479752e-05,0.000225978146773,0.000131031963974,-15.375425338745101,17.0262699127197,-36.960018157959,-0.004748821258545,0.0041468441486359996,0.05645751953125,987.695922851563,0,13.0,1,1
0.4,0.093883425,-0.15440796,9.773272,0.0003862968878819999,-0.000972417590674,0.000530437682755,-14.7139949798584,18.0667362213135,-36.5839347839355,-0.004785671830177,0.004500925540923999,0.032790184020996004,987.6730346679691,0,13.0,1,1
0.44,0.09389990599999999,-0.1496418,9.766172000000001,0.000652453862131,0.000226029660553,-0.000268578121904,-15.020117759704599,18.3593997955322,-36.3229331970215,0.004818066954613,0.004680171608925,0.042258262634277,987.693237304688,0,13.0,1,1
0.48,0.084356844,-0.15202554,9.775642,0.000385979074053,-0.00030657631577900004,-0.00053496210603,-14.827094078064,17.171026229858402,-37.129966735839794,0.0050451010465620005,-0.004938662052155,0.023316383361817003,987.723510742188,0,13.0,1,1
0.52,0.08915311,-0.14964260000000001,9.763808000000001,-0.00014681171160199998,-0.00043970844126299996,0.00039707540418000006,-14.966175079345698,17.356622695922898,-36.734470367431605,0.0047965422272679996,0.004600018262863,0.046989440917969,987.685668945313,0,13.0,1,1
0.56,0.08916959,-0.14964308,9.768543,-0.00014697061851599998,9.29490197449923e-05,-0.0006682562525379999,-14.6848087310791,17.5145969390869,-36.5561180114746,-0.004480496048927,-5.23179769515991e-05,0.028047561645508,987.7009887695309,0,13.0,1,1
0.6,0.086796165,-0.15202673,9.763810000000001,0.00038550223689499995,-0.0005728147807530001,-0.0005351664149200001,-14.588366508483901,16.8674564361572,-36.6101036071777,0.000377424061298,-0.000114396214485,0.037514686584473,987.6982421875,0,13.0,1,1
0.64,0.08352882,-0.1567717,9.761364,-0.000413604197092,-0.0005727889947590001,0.000130555243231,-14.640787124633801,17.8716983795166,-36.27585983276371,0.010609112679958002,-0.00036874413490300007,0.065999031066895,987.695922851563,0,13.0,1,1
0.68,0.093069345,-0.14485492,9.756625999999999,-0.000276350532658,0.00035865156678500004,-0.0006666371482419999,-14.631654739379899,17.880540847778303,-36.7396965026855,-0.0035390704870220005,-0.0049017816782,0.051798820495606,987.690673828125,0,13.0,1,1
0.72,0.09305033,-0.14247121,9.777928999999999,0.000793265528046,-0.000307844486088,-0.0001321399468,-14.6521444320679,17.703462600708,-36.957126617431605,-0.003660306334496,-0.0094253718853,0.023400306701659997,987.693237304688,0,13.0,1,1
0.76,0.09064144,-0.14723729,9.766092,0.000793448998593,0.000890547235031,0.000933202158194,-14.5087738037109,17.3104496002197,-36.1863784790039,0.005547024309635,-0.009390622377396,0.03760910034179701,987.6907348632809,0,13.0,1,1
0.8,0.090622365,-0.16630302,9.761356,0.000793448998593,0.000890547235031,0.000933202158194,-15.1200399398804,18.2655467987061,-35.8401336669922,0.000756822526455,0.019235908985138,0.051815032958984,987.6907348632809,0,13.0,1,1
0.84,0.09538317,-0.1591527,9.78266,-0.00013847311493000002,0.000890517316293,1.17521267384291e-06,-14.48912525177,17.223680496215803,-36.4922676086426,-0.003874100744724001,0.009573087096214001,0.032875061035156,987.685668945313,0,13.0,1,1
0.88,0.083414584,-0.15200241,9.761353,-0.00013828976079799997,-0.00030793395126200003,0.001066517317668,-14.5717620849609,16.7777423858643,-36.761379241943395,0.005878858268261,0.01437272131443,0.056547164916992,987.68310546875,0,13.0,1,1
0.92,0.08817541599999999,-0.14961870000000002,9.751883,0.000128393061459,-0.000840625260025,-0.00039806280983599993,-14.9927520751953,17.1736545562744,-36.6426887512207,0.006025642156601,0.00014577805995899998,0.03761291503906299,987.685668945313,0,13.0,1,1
0.96,0.085766435,-0.1496182,9.770819,0.000261734356172,-4.17073606513441e-05,0.000267805531621,-14.4815158843994,17.2310428619385,-36.878791809081996,0.010547488927841001,0.004997044801712,0.047086715698242,987.6907348632809,0,13.0,1,1
1.0,0.08574742,-0.14246789999999998,9.76845,0.00026191782672,9.142077760770921e-05,1.56828900799155e-06,-14.4940967559814,17.693468093872102,-37.05788040161129,0.0009141191840169999,-0.004673331975937001,0.04235172271728501,987.6757202148441,0,13.0,1,1
1.04,0.08333847,-0.14246745,9.747142,-0.000270530465059,0.000624022737611,-0.0005309848929760001,-14.6295900344849,17.513719558715803,-36.7185478210449,0.009925492107868,-0.004426762461661999,0.066035270690918,987.6780395507809,0,13.0,1,1
1.08,0.08092952,-0.14723350000000002,9.761344,0.000262284651399,0.0010234669316560002,-0.000131432374474,-14.8965539932251,17.5269336700439,-36.370246887206996,0.014949500560761001,-0.013795554637908998,0.04710006713867201,987.6934204101559,0,13.0,1,1
1.12,0.09286001,-0.15914942,9.773178,-3.84775921702385e-06,-0.0007076161564330001,0.00026811991119799996,-14.7091836929321,17.0707225799561,-37.142265319824205,-0.009061627089976999,0.019426867365836997,0.032896995544433996,987.6781616210941,0,13.0,1,1
1.16,0.09045106,-0.1519991,9.777911,0.000528967357241,0.000757091387641,0.00053451443091,-15.4036312103271,17.948171615600604,-37.163581848144496,0.0006232932209969999,0.005211994051933,0.028163909912108997,987.7007446289059,0,13.0,1,1
1.2,0.09760174,-0.15199862,9.777909,0.00026283506304,-0.000707675819285,-0.000264354574028,-15.298874855041499,17.4663219451904,-36.381687164306605,-0.008978165686131,0.014964118599892001,0.028170585632323997,987.683227539062,0,13.0,1,1
1.24,0.078463554,-0.15438141,9.773172,0.00012986047659100002,0.0008901896071619999,-0.000264275993686,-14.7130451202393,17.224237442016598,-35.6879539489746,0.009556762874125999,0.010237723588944,0.013976097106934,987.7108764648441,0,13.0,1,1
1.28,0.08800405,-0.14723112,9.770802999999999,0.000263201771304,0.001023317920044,-0.000264197413344,-15.0140600204468,17.1530323028564,-35.5604133605957,0.009336233139038,-0.008700206875801,0.042387962341308996,987.690673828125,0,13.0,1,1
1.32,0.080815375,-0.14484747,9.7637005,0.000529701123014,0.000623814354185,0.000135355163366,-14.8252735137939,17.804636001586896,-36.782398223877,0.004381060600281,-0.008803755044937,0.037655830383301,987.6806030273441,0,13.0,1,1
1.36,0.09274581,-0.16152994,9.758965,-2.74716876447201e-06,0.000490626727697,0.000801223446615,-15.043949127197301,17.5472393035889,-36.8106269836426,-0.000559948384762,0.020205348730087,0.04713439941406299,987.6957397460941,0,13.0,1,1
1.4,0.07360762,-0.15199639,9.766065,0.000530068064108,0.000357438868377,2.35444167628884e-06,-14.792639732360803,16.7812404632568,-36.1116714477539,0.013841703534126002,0.000922679901123,0.032928466796875,987.6856079101559,0,13.0,1,1
1.44,0.090317845,-0.1448461,9.761328,-0.00016049848636599999,-0.0007761398446749999,-0.00011905032442899999,-15.131833076477099,17.3592548370361,-36.2471961975098,0.009630836546420999,-0.0034418255090709997,0.05660343170166001,987.6806030273441,0,13.0,1,1
1.48,0.08790892,-0.1543787,9.768429,0.0010381063912060001,-0.0018414331134409998,0.000147344137076,-15.023460388183599,17.7243213653564,-36.5931968688965,0.014409966766834,0.010982006788254001,0.028201103210448997,987.690673828125,0,13.0,1,1
1.52,0.092669666,-0.15437819,9.768427,0.000505657924805,0.0010880120098589999,-0.0003852090449069999,-14.682744026184098,17.147779464721697,-36.5349769592285,-0.004550606012344,0.0062311887741089995,0.03293514251709,987.7033081054691,0,13.0,1,1
1.56,0.08309108,-0.13769482,9.758955,0.000106367690023,-0.000643071194645,-0.00038513034815,-14.7592935562134,16.707727432251,-37.1133041381836,0.009773649275303001,-0.008076727390289001,0.03767204284668,987.7108764648441,0,13.0,1,1
1.6,0.083323985,-0.1400838,9.77318,-0.000292922777589,2.26887641474605e-05,-0.000251893827226,-15.1012325286865,17.9149341583252,-36.6693458557129,0.005086414515972,-0.017642542719841,0.051876068115234,987.705688476563,0,13.0,1,1
1.64,0.09074181,-0.14485641,9.754266000000001,-0.000559055188205,-0.000509972858708,-0.00025181513046799997,-15.4708890914917,18.0431804656982,-37.081794738769496,9.398162364959721e-05,-0.0033410340547559998,0.066031455993652,987.68310546875,0,13.0,1,1
1.68,0.09791279,-0.13770668,9.770837,0.000102625519503,-0.000376147858333,0.00041221355786500005,-15.0522613525391,17.3819446563721,-37.64650344848629,-0.009499214589596001,-0.017648592591286,0.028154373168945,987.6829223632809,0,13.0,1,1
1.72,0.08596456,-0.14962308,9.768469,-3.11455805785954e-05,-0.000242890382651,-0.00012068107025700001,-14.8222303390503,17.8075885772705,-36.9370079040527,-0.008995354175568,0.0014047026634220001,0.03288459777832,987.6904907226559,0,13.0,1,1
1.76,0.09074563,-0.14485653,9.780306,-3.11578041873872e-05,-0.00037604631506800006,0.000411945482483,-14.3198795318604,16.855707168579098,-37.0357055664063,-0.004372730851173,-0.008175790309906,0.013947486877441,987.720825195312,0,13.0,1,1
1.8,0.0979166,-0.15200639999999999,9.773203,-0.000164327968378,-0.00024288642453,-0.000253849488217,-14.690216064453098,17.246332168579098,-36.8475303649902,-0.009149894118309,0.006191492080688,0.051824569702149006,987.713256835938,0,13.0,1,1
1.84,0.09074819,-0.14247335,9.759001,-3.11822514049709e-05,-0.000109726504888,0.000545092974789,-14.971283912658699,17.7204990386963,-36.601005554199205,0.01010324805975,-0.0035102367401120002,0.05655574798583999,987.6853637695309,0,13.0,1,1
1.88,0.08596963,-0.15438975,9.766102,-0.000297510356177,-0.00024288240820200002,-0.000253859965596,-14.8864431381226,17.9055423736572,-37.0098304748535,0.000239200890064,0.0011524707078930001,0.037619590759277,987.6727905273441,0,13.0,1,1
1.92,0.07163149,-0.14009006,9.768469,0.00023510918254,0.0006892252131369999,0.0008113983785730001,-15.018350601196301,17.360445022583,-36.726657867431605,0.019581511616707,0.001048162579536,0.037615776062012,987.7005004882809,0,13.0,1,1
1.96,0.08836204,-0.14962326,9.777938,-0.00029753491981,-0.000509194331244,0.000145603436977,-15.004791259765598,17.267786026001,-36.7233238220215,0.005267277359962,0.0012391656637189999,0.023414611816406004,987.68017578125,0,13.0,1,1
2.0,0.08119362599999999,-0.14724006,9.766103,-0.00016438908642200004,-0.0009086661739269999,0.0005450720200319999,-14.9480485916138,17.2683811187744,-36.9630546569824,0.015459403395653,-0.003696650266647,0.047076225280761996,987.677612304688,0,13.0,1,1
2.04,0.07402518400000001,-0.15200658,9.756635000000001,0.000368218228687,-0.000242872454692,0.000145587662701,-15.102755546569801,17.9134616851807,-36.592041015625,0.005843587219715,0.0106071382761,0.042342185974121004,987.71533203125,0,13.0,1,1
2.08,0.08119616,-0.15438987,9.756635000000001,0.000368218228687,-0.000242872454692,0.000145587662701,-15.102755546569801,17.9134616851807,-36.592041015625,0.010877974331379,0.01051452755928,0.042338371276856,987.71533203125,0,13.0,1,1
2.12,0.08597726,-0.14009024,9.768471,0.000368218228687,-0.000242872454692,0.000145587662701,-14.758995056152301,17.339864730835,-36.6884346008301,0.006257586181164001,-0.013138473033905002,0.032871246337891,987.71533203125,0,13.0,1,1
2.16,0.08597854,-0.1520067,9.763736999999999,0.000501363945659,-0.00024287047563099998,0.000145582424011,-14.9963388442993,17.538995742797898,-36.58652877807621,0.0065295100212099996,0.010657399892807,0.042336463928223,987.705444335938,0,13.0,1,1
2.2,0.0812,-0.14009029999999997,9.773205,0.00010186556028200001,-0.000376024487196,0.000145571946632,-14.9531574249268,17.632257461547898,-36.8295936584473,0.006006993353366999,-0.003638580441475,0.042342185974121004,987.6751098632809,0,13.0,1,1
2.24,0.08359116,-0.15677325,9.763735,-0.000563936249819,0.001221872866154,0.00014556670794299998,-14.765626907348599,17.7022647857666,-36.4776649475098,0.015310116112232002,0.001041531562805,0.03760910034179701,987.705444335938,0,13.0,1,1
2.28,0.08120254,-0.14247371,9.766103999999999,0.00036815687781199997,0.000422927259933,0.000278719468042,-15.0350923538208,17.3442401885986,-35.8763008117676,0.010860241949558,-0.008474260568619,0.04233932495117201,987.7052612304691,0,13.0,1,1
2.32,0.08598357400000001,-0.14724024,9.754269,-3.13289347104728e-05,-0.001174966106191,-0.000387075648177,-14.961066246032699,16.9927539825439,-36.86793899536129,0.006451770663260999,0.015153095126152002,0.047067642211914,987.722778320313,0,13.0,1,1
2.36,0.07403535,-0.14962356,9.773205,-0.0006971310940569998,-0.000775490363594,-0.0006533966516139999,-15.0876731872559,17.8222751617432,-36.6660118103027,0.016463190317153997,0.0006726831197740001,0.03759193420410201,987.71044921875,0,13.0,1,1
2.4,0.09076589,-0.14962353,9.768471,-0.000430827436503,-0.0009086462669069999,0.000411861605244,-14.8548946380615,17.618722915649396,-36.536003112793004,0.0019956156611440003,-0.008747741580009,0.047062873840332003,987.7101440429691,0,13.0,1,1
2.44,0.0883773,-0.15439023,9.775573,0.00023495027562600002,-0.00010969676077399999,0.000145540514495,-14.7288312911987,17.15749168396,-36.8363800048828,0.0021401867270470004,0.009921029210091,0.032852172851563,987.717651367188,0,13.0,1,1
2.48,0.08837858,-0.15677346,9.756636,-0.0006971677648830001,-0.00037601054646099996,-0.0006534124840980001,-14.846199035644501,16.8895092010498,-36.7256278991699,0.00241981446743,0.005289614200592,0.042320251464844,987.707397460938,0,13.0,1,1
2.52,0.083600014,-0.15200694,9.768471,0.000634399417322,-0.000376008596504,0.00041184588917500005,-15.0478343963623,17.280443191528303,-37.1793365478516,0.002599395811558,0.009930744767189002,0.032848358154297,987.6923828125,0,13.0,1,1
2.56,0.085991204,-0.1496237,9.763736999999999,-0.00056403427152,-0.000642322469503,-0.0006534228450619999,-15.513525962829599,17.5816287994385,-36.7402763366699,0.007572621107101001,-0.004644647240639,0.051779747009277,987.7051391601559,0,13.0,1,1
2.6,0.09297213,-0.14485253,9.766086999999999,-0.00029773061396599996,-0.000242846668698,-0.000253954262007,-15.2536287307739,17.1927585601807,-36.6036033630371,-0.0016642138361929997,-0.009396359324455001,0.047061920166016,987.689819335938,0,13.0,1,1
2.64,0.09535569,-0.13770254,9.761353,-0.0008296943851749999,-0.0009087448124769999,-0.0006531419348899999,-14.955658912658699,17.2610187530518,-36.576530456543004,-0.005890145897865,-0.009247168898581999,0.032856941223145,987.7150268554691,0,13.0,1,1
2.68,0.08339983,-0.15200199,9.775555,0.0003694018814709999,-0.0013099312782289998,0.000148526509292,-14.700733184814501,17.3419361114502,-37.005466461181605,0.003947578370570999,6.50137662887573e-05,0.023381233215332,987.7069702148441,0,13.0,1,1
2.72,0.10251272,-0.15200187,9.780289,0.000236305058934,-0.000777309469413,0.000281710643321,-14.7830715179443,17.528131484985398,-36.8497085571289,-0.010464541614056,0.00468510389328,0.013912200927734,987.7122192382809,0,13.0,1,1
2.76,0.083387196,-0.14723517,9.763717999999999,-0.000695739407092,0.00042110204231000003,-0.00011773704318300001,-14.8196220397949,17.0724773406982,-36.8174171447754,0.008432894945145,-0.004850372672081,0.042320251464844,987.722290039063,0,13.0,1,1
2.8,0.076211125,-0.14723505,9.773186,-0.000163046643138,-0.0002446975559,0.000281763030216,-15.317298889160199,16.9224262237549,-36.577976226806605,0.022242896258831,-0.004748329520226,0.042327880859375,987.739868164062,0,13.0,1,1
2.84,0.09532398,-0.15915121,9.751881,-2.98274680972099e-05,0.001619503716938,0.00028178922366400004,-14.9548168182373,17.524866104126,-36.0532073974609,-0.00147819519043,0.009400859475136,0.061261177062988004,987.7197265625,0,13.0,1,1
2.88,0.09770757,-0.14723472,9.76845,-2.97664664685726e-05,-0.0007773491670380001,0.0005481312982740001,-15.0881090164185,17.0842189788818,-36.3918037414551,-0.006080336868763,-0.014541745185851999,0.051791191101074004,987.709594726563,0,13.0,1,1
2.92,0.092921376,-0.15676768,9.763715,0.000103452592157,2.1588522940874103e-05,0.00041499946382800003,-14.8176956176758,16.5997409820557,-36.0971908569336,0.0031356513500209997,0.014005765318871,0.037590980529785004,987.727294921875,0,13.0,1,1
2.96,0.097694874,-0.15438421,9.770817,-0.00021057773847099997,0.0007829017704349999,0.000239434535615,-15.112184524536099,17.2724857330322,-36.5530776977539,-0.006334580481052,-0.005027532577515001,0.032855987548828,987.714599609375,0,13.0,1,1
3.0,0.09290868,-0.14008446,9.763714,-0.00034367421176299996,-0.00041552959010000005,-0.000559486798011,-15.359501838684098,17.1989307403564,-36.5106658935547,0.003240585327148,-0.009996131062508,0.051792144775391,987.7522583007809,0,13.0,1,1
3.04,0.09529227,-0.14008422,9.766081,-7.723609451204541e-05,0.000383398117265,-2.68026487901807e-05,-15.041883468627901,17.1804218292236,-36.789478302002,0.0033828690648080003,0.004470333456993,0.037590980529785004,987.7044067382809,0,13.0,1,1
3.08,0.08572632,-0.15676700000000002,9.763713000000001,-7.723609451204541e-05,0.000383398117265,-2.68026487901807e-05,-15.041883468627901,17.1804218292236,-36.789478302002,0.017467997968197,0.009113639593124001,0.05179500579833999,987.7044067382809,0,13.0,1,1
3.12,0.09766948,-0.16630001,9.77318,0.000189140788279,-0.000149243540363,-0.000293092452921,-14.839270591735803,17.1592426300049,-36.511528015136705,-0.0018940195441249999,0.018546581268311,0.018655776977538997,987.7246704101559,0,13.0,1,1
3.16,0.08810353,-0.14723362,9.766079,5.6043965741992004e-05,0.000516536296345,0.0006390393828040001,-14.9812564849854,17.4478130340576,-36.66050338745121,0.008098550140858,-0.000276282429695,0.042326927185058996,987.7244262695309,0,13.0,1,1
3.2,0.088097215,-0.14485018,9.775547,0.0007218947866930001,-0.0008150530047709999,-2.67241848632693e-05,-14.876906394958501,17.4401683807373,-36.6761322021484,0.012953214347363,-0.004571944475174,0.032865524291992,987.71435546875,0,13.0,1,1
3.24,0.090480745,-0.15438314,9.763710000000001,-7.693062070757149e-05,0.000383348582545,-0.00015982973855000002,-15.1738977432251,17.7416744232178,-36.878963470459,-0.001693844795227,0.009478941559792,0.037600517272949,987.709350585937,0,13.0,1,1
3.28,0.08808452,-0.14961644,9.770811,-7.693062070757149e-05,0.000383348582545,-0.00015982973855000002,-15.1738977432251,17.7416744232178,-36.878963470459,-0.001892350614071,-0.00965504348278,0.028132438659668,987.709350585937,0,13.0,1,1
3.32,0.083298415,-0.14961626,9.766077000000001,5.62883215025067e-05,0.0007828123634680001,-0.000159803545102,-15.237566947937,17.4713382720947,-36.8533325195312,0.012659639120101998,8.38041305541992e-05,0.037603378295899,987.716674804688,0,13.0,1,1
3.36,0.08807185,-0.15199939999999998,9.766076,5.62883215025067e-05,0.0007828123634680001,-0.000159803545102,-15.1482992172241,17.5548801422119,-36.794994354248,0.007901750504971,-0.009510770440102,0.042336463928223,987.716674804688,0,13.0,1,1
3.4,0.08089584,-0.16391559,9.758974,0.0005889812018719999,-0.0008150927023960001,-0.0006924091139810002,-14.853372573852502,17.6201953887939,-36.613311767578104,0.012865327298641,0.0048074573278429995,0.04707145690918001,987.721923828125,0,13.0,1,1
3.44,0.10000867,-0.14246602,9.742403,0.00018962949980099998,-0.00028248078888300004,-0.00042604084592300003,-14.846199035644501,16.8895092010498,-36.7256278991699,-0.006283335387707,-0.009494110941886999,0.061275482177734,987.6889038085941,0,13.0,1,1
3.48,0.08805284,-0.1448491,9.77791,0.00045600661542300006,-0.000282490684185,-0.00029285682831,-14.9014186859131,16.8903789520264,-36.5631980895996,0.007934801280499,0.000101953744888,0.028136253356934,987.7066040039059,0,13.0,1,1
3.52,0.08565661,-0.1519988,9.758972,0.00032290967647,0.0007827628869560002,-0.000159672577865,-14.469913482666,16.398859024047898,-36.5239486694336,0.007707543671130999,0.00030691921711,0.04234504699706999,987.6987915039059,0,13.0,1,1
3.56,0.08796209,-0.15199669,9.7708,0.000322970794514,0.000250121258432,-2.6488560251891603e-05,-14.939598083496099,17.539598464965803,-36.8262596130371,0.0126051902771,0.009921655058861,0.051815986633300996,987.6964721679691,0,13.0,1,1
3.6,0.095042646,-0.15914436,9.770792,-0.000609073671512,-0.00041567836888099996,-0.00042593607213300006,-14.816716194152802,16.9695072174072,-36.2729454040527,-0.011253595352173,0.023570939898491,0.018681526184082,987.711547851563,0,13.0,1,1
3.64,0.09741986,-0.15199418,9.763689,-0.001140783540905,0.000515741296113,0.000242877926212,-15.261781692504899,17.5536861419678,-36.3155288696289,-0.006268702447414,-4.22447919845581e-05,0.042356491088867,987.716430664062,0,13.0,1,1
3.68,0.09740716,-0.15437718,9.773157000000001,0.000857081264257,-0.000815918669105,-0.000422699376941,-15.2817287445068,17.0083179473877,-36.434513092041,-0.011323474347591001,-0.000137612223625,0.032889366149902,987.708862304688,0,13.0,1,1
3.72,0.09978437400000001,-0.1591434,9.766053999999999,-7.4902200140059e-05,0.001447746530175,0.00010998465586499999,-14.5753498077393,17.1430835723877,-36.70521926879879,-0.001850001513958,0.01865665614605,0.042356491088867,987.693725585937,0,13.0,1,1
3.76,0.0878222,-0.14960994,9.761318,-0.000474253785796,0.00011614721734100001,-0.000688910600729,-15.2163982391357,17.386041641235398,-37.2365226745605,0.011926546692848001,0.004471272230148,0.04236507415771499,987.6962280273441,0,13.0,1,1
3.8,0.09975904,-0.14722647,9.770786,-7.46578443795443e-05,0.001714022830129,0.000243247428443,-14.778942108154302,16.7944965362549,-36.8074150085449,-0.007407672703266,-0.005490332841873,0.047096252441406,987.701293945313,0,13.0,1,1
3.84,0.09735644,-0.15199263,9.758949000000001,-0.0008734832517799999,0.000915055163205,-0.00015617400640600002,-14.697826385497999,17.238965988159197,-36.4610023498535,-0.0029672831296919996,-0.000755250453949,0.042366027832031,987.7085571289059,0,13.0,1,1
3.88,0.09017405,-0.16152544,9.761314,0.000191902508959,0.00038240372668999997,0.00011019420344399999,-15.024299621582001,17.460470199585,-37.116512298584,0.0018690228462220002,0.008549749851227,0.037628173828125,987.7138671875,0,13.0,1,1
3.92,0.09016138,-0.1543753,9.7778845,-0.000473764841445,-0.000150248000864,0.0005097205284980001,-15.173354148864698,17.373384475708,-36.7805137634277,-0.003049224615097,0.003645941615105,0.018691062927246004,987.708618164062,0,13.0,1,1
3.96,0.0949285,-0.15199168,9.7755165,-0.000207326607779,0.000515521969646,0.000376614974812,-15.2641448974609,17.288366317749,-36.761547088623,-0.007963217794895,0.003643482923508,0.04710006713867201,987.7034301757809,0,13.0,1,1
4.0,0.09013599,-0.14007501,9.758944,-0.0006066781934349999,0.00011602824088200001,0.00024350942112500001,-14.806604385376,17.348108291626,-36.9125328063965,0.006375961005688002,-0.015777364373207,0.05656528472900401,987.70849609375,0,13.0,1,1
4.04,0.09490311,-0.13769145,9.763678,-0.000739714014344,0.00011600839206899998,-0.00015591213013999998,-14.654102325439501,16.963933944702102,-36.605617523193395,-0.00333334505558,-0.006014958024025,0.037634849548339996,987.703247070312,0,13.0,1,1
4.08,0.09011066,-0.14960746,9.758942,0.0005919876275580001,0.0006486203055830001,-2.2701744455844198e-05,-14.431159973144501,16.5936145782471,-37.2341766357422,-0.0033654496073720003,0.00335930287838,0.042366981506348,987.6932983398441,0,13.0,1,1
4.12,0.08770805599999999,-0.14007415,9.766043,-0.000206837896258,-0.000150347186718,-0.00028896518051599996,-14.8644323348999,18.084093093872102,-36.869701385498,0.006127871572971,-0.0014187395572659999,0.032899856567383,987.7135620117191,0,13.0,1,1
4.16,0.08769536,-0.14722358,9.780244999999999,-0.00033987348433599994,0.00038226472679500005,-2.2596912458539002e-05,-15.104140281677198,18.0179042816162,-37.213813781738295,0.0012023076415060001,0.0036796033382420004,0.047110557556152,987.7182006835941,0,13.0,1,1
4.2,0.09007263,-0.15675636,9.773142,0.000725512509234,-0.00041670279461,0.000909561058506,-15.068323135376,17.103364944458,-37.3967704772949,0.011260233819485002,0.0036127716302870004,0.04237174987793001,987.6653442382809,0,13.0,1,1
4.24,0.10200941599999999,-0.14245646,9.763672,-7.33130145817995e-05,-0.000283564673737,0.00037698168307499997,-14.6771984100342,17.5219631195068,-36.94264602661129,-0.018013089895249,-0.001155108213425,0.051847457885742,987.693115234375,0,13.0,1,1
4.28,0.08287755,-0.14483936,9.76367,-7.31907784938812e-05,0.0015806267037989999,0.00024387612938900002,-14.7523651123047,16.9774684906006,-36.8992042541504,-0.0037910565733909997,-0.015453234314918997,0.03764724731445299,987.70556640625,0,13.0,1,1
4.32,0.078085065,-0.14245583,9.7542,6.0089398175478e-05,0.000249027449172,-0.000155545305461,-15.1022119522095,17.5451679229736,-36.4935874938965,0.014985799789428999,-0.0057879090309140005,0.051856994628906,987.7182006835941,0,13.0,1,1
4.36,0.09002185,-0.15198861,9.768402,-7.29464227333665e-05,0.00024900754215200003,0.000243980786763,-14.557361602783198,16.948926925659197,-36.23472213745121,0.005346544086933,-0.005989328026771999,0.056590080261231,987.6903686523441,0,13.0,1,1
4.4,0.09478897,-0.1448385,9.770769,-0.0008717718301339999,0.000382145750336,0.0010429809335619998,-14.6605958938599,17.4322490692139,-37.093921661377,0.005318753421307,-0.006238013505935999,0.037650108337402,987.70556640625,0,13.0,1,1
4.44,0.09477627,-0.14007165,9.756564,-0.000339017715305,0.00038212584331599996,0.000110927736387,-15.2109909057617,17.6543064117432,-36.9451179504395,-0.004238538444042,-0.016031116247177,0.047116279602050996,987.6979370117191,0,13.0,1,1
4.48,0.0828141,-0.1496044,9.75893,0.000125039368868,-0.00023162434808900002,-0.0008359518833460001,-15.180528640747099,18.104074478149396,-36.66819381713871,0.010245688259601999,0.007896855473518,0.032914161682128996,987.6929321289059,0,13.0,1,1
4.52,0.09475094,-0.16390373,9.773132,-0.000540628214367,-0.000764276017435,-3.69518529623747e-05,-15.098625183105499,17.1798267364502,-36.549747467041,-0.0038320571184160004,0.022157520055771,0.032912254333496004,987.7005004882809,0,13.0,1,1
4.56,0.08720368,-0.13767846,9.763630000000001,0.000391599605791,0.0005672835395669999,-3.68995242752135e-05,-14.6675243377686,17.1625118255615,-37.3080253601074,0.0008034929633139999,-0.015678137540817,0.047122001647949004,987.7103881835941,0,13.0,1,1
4.6,0.07963458,-0.14243518,9.770695,0.00039258773904300004,-0.000364982406609,-0.0007022655336189999,-14.929624557495101,17.8122806549072,-36.7667655944824,0.015878662467003,-0.015784144401549998,0.04245662689208999,987.690185546875,0,13.0,1,1
4.64,0.08437252,-0.1400509,9.77069,-0.0005332697182890001,0.000296236714348,0.0002392490278,-15.152184486389197,17.2880878448486,-37.163703918456996,0.011028632521629,-0.015792459249497,0.051930427551269996,987.690185546875,0,13.0,1,1
4.68,0.08194077,-0.15196626,9.761218,-0.0005332697182890001,0.000296236714348,0.0002392490278,-14.828617095947301,17.1695537567139,-37.052661895752,0.001229308545589,-0.006279081106186001,0.032998085021973,987.690185546875,0,13.0,1,1
4.72,0.07950902,-0.14243211,9.768316,0.000266081304289,2.98553495667875e-05,-2.6893976610153897e-05,-14.8877220153809,16.9036350250244,-37.2589454650879,0.010801643133163999,-0.006287887692451,0.042470932006836,987.7052612304691,0,13.0,1,1
4.76,0.093806565,-0.15434743,9.763578,0.000133730238304,2.9724440537393103e-05,-0.0006923378095960001,-14.997180938720698,17.275152206420902,-37.1098480224609,0.005900725722313001,-0.010994911193847998,0.047211647033692,987.6775512695309,0,13.0,1,1
4.8,0.08181518,-0.13528024,9.765941,-0.0006648139096799999,0.0006954486016180001,-2.6375229936093102e-05,-15.322813034057601,17.7605075836182,-37.242038726806605,0.010720938444138002,-0.015981212258338998,0.03300952911377,987.6901245117191,0,13.0,1,1
4.84,0.09133291,-0.14481224,9.76357,0.00026769505348099993,-0.000902512168977,-0.00015936029376499998,-15.3262939453125,17.0195026397705,-36.8132209777832,0.00096021592617,-0.01568366587162,0.033019065856933996,987.687622070312,0,13.0,1,1
4.88,0.09129107,-0.15911092,9.756464,0.0004012563731519999,0.0016274231020360001,-2.60293600149453e-05,-15.313818931579599,17.663423538208,-37.0067901611328,0.005614057183266,0.012602627277373997,0.05195808410644499,987.6976928710941,0,13.0,1,1
4.92,0.09124923,-0.1591099,9.768297,-0.0006636035395790001,-0.00010369549272600002,-0.0005584883620030001,-15.0699825286865,16.995977401733402,-36.620388031005895,-0.0038766562938690003,-0.001546129584312,0.042494773864746004,987.702758789063,0,13.0,1,1
4.96,0.091207385,-0.15672554,9.763558999999999,0.0004020633641630001,-0.000236919004237,0.00010747433407200002,-14.891010284423801,17.9011211395264,-36.7779197692871,0.0061197206377980005,0.00315859913826,0.047228813171386996,987.6926879882809,0,13.0,1,1
5.0,0.10311502,-0.15434135,9.768289999999999,-0.0005296387244019999,-0.0006364582804959999,-0.000558142492082,-14.6781787872314,17.1522006988525,-36.7668914794922,-0.017676375806332,-0.006753832101821999,0.037756919860839996,987.692626953125,0,13.0,1,1
5.04,0.09112364,-0.1495737,9.765918,-0.00039607740473000005,-0.000370207999367,0.000640451908112,-14.7452974319458,17.353120803833,-37.384181976318395,0.001865670084953,0.007591262459754999,0.04722690582275401,987.6670532226559,0,13.0,1,1
5.08,0.08869189,-0.1567225,9.765913000000001,0.000136957736686,-0.00037027342477800006,-0.000557796738576,-14.5797786712646,17.2445850372314,-37.17238235473629,0.0019045323133470003,0.007548376917839,0.047230720520019996,987.6799926757809,0,13.0,1,1
5.12,0.08387023,-0.14957173,9.775379,-0.000262112589553,-0.00010402296902600001,-0.000158149923664,-15.0447902679443,17.2833881378174,-37.333946228027294,0.006638303399085999,-0.001884460449219,0.047237396240234,987.700073242188,0,13.0,1,1
5.16,0.07904857400000001,-0.14480410000000002,9.768272999999999,0.000270922784694,2.90694297291338e-05,-2.48189899139106e-05,-14.8979387283325,17.6313800811768,-36.992015838623,0.011874482035636999,-0.011063009500503998,0.037774085998535004,987.7123413085941,0,13.0,1,1
5.2,0.09095621,-0.15910272,9.761168,0.000937115750276,-0.001036259578541,-2.46461713686585e-05,-15.152184486389197,17.2880878448486,-37.163703918456996,-0.007386133074760001,0.007879137992859,0.042512893676758,987.69482421875,0,13.0,1,1
5.24,0.08613455,-0.14480208,9.773000999999999,-0.000260902219452,0.00056157016661,0.00010868458775799998,-15.0393829345703,17.5516605377197,-37.0425453186035,0.006950400769711,-0.006375089287758,0.018844604492188,987.687255859375,0,13.0,1,1
5.28,0.08848259,-0.15671737,9.770629,0.000405290978961,2.8872920665890002e-05,-0.0006900900625619999,-15.0370197296143,17.8169803619385,-36.596527099609396,0.00224781036377,0.008184313774109,0.037789344787598,987.6847534179691,0,13.0,1,1
5.32,0.090830624,-0.15194984,9.772993,0.0005388522986319999,2.8807437047362297e-05,-0.000290443364065,-14.9098701477051,16.6191654205322,-36.7000007629395,-0.0025031939148899996,-0.001675397157669,0.028319358825684,987.7022094726559,0,13.0,1,1
5.36,0.09078878,-0.14479901,9.765887,-0.0013249553740019998,2.87420116364956e-05,0.00024236139142900005,-15.2296600341797,18.1108417510986,-36.8149871826172,0.002191320061684,-0.011027842760086,0.051999092102050996,987.682006835938,0,13.0,1,1
5.4,0.09074694,-0.14956446,9.765883,0.000539659289643,-0.000104481470771,-2.37816129811108e-05,-14.7302160263062,17.2619380950928,-37.4581527709961,0.012013919651508,-0.011050239205360999,0.033062934875488,987.689575195313,0,13.0,1,1
5.44,0.09070504,-0.16147985,9.775349,0.000140588846989,-0.0005040207761339999,0.00090849690605,-14.981555938720698,16.8156719207764,-37.0853691101074,0.002569392323494,0.0031641572713850003,0.033064842224121004,987.646606445312,0,13.0,1,1
5.48,0.09544301,-0.16624539,9.784814,0.000540466164239,2.8545502573251697e-05,-0.000156593683641,-14.7227439880371,17.163385391235398,-37.1455955505371,-0.006557777523994,0.022489711642264997,0.014130592346191,987.664428710938,0,13.0,1,1
5.52,0.088231444,-0.15194465,9.775341000000001,0.00040771171916300004,-0.0011699415044860001,-0.001221684506163,-15.0370197296143,17.8169803619385,-36.596527099609396,0.007479436695576,0.013264790177344998,0.05201911926269499,987.666870117188,0,13.0,1,1
5.56,0.08608642,-0.14718412,9.772996000000001,0.00040811521466800003,0.0012268358841540001,0.0006426997133530001,-14.877449035644501,17.808458328247102,-36.774585723877,-0.00295652449131,-0.005802318453789001,0.042533874511719,987.674560546875,0,13.0,1,1
5.6,0.07649636,-0.14480014,9.768258,-0.00012553820852200003,0.001224733190611,0.000513398379553,-14.9841632843018,17.5507831573486,-37.2049674987793,0.016154944896698,-0.005786895751953,0.056741714477539,987.651611328125,0,13.0,1,1
5.64,0.09080529,-0.13764955,9.763521,0.001071839593351,0.0005591126973740001,0.00037979308399400003,-14.770055770874,17.803766250610398,-36.9448280334473,0.001851640641689,-0.010191604495049,0.037811279296875,987.7146606445309,0,13.0,1,1
5.68,0.08360511,-0.1543317,9.768253,0.000273185782135,-0.000506198499352,0.0005130768986419999,-14.702796936035199,17.7087497711182,-37.0266151428223,0.006697177886963,0.013643160462379999,0.04254817962646499,987.6616821289059,0,13.0,1,1
5.72,0.081184745,-0.14479788,9.7658825,0.000140321208164,2.63856491073966e-05,-0.000152587075718,-14.644969940185499,16.972772598266598,-37.0694465637207,0.016053907573223,-0.0051821172237400005,0.04729080200195299,987.6895141601559,0,13.0,1,1
5.76,0.09071392,-0.14956369,9.770615,-0.000258858897723,-0.000106819963548,0.000113854650408,-14.6539640426636,17.0698528289795,-37.304695129394496,-0.002776563167572,0.004034265875816,0.042551994323731,987.6689453125,0,13.0,1,1
5.8,0.085903645,-0.15671273,9.758776,-0.000391723238863,2.62903049588203e-05,-1.9177328795194602e-05,-14.7071189880371,16.7039089202881,-37.121120452880895,0.0017490610480310003,0.004089936614037,0.047293663024902,987.67919921875,0,13.0,1,1
5.84,0.088263094,-0.15909524,9.76114,0.000407518004067,0.000159400573466,0.00011410639854100001,-14.830681800842301,17.536371231079098,-37.0738067626953,0.0015889927744870001,0.013662680983543,0.037829399108887,987.674194335938,0,13.0,1,1
5.88,0.09301245,-0.15671129999999997,9.770607,0.000407811603509,0.000825142662507,-0.00028524163644800003,-14.616870880127001,17.1572132110596,-37.2385368347168,-0.01253554224968,0.013400226831436001,0.033091545104981,987.6992797851559,0,13.0,1,1
5.92,0.081032455,-0.16147704,9.775337,-0.0011897903168569999,-0.001172274118289,0.000247515970841,-14.515266418457001,17.7787685394287,-36.674690246581996,0.006987281143665,0.008291020989418,0.04255485534668001,987.669189453125,0,13.0,1,1
5.96,0.08817172,-0.15670969,9.768234,-0.0011897903168569999,-0.001172274118289,0.000247515970841,-14.752906799316401,17.345758438110398,-36.997653961181605,0.011611856520176001,0.0035254359245300002,0.037824630737305,987.669189453125,0,13.0,1,1
6.0,0.08097154,-0.14479263,9.770597,-0.000541716697626,-0.0007541227969339999,5.19815366715193e-05,-14.8641872406006,17.083665847778303,-37.1961250305176,0.011458039283753,-0.010880306363106,0.037827491760253996,987.6740112304691,0,13.0,1,1
6.04,0.08333099,-0.14717521,9.770596000000001,-0.000541129498743,0.000177887501195,0.00031854899134500005,-14.729373931884801,17.5257816314697,-36.9348258972168,-0.003198347985744,-0.006207093596458,0.033097267150878996,987.6591796875,0,13.0,1,1
6.08,0.100029826,-0.13764127,9.772959,-0.000274520250969,0.000577313650865,5.2358896937221295e-05,-15.1823482513428,17.4704608917236,-37.0157585144043,-0.012594006955624,-0.025310233235358998,0.033098220825195,987.691772460938,0,13.0,1,1
6.12,0.09760949,-0.14955695,9.76112,-0.000274226418696,0.00031095003942000003,0.00018564268248199997,-15.125744819641099,17.3651447296143,-36.55641555786129,-0.003145761787891,0.007817924022675001,0.056771278381348,987.6917114257809,0,13.0,1,1
6.16,0.08801937,-0.14478971,9.763485000000001,-0.00080656458158,-0.000354887335561,0.00031892640981800004,-14.972667694091802,17.824937820434602,-37.2227821350098,0.001839712262154,-0.0016311705112459999,0.047307014465332003,987.6740112304691,0,13.0,1,1
6.2,0.08081925,-0.14002235,9.768217,0.000258992426097,0.000177696696483,5.27363736182451e-05,-14.876768112182601,17.546087265014602,-37.3752098083496,0.001896359026432,-0.006460741162300001,0.02836799621582,987.6638793945309,0,13.0,1,1
6.24,0.09273827,-0.14717145,9.765847,-0.00014018767978999998,-0.0008876143838280001,-0.000346611486748,-15.1467771530151,17.5563526153564,-36.8722991943359,-0.012646317481995002,-0.0065600574016569995,0.042574882507324,987.6561889648441,0,13.0,1,1
6.28,0.08792799999999999,-0.15193726,9.772945,-0.00027305213734500004,0.000710233289283,-0.0006128015229480001,-14.8081274032593,17.346632003784197,-36.8352279663086,0.0015830919146540001,-0.001932948827744,0.033110618591308996,987.6968383789059,0,13.0,1,1
6.32,0.092677355,-0.14716996,9.7753105,-6.4425403252244e-06,0.000710185675416,5.31139085069299e-05,-14.6629581451416,17.166925430297898,-37.5399398803711,0.00150939822197,-0.006575539708138,0.028380393981934,987.68408203125,0,13.0,1,1
6.36,0.083087295,-0.154319,9.763472,-0.000272464822046,-0.00035512557951699995,-7.99181871116161e-05,-14.7905445098877,17.6266841888428,-37.162261962890604,0.011047579348086999,0.01263815164566,0.047323226928711,987.6790161132809,0,13.0,1,1
6.4,0.09261644,-0.15431826,9.761102000000001,0.001059408066794,0.000843248271849,-0.000612424104474,-14.7015733718872,17.078088760376,-37.5287933349609,-0.0029047355055809997,0.0033167302608490003,0.04259109497070299,987.6992797851559,0,13.0,1,1
6.44,0.087806165,-0.14955099,9.763466000000001,-0.00013871968258200002,-0.000887852685992,0.00031980732455799996,-14.9199504852295,17.4528293609619,-37.132148742675795,-0.002609848976135,-0.006321787834167,0.03785514831543,987.67626953125,0,13.0,1,1
6.48,0.09255552,-0.14478363,9.765830000000001,-0.000271584023722,-0.00035526859574000003,0.00071940687485,-14.9532957077026,17.5263385772705,-36.13051223754879,-0.007692292332649,-0.006479442119598001,0.037859916687012,987.673950195313,0,13.0,1,1
6.52,0.09013516,-0.15431602,9.780031,-4.97465953230858e-06,0.000310473435093,0.000320058956277,-14.9311466217041,17.8108081817627,-36.6894645690918,0.00192553550005,0.012881517410278,0.028397560119629,987.658813476562,0,13.0,1,1
6.56,0.08532488,-0.15193202,9.763457,0.000527950702235,-8.904805872589351e-05,-0.000212447019294,-14.540184020996099,17.7031879425049,-37.3592872619629,0.011368580162525,0.003350034356117,0.04733943939208999,987.6889038085941,0,13.0,1,1
6.6,0.094854,-0.14239816,9.75872,0.000261928653345,0.000177220150363,0.00032031064620200003,-15.0756349563599,17.7281436920166,-36.585376739502,-0.002937957644463,-0.006220385432243,0.042607307434082003,987.651123046875,0,13.0,1,1
6.64,0.09482357,-0.14478068,9.765819,-4.09386120736599e-06,-8.91433446668088e-05,-0.00021219532936799998,-14.7133140563965,17.8043613433838,-37.1845588684082,0.006850138306618,-0.005808115005493,0.028410911560059,987.6862182617191,0,13.0,1,1
6.68,0.0828436,-0.14954649,9.768183,0.000129357795231,-8.9191016741097e-05,0.000320562277921,-15.2587375640869,17.5566310882568,-36.470142364502,0.001967512071133,0.0035171508789059998,0.04261589050293001,987.6962890625,0,13.0,1,1
6.72,0.0875929,-0.15907882,9.761078999999999,0.000129651394673,0.000310235132929,0.000453846005257,-15.1262884140015,17.733434677124,-36.6548652648926,0.006917603313923001,0.003932967782021,0.061561584472656,987.656005859375,0,13.0,1,1
6.76,0.0971221,-0.15192823,9.746872,0.0003962608752769999,-0.0008882340043779999,0.00045397185022000004,-15.2365894317627,17.8411045074463,-37.0290870666504,-0.00277241319418,-0.001299396157265,0.056824684143067,987.678588867188,0,13.0,1,1
6.8,0.085142106,-0.13762785,9.753971,-0.000535551225767,0.0009759294916880002,0.0005872555775569999,-14.986664772033699,17.1795444488525,-36.951904296875,0.006498657166958001,-0.010714933276176999,0.047362327575684,987.6912231445309,0,13.0,1,1
6.84,0.09467128,-0.14239372,9.772907,-0.000135783688165,0.00044325011549499997,0.0007205393631010001,-14.679562568664599,17.256639480590803,-37.388664245605504,-0.002943307161331,-0.010913819074631001,0.028423309326172,987.6886596679691,0,13.0,1,1
6.88,0.077911496,-0.1495427,9.768169,-0.000534964026883,-0.000488903198857,0.0005875072674830001,-14.9772338867188,17.820520401001,-36.99086380004879,0.011611424386501,0.008300647139548999,0.033160209655762,987.703735351563,0,13.0,1,1
6.92,0.092220426,-0.14000888,9.751596000000001,0.0003974352730440001,-8.947704918682579e-05,0.000188159290701,-14.671792984008801,17.790231704711896,-36.6512413024902,0.002028226852417,-0.015727460384369,0.07103729248046901,987.708740234375,0,13.0,1,1
6.96,0.08741018,-0.14715804,9.770531,-0.0004012186545880001,-0.00035584054421599996,-0.00021118868608,-15.112184524536099,17.2724857330322,-36.55308151245121,0.011488147079945,-0.0012455731630330001,0.042636871337891,987.6834106445309,0,13.0,1,1
7.0,0.096939325,-0.15669025,9.758692,0.00026486441493000004,0.00030990148661699996,-7.7904958743602e-05,-15.050442695617699,18.015558242797898,-37.2989349365234,-0.011867314577103001,0.0035107284784320005,0.028430938720703,987.7162475585941,0,13.0,1,1
7.04,0.087349236,-0.14477320000000002,9.763424,0.00026486441493000004,0.00030990148661699996,-7.7904958743602e-05,-14.669046401977502,17.1610355377197,-37.230720520019496,0.002541542053223,-0.006028324365616001,0.037903785705567,987.7162475585941,0,13.0,1,1
7.08,0.08492887,-0.15192229999999998,9.77289,0.000265451613814,0.000309806142468,5.55047299712896e-05,-14.6334753036499,17.2469272613525,-37.08726119995121,0.002172484993935,0.008312880992889,0.042643547058106,987.696044921875,0,13.0,1,1
7.12,0.08967823,-0.14715497,9.765785000000001,-0.00040004437323699996,0.0008423902909269999,-0.00021068542264400002,-14.506570816039998,17.0495471954346,-36.864311218261705,0.002423465251923,-0.010393291711807,0.047385215759277,987.6912231445309,0,13.0,1,1
7.16,0.082478076,-0.14953752,9.763414,0.000665512634441,-0.000622394727543,0.0007215459481810002,-14.9585647583008,17.3639888763428,-37.120998382568395,0.007625743746758001,-0.001033648848534,0.056851387023925996,987.68115234375,0,13.0,1,1
7.2,0.0848375,-0.14238696,9.779983,0.000266625895165,0.00044277351116800006,0.00045548172783999995,-15.001747131347699,17.27073097229,-36.8779335021973,0.002826318144798,-0.010381102561951001,0.023716926574707,987.6583862304691,0,13.0,1,1
7.24,0.09197676,-0.14238624,9.772879,-0.000398870091885,-8.990592323243621e-05,0.000322449603118,-14.994274139404302,17.1721820831299,-36.5653800964355,-0.006879985332489001,-0.010550260543823,0.023718833923340003,987.6583862304691,0,13.0,1,1
7.28,0.089556396,-0.15191852,9.768142,-0.000398870091885,-8.990592323243621e-05,0.000322449603118,-14.9546794891357,17.6307811737061,-36.7522850036621,-0.0019279569387439998,-0.00586125254631,0.042654991149902,987.6583862304691,0,13.0,1,1
7.32,0.08713603,-0.1519178,9.779975,-0.000265418668278,-0.0007557433564219999,-7.68984900787473e-05,-15.1462345123291,17.1880664825439,-36.7738456726074,0.0030089095234870004,0.003898769617081,0.033191680908203,987.688720703125,0,13.0,1,1
7.36,0.07993588,-0.15191709,9.761034,0.000533822691068,4.31567314080894e-05,-0.000343088409863,-15.0166912078857,17.4678363800049,-37.5030403137207,0.00756099075079,0.0040449053049090005,0.05213832855224599,987.6705932617191,0,13.0,1,1
7.4,0.07751554,-0.14714973,9.765766000000001,0.000267800292931,0.0007088985876180001,-7.66467419452965e-05,-15.082426071167,17.5643177032471,-37.49855422973629,0.017002895474434,-0.001031264662743,0.047402381896973,987.6932983398441,0,13.0,1,1
7.44,0.08298886,-0.15193333,9.770563000000001,-0.000131379929371,0.0009751668549139998,0.00045611083624,-14.6260032653809,17.1483783721924,-36.7747077941895,0.0017172619700429998,-0.000639021396637,0.033144950866699,987.6986694335941,0,13.0,1,1
7.48,0.09253329,-0.15193291,9.758726,0.0007861051708460002,-0.000249028031249,5.38310850970447e-05,-15.0182132720947,17.466363906860398,-37.4257354736328,-0.017474062740803,0.008900836110115,0.05681800842285201,987.6986694335941,0,13.0,1,1
7.52,0.08056849,-0.14954929,9.777662,-0.000282647321001,-0.00011772848665700001,-0.00021012098295599996,-14.7592935562134,16.707727432251,-37.1133041381836,0.011260122060776001,0.004234999418259001,0.033148765563965,987.660522460937,0,13.0,1,1
7.56,0.09489262,-0.14954893,9.772927000000001,-1.6184407286346e-05,0.000681195349898,-0.000609531882219,-14.7082042694092,17.4404888153076,-37.318023681640604,-0.007842510938644,-0.0055411756038669996,0.042614936828613004,987.660522460937,0,13.0,1,1
7.6,0.0972673,-0.1376322,9.777659,-0.000149195431732,-0.00011777615873100002,-0.00060946890153,-14.8337249755859,17.53342628479,-36.9191932678223,-0.01235119253397,-0.010032445192337,0.028415679931641003,987.6982421875,0,13.0,1,1
7.64,0.09486216,-0.14239834,9.770557,0.00038358324673000004,-0.0009167477255689999,5.63837820664048e-05,-14.7513866424561,17.3472309112549,-37.0749549865723,-0.002290040254593,-0.005430400371552,0.028409004211426003,987.695678710938,0,13.0,1,1
7.68,0.08528733,-0.14716454,9.768188,-0.000148901599459,-0.001715719234198,-0.00047618499957,-14.406349182128901,17.7755374908447,-36.9222373962402,0.007648482918739,-0.00529108941555,0.037878990173339996,987.6830444335941,0,13.0,1,1
7.72,0.094831705,-0.14478089,9.772922,-0.00041507068090099994,-0.000251005636528,0.000189667625818,-14.8406543731689,17.2636852264404,-37.1332969665527,-0.00682358443737,0.004223674535751,0.042614936828613004,987.6830444335941,0,13.0,1,1
7.76,0.09242654,-0.14716376,9.763451,0.000384023878723,0.000681076140609,-0.00020974321523700002,-15.026801109314,17.0892314910889,-36.863452911377,0.002533204853535,-0.0049976855516429995,0.047358512878417997,987.675415039062,0,13.0,1,1
7.8,0.08763152,-0.135247,9.768185,0.0009168025571849999,0.00014842051314200002,0.00018979364540400002,-14.372598648071301,17.2278232574463,-37.1263389587402,-0.002260282635689,-0.009533032774925,0.037894248962402,987.675415039062,0,13.0,1,1
7.84,0.09239608,-0.1519296,9.763449000000001,0.000251159653999,0.00028155458858200003,-0.0007422490743919999,-14.8301391601563,17.1680774688721,-36.9753532409668,-0.00231559574604,0.00015084445476499998,0.033164024353027,987.688354492187,0,13.0,1,1
7.88,0.08282119,-0.15192918,9.765814,0.000384464627132,-0.00011794309830299998,-7.63963907957077e-05,-14.9721240997314,17.4566478729248,-37.1243286132812,-0.0025498345494270004,0.009951859712601,0.042640686035156,987.6480102539059,0,13.0,1,1
7.92,0.08758575,-0.13762917,9.765812,0.000251453486271,0.00041466479888199997,-0.000608965288848,-14.5663557052612,17.0459995269775,-36.469970703125,-0.0024721771478649996,-0.014314815402031,0.05683994293212901,987.680053710938,0,13.0,1,1
7.96,0.080400825,-0.1400121,9.753975,-0.0010799790034070002,0.00014832505257799996,-0.00034258631058,-15.3199071884155,17.6575336456299,-36.6975746154785,0.011769250035286002,-0.004645824432373,0.05210781097412099,987.6819458007809,0,13.0,1,1
8.0,0.08516538,-0.14477820000000002,9.761075,0.0005180633161219999,-0.000118014635518,0.000589582137764,-15.0280246734619,17.719896316528303,-36.3612785339355,-0.0025182366371149997,0.004956468939781001,0.037907600402832,987.6790161132809,0,13.0,1,1
8.04,0.08037037,-0.14239462,9.768175,0.000118736294098,0.0009472250822000001,5.7013356126844897e-05,-14.928102493286099,17.8137531280518,-36.8440742492676,0.006792761385441,-0.009124979376793001,0.03791427612304701,987.6990356445309,0,13.0,1,1
8.08,0.09230462,-0.14239426,9.770541999999999,0.00025204126723099996,-0.00011806230759200002,-0.0007418713066729999,-14.813098907470698,17.8164234161377,-37.4008445739746,-0.002625592052937,-0.004503771662712,0.042647361755371004,987.696044921875,0,13.0,1,1
8.12,0.09945911,-0.14477713,9.765806,-0.000679917400703,-0.00038440211210400007,0.000722929020412,-14.763423919677699,17.4413661956787,-37.1555976867676,-0.011976085603236998,-0.014245226979256,0.042642593383789,987.6581420898441,0,13.0,1,1
8.16,0.08749431,-0.14716007,9.756335,-0.00041345471981900004,-0.0005175839178259999,0.00045667603262699994,-15.0165309906006,17.9940586090088,-36.379093170166,0.0023897513747220002,-2.16513872146606e-05,0.052113533020019996,987.6631469726559,0,13.0,1,1
8.2,0.087479085,-0.14954297,9.770537,0.000252481899224,0.000547655916307,-0.00047536659985800004,-14.841878890991199,17.894353866577102,-36.63112258911129,-0.0023812130093570005,0.00013905763626100002,0.033178329467774,987.6730346679691,0,13.0,1,1
8.24,0.087463826,-0.14239277,9.7800045,-0.000146845006384,-0.0006507894722740001,0.000323644082528,-15.0259599685669,17.353082656860398,-36.3401298522949,-0.002542778849602,0.000342339277267,0.018980979919434,987.6577758789059,0,13.0,1,1
8.28,0.099398136,-0.14954220000000001,9.777636,0.000385933672078,0.0006807660101909999,-0.000208924757317,-14.837610244751,17.2666339874268,-37.2879066467285,-0.012233003973961,0.000320866703987,0.03792190551757799,987.657958984375,0,13.0,1,1
8.32,0.09460306,-0.1400087,9.768167,-1.33933499455452e-05,-0.00011820549843799999,-0.000208861834835,-14.8762264251709,17.1777973175049,-37.276760101318395,0.006900124251843,-0.009405791759491,0.04738807678222701,987.662841796875,0,13.0,1,1
8.36,0.09936762,-0.14954148,9.761063,-0.00027956208214200003,0.00041440239874599994,-0.00034195673651999997,-15.152184486389197,17.2880878448486,-37.1637077331543,-0.016676247119903998,0.00030499696731599996,0.042655944824219,987.662841796875,0,13.0,1,1
8.4,0.09257546,-0.14955069,9.775300999999999,0.000519532361068,-0.0005177269922569999,5.75800659134984e-05,-15.2731380462646,17.3854465484619,-36.9967918395996,0.007376328110695,0.005256876349449001,0.037924766540527,987.683227539062,0,13.0,1,1
8.44,0.097756594,-0.14717726,9.772969999999999,0.000785995041952,-0.00025143497623500004,-0.000341830891557,-14.955658912658699,17.2610187530518,-36.5765342712402,-0.007486663758755,-0.008573472499847,0.033122062683106,987.6552124023441,0,13.0,1,1
8.48,0.10016304,-0.15671076,9.76587,-0.00015363493003,-0.0014472643379120002,0.000185394892469,-14.997723579406701,17.6434421539307,-37.2083015441895,-0.007413014769553999,0.00552336871624,0.04258537292480501,987.652465820313,0,13.0,1,1
8.52,0.09539974,-0.14956142,9.772974000000001,-0.00015363493003,-0.0014472643379120002,0.000185394892469,-14.997723579406701,17.6434421539307,-37.2083015441895,0.002471819519997,0.0007143765687939999,0.042580604553223,987.652465820313,0,13.0,1,1
8.56,0.097806185,-0.1447952,9.756405,-2.0636478438973396e-05,-0.000115659087896,-0.000480463029817,-15.1964521408081,17.9314136505127,-37.1175422668457,-0.01160528510809,-0.008698597550392,0.05678176879882799,987.6755981445309,0,13.0,1,1
8.6,0.09543282,-0.14241238,9.775343,-2.0636478438973396e-05,-0.000115659087896,-0.000480463029817,-14.794130325317399,17.9920253753662,-37.10609817504879,-0.012011684477328997,-0.008741080760956,0.028376579284668,987.6755981445309,0,13.0,1,1
8.64,0.088279605,-0.15432910000000002,9.761142,0.000112203066237,0.000283866364043,0.000185190234333,-15.0859060287476,16.8233203887939,-37.0697364807129,0.007268384099007,0.005541384220123,0.042575836181641,987.689331054687,0,13.0,1,1
8.68,0.100245655,-0.15432955,9.770612,-0.00028742989525200004,0.000150734325871,0.001117227482609,-15.059871673584,17.3745822906494,-37.2599754333496,-0.016340747475623998,-0.004012376070022999,0.037837028503418,987.681274414063,0,13.0,1,1
8.72,0.09070253,-0.15671323,9.772981,-0.000287589151412,-0.001047661295161,0.000185053679161,-14.969219207763699,17.3536777496338,-36.579860687255895,0.002600707113743,-0.003999412059784,0.042572021484375,987.681274414063,0,13.0,1,1
8.76,0.09549892,-0.14718051,9.75878,0.0006443569436669999,0.00041710207006,-0.00034764630254400006,-14.7464151382446,16.8774433135986,-36.5093421936035,0.0025768280029299998,0.00048559904098500003,0.033096313476563,987.6705932617191,0,13.0,1,1
8.8,0.08356589,-0.14718099,9.777718,-0.000554223777726,0.000550285738427,0.000184917182196,-15.022480010986301,18.0940799713135,-36.768947601318395,0.007241480052471,0.000694885849953,0.028366088867188,987.6705932617191,0,13.0,1,1
8.84,0.08836222,-0.14718129,9.765884,0.000377722666599,-0.000115478178486,-8.14669765532017e-05,-15.1534080505371,17.918756484985398,-36.661525726318395,-0.001874543726444,0.005236446857452,0.047293663024902,987.680419921875,0,13.0,1,1
8.88,0.08598882,-0.15194829,9.777721000000001,-0.00028822617605299997,-0.0006480839801950001,-0.00034785119351,-14.7698097229004,16.8033313751221,-37.271247863769496,0.007777497172356,-0.004058435559272999,0.023622512817383,987.65478515625,0,13.0,1,1
8.92,0.090785176,-0.16148178,9.772988,0.000111088273115,-0.000648058252409,0.00018471234943700002,-14.5973606109619,16.9645290374756,-36.8453483581543,0.0032209306955340005,0.014974817633629,0.04729080200195299,987.675048828125,0,13.0,1,1
8.96,0.08363199,-0.13526617,9.770622999999999,0.00037724478170300007,-0.00064803235,0.00018464413005900003,-14.9306039810181,17.4425182342529,-36.591011047363295,0.017416931688786,-0.018234938383103,0.028354644775391003,987.667846679688,0,13.0,1,1
9.0,0.093208134,-0.15433277,9.770624,0.000575417827349,0.00012043624883499999,-0.00040493055712400005,-14.891988754272498,17.5313587188721,-36.6021614074707,0.0033292025327679997,0.005831822752953001,0.033089637756348,987.667846679688,0,13.0,1,1
9.04,0.09800446,-0.15909971,9.75879,0.00044210086343800004,-0.0009448013734069999,-0.000271840835921,-15.2426767349243,17.8352069854736,-36.71986770629879,-0.0009059309959410001,0.015372484922408999,0.052020072937011996,987.6677856445309,0,13.0,1,1
9.08,0.07412195,-0.1448005,9.756424,-9.069015504792329e-05,-0.0006784597062509999,-0.0004050672287119999,-14.829840660095199,17.800222396850604,-36.5504875183105,0.013522565364838,0.010571926832199,0.05675125122070299,987.6677856445309,0,13.0,1,1
9.12,0.093257725,-0.14956744,9.775363,-0.000224007468205,-0.00027895995299299995,-5.66156813874841e-06,-15.264688491821301,17.6566562652588,-36.8599967956543,-0.010684482753277,-0.008827894926070999,0.05201339721679701,987.65771484375,0,13.0,1,1
9.16,0.08610451,-0.14003475,9.765896000000001,-0.0007567987195219999,-0.000145776197314,-5.72972930967808e-06,-14.9926137924194,17.2795696258545,-37.341766357421896,0.008747659623623002,-0.013516515493393,0.042540550231933996,987.6770629882809,0,13.0,1,1
9.2,0.10046047,-0.15433483,9.765897,0.00044146360596599994,-0.000678382115439,-0.000138956005685,-14.5350751876831,17.3393115997314,-37.492748260498,-0.010258309543133,0.0008044391870499998,0.047273635864258,987.6838989257809,0,13.0,1,1
9.24,0.08852747,-0.15433516,9.777735,4.18306444771588e-05,0.000120591372252,0.000526765419636,-14.82763671875,17.5393161773682,-37.2284164428711,-0.0009588524699210001,0.005430981516838,0.03306770324707,987.6709594726559,0,13.0,1,1
9.28,0.07898444,-0.13765271,9.756432,-0.000357802433427,0.000120617216453,0.00052669714205,-14.8407917022705,17.157770156860398,-36.43422317504879,0.018188148736954,-0.008885011076927,0.056737899780274006,987.6806640625,0,13.0,1,1
9.32,0.08856052,-0.14956947,9.763535000000001,-0.000357961922418,0.000253801059444,-0.00027231883723299996,-14.7332592010498,17.2589893341064,-37.303539276123,0.008673496544361,-0.008862018585205,0.047267913818359,987.6806640625,0,13.0,1,1
9.36,0.086187124,-0.16625279999999998,9.758802000000001,0.00017451058374700002,-0.001210910384543,-0.000538702821359,-14.8572578430176,17.353399276733402,-36.9820213317871,0.00911595672369,0.019761338829994,0.05199623107910201,987.6602172851559,0,13.0,1,1
9.4,0.089749396,-0.13524033,9.765792,0.000174351444002,-0.0008114107768049999,-6.13939482718706e-06,-14.616029739379899,17.4210605621338,-36.7152137756348,0.001072704792023,0.000476032495499,0.033163070678711,987.652465820313,0,13.0,1,1
9.44,0.09449625,-0.14953919,9.763422,-8.91725649125874e-05,-0.00054554810049,-0.00027125864289700004,-14.9506568908691,18.0034961700439,-37.0826530456543,0.006020061671734,0.005377858877182,0.033166885375977,987.652465820313,0,13.0,1,1
9.48,0.08968347,-0.1543049,9.772886999999999,-0.000213894003537,-0.00041510123992300006,0.000135422975291,-14.8281803131104,17.907606124877898,-37.3268699645996,0.00135263800621,0.005335226655006,0.05210685729980501,987.6677856445309,0,13.0,1,1
9.52,0.09443027,-0.15192087,9.758681,-8.041836554184559e-05,-0.00014883701806,0.000268717121799,-14.8717975616455,17.0762958526611,-36.809597015380895,-0.0032903924584390004,-0.004238501191139001,0.05210781097412099,987.6847534179691,0,13.0,1,1
9.56,0.096787184,-0.15192004,9.7681465,-0.00047957437345799996,-1.57306785695255e-05,0.000535169267096,-15.280748367309599,17.3780841827393,-36.6102714538574,-0.003135673701763,-5.97536563873291e-06,0.037898063659668,987.651245117188,0,13.0,1,1
9.6,0.09197441,-0.14476942,9.775246000000001,-0.0006124143837949999,-0.0008147298940459999,0.000402147532441,-15.4542846679688,17.953462600708,-37.233070373535206,-0.0027127265930179997,-0.004659861326217999,0.023696899414063,987.653076171875,0,13.0,1,1
9.64,0.091941416,-0.15191843,9.775243,0.00018685118993700002,-0.0006816235254520001,2.80997483059764e-06,-14.9545421600342,17.7367038726807,-37.4513664245605,0.002085819840431,8.623301982879641e-05,0.033167839050293,987.700927734375,0,13.0,1,1
9.68,0.09907818,-0.15430088,9.770506,-7.914687739685179e-05,0.000117272487842,-0.000529685697984,-14.7363033294678,17.2560443878174,-37.1489295959473,-0.011810578405857,0.019155949354172,0.042634963989258,987.6627807617191,0,13.0,1,1
9.72,0.08709568,-0.14238371,9.758666999999999,0.000187486817595,-0.0008148846682160001,-0.000662707432639,-15.125744819641099,17.3651447296143,-36.55641555786129,0.012035414576531,-0.014125421643256999,0.056844711303711,987.6627807617191,0,13.0,1,1
9.76,0.09423241,-0.15191604,9.763397,0.000187804747839,-0.000681778416038,3.2187090255320098e-06,-14.7830715179443,17.528131484985398,-36.8497085571289,-0.0016235411167139998,0.005105704069137999,0.033171653747558996,987.6624145507809,0,13.0,1,1
9.8,0.09180951,-0.13761552,9.75866,0.000187804747839,-0.000681778416038,3.2187090255320098e-06,-14.5157032012939,17.040704727172898,-36.4004783630371,0.003444142639637,-0.008993878960609,0.042643547058106,987.6624145507809,0,13.0,1,1
9.84,0.09416646,-0.12808158,9.74682,0.000454756373074,-0.000948197382968,0.0005361229414119999,-14.970741271972699,17.3522052764893,-36.5025596618652,-0.0011380016803739998,-0.018469914793968003,0.06631755828857401,987.6627807617191,0,13.0,1,1
9.88,0.08696374,-0.14476372,9.770491,0.000454756373074,-0.000948197382968,0.0005361229414119999,-14.970741271972699,17.3522052764893,-36.5025596618652,0.00848450511694,-0.013738438487053,0.05211734771728501,987.6627807617191,0,13.0,1,1
9.92,0.094100475,-0.14237966,9.770487,-0.000476713350508,-0.000415668851929,-0.0005288682295940001,-14.936553955078098,17.5425434112549,-36.9808692932129,0.00392297655344,-0.013643130660057,0.047385215759277,987.6996459960941,0,13.0,1,1
9.96,0.0892877,-0.13999562,9.761014999999999,0.000189393933397,-0.000548878393602,0.00040337364771399995,-15.081179618835499,17.3539524078369,-36.177707672119105,0.004063323140144,-0.008621111512183999,0.042655944824219,987.6554565429691,0,13.0,1,1
10.0,0.10120422,-0.15667774,9.768114,0.00045602786121900005,0.00038317550206599997,-0.0006617536419069999,-14.6938037872314,17.6116771697998,-36.7913665771484,-0.015304774045943997,-0.004212692379951,0.047391891479492,987.6554565429691,0,13.0,1,1
10.04,0.08922171599999999,-0.1566769,9.779947,-0.000608917849604,-1.63498916663229e-05,-0.00026214349782099997,-14.7981538772583,17.619318008422898,-36.77573776245121,0.003932110965252001,0.015132650732994,0.037928581237793,987.65478515625,0,13.0,1,1
10.08,0.08440894,-0.15190949,9.763373,0.00019034760771299998,-1.64014636538923e-05,0.000536940293387,-15.3158845901489,18.0302448272705,-37.02793502807621,0.013416543602943998,0.000530228018761,0.05686759948730501,987.65478515625,0,13.0,1,1
10.12,0.08915579,-0.13999234,9.777575,-7.565022679045799e-05,-1.64530938491225e-05,-0.00012871320359399998,-15.2235717773438,18.1167316436768,-37.1242065429688,0.008306987583636998,-0.008974835276604,0.018998146057128996,987.68408203125,0,13.0,1,1
10.16,0.08434301599999999,-0.14952461,9.758633,0.000324141408782,0.000915600860026,0.000270896882284,-14.9343519210815,17.2816410064697,-37.6588020324707,0.008266434073448,-0.008850231766701001,0.052145004272461,987.6962890625,0,13.0,1,1
10.2,0.09147972,-0.13284089,9.758631,-0.000341330480296,0.00011660164455,-0.00039475661469599995,-14.791522979736301,17.2569217681885,-36.986503601074205,0.0036947280168529995,-0.018446370959281998,0.04741001129150401,987.6932983398441,0,13.0,1,1
10.24,0.084277034,-0.1519063,9.775198,-0.000474170490634,-0.00014976580860100001,-0.000128304527607,-15.031068801879899,17.7169513702393,-36.2066688537598,0.007953263819218001,0.014564886689186,0.042677879333496004,987.6777954101559,0,13.0,1,1
10.28,0.093803674,-0.14713891,9.746788,-0.00020753667922699998,0.0009154461440630001,-0.000394484202843,-14.697145462036099,16.9765949249268,-37.0616302490234,0.0030128508806229995,-0.009036451578139999,0.066360473632813,987.6777954101559,0,13.0,1,1
10.32,0.091380775,-0.14952143,9.775192,0.000325412896927,0.000382762693334,-0.00026118993992,-15.1352825164795,17.830514907836896,-36.890110015869105,-0.001821927726269,-0.004044011235237,0.047429084777832003,987.6624145507809,0,13.0,1,1
10.36,0.08895787599999999,-0.14952062,9.779922500000001,0.000592046708334,0.00038271112134699993,0.000271578028332,-15.280068397522,17.1157054901123,-37.2108955383301,0.0030741989612579996,0.0006728023290630001,0.019023895263672,987.652099609375,0,13.0,1,1
10.4,0.08727389599999999,-0.15430446,9.777619999999999,-0.00020658300491,-0.000682603975292,0.00013855635188499997,-15.028324127197301,17.087762832641598,-36.7861480712891,0.007121130824089,0.010107040405274,0.018959045410156004,987.637084960937,0,13.0,1,1
10.44,0.09682971,-0.14000468,9.770518,0.00032198143890099995,0.00011700385948600001,3.6552664823830102e-06,-15.1347389221191,17.4622211456299,-36.7916603088379,-0.002598077058792,-0.004006773233414,0.047370910644531,987.6597290039059,0,13.0,1,1
10.48,0.10160571,-0.15907079999999998,9.758682,-0.000213192135561,0.0007832062547100001,-0.000263750029262,-14.3505868911743,17.4063739776611,-36.9862098693848,-0.007928863167763001,0.010375246405602,0.052111625671386996,987.6571655273441,0,13.0,1,1
10.52,0.08726245,-0.1566874,9.76815,-7.2556606028229e-05,0.000995989423245,0.000225740193855,-14.9917736053467,17.5434169769287,-36.8184394836426,0.00671423971653,0.010179430246353,0.033167839050293,987.6572265625,0,13.0,1,1
10.56,0.099208176,-0.14715426,9.770517,6.06377725489438e-05,-0.00020243806648099997,-0.000573191733565,-14.8737239837646,17.5490322113037,-37.5298194885254,-0.007856875658035,0.010205313563347,0.04263973236083999,987.672241210938,0,13.0,1,1
10.6,0.0920347,-0.14477089999999998,9.772884,0.000460148381535,0.000197029847186,0.0007584034465250001,-15.0716114044189,18.1008472442627,-36.915740966796896,0.006820321083069,-0.003707379102707,0.033173561096192,987.654174804688,0,13.0,1,1
10.64,0.08486116,-0.1543039,9.775250999999999,0.0008596589905210001,-0.0006019237916919999,0.000225787458476,-15.188979148864698,17.8328609466553,-36.804988861084,-0.0025286227464679997,0.006053403019904999,0.037911415100098,987.6572265625,0,13.0,1,1
10.68,0.08007759,-0.14000417,9.768148,0.0005933795473539999,-0.0007350877276619999,-0.0005731444689450001,-15.003811836242699,17.6375484466553,-36.8990821838379,0.011541366577148998,-0.003305748105049,0.052120208740234,987.652099609375,0,13.0,1,1
10.72,0.07768386599999999,-0.14238738,9.768148,0.000193942629267,0.00046332780038899995,-0.00017365493113199998,-14.700296401977502,18.0799922943115,-37.2796745300293,0.021345116198063,-0.012744665145873997,0.03791618347168,987.646606445312,0,13.0,1,1
10.76,0.08245987,-0.1495371,9.751577000000001,0.000193979183678,-0.000735099602025,-0.000173639331479,-15.0368824005127,17.9228954315186,-37.2956047058105,0.011805914342403998,0.0018312782049179999,0.0521240234375,987.6467895507809,0,13.0,1,1
10.8,0.09918538,-0.1447704,9.768148,0.00099296332337,0.000197000044864,-4.046555841341621e-05,-14.8252735137939,17.804636001586896,-36.782402038574205,-0.007607676088810001,0.00215907394886,0.037928581237793,987.6369018554691,0,13.0,1,1
10.84,0.08962196,-0.1471536,9.772882000000001,0.00059352646349,0.0005964679294269999,-0.000306765839923,-14.721764564514197,17.5331516265869,-37.3213539123535,0.006538949906826001,-0.012066572904586998,0.03793144226074201,987.636840820313,0,13.0,1,1
10.88,0.08244845,-0.15430333,9.777616499999999,-7.222668500617149e-05,0.000330145994667,0.0006253555766310001,-14.396674156189,17.4160861968994,-37.28761672973629,0.011048331856728,0.002317890524864,0.047404289245606,987.666870117188,0,13.0,1,1
10.92,0.08244464,-0.15668656,9.777616499999999,0.00019412586698299997,0.0008627719362269999,0.000625371292699,-15.0763378143311,17.5702075958252,-37.8077735900879,0.020071484148502,0.002191722393036,0.033205032348633,987.639038085938,0,13.0,1,1
10.96,0.09678024,-0.15906967,9.7539425,0.000327320594806,0.000995923765004,0.000492229009978,-15.2079467773438,17.6572551727295,-37.0997276306152,-0.003946676850319,0.011875092983246,0.052145957946777,987.654418945312,0,13.0,1,1
11.0,0.087216824,-0.14000337,9.777614999999999,0.000327357149217,6.381230195984239e-05,9.2770962510258e-05,-14.755950927734402,17.3428134918213,-36.843044281005895,0.005908973515034,-0.007076442241669,0.028472900390625,987.65185546875,0,13.0,1,1
11.04,0.091992855,-0.14715315,9.777614999999999,-0.00033835921203700004,0.000596432189923,0.001291223801672,-15.043949127197301,17.547235488891598,-36.8106269836426,0.01040518283844,-0.002581715583801,0.033206939697266,987.644287109375,0,13.0,1,1
11.08,0.08959913,-0.14953629999999998,9.77288,-0.00033835921203700004,0.000596432189923,0.001291223801672,-15.1377830505371,17.459276199340803,-36.6370506286621,-0.008846849203110001,-0.0026681125164029996,0.037940979003906,987.644287109375,0,13.0,1,1
11.12,0.09676501,-0.14476968,9.763411,-0.00033835921203700004,0.000596432189923,0.001291223801672,-15.1377830505371,17.459276199340803,-36.6370506286621,0.000275894999504,-0.007624834775925,0.033208847045899,987.644287109375,0,13.0,1,1
11.16,0.08481169,-0.15191938,9.775247,-0.00020512769697200001,0.001129051903263,0.00022599165095,-15.139305114746099,17.4578037261963,-36.5597496032715,0.009435400366783002,0.006928935647011,0.028481483459473,987.6339721679691,0,13.0,1,1
11.2,0.08958769,-0.13523634,9.765778,0.000993330264464,0.0005964143783790001,0.000891797128133,-14.489828109741199,17.065748214721697,-37.7146644592285,0.004403479397297,-0.011821046471596002,0.042693138122558996,987.6569213867191,0,13.0,1,1
11.24,0.09197378,-0.13761957,9.775246000000001,-7.18965311534703e-05,0.0008627243223600001,-0.00043976650340499994,-15.0695457458496,17.7340297698975,-36.8945960998535,0.0042815059423449995,-0.0022165030241009997,0.028491973876953,987.646606445312,0,13.0,1,1
11.28,0.09674981,-0.14476933,9.765775999999999,-7.18598603270948e-05,0.00033008656464499997,0.000359196856152,-15.422736167907699,17.6666431427002,-36.7592430114746,-0.000623039901257,-0.011763721704483,0.04743099212646499,987.6619262695309,0,13.0,1,1
11.32,0.08479649,-0.14000268,9.782347,6.13347510807216e-05,-0.000202551236725,9.289669105783109e-05,-14.532169342041,17.2363376617432,-36.948280334472706,0.004520758986472999,-0.002331435680389,0.02375602722168,987.644287109375,0,13.0,1,1
11.36,0.10193378,-0.13524605,9.765814,-0.00020494434284,-0.0006020310102030001,9.29125235415995e-05,-14.844241142272999,17.6290302276611,-37.077140808105504,-0.014969184994698,0.0022732317447660003,0.056897163391113004,987.6565551757809,0,13.0,1,1
11.4,0.08802709,-0.14955635,9.768221,-7.27272708900273e-05,0.0012623330112550002,-0.00057328044204,-15.0921020507813,17.9237689971924,-37.1331748962402,0.008168235421181,0.016692996025086,0.023679733276367,987.6565551757809,0,13.0,1,1
11.44,0.09761587,-0.16147341,9.763489,-7.93534563854337e-05,-0.000733929220587,0.0006194357993080001,-14.817962646484402,17.179864883422898,-37.5937957763672,-0.001383893191814,0.016643300652504,0.04734897613525401,987.6565551757809,0,13.0,1,1
11.48,0.09286523,-0.13287483,9.772960000000001,5.3523341193795204e-05,0.000198222085601,-0.000179632392246,-14.5396404266357,17.3348903656006,-37.260833740234396,-0.000712893903255,-0.021179497241974,0.047343254089356,987.6591186523441,0,13.0,1,1
11.52,0.09050447,-0.14240868,9.768229,0.0005858740769330001,-0.001665943418629,-0.000179752765689,-14.321104049682601,17.486375808715803,-36.533531188964794,0.008790098130703002,-0.006756171584129,0.037875175476074,987.6210327148441,0,13.0,1,1
11.56,0.088143766,-0.14479263,9.76823,0.000452434760518,0.000198313355213,-0.000446189253125,-15.0280256271362,17.719900131225604,-36.3612785339355,-0.010457754135132,-0.011370196938515001,0.037877082824707,987.651611328125,0,13.0,1,1
11.6,0.064273894,-0.15432651,9.7635,5.26799121871591e-05,0.000331516930601,-0.000313151802402,-14.4815158843994,17.2310428619385,-36.878791809081996,0.022182792425156004,0.012158513069153,0.042607307434082003,987.6389770507809,0,13.0,1,1
11.64,0.07864252,-0.13764437,9.772969999999999,-0.00034707528539,0.000464720505988,8.620141306892041e-05,-14.280721664428699,16.5762577056885,-36.9484062194824,0.012454986572266,-0.006720319390297,0.04734611511230501,987.6688842773441,0,13.0,1,1
11.68,0.07628178599999999,-0.14956142,9.768239,0.00018527533393400002,0.0012637138133870002,0.000618712801952,-14.3414554595947,17.415216445922898,-37.450046539306605,0.012065067887306002,-0.0018450319767,0.04734706878662099,987.6691284179691,0,13.0,1,1
11.72,0.08109075,-0.15909524,9.772976,0.000184994307347,0.0008642856264489998,-0.000180355331395,-14.5155649185181,17.1466236114502,-37.0995597839355,0.021304436028004,0.012310162186623001,0.028407096862793,987.65380859375,0,13.0,1,1
11.76,0.07873005,-0.15671273,9.770613,-8.160271681845191e-05,-0.000200932161533,-0.000579949759413,-14.847286224365199,17.626085281372102,-36.9225273132324,0.011456251144408998,0.021818250417709,0.028406143188477,987.64404296875,0,13.0,1,1
11.8,0.08114910000000002,-0.14718033,9.772982,0.00031758972909299996,0.001130692893639,8.57194536365569e-05,-14.6863307952881,17.5131244659424,-36.478816986084,0.006623297929764,-0.002145498991013,0.037872314453125,987.659057617188,0,13.0,1,1
11.84,0.09073788,-0.14003117,9.758780999999999,-0.000747954822145,0.00019863279885599998,0.00035191484494099997,-14.997180938720698,17.2751483917236,-37.1098480224609,0.0016071870923039999,-0.016273930668831003,0.05207729339599599,987.66650390625,0,13.0,1,1
11.88,0.093156934,-0.14479847,9.763518,0.00045018550008499997,-6.76373892929405e-05,0.00035179435508299995,-15.091014862060499,17.187189102172898,-36.9362754821777,0.0012281462550160001,0.002730816602707,0.047341346740723,987.6566772460941,0,13.0,1,1
11.92,0.0812366,-0.1400326,9.770622,5.0430302508175393e-05,0.0013971456792209998,-0.000314115837682,-14.894894599914599,17.634325027465803,-37.14662551879879,0.010354250669479,-0.01620164513588,0.03314208984375,987.6566772460941,0,13.0,1,1
11.96,0.07887589999999998,-0.1447999,9.772992,0.0007159389788280002,0.0008645595517010002,0.00048471131594899996,-14.7102699279785,17.807306289672898,-37.339168548584,0.01004484295845,-0.006376594305038,0.037880897521973,987.636474609375,0,13.0,1,1
12.0,0.07412526,-0.14718388,9.777728999999999,4.986801650375129e-05,0.00046513133565900003,-0.000314356933814,-14.714292526245101,17.4345951080322,-37.0088005065918,0.019622504711151,-0.001704871654511,0.018938064575195,987.663818359375,0,13.0,1,1
12.04,0.086103946,-0.14241804,9.782466000000001,-0.000248783442657,-0.00035936728818300006,0.000120011332911,-15.1737604141235,17.8475933074951,-37.5780372619629,0.009698934853077,-0.0017036646604540002,0.023674011230468996,987.6412963867191,0,13.0,1,1
12.08,0.083743215,-0.15671839,9.763531,1.72511790879071e-05,0.000306467991322,-0.0005458988598550001,-14.844103813171401,17.7349491119385,-37.776218414306605,0.019120410084725,0.021453589200974,0.047334671020508,987.6514282226559,0,13.0,1,1
12.12,0.08138251,-0.14718599999999998,9.770636,-0.0013146097771819997,0.00043967156671,0.000119770353194,-15.3158845901489,18.0302448272705,-37.02793502807621,0.01433702558279,0.016596972942352,0.033125877380371004,987.6287231445309,0,13.0,1,1
12.16,0.08858138,-0.15195324,9.761169,-0.00024962698807900005,-9.29145608097315e-05,-1.35081936605275e-05,-15.400043487548801,17.5828266143799,-37.21974563598629,0.0047722235322,0.0022883862257,0.04259109497070299,987.6234741210941,0,13.0,1,1
12.2,0.09578025,-0.14480413,9.787211,0.00028272339841400006,4.02890145778656e-05,0.000252687197644,-15.1408271789551,17.4563312530518,-36.48244094848629,-0.014386378228664,0.016755416989326997,0.014184951782227,987.628662109375,0,13.0,1,1
12.24,0.079080105,-0.14957143,9.773011,0.00041560031240800004,-0.000225981202675,-0.000146906939335,-14.8443784713745,17.5231151580811,-36.3780632019043,0.014205366373062,0.002546325325966,0.052059173583984,987.628662109375,0,13.0,1,1
12.28,0.086278975,-0.15433867,9.770646000000001,-0.00038362870691300004,0.00043985422235000006,0.000518762099091,-14.7624454498291,17.811128616333,-37.331352233886705,1.78813934326172e-05,-0.0069709867239,0.033119201660156,987.651245117188,0,13.0,1,1
12.32,0.08869806,-0.14957279999999998,9.763548,-0.00011759396875299999,-0.000758521608077,0.000252325611655,-14.9196510314941,18.0849666595459,-36.7072792053223,-0.00941114872694,-0.007043898105620999,0.042581558227539,987.6359252929691,0,13.0,1,1
12.36,0.07480222,-0.14714183,9.77994,-0.00011759396875299999,-0.000758521608077,0.000252325611655,-14.886985778808599,18.2738285064697,-37.108283996581996,0.002083383500576,-0.002400308847427,0.03802299499511701,987.6359252929691,0,13.0,1,1
12.4,0.08431238,-0.14714058,9.770466,0.000148440769408,0.000173629669007,-0.00028042652411400005,-14.9089975357056,18.0952777862549,-37.2484092712402,0.0024110600352290003,-0.002407640218735,0.03802490234375,987.6359252929691,0,13.0,1,1
12.44,0.08187303,-0.13045646,9.76336,-0.000101240875665,-0.00023138220422,0.000131829758175,-14.557766914367699,17.423131942749,-37.0322494506836,0.011790797114372,-0.021466135978698998,0.05223464965820299,987.6134643554691,0,13.0,1,1
12.48,0.07943365,-0.14237167,9.749152,0.00016555184265600002,0.000301172200125,0.00039835000643500005,-15.092536926269501,17.185716629028303,-36.8589668273926,0.007134199142455999,-0.002295076847076,0.061707496643067,987.64111328125,0,13.0,1,1
12.52,0.08894378,-0.1376039,9.75625,0.000432344560977,-0.00023153697839,-0.00093302509049,-15.005739212036099,18.110284805297898,-37.6193046569824,0.002562485635281,-0.002102494239807,0.042776107788086,987.64111328125,0,13.0,1,1
12.56,0.08889431,-0.14951898,9.77755,0.00016650551697200002,-0.00023161439457900003,-7.15081114321947e-07,-15.1427545547485,17.929063796997102,-37.202663421630895,0.002283908426762,0.012006834149360998,0.02857780456543,987.6806640625,0,13.0,1,1
12.6,0.08406508,-0.14236797,9.763342,-0.00023249146761400002,0.000300939835142,-0.000133668712806,-14.7999744415283,16.9857082366943,-37.1233024597168,0.002692140638828,-0.002151176333427,0.04278564453125,987.6396484375,0,13.0,1,1
12.64,0.07206607,-0.14236678,9.768072,-9.88566898740828e-05,-0.001030716812238,0.000266009359621,-14.9841632843018,17.5507831573486,-37.2049674987793,0.003175467252731,-0.011676073074341002,0.052254676818848,987.6396484375,0,13.0,1,1
12.68,0.074406505,-0.14236562,9.765699,-0.0004978536744599999,-0.0007644783472639999,0.000133055902552,-14.7422542572021,17.3560657501221,-37.538787841796896,0.02212131023407,0.0025637000799179997,0.03805732727050799,987.646606445312,0,13.0,1,1
12.72,0.07913685,-0.14236431,9.770431,0.000434728746768,-0.00023192400112700002,0.00039957603439699996,-14.922313690185499,17.1875095367432,-37.578163146972706,0.012858830392361,-0.011818036437035,0.04279232025146499,987.6466674804691,0,13.0,1,1
12.76,0.09342676400000001,-0.1518962,9.768059,-9.74261783994734e-05,-0.00023200138821299999,0.000266622460913,-15.1482992172241,17.5548801422119,-36.794994354248,-0.015816330909729,0.002634644508362,0.028595924377442003,987.6466674804691,0,13.0,1,1
12.8,0.08142778,-0.14951177,9.77989,-9.69493412412703e-05,3.42371058650315e-05,-0.000265804992523,-14.853128433227502,16.6197643280029,-36.939723968505895,0.008234828710556,-0.0075231492519380015,0.028590202331543,987.6566772460941,0,13.0,1,1
12.84,0.08376825,-0.1542771,9.770416,-0.00142805185169,-0.001031103893183,7.15255737304688e-07,-15.129331588745101,17.7304859161377,-36.5002555847168,0.003935046494007,0.011382073163986001,0.042790412902832003,987.633544921875,0,13.0,1,1
12.88,0.08371878,-0.15189259,9.760942,-0.00036231154808800004,-0.0004985494888389999,0.000400393415475,-15.3023242950439,17.9375858306885,-37.024604797363295,0.013571344316006,0.01129874587059,0.061732292175292997,987.6560668945309,0,13.0,1,1
12.92,0.0741097,-0.14712478,9.777510000000001,0.000170797051396,-0.00023231102386500003,0.000533755635843,-14.7779626846313,17.164258956909197,-36.98317337036129,0.013408698141575002,0.015878111124038998,0.014392852783203002,987.6361694335941,0,13.0,1,1
12.96,0.08600974,-0.15665673,9.765669,0.00017127388855400002,0.000167085323483,0.001066591823474,-14.6896724700928,16.8780384063721,-36.749080657959,0.008799530565739,0.0020022392272950004,0.052276611328125,987.646118164063,0,13.0,1,1
13.0,0.07640064,-0.1566555,9.7775,0.000970698369201,-0.0007650975603610001,0.000401006429456,-14.851170539856,17.3592929840088,-37.29124069213871,0.023003101348877005,0.006765246391295999,0.03808021545410201,987.638549804688,0,13.0,1,1
13.04,0.07874110000000001,-0.14712120000000004,9.760925,-0.0006267200806180001,0.000166930665728,0.000134894915391,-14.7688312530518,17.1730976104736,-37.44700241088871,0.008824571967125,0.015966817736626,0.042812347412109,987.638549804688,0,13.0,1,1
13.08,0.07391184599999999,-0.13758685,9.7632885,-0.00022676942171499998,0.0008326429524460001,-0.000264374597464,-14.586706161499,16.9748401641846,-37.386482238769496,0.017966166138648997,-0.017392307519913,0.042821884155274006,987.628784179688,0,13.0,1,1
13.12,0.07864219,-0.14473547,9.760916,-9.313499322161078e-05,0.00043309159809699996,-0.000663644110318,-14.571189880371099,17.6217060089111,-37.7346611022949,0.008489683270454,0.0016893446445470001,0.038091659545899,987.6310424804691,0,13.0,1,1
13.16,0.0905422,-0.14473428,9.770380000000001,-0.000358974037226,3.3540418371558196e-05,0.00026866584084900004,-15.080605506897,18.197927474975604,-37.1509895324707,-0.010546416044235,0.0061000585556030005,0.038091659545899,987.6310424804691,0,13.0,1,1
13.2,0.08571294,-0.14711638,9.758539,-0.000891128845979,-0.0006323266425169999,-0.000130603613798,-14.742391586303699,17.2501544952393,-36.8397102355957,0.003743290901184,-0.013196796178818,0.04756164550781299,987.651245117188,0,13.0,1,1
13.24,0.08805334599999999,-0.14234854,9.768003,-0.000491178652737,0.000566017406527,-0.000263557245489,-14.8120126724243,17.0798435211182,-37.2039375305176,0.0034937486052509996,-0.00863841176033,0.042832374572753996,987.7083129882809,0,13.0,1,1
13.28,0.08800387400000001,-0.14473058,9.760898,-0.0007570178131569999,0.000699097930919,0.000402436824515,-14.7040748596191,16.706853866577102,-37.275730133056605,-0.001182697713375,-0.0137639939785,0.042830467224121004,987.6624145507809,0,13.0,1,1
13.32,0.07686886,-0.1495172,9.768074,-0.0006233831518330001,-0.000366242951714,-0.000396306568291,-15.233980178833,17.1059970855713,-36.909492492675795,0.008802436292171,0.0005827397108080001,0.04283142089843799,987.6624145507809,0,13.0,1,1
13.36,0.08251542,-0.14953835,9.770519,0.000176041328814,-0.00103211007081,0.000269687501714,-14.7158145904541,17.4331226348877,-36.9314956665039,0.016908310353756,0.0053830295801160005,0.023736000061034997,987.6799926757809,0,13.0,1,1
13.4,0.080145836,-0.14000587,9.784725,3.0029856134206104e-05,-0.000895053963177,0.000260569620878,-14.9088916778564,16.9889316558838,-36.87575149536129,0.007142469286919001,-0.004012227058410999,0.028470993041992,987.659057617188,0,13.0,1,1
13.44,0.075386316,-0.15192272,9.765789,2.77736107818782e-05,0.000570049625821,-0.000273029087111,-14.914543151855499,17.721097946167,-36.8407402038574,0.011347465217113998,-0.008546620607376,0.052150726318359,987.641235351563,0,13.0,1,1
13.48,0.07301669999999999,-0.13524027,9.761057000000001,0.000427051854786,0.001102713053115,-0.000139954965562,-14.7724170684814,17.5384426116943,-37.390842437744105,0.025687947869301002,-0.008657023310660998,0.047411918640136996,987.6259765625,0,13.0,1,1
13.52,0.08020669,-0.14477386,9.768161,0.00016054039588199998,-0.0006283083348539999,-0.000539512606338,-15.3560218811035,17.9399318695068,-36.939479827880895,0.016051545739174,0.000917330384254,0.04741001129150401,987.671508789063,0,13.0,1,1
13.56,0.08739668,-0.16145723,9.765794999999999,0.00016054039588199998,-0.0006283083348539999,-0.000539512606338,-15.3560218811035,17.9399318695068,-36.939479827880895,-0.003308676183224,0.019932866096497,0.04267692565918001,987.671508789063,0,13.0,1,1
13.6,0.08263719,-0.15192474,9.758696,-9.38221346586943e-05,0.000282079388853,-4.7012232244014706e-05,-14.818642616272,17.4422397613525,-36.9931678771973,0.001582495868206,0.005717873573303001,0.052144050598144996,987.638305664063,0,13.0,1,1
13.64,0.07548779,-0.14239211,9.763432,3.9139995351433707e-05,-0.000117362709716,-4.70960512757301e-05,-15.1989526748657,17.560174942016598,-36.86448287963871,0.015662215650082,-0.008599951863288999,0.04267501831054701,987.660888671875,0,13.0,1,1
13.68,0.08028787400000001,-0.14239259,9.7681675,0.000305260298774,1.5827012248337303e-05,8.597807027399541e-05,-14.960630416870101,17.730806350708,-37.142143249511705,0.010793596506119,-0.008659794926643,0.037939071655274,987.6361694335941,0,13.0,1,1
13.72,0.08747786,-0.14000978,9.758701,-0.0004938829224559999,1.58587354235351e-05,8.58940184116364e-05,-14.8095121383667,17.451078414917,-37.457000732421896,-0.008342266082764,-0.004016920924187001,0.042669296264649006,987.6586303710941,0,13.0,1,1
13.76,0.080328465,-0.14477684,9.765804,-0.00036092067602999997,1.58904585987329e-05,-0.000180505565368,-14.8059244155884,17.085729598999,-37.5131607055664,0.0013753920793529999,-0.003740772604942,0.047403335571289,987.6409301757809,0,13.0,1,1
13.8,0.08034873,-0.13762756,9.787111,0.00043783127330199997,1.5922239981591698e-05,-0.000180589384399,-14.767010688781701,17.806711196899396,-37.099437713623,0.010191917419434,-0.013217061758041,0.033205032348633,987.6409301757809,0,13.0,1,1
13.84,0.08753878,-0.15192772,9.772910000000001,-0.00022815400734499999,0.0008149016648530002,0.0007514323806389999,-14.8216876983643,17.4392948150635,-36.8385581970215,-0.008573114871979,0.005551621317863001,0.052134513854981,987.6588745117191,0,13.0,1,1
13.88,0.08038935,-0.14477839,9.756342,-0.000361507525668,-0.000383488106309,0.000618190621026,-14.904324531555199,16.9933490753174,-37.1076698303223,0.010453112423420001,0.000789001584053,0.033194541931152,987.675537109375,0,13.0,1,1
13.92,0.08518946,-0.14954539,9.768179,0.00043724454008,0.0009481231682000001,0.000884422683157,-15.1272668838501,17.3636722564697,-36.47910690307621,0.004821471869946,0.005837395787239,0.042673110961914,987.65966796875,0,13.0,1,1
13.96,0.087599665,-0.14477928,9.772916,0.0009696807246660001,0.001214470714331,0.000884338864125,-15.241154670715302,17.8366794586182,-36.797176361084,0.009178839623928,0.006108507514,0.019006729125977,987.65185546875,0,13.0,1,1
14.0,0.094789654,-0.15192972,9.756348,0.000436853501014,0.000548712792806,8.53074016049504e-05,-14.685352325439501,17.8828907012939,-36.6545753479004,0.004124999046325999,0.011154010891914,0.071090698242188,987.65185546875,0,13.0,1,1
14.04,0.09003013,-0.16146328,9.765818,0.000702973688021,0.0012145341606810002,-0.000447408179753,-14.792747497558599,17.8875827789307,-36.4843292236328,-0.010577887296676998,0.011406406760216002,0.04268836975097701,987.676513671875,0,13.0,1,1
14.08,0.09005039999999999,-0.15669723,9.768187,0.000569620169699,0.001081408001482,0.0010172453476120001,-14.8782901763916,17.5446147918701,-37.297908782959,-0.0013130977749819998,-0.007672145962715,0.04742431640625,987.661376953125,0,13.0,1,1
14.12,0.08768079,-0.15669768,9.7823925,3.67928296327591e-05,0.001081439782865,-0.000580733758397,-15.249307632446301,18.1976070404053,-36.509101867675795,-0.00179373472929,0.011353567242622,0.014284133911133002,987.6686401367191,0,13.0,1,1
14.16,0.09248089999999999,-0.1519316,9.770557,0.000569228781387,0.000149365980178,-0.000181343755685,-15.070526123046902,17.3642673492432,-36.718841552734396,-0.006629586219788,0.020923599600791997,0.04742431640625,987.6533203125,0,13.0,1,1
14.2,0.0853315,-0.14001586,9.768191999999999,-0.000363072380424,0.00054887146689,0.00048436206998300004,-14.9546794891357,17.630784988403303,-36.7522850036621,0.007573857903481,-0.017219185829163004,0.047423362731934,987.6560668945309,0,13.0,1,1
14.24,0.08774167,-0.14954938,9.758726,-0.000230110017583,0.000282587425318,8.48043709993362e-05,-14.9472074508667,17.5322284698486,-36.4397315979004,0.0027783513069149996,-0.003118544816971,0.04741859436035201,987.6560668945309,0,13.0,1,1
14.28,0.092541814,-0.13763352,9.746891,-0.00036346365231999995,-0.000250012584729,0.000617352314293,-15.003267288208,17.2692584991455,-36.800628662109396,-0.011426597833633999,-0.007870644330978,0.056884765625,987.6632690429691,0,13.0,1,1
14.32,0.08227563,-0.14953254,9.770498,0.0004352885298430001,-0.000516296713613,8.463673293590551e-05,-14.5812997817993,17.243108749389602,-37.09507369995121,-0.001109480857849,0.0014743357896800002,0.052210807800292997,987.6632690429691,0,13.0,1,1
14.36,0.10138601,-0.14714904,9.772865,-0.0007615903159600001,0.000282400520518,8.529785554856059e-05,-14.7703523635864,17.171625137329098,-37.3696937561035,-0.015581861138344,0.010775312781334,0.028536796569823997,987.6560668945309,0,13.0,1,1
14.4,0.08703768,-0.15429868,9.758661,-0.000490079633892,0.000148399267346,-0.00044510758016300003,-15.343440055847198,17.4775104522705,-36.76039505004879,-0.00118151307106,0.0061584413051609995,0.061680793762207003,987.660766601563,0,13.0,1,1
14.44,0.08941871,-0.13761552,9.763394,-0.0007563100662080001,-0.000384246377507,-4.55970875918865e-05,-14.8447847366333,17.9973239898682,-37.1755867004395,0.0037983357906340004,-0.017746224999428,0.056944847106934,987.660766601563,0,13.0,1,1
14.48,0.07507044,-0.15429820000000002,9.761026,0.000575355021283,0.000148371444084,0.00048707134556,-14.7360057830811,17.8881855010986,-36.7240600585937,0.013361953198909999,0.005786389112473001,0.042737007141113004,987.6936645507809,0,13.0,1,1
14.52,0.091790855,-0.14953147,9.7752285,-0.000622980762273,0.00014835759066,-0.00044499756768300004,-14.791522979736301,17.2569179534912,-36.986503601074205,-0.010377772152424,0.000790029764175,0.028531074523926003,987.67529296875,0,13.0,1,1
14.56,0.08939206599999999,-0.14714791,9.758657000000001,-0.000356579548679,-0.00025113011361099996,0.000753460626584,-14.750406265258801,17.7169971466064,-37.25071334838871,-0.005738049745560001,-0.008921697735785999,0.056936264038086,987.6748046875,0,13.0,1,1
14.6,0.08699328,-0.1423812,9.78233,-0.0007559675723310002,-0.00025114399613799994,0.0010198131203650001,-14.964951515197802,16.7259616851807,-37.2366523742676,0.004400983452797,0.00039668381214099995,0.042724609375,987.6870727539059,0,13.0,1,1
14.64,0.08698439599999999,-0.15191413,9.770493,-9.00924205780029e-05,-0.001050105667673,-0.000444887438789,-14.9299230575562,17.180139541626,-37.1916389465332,-0.00056779384613,0.005203947424888999,0.042728424072266,987.6870727539059,0,13.0,1,1
14.68,0.09414524,-0.15429713,9.77996,4.31512016803026e-05,0.000281459884718,-0.000311692827381,-15.22705078125,17.3757305145264,-36.6953887939453,-0.005275525152683,0.005148336291313,0.01905632019043,987.67431640625,0,13.0,1,1
14.72,0.09413636,-0.15668018,9.761023,-0.00022307911422099998,0.000281446089502,0.000220975547563,-15.1112060546875,17.6422481536865,-36.7288360595703,-0.0050674080848690005,0.010149851441383001,0.042730331420899006,987.6537475585941,0,13.0,1,1
14.76,0.094127476,-0.15667997,9.779959,0.0008422702085230001,-0.00038435758324300006,-0.000444777542725,-14.8436985015869,17.260736465454098,-36.978687286377,-8.39903950691223e-05,0.01504385471344,0.028528213500977,987.6588745117191,0,13.0,1,1
14.8,0.08933884,-0.15191318,9.765755,0.0007091974839570001,-0.00038437143666700003,-0.000444740755484,-14.9686756134033,16.9853916168213,-36.4814109802246,0.005091056227684,-0.004010215401649,0.042729377746582003,987.6729125976559,0,13.0,1,1
14.84,0.09649962,-0.14714648,9.765753,-0.000755454180762,-0.000517543230671,8.792767766863109e-05,-14.9380760192871,17.541070938110398,-36.9035606384277,-0.009242452681065,0.00047324597835500005,0.052195549011231,987.672241210938,0,13.0,1,1
14.88,0.08454123,-0.14952953,9.753917,-8.957879617810251e-05,1.50746200233698e-05,-4.51937085017562e-05,-15.0972099304199,18.2876415252686,-36.9997138977051,-0.009392321109771999,-0.0042533129453659994,0.047463417053223,987.661743164063,0,13.0,1,1
14.92,0.08214247,-0.14476277,9.763384,-8.94933473318815e-05,1.5060650184750598e-05,-0.000710946740583,-15.162700653076199,17.3836917877197,-37.321647644043004,0.014483079314232001,-0.008994892239571,0.033261299133301,987.674438476562,0,13.0,1,1
14.96,0.08213359,-0.15191235,9.782321000000001,-0.000488881603815,1.5046796761453197e-05,-0.00017827819101499996,-15.1109075546265,18.2743854522705,-36.3039665222168,0.010067187249661,0.0049336552619930005,0.03325366973877,987.658569335938,0,13.0,1,1
15.0,0.08451462,-0.1542954,9.772852,0.000443395227194,1.50190317071974e-05,-0.000577678787522,-15.106639862060499,17.6466693878174,-36.960750579834,0.005290679633617,0.009743750095366998,0.042723655700683996,987.6659545898441,0,13.0,1,1
15.04,0.08211583,-0.16382824,9.761014999999999,0.000443395227194,1.50190317071974e-05,-0.000577678787522,-14.6385841369629,17.6107997894287,-36.9537925720215,0.019261099398136,0.009688034653664,0.04746150970458999,987.6659545898441,0,13.0,1,1
15.08,0.08210695,-0.15191163,9.768116000000001,-0.00019232311751700003,0.000679171818774,-0.000110457651317,-14.8864431381226,17.9055347442627,-37.0098304748535,1.9282102584838898e-05,0.018980324268341,0.033257484436035,987.665771484375,0,13.0,1,1
15.12,0.08209807,-0.15667807,9.761013,-0.00019223720300900001,0.000412842084188,-0.0006430527428169999,-14.8744049072266,17.8114032745361,-36.9291954040527,0.004609234631062001,-0.004928141832352,0.037993431091308996,987.665771484375,0,13.0,1,1
15.16,0.0964286,-0.1662109,9.76338,-0.000458467751741,0.000545986054931,-0.000643016188405,-14.9130210876465,17.7225704193115,-36.918041229248,-0.0052065774798390006,0.013962551951408003,0.052195549011231,987.6712036132809,0,13.0,1,1
15.2,0.08447021,-0.14952774,9.775215,-0.0005915401270610001,0.00014649843797100002,-0.000376663520001,-15.2119693756104,17.2845439910889,-36.7693634033203,-0.0049818232655529995,-0.005008444190024999,0.042727470397949,987.6712036132809,0,13.0,1,1
15.24,0.08685124,-0.1495275,9.753909,0.000873282901011,-0.00038614726509,-0.00037662696558999996,-14.9746265411377,17.085412979126,-36.871269226074205,-0.00027459859848,-0.004875436425209,0.05693435668945299,987.656005859375,0,13.0,1,1
15.28,0.08206254,-0.13999419,9.768112,0.0004738946445290001,0.00041278643766400004,-0.00011027429718499999,-14.6419258117676,16.9757175445557,-37.2240562438965,0.004448637366295,1.1190772056579598e-05,0.028531074523926003,987.666137695313,0,13.0,1,1
15.32,0.089223355,-0.14952703,9.765744,0.00034082203637800007,-0.000253017118666,-0.0005097114481030001,-14.892829895019501,17.2675075531006,-37.1254844665527,-0.000384375452995,0.004952415823935999,0.04273796081543001,987.6408081054691,0,13.0,1,1
15.36,0.08682459599999999,-0.13999383,9.772844000000001,0.00034090806730099996,1.32847926579416e-05,-0.0009091483661900001,-14.8542137145996,17.3563442230225,-37.1366310119629,0.009487241506577,-0.004581317305565,0.04273605346679701,987.6480102539059,0,13.0,1,1
15.4,0.0820359,-0.14714344,9.761007000000001,-0.000990586006083,-0.000386202824302,2.2993772290647e-05,-14.8406543731689,17.2636852264404,-37.1332969665527,0.004623785614967,-0.004816547036170999,0.042735099792481,987.6858520507809,0,13.0,1,1
15.44,0.08202702,-0.14237662,9.763374,-0.000324710621499,0.000412730907556,-0.000376443378627,-15.2150135040283,17.2815952301025,-36.614753723144496,0.014024339616299,-0.004834204912186,0.05694007873535201,987.6555786132809,0,13.0,1,1
15.48,0.09157774,-0.14714293,9.758638000000001,0.000474322703667,0.00014640105655399998,0.00042254096479200004,-15.0825634002686,17.4583988189697,-36.7994804382324,-0.005270212888717999,0.009598225355148001,0.042740821838378996,987.6478881835941,0,13.0,1,1
15.52,0.08678907,-0.15905906,9.7704735,0.00047440838534400004,0.0008121770224530002,0.000156261725351,-15.192024230957001,17.8299198150635,-36.6503791809082,-0.009419314563274,0.009794279932976,0.038004875183106,987.6478881835941,0,13.0,1,1
15.56,0.08678019,-0.15667553,9.7704735,0.00020817783661200004,-0.0017178377602249998,-0.000110017484985,-14.789457321167,16.8901042938232,-36.965358734130895,0.004888817667960999,0.009978666901588001,0.03800964355468799,987.6506958007809,0,13.0,1,1
15.6,0.09394097,-0.15190889,9.768105499999999,0.00034142145887,1.32014392875135e-05,-0.00024313863832499998,-14.9455480575562,17.6396198272705,-37.2161140441895,-0.009298495948315002,0.000350743532181,0.038007736206055,987.6708374023441,0,13.0,1,1
15.64,0.09154221400000001,-0.13522573,9.7491665,-0.00019112473819400002,-0.000253128266195,-0.0006425759056579999,-14.7608156204224,16.7062549591064,-37.0359992980957,0.00027887523174299994,-0.018704190850258,0.052211761474609,987.665649414063,0,13.0,1,1
15.68,0.089143455,-0.14714189,9.761002000000001,0.00034159270580900005,0.000146331673022,0.00028956637834200003,-15.2381105422974,17.8396282196045,-36.9517822265625,-0.009166836738586,-0.004393368959427,0.047477722167969,987.657958984375,0,13.0,1,1
15.72,0.08913454400000001,-0.14714162,9.777572,-0.000190953607671,-0.000253156060353,-0.000243028625846,-14.636626243591301,18.350328445434602,-37.305305480956996,-0.004384942352772001,0.005202323198318,0.033275604248047,987.675415039062,0,13.0,1,1
15.76,0.10107519999999999,-0.15429123,9.772836999999999,7.54480715841055e-05,-0.00012001203140200001,-0.00024299195502000003,-15.0265045166016,17.7213764190674,-36.43857955932621,-0.013691477477551001,-0.004320025444031,0.038008689880371004,987.675659179688,0,13.0,1,1
15.8,0.09389663,-0.15905751,9.753898,-0.000190782477148,1.3131997548043699e-05,0.0006891502416689999,-15.1207437515259,18.107614517211896,-37.0625343322754,-0.004023484885693,0.005180209875107,0.07114887237548799,987.675659179688,0,13.0,1,1
15.84,0.07715842,-0.13760795,9.770468,0.00034193496685500004,-0.00038635567762,0.0005560290301219999,-14.9467716217041,18.27028465271,-36.713939666748,0.010367095470429001,-0.018564477562904,0.042744636535644996,987.663330078125,0,13.0,1,1
15.88,0.09148893,-0.15905719,9.768101,-5.7453173212706995e-05,-0.00025321167777300004,0.00042290778947099995,-14.708885192871099,17.702867507934602,-36.7173957824707,0.0006240159273150001,0.009729415178299,0.033272743225098,987.675659179688,0,13.0,1,1
15.92,0.08909017,-0.15429036,9.768099000000001,-0.000589999253862,0.00027940637664899997,-0.00024284515529900003,-14.8672313690186,17.0807132720947,-37.041511535644496,-0.013539083302021,0.005052715539932,0.042742729187011996,987.6503295898441,0,13.0,1,1
15.96,0.091471195,-0.15667345,9.768098,7.58756650611758e-05,1.30764092318714e-05,-0.00024280860088799996,-15.0073986053467,18.0028972625732,-36.842922210693395,-0.003988847136498,0.014399752020836,0.038007736206055,987.6503295898441,0,13.0,1,1
16.0,0.08190268,-0.1471401,9.770464,-0.00019035441801000001,1.3062555808574e-05,-0.000375929870643,-14.759401321411099,17.8140773773193,-37.4859657287598,0.010549388825893,0.000230476260185,0.052211761474609,987.6632690429691,0,13.0,1,1
16.04,0.09384331,-0.14237334,9.749158999999999,0.00047552085015900006,-0.000253267207881,-0.00010957720223799999,-15.0961236953735,17.5510578155518,-36.802806854248,-0.003775671124458,-0.009236052632331999,0.052212715148925996,987.7152709960941,0,13.0,1,1
16.08,0.08427483,-0.15190624,9.775198,0.000342448591255,0.0005456664948719999,-0.000242698588409,-14.738506317138699,17.5169467926025,-36.4709968566895,0.0005057081580159999,0.009895280003548,0.019078254699707,987.674438476562,0,13.0,1,1
16.12,0.09143567,-0.15428932,9.770462,-5.6854099966585595e-05,0.000279322790448,-0.000375783187337,-14.9059534072876,18.0982227325439,-37.403018951416,-0.004164457321167,0.009906888008118,0.028547286987305,987.65380859375,0,13.0,1,1
16.16,0.09142679,-0.144756,9.768094,-5.6854099966585595e-05,0.000279322790448,-0.000375783187337,-14.9059534072876,18.0982227325439,-37.403018951416,-0.0041274279356,-0.009103670716285999,0.042752265930176,987.65380859375,0,13.0,1,1
16.2,0.084248185,-0.15428884,9.763359,-5.6854099966585595e-05,0.000279322790448,-0.000375783187337,-15.094602584838901,17.552537918090803,-36.8801155090332,0.005538679659367,0.005205258727074001,0.056956291198731,987.65380859375,0,13.0,1,1
16.24,0.08184939599999999,-0.1566719,9.772827000000001,0.000875422614627,1.2979144230485001e-05,0.00029007991543,-15.027888298034698,17.825819015502898,-37.0603523254395,-0.004114747047424001,0.005412459373474,0.028553962707520003,987.66845703125,0,13.0,1,1
16.28,0.10330221,-0.15667053,9.753884,0.000875422614627,1.2979144230485001e-05,0.00029007991543,-15.027888298034698,17.825819015502898,-37.0603523254395,-0.018754526972771,0.010464161634445,0.04749965667724599,987.66845703125,0,13.0,1,1
16.32,0.08173394,-0.1423694,9.76098,0.00020980415865799997,0.00081189913908,-0.00010932050645399998,-15.2602596282959,17.555154800415,-36.3928337097168,0.014858946204186001,-0.004080563783646,0.03803634643554701,987.6809692382809,0,13.0,1,1
16.36,0.09845060000000001,-0.15190227,9.76808,-5.60510088689625e-05,-0.000255798455328,-0.00037202774547,-15.233980178833,17.105993270874,-36.9094886779785,-0.013914972543716998,0.010442823171616,0.056980133056641,987.6885375976559,0,13.0,1,1
16.4,0.0793187,-0.15190192,9.763346,7.722916780039671e-05,0.000276813399978,-0.00010565941920499999,-15.1498212814331,17.553411483764602,-36.717689514160206,0.005046933889389,0.005613833665848,0.047512054443359,987.6505737304691,0,13.0,1,1
16.44,0.08408582,-0.14951833,9.758610000000001,-0.000322122417856,0.000276793609373,-0.00010560709051799999,-15.174440383911099,18.1099643707275,-36.9774131774902,0.005355283617973,-0.008753225207329,0.038042068481445,987.6729125976559,0,13.0,1,1
16.48,0.08885288,-0.15428455,9.772812,0.000210631464142,-0.00038901588413899996,-0.00037187058478600006,-15.012943267822301,17.628709793090803,-36.4352531433105,0.005404993891716,0.00552923977375,0.033307075500488,987.6781616210941,0,13.0,1,1
16.52,0.08645034,-0.15666749,9.768075999999999,0.000343911757227,-0.000122719851788,-0.000238660373725,-14.959789276122999,17.9946537017822,-36.618824005127,0.005871817469596999,0.005274161696434,0.03330135345459,987.6651000976559,0,13.0,1,1
16.56,0.09838718,-0.14713414,9.760973,-0.000650841626339,-0.000943110324442,0.000335333112162,-14.885356903076199,17.1689586639404,-36.812931060791,-0.018071718513966,0.00056029856205,0.04277038574218799,987.6705932617191,0,13.0,1,1
16.6,0.08403507,-0.14475052,9.758605000000001,-0.000384403625503,-0.000410498469137,0.00033538555726400003,-14.6106224060059,17.6893329620361,-36.42380905151371,0.005994074046612,-0.013848498463631,0.052238464355469,987.6759643554691,0,13.0,1,1
16.64,0.08880219,-0.15428327,9.775174,-0.000117965508252,0.000255271384958,0.00033543782774400003,-14.817664146423303,17.8120059967041,-37.16892623901371,-0.003536477684975,0.005192697048187,0.019099235534668,987.668090820313,0,13.0,1,1
16.68,0.09834912400000001,-0.15189977,9.772806,0.00081426219549,-0.00014422228559900002,-0.00046345754526599996,-14.779187202453599,17.7949275970459,-36.4809989929199,-0.017807446420193,0.000677660107613,0.028571128845215003,987.6554565429691,0,13.0,1,1
16.72,0.091166735,-0.14951615,9.765703,0.00014859472867100002,-0.000410557957366,-0.000596562866122,-14.545591354370101,17.4349155426025,-37.650691986084,-0.012538358569145,0.0007144659757610001,0.052241325378417997,987.6554565429691,0,13.0,1,1
16.76,0.083984345,-0.1542824,9.777538,0.000148716964759,-0.000943209626712,0.000202437047847,-14.887421607971199,17.5357761383057,-36.834075927734396,0.00200854241848,0.0009386241435999999,0.033305168151856,987.6456909179691,0,13.0,1,1
16.8,0.08636159,-0.13998245,9.763332,1.56811438500881e-05,-0.0013427032390610002,0.000335647375323,-14.8226661682129,17.0695285797119,-36.662803649902294,0.0021627843379970002,-0.0038687288761140005,0.052243232727050996,987.660522460937,0,13.0,1,1
16.84,0.081569105,-0.14474864,9.770433,0.000415277201682,0.000255172199104,-0.000596405938268,-15.0700902938843,18.1023197174072,-36.9930458068848,0.016624256968498,-0.008347138762474,0.038044929504394996,987.6503295898441,0,13.0,1,1
16.88,0.09111601,-0.14713164,9.758596,0.000681715202518,-0.000144321413245,6.94362097419798e-05,-15.1943874359131,17.5645999908447,-37.096397399902294,-0.006854012608528001,-0.003780320286751,0.033304214477539,987.6503295898441,0,13.0,1,1
16.92,0.08632356,-0.14474805,9.777533,-0.000916057848372,-0.00041065714322,-0.00032998528331499997,-14.8953304290771,16.8962726593018,-36.87241744995121,0.007105991244316,0.000823870301247,0.038041114807128996,987.645263671875,0,13.0,1,1
16.96,0.09348056,-0.15666403,9.777531,-0.000383303849958,-0.000277519138763,0.00020269886590499998,-14.315314292907699,16.86012840271,-37.2676200866699,-0.002053521573544,0.010142415761948,0.03803634643554701,987.6477661132809,0,13.0,1,1
17.0,0.10541737,-0.14474745,9.768063,-0.00011686573270700001,-0.000943328661378,0.000735383131541,-14.9827785491943,17.446336746215803,-36.583194732666,-0.015939354896545,-0.009017586708069,0.052235603332519996,987.6703491210941,0,13.0,1,1
17.04,0.08867538,-0.15189691,9.763327,-0.000649375026114,-0.00041071671876100003,-6.35121832601726e-05,-15.077998161315902,17.462816238403303,-37.03139114379879,0.0038167908787729997,-0.004502296447754001,0.047491073608399006,987.6425170898441,0,13.0,1,1
17.08,0.098222315,-0.14236353,9.763326,1.65369128808379e-05,-0.0016091580037029998,-0.00019661767873900004,-15.2194414138794,17.3830966949463,-37.0819129943848,-0.015076734125613998,0.000661283731461,0.04276180267333999,987.6779174804691,0,13.0,1,1
17.12,0.08865005,-0.13759668,9.770425999999999,0.000682448735461,-0.000543914386071,6.97505893185735e-05,-14.923973083496099,17.0801219940186,-36.8017807006836,0.0044219195842740006,-0.008752003312111,0.042760848999024006,987.672729492187,0,13.0,1,1
17.16,0.09341717,-0.14712943,9.760956,0.000149939209223,-0.0005439341766759999,6.98028597980738e-05,-14.5224933624268,16.8768939971924,-37.313663482666,-0.0003379061818120001,0.005570948123931999,0.06170082092285201,987.672729492187,0,13.0,1,1
17.2,0.088624656,-0.14236261,9.763321000000001,-0.000116254552267,-0.000677111907862,0.000469329097541,-15.0162858963013,16.9936275482178,-36.705509185791,-0.00019805133342700002,-0.00418783724308,0.05222988128662099,987.6729125976559,0,13.0,1,1
17.24,0.08622211,-0.13521244,9.760954,-0.000249290256761,0.000254973827396,6.990763358771801e-05,-15.028324127197301,17.087762832641598,-36.7861480712891,0.004733748733997,-0.018141850829125,0.042764663696289,987.685424804688,0,13.0,1,1
17.28,0.10121742,-0.16859438,9.782318,0.000816095503978,-0.000810309546068,-0.00032951380126200003,-14.7194013595581,17.7984714508057,-36.875339508056605,-0.009970858693123,0.029798597097397003,0.019034385681152,987.6425170898441,0,13.0,1,1
17.32,0.09406167,-0.15667836,9.758647999999999,0.000280403881334,-1.0865158401429699e-05,0.00020180665887900004,-14.7642650604248,17.1775150299072,-37.678916931152294,-0.000546365976334,-0.003426611423492,0.042708396911621004,987.693115234375,0,13.0,1,1
17.36,0.08690593,-0.14714561,9.772852,0.000277151819319,0.00025597860803799996,-0.00019906111992900002,-14.6590728759766,17.433721542358402,-37.1712303161621,0.009047366678715,0.005938619375229001,0.037969589233399,987.693115234375,0,13.0,1,1
17.4,0.09408957,-0.14714594,9.75865,-0.000122456927784,-0.000942420971114,0.000333513016813,-14.4120559692383,16.8751354217529,-37.6385154724121,-0.004966102540493,-0.008377984166145,0.047433853149414,987.688232421875,0,13.0,1,1
17.44,0.08454394,-0.14952953,9.782324000000001,-0.000255749095231,-0.000276609440334,-6.601843051612379e-05,-14.9224510192871,17.081590652465803,-36.8790855407715,0.014315746724606001,-0.003882586956024,0.02849006652832,987.6581420898441,0,13.0,1,1
17.48,0.09411749,-0.14476337,9.784692,-0.000122725963593,-0.00040974555304300006,0.0005997136468069999,-14.6812219619751,17.1492519378662,-36.612277984619105,0.005101501941680999,-0.00367546081543,0.023753166198731003,987.675415039062,0,13.0,1,1
17.52,0.08696172,-0.16144665,9.777592,-0.000122725963593,-0.00040974555304300006,0.0005997136468069999,-14.5025472640991,17.4222583770752,-37.194675445556605,0.009608201682568,0.010620608925819001,0.033224105834961,987.675415039062,0,13.0,1,1
17.56,0.08219594,-0.15429719,9.772859,0.000542794936337,-1.0228075552731802e-05,-0.00033250730484699997,-14.8201656341553,17.440767288208,-36.915866851806605,0.014284446835518,0.010745078325272,0.042694091796875,987.6705932617191,0,13.0,1,1
17.6,0.08698964,-0.14953096,9.768125999999999,-0.00025628728326400005,0.0005224255728540001,0.000333224772476,-14.813097953796401,17.8164234161377,-37.400840759277294,0.00500600785017,-0.0036524683237079995,0.028484344482422,987.674194335938,0,13.0,1,1
17.64,0.08700359,-0.14238144,9.75629,-0.00025628728326400005,0.0005224255728540001,0.000333224772476,-14.813097953796401,17.8164234161377,-37.400840759277294,0.0050694644451140004,-0.0036101639270780003,0.047421455383300996,987.674194335938,0,13.0,1,1
17.68,0.08701756599999999,-0.15668143,9.751555999999999,-0.00038971437607,-1.01625337265432e-05,0.000865741283633,-14.892531394958501,17.899644851684602,-36.700611114502,0.005087099969387001,0.010629564523697,0.061622619628906,987.6708984375,0,13.0,1,1
17.72,0.08942145,-0.15668182,9.765761999999999,9.6253352239728e-06,-0.00027645661612,6.67359563522041e-05,-14.9902515411377,17.5448932647705,-36.8957481384277,0.005312822759151,0.015545964241028,0.04741764068603501,987.678588867188,0,13.0,1,1
17.76,0.08465558,-0.14953236,9.775232,0.001607385696843,-0.0009422244620510002,-0.00019963760860299996,-14.814076423645,17.4466571807861,-37.2250862121582,0.014923408627510001,0.0017135590314870002,0.033220291137695,987.678588867188,0,13.0,1,1
17.8,0.101398855,-0.1519159,9.765764,-0.000789591460489,0.0006556925945919999,0.000732410349883,-14.5101566314697,17.414888381958,-36.8081512451172,-0.009172648191452,-0.008648008108139,0.037941932678223,987.6734008789059,0,13.0,1,1
17.84,0.077513814,-0.15191625,9.756297,-0.0011892000911760002,0.000522556656506,6.65630213916302e-05,-15.0804986953735,17.0915851593018,-36.7783317565918,3.74466180801392e-05,0.014994218945502999,0.037940979003906,987.637084960937,0,13.0,1,1
17.88,0.09425706,-0.16383298,9.756298,0.000142244971357,0.000788894307334,0.00019966333638900003,-14.989410400390598,17.8087368011475,-36.3724250793457,-0.000105857849121,0.015026703476906,0.052145004272461,987.6591186523441,0,13.0,1,1
17.92,0.094271034,-0.13761729999999997,9.763401,0.00054158444982,-0.000276347389445,-0.00019986811094000002,-14.8169612884521,17.969934463501,-35.946525573730504,-0.014558345079421999,-0.013261824846268,0.037945747375488,987.6537475585941,0,13.0,1,1
17.96,0.089505166,-0.14238419,9.763402000000001,-0.000390655943193,0.000655780022498,0.000332706025802,-14.8510103225708,17.8855152130127,-36.167293548584,0.004405342042446,-0.013466194272041,0.052146911621094,987.7141723632809,0,13.0,1,1
18.0,0.0847393,-0.15430088,9.772872,-0.00039079028647400003,0.00012317014625299997,0.000199490343221,-14.4049644470215,17.6710987091064,-36.300464630127,0.009099364280701001,-0.004135236144066,0.037940025329589996,987.635375976562,0,13.0,1,1
18.04,0.08236337,-0.14953472,9.761038000000001,-0.00025776703842,0.0002563498565,0.00019943271763599998,-14.398334503173801,17.3086948394775,-36.5112342834473,0.008859716355801,-0.009134441614151,0.04267024993896499,987.6884765625,0,13.0,1,1
18.08,0.0775975,-0.14715178,9.782345,-0.000269110547379,0.000545717542991,-4.6927540097385604e-05,-15.104277610778801,17.9119892120361,-36.514732360839794,0.013240173459053003,0.005169838666915999,0.028469085693358997,987.6630249023441,0,13.0,1,1
18.12,0.08478117,-0.14238556,9.772876,-0.000136087299325,0.00041258145938599997,8.61726584844291e-05,-14.492712020874,17.5890293121338,-36.436107635498,0.017806008458138,-0.004646092653274999,0.03793525695800799,987.653198242188,0,13.0,1,1
18.16,0.0800153,-0.15430225,9.761042,-0.00093516940251,0.001344708842225,0.0006187469116410001,-14.8338623046875,17.4275074005127,-36.220119476318395,0.016910575330258,0.00014336407184600003,0.042675971984863004,987.6702270507809,0,13.0,1,1
18.2,0.08719897,-0.14715279999999997,9.763411,-0.00026951439212999996,0.001611046725884,-0.000446574471425,-15.0569648742676,17.2716083526611,-36.7155113220215,0.002172909677029,-0.00010073184967000002,0.061612129211425996,987.6627807617191,0,13.0,1,1
18.24,0.08713439,-0.14000143,9.765771,-3.33297066390514e-06,0.0008121207356449999,-0.000180316215847,-14.6170082092285,17.0513019561768,-36.5394630432129,0.002040572464466,-0.009646221995354,0.019003868103027,987.6680297851559,0,13.0,1,1
18.28,0.08467519,-0.15668257,9.768132000000001,-0.00040294090285900003,0.000545826740563,-0.0007130054873410001,-14.7937259674072,17.5178241729736,-36.30857467651371,0.002225488424301,0.009464889764785999,0.033220291137695,987.6729125976559,1,1.0,2,2
18.32,0.094242424,-0.16144939,9.775234,0.000264673377387,-0.00038633070653300007,-0.000181889976375,-14.901119232177699,17.522516250610398,-36.1383285522461,-0.007288947701454,0.023838698863982995,0.037954330444336,987.6728515625,1,1.0,2,2
18.36,0.103809655,-0.14238329,9.782337,-0.000134686357342,-0.000918980978895,0.00021763273980500002,-15.1616992950439,18.173761367797898,-35.6743774414062,-0.016756795346736998,-0.019170671701431,0.042683601379394996,987.6853637695309,1,1.0,2,2
18.4,0.08708793,-0.1447668,9.761032,-0.000267917755991,0.00014629447832700002,8.44433670863509e-05,-14.630270004272498,17.7760944366455,-36.117919921875,-0.002224482595921,-0.0050297677516940005,0.047414779663086,987.710693359375,1,1.0,2,2
18.44,0.08470562,-0.14953358,9.768135000000001,-0.00013483327347799999,0.00041262229206,-0.000315061886795,-14.588748931884801,17.7619647979736,-35.584602355956996,0.0025176480412479997,-0.0052159577608109995,0.033207893371582,987.6853637695309,1,1.0,2,2
18.48,0.09188294400000001,-0.14953370000000002,9.772869,-0.000134906498715,-0.000918945181184,-4.87774377688766e-05,-14.684947013855,17.4086818695068,-35.8570442199707,-0.00197022408247,0.009358704090117999,0.033208847045899,987.660034179688,1,1.0,2,2
18.52,0.07516125,-0.14476739,9.756300999999999,-1.8218997865915298e-06,-0.000519459485076,0.000350664922735,-14.7723960876465,17.9587497711182,-35.567817687988295,0.022067256271839003,-0.009818091988564,0.061611175537109,987.677856445313,1,1.0,2,2
18.56,0.07994866,-0.15906714,9.758668,-0.000135053182021,-0.0003862896119240001,0.00021747557912,-14.3458604812622,17.9370098114014,-36.094181060791,0.00783334672451,0.008848324418068002,0.04740047454833999,987.675415039062,1,1.0,2,2
18.6,0.08712596,-0.15430082,9.763404,-0.000401442521252,-0.000253119767876,-4.88717341795564e-05,-14.262977600097699,17.3825283050537,-36.1514930725098,0.00802955031395,0.009109750390053002,0.042667388916016,987.6777954101559,1,1.0,2,2
18.64,0.09430331,-0.1566843,9.784709,0.000930063659325,-0.00038626580499099997,-0.00044837710447600003,-14.7432098388672,17.406610488891598,-35.540008544921896,-0.006610624492168001,0.013782843947411,0.028464317321777,987.6701049804691,1,1.0,2,2
18.68,0.087141216,-0.15430118,9.775241000000001,-0.000667905202135,0.00027953577227900005,8.4223342128098e-05,-13.9402523040771,17.0001468658447,-36.5637702941895,0.007649183273315,0.004131510853767,0.033197402954102,987.655151367188,1,1.0,2,2
18.72,0.07997912,-0.14238505,9.777609,-0.000401662429795,0.000945337407757,-0.000714755849913,-14.892669677734402,17.7937259674072,-36.001533508300795,0.007569499313831,-0.014801338315010001,0.033200263977051,987.6830444335941,1,1.0,2,2
18.76,0.09432611,-0.1686012,9.768141,-0.000401736004278,-0.00038623006548699993,-0.000182155519724,-14.3980369567871,17.9408359527588,-36.0863609313965,-0.006637617945671,0.017768874764443,0.0521240234375,987.685302734375,1,1.0,2,2
18.8,0.08238423,-0.14715196,9.772876,-0.000401736004278,-0.00038623006548699993,-0.000182155519724,-14.745138168334998,17.879343032836896,-36.260227203369105,0.0034924522042270004,-0.00646761059761,0.01423454284668,987.685302734375,1,1.0,2,2
18.84,-0.10641038400000001,-0.12570252,9.855728,-0.0009345144499089999,-0.001051995903254,-0.0007148501463230001,-14.632495880127001,17.6166934967041,-37.2630157470703,0.128326088190079,-0.006615847349166999,0.004560470581055,987.6448364257809,1,1.0,2,2
18.88,0.5030222,-0.48557782,9.919642999999999,-0.060589343309403,-0.029947256669402,-0.13773441314697302,-15.173055648803699,18.0055179595947,-36.355640411377,-0.443205922842026,0.056314185261726,-0.200383186340332,987.6473999023441,1,1.0,2,2
18.92,0.046558499999999996,-0.23533376,9.858097,-0.184559464454651,-0.016365135088563,-0.162368655204773,-15.0205526351929,17.6213474273682,-36.04872512817379,-0.045590475201607,-0.06016367673873901,-0.019081115722656004,987.568969726562,1,1.0,2,2
18.96,0.19712996,-0.6833903,10.004864,-0.306399017572403,-0.010639332234859999,0.16932775080204002,-15.271158218383801,18.545274734497102,-35.5252799987793,0.328309655189514,0.292800426483154,-0.24037742614746102,987.59423828125,1,1.0,2,2
19.0,0.503045,-0.67147416,9.647416999999999,-0.4274396598339079,-0.5264931917190551,-0.077813424170017,-16.4320335388184,18.3537158966064,-35.2582015991211,0.152377486228943,-0.346159756183624,0.009186744689941,987.60693359375,1,1.0,2,2
19.04,0.38594747,-0.8406870999999999,9.735004,-0.6496803760528559,-0.707188427448273,-0.21216981112957,-16.9416942596436,19.9303607940674,-34.3481063842773,0.029408514499663998,0.24230015277862502,0.162272453308106,987.6448364257809,1,1.0,2,2
19.08,0.921293,-1.0170499,9.903075999999999,-0.6225162148475649,0.12385023385286302,-0.20058512687683103,-17.4065456390381,20.4953937530518,-33.3857231140137,-0.214695751667023,-0.53874534368515,-0.305618286132812,987.664672851563,1,1.0,2,2
19.12,0.58193463,-1.1600468000000002,9.668724000000001,-0.7155936956405641,0.33756875991821306,-0.182342514395714,-16.6402206420898,21.1599216461182,-32.9268226623535,-0.23698461055755604,-0.24850428104400601,0.028627395629883,987.68017578125,1,1.0,2,2
19.16,0.20672762,-2.1824732000000004,9.562201,-0.835569024085999,-0.268166720867157,0.32885080575943,-16.4988613128662,22.766290664672898,-31.4259300231934,0.31739154458046,0.118153929710388,0.06105136871337901,987.70263671875,1,1.0,2,2
19.2,0.0012036561999999998,-2.5232822999999995,9.550365,-0.8672607541084291,0.39828878641128496,0.279316008090973,-15.8519706726074,23.529649734497102,-30.8774223327637,0.11829717457294502,0.039732217788696,0.46510696411132796,987.68994140625,1,1.0,2,2
19.24,-0.08749938,-2.2444319999999998,9.654497000000001,-0.803611397743225,0.6466283202171329,0.043892748653889,-14.4778280258179,23.710340499877898,-31.4076805114746,0.043894037604332,-0.16772627830505402,0.22194576263427698,987.662231445312,1,1.0,2,2
19.28,-0.03731525,-2.8474014,8.81414,-0.683768630027771,0.124782271683216,0.026182999834418,-14.347283363342301,24.780176162719698,-30.4896049499512,0.049109287559986,-0.24937176704406697,-0.327967643737793,987.695068359375,1,1.0,2,2
19.32,-0.9622110999999999,-3.197743,9.157384,-0.657800734043121,0.38830152153968794,-0.143725678324699,-14.488023757934599,24.858385086059602,-29.317726135253896,0.820151329040527,-0.454516649246216,3.07904863357544,987.707763671875,1,1.0,2,2
19.36,0.80153275,-3.0738125,9.607151,-0.657800734043121,0.38830152153968794,-0.143725678324699,-14.488023757934599,24.858385086059602,-29.317726135253896,0.21171143651008603,-0.22576594352722198,-0.9459438323974609,987.707763671875,1,1.0,2,2
19.4,1.4396327,-3.5099525000000003,9.363329,-0.657800734043121,0.38830152153968794,-0.143725678324699,-14.488023757934599,24.858385086059602,-29.317726135253896,-1.2083113193512,-0.076345443725586,0.03631019592285201,987.707763671875,1,1.0,2,2
19.44,-0.34801772,-4.0581064,8.198666000000001,-1.01040279865265,0.033036101609469,-0.48327830433845503,-17.9404182434082,25.9440517425537,-27.001628875732397,-0.12069816887378698,-0.005167007446289001,-0.068800926208496,987.687255859375,1,1.0,2,2
19.48,-0.05406362,-4.327417,9.299414,-1.2506197690963703,1.06727385520935,0.12165816873312,-17.028762817382802,26.9550952911377,-26.123489379882802,0.44415220618248,0.05425453186035201,-0.6219778060913089,987.6875610351559,1,1.0,2,2
19.52,0.5386283000000001,-4.706358,8.352533,-0.7186537384986881,0.100946649909019,-0.271290898323059,-17.211217880249,27.494691848754897,-24.9721832275391,-0.369732618331909,-0.09082889556884802,0.052190780639649006,987.68212890625,1,1.0,2,2
19.56,0.36177170000000003,-4.877954,8.3833065,-0.940361678600311,0.14582087099552202,-0.28420722484588595,-17.2419128417969,28.2555103302002,-24.0111770629883,-0.33887997269630393,0.025415420532227,0.19773387908935602,987.6923828125,1,1.0,2,2
19.6,0.117997915,-4.9280029999999995,8.430651,-0.75287526845932,-0.107711859047413,0.18930245935916898,-17.339797973632802,29.16428565979,-23.317916870117198,0.05596425384283099,-0.430515289306641,-0.19398307800293,987.671997070312,1,1.0,2,2
19.64,-0.09709704,-4.9637513,8.132382000000002,-0.683100461959839,-0.483749866485596,0.7379131913185121,-16.9450588226318,30.0338153839111,-22.544303894043,0.17276661098003399,-0.088502407073975,0.14997005462646498,987.6973266601559,1,1.0,2,2
