Timestamp,Ax,Ay,Az,Gx,Gy,Gz,Mx,My,Mz,LiAx,LiAy,LiAz,P,Value,Type,GroupType,Activities
0.0,0.05528024,-0.16944022,9.767114,-0.00011225591879338025,-0.00440478790551424,0.00027238624170422554,-4.511577606201172,21.238679885864254,-37.68195343017578,0.004214253276586533,0.011377260088920592,0.067779541015625,987.774658203125,0,13.0,1,1
0.04,0.06719804,-0.15990634,9.790783,-0.00011225591879338025,-0.00440478790551424,0.00027238624170422554,-4.511577606201172,21.238679885864254,-37.68195343017578,1.2128435373306274,1.8134976625442505,-0.2036600112915039,987.774658203125,0,13.0,1,1
0.08,0.06716633,-0.16705541,9.757639,0.0004203636199235916,0.0009215315803885461,0.00013922306243330243,-7.230377674102782,20.95729255676269,-36.16874694824219,1.196876883506775,1.819505333900452,-0.16968727111816406,987.8715209960938,0,13.0,1,1
0.12,0.06474471,-0.14798845,9.764738000000001,-0.00010276323882862926,-0.00027688220143318176,0.00041228000191040337,-6.705580234527588,20.922025680541992,-36.40152359008789,1.204634189605713,1.797052979469299,-0.18779563903808594,987.719970703125,0,13.0,1,1
0.16,0.06949279,-0.1527542,9.767101,0.0008296478190459311,-0.0010758794378489256,-0.00012022082228213547,-7.517831325531006,20.793432235717773,-36.037879943847656,1.1973052024841309,1.8081862926483157,-0.18217182159423828,987.7498779296876,0,13.0,1,1
0.2,0.059901446,-0.16466983,9.762363,0.00043047970393672585,0.00025565031683072453,0.0005456998478621244,-7.640307903289795,20.889314651489254,-35.793670654296875,1.2095149755477903,1.8045203685760496,-0.1670522689819336,987.7501220703124,0,13.0,1,1
0.24,0.07420921,-0.15513588,9.783667,-0.00023500382667407396,-0.00014387312694452706,0.00014635710977017882,-7.342773914337157,20.21951484680176,-35.49238586425781,1.1880184412002563,1.8009648323059082,-0.19452953338623047,987.7520751953124,0,13.0,1,1
0.28,0.06939769,-0.1599017,9.750523,0.0008305651717819272,-0.00041023860103450716,-0.0002529857447370887,-6.982518196105957,20.66255760192871,-36.11271667480469,1.195413589477539,1.7927000522613523,-0.16523361206054688,987.7167358398438,0,13.0,1,1
0.32,0.059806347,-0.16466744,9.771825,-0.00023439287906512618,-0.0004102882230654359,0.0002797769848257303,-7.531934261322021,21.25438117980957,-36.13966369628906,1.2026429176330566,1.7983890771865845,-0.18320369720458984,987.775146484375,0,13.0,1,1
0.36,0.06933427,-0.16228344,9.762353,0.0002985443570651114,-0.0002771799336187541,0.0005462239496409893,-7.3878822326660165,20.599000930786133,-35.96954345703125,1.1907844543457031,1.804215788841248,-0.1680622100830078,987.7444458007812,0,13.0,1,1
0.4,0.07169244,-0.1622826,9.776553999999999,-0.0001006239908747375,-0.0010761772282421589,1.3723154552280905e-05,-7.35687780380249,20.680471420288086,-35.59416961669922,1.1884667873382568,1.795824646949768,-0.1908092498779297,987.7620239257812,0,13.0,1,1
0.44,0.06965023,-0.15275808,9.76475,0.000299155421089381,0.000255352642852813,1.3854063581675293e-05,-6.9299068450927725,21.396787643432614,-36.39473724365234,1.1764657497406006,1.768250823020935,-0.16144466400146484,987.7420043945312,0,13.0,1,1
0.48,0.055681407,-0.15753372,9.774252,0.0001644888543523848,0.00038875540485605603,0.0004126812564209104,-7.181246280670166,20.950529098510746,-36.02195739746094,1.1970646381378174,1.7644027471542358,-0.1841974258422852,987.739013671875,0,13.0,1,1
0.52,0.07479939,-0.15038384,9.764782,0.0002923240535892546,-0.0001430122065357864,-0.00025538948830217123,-7.65441083908081,21.35026359558105,-35.89544677734375,1.1658462285995483,1.7700339555740356,-0.17374134063720706,987.7643432617188,0,13.0,1,1
0.56,0.06284857,-0.15515037,9.778985,0.00029233662644401187,-0.00014301418559625745,0.00027724745450541377,-7.551444530487059,21.447065353393555,-36.53285217285156,1.182457685470581,1.7568427324295044,-0.18226909637451166,987.7265014648438,0,13.0,1,1
0.6,0.062847316,-0.15038373,9.769517,-0.0005065989098511636,-0.0004093320458196104,-0.00038853706791996956,-7.361006736755371,21.41410255432129,-35.63645935058594,1.1751099824905396,1.7575496435165403,-0.16705322265625,987.7465209960938,0,13.0,1,1
0.64,0.07718545,-0.14561717,9.771883,2.604484325274825e-05,-0.0002761760842986405,-0.0006548477103933692,-7.196328639984131,21.041711807250977,-35.94798278808594,1.1626938581466677,1.7391405105590818,-0.1659984588623047,987.7540893554688,0,13.0,1,1
0.68,0.06523466,-0.16230012,9.755314,0.00015921524027362466,0.0002564536989666521,-0.0002553685335442424,-6.832079887390138,20.645204544067386,-35.826942443847656,1.1745471954345703,1.7589800357818604,-0.1602783203125,987.759521484375,0,13.0,1,1
0.72,0.060453594000000006,-0.15753348,9.769517,-0.00037340429844334716,-0.00014302210183814168,0.0002772683510556817,-7.2530694007873535,21.04111671447754,-35.708251953125,1.1717231273651123,1.7499635219573977,-0.16867733001708984,987.7467651367188,0,13.0,1,1
0.76,0.07001194,-0.1503836,9.771883,2.6081514079123732e-05,-0.00014302408089861274,-0.00012220023199915886,-7.934254646301269,21.19376564025879,-36.15110778808594,1.159453272819519,1.7457480430603027,-0.16289520263671875,987.7261352539062,0,13.0,1,1
0.8,0.055671215,-0.1623,9.776619,-0.00024022191064432266,-0.0008088157628662884,0.0004104367690160871,-7.4270405769348145,20.87844657897949,-36.05684661865234,1.1806679964065552,1.746430516242981,-0.1666116714477539,987.7467651367188,0,13.0,1,1
0.84,0.06044978,-0.15515013,9.769516000000001,2.61064269579947e-05,0.0013217092491686346,0.00041044209501706064,-7.20448112487793,21.402639389038086,-35.65990829467773,1.1632438898086548,1.7373900413513184,-0.1465740203857422,987.7283935546876,0,13.0,1,1
0.88,0.053278804000000006,-0.16229995,9.767149,0.0002924341824837029,0.00025644374545663595,1.097354106605053e-05,-7.0663795471191415,20.847280502319336,-35.87964630126953,1.16990327835083,1.7331204414367676,-0.16917705535888672,987.7514038085938,0,13.0,1,1
0.92,0.06283715,-0.15515001,9.786087,0.0006919202278368175,-0.00040934790740720933,0.0001441367203369737,-7.056566715240479,20.5937442779541,-36.9441032409668,1.1484839916229248,1.7292386293411257,-0.17771530151367188,987.7689819335938,0,13.0,1,1
0.96,0.05805608599999999,-0.1575333,9.760047,0.00015930103836581108,-0.0013414554996415973,0.0002772998414002359,-7.1094231605529785,20.85993766784668,-36.33566284179688,1.164917230606079,1.7202885150909424,-0.15775299072265625,987.7589721679688,0,13.0,1,1
1.0,0.058054805,-0.15991660000000002,9.771883,0.00015931302914395928,-0.0008088257163763046,0.0005436210194602609,-7.412639617919923,21.04963493347168,-35.53019332885742,1.1529591083526611,1.7301127910614014,-0.15672016143798828,987.7561645507812,0,13.0,1,1
1.04,0.07000306,-0.15038337,9.764782,0.00015931302914395928,-0.0008088257163763046,0.0005436210194602609,-7.30318021774292,20.67812156677246,-35.67929077148437,1.1407787799835205,1.6971385478973389,-0.15094375610351562,987.7561645507812,0,13.0,1,1
1.08,0.055662394000000004,-0.15753324,9.762414999999999,-0.0006396226235665381,-0.00014303799252957106,-0.00012216356117278335,-7.744658946990968,20.89695930480957,-35.778038024902344,1.152137041091919,1.7214168310165403,-0.15933704376220706,987.7383422851562,0,13.0,1,1
1.12,0.04849139,-0.15276663,9.764782,0.0001593377091921866,-0.0004093558236490935,-0.0005216320278123021,-7.646258354187013,20.989336013793945,-36.18352127075195,1.1587380170822144,1.702706813812256,-0.16298675537109375,987.74853515625,0,13.0,1,1
1.16,0.06521946,-0.16468303,9.769515,0.000611139927059412,-0.0005988719640299678,-0.0003968642558902502,-7.228312969207764,20.590478897094727,-36.147605895996094,1.1415424346923828,1.7175142765045166,-0.17141056060791016,987.7113037109376,0,13.0,1,1
1.2,0.060438365,-0.15514983,9.76478,0.0006111519178375603,-0.000332558061927557,0.0001357726869173348,-7.316601753234862,20.87669563293457,-36.38169860839844,1.1435511112213137,1.7084177732467651,-0.1514301300048828,987.7587280273438,0,13.0,1,1
1.24,0.058047205,-0.15991636,9.769514,-5.462509579956532e-05,-0.0007320338627323508,2.620043233036995e-06,-7.1842899322509775,20.947580337524414,-35.867347717285156,1.1452137231826782,1.6991602182388306,-0.14558792114257812,987.7405395507812,0,13.0,1,1
1.28,0.06282574,-0.15991636,9.76478,0.0006111765978857875,-0.00019940410857088864,-0.0003968486562371254,-7.4354920387268075,20.607236862182614,-36.193641662597656,1.132814884185791,1.6897886991500854,-0.14923381805419922,987.748779296875,0,13.0,1,1
1.32,0.06760424400000001,-0.16468294,9.760046,-0.00018775905482470992,-6.62481033941731e-05,0.0005352621665224434,-6.9414024353027335,21.12263298034668,-36.37692260742188,1.115359902381897,1.6896599531173706,-0.14806747436523438,987.7437133789062,0,13.0,1,1
1.36,0.055653483,-0.16229953,9.771881,-5.458854138851166e-05,0.0003332236956339329,0.00026895155315287406,-7.448753833770753,21.332033157348636,-35.7721061706543,1.1315983533859253,1.6947904825210571,-0.16121482849121094,987.7589721679688,0,13.0,1,1
1.4,0.06521183,-0.14561658,9.781350999999999,-0.0003208923153579235,-0.000998357660137117,-0.0001305170590057969,-7.332365036010742,21.23025703430176,-35.70709991455078,1.1143605709075928,1.6713058948516846,-0.1554250717163086,987.7383422851562,0,13.0,1,1
1.44,0.07183948,-0.1479866,9.762363,0.0003449094947427511,-0.0003325699362903833,0.000268962059635669,-7.314919471740723,21.404390335083008,-35.33505630493164,1.1069093942642212,1.6523588895797732,-0.14478111267089844,987.748779296875,0,13.0,1,1
1.48,0.045527785999999994,-0.16228564,9.781299,0.0007443957729265094,-6.625609239563346e-05,2.6514753699302673e-06,-7.292663097381593,20.5825138092041,-35.52134704589844,1.1280417442321775,1.6617634296417236,-0.1578693389892578,987.7411499023438,0,13.0,1,1
1.52,0.05506456,-0.16228513,9.771828,0.00021588103845715525,-0.0005979778943583369,0.00027335106278769666,-7.257497787475586,21.14261054992676,-36.1754150390625,1.1201670169830322,1.6810505390167236,-0.16150856018066406,987.7158813476562,0,13.0,1,1
1.56,0.06699121,-0.15990128,9.778928,-0.00018337287474423647,0.00033409197931177914,7.1294489316642284e-06,-7.25459098815918,21.039644241333008,-35.63094711303711,1.1169095039367676,1.6668932437896729,-0.15091514587402344,987.7413940429688,0,13.0,1,1
1.6,0.059798658,-0.14798437,9.783661,0.00048263708595186467,6.774035864509642e-05,0.0002735396847128868,-7.61122989654541,21.44352149963379,-36.13851165771485,1.1090165376663208,1.6433926820755005,-0.14510726928710938,987.7462158203124,0,13.0,1,1
1.64,0.05977583,-0.15513356,9.762354,-4.977465141564608e-05,-0.00033176917349919677,0.0001404760405421257,-7.209208011627197,20.87200355529785,-36.551944732666016,1.115587830543518,1.6476992368698118,-0.14392852783203125,987.7383422851562,0,13.0,1,1
1.68,0.057363122999999995,-0.14798321,9.769453,-4.9554742872715e-05,-0.0009975945577025414,-0.0005252192495390774,-7.120918273925781,20.585783004760746,-36.317848205566406,1.1078310012817385,1.6285192966461182,-0.1428079605102539,987.7408447265624,0,13.0,1,1
1.72,0.05256045,-0.15751578,9.788387,-4.9334485083818436e-05,-0.0004649985930882394,-0.00025880907196551556,-7.2951340675354,21.423540115356445,-36.34001922607422,1.104843258857727,1.6431480646133425,-0.16543006896972656,987.7408447265624,0,13.0,1,1
1.76,0.06209725,-0.14559878,9.764714,-0.0003154304577037692,-0.0005981922149658202,-0.0005250307731330395,-7.527070045471191,21.89093589782715,-35.94670867919922,1.1016888618469238,1.6380872726440432,-0.14533042907714844,987.7715454101562,0,13.0,1,1
1.8,0.05251482,-0.15513135,9.769446,0.0003505792701616884,-0.0007313858950510621,-0.00039177841972559685,-7.639328956604004,21.25907325744629,-35.96942138671875,1.1079546213150024,1.623878836631775,-0.1205425262451172,987.7434692382812,0,13.0,1,1
1.84,0.05488184,-0.14559777,9.776545,8.448364678770304e-05,0.0009996317094191909,-0.000524842063896358,-7.396578311920166,21.32821083068848,-35.77992248535156,1.0995002985000608,1.6137927770614624,-0.1429586410522461,987.7510375976562,0,13.0,1,1
1.88,0.059638828,-0.14559717,9.762341000000001,-0.0008474020287394524,-6.566764204762876e-05,-0.00012527394574135542,-7.47617244720459,20.885217666625977,-36.20363998413086,1.0917105674743652,1.608540415763855,-0.13232707977294922,987.73583984375,0,13.0,1,1
1.92,0.050056397999999995,-0.14321329,9.745768,-0.0005808660062029957,-0.0005983351729810237,0.0002742942306213081,-7.542343616485597,20.24363899230957,-35.924949645996094,1.0933732986450195,1.598902463912964,-0.1122760772705078,987.7515869140624,0,13.0,1,1
1.96,0.057203292999999995,-0.15751238,9.774172,8.514383807778358e-05,-0.0005983707960695027,-0.0010571910534054039,-7.403805732727051,20.42633628845215,-36.41889190673828,1.0900919437408447,1.6034438610076904,-0.1442699432373047,987.766357421875,0,13.0,1,1
2.0,0.06196025,-0.15036203,9.757599,-0.000979899661615491,6.738310912624002e-05,-0.0006576228188350798,-7.450573921203612,20.69841957092285,-36.11967468261719,1.0721328258514404,1.5838783979415894,-0.1146392822265625,987.71533203125,0,13.0,1,1
2.04,0.054767698,-0.16704436,9.774168,8.55838879942894e-05,-0.00046528436359949415,-0.00025805458426475525,-7.353396892547607,21.421464920043945,-36.022987365722656,1.0836427211761477,1.6027536392211914,-0.1277599334716797,987.7230834960938,0,13.0,1,1
2.08,0.057134777000000005,-0.15274416,9.750494,-0.00018051185179501767,6.731168832629919e-05,-0.0001248023472726345,-7.58204460144043,20.891382217407227,-36.11070251464844,1.0752900838851929,1.5879894495010376,-0.12182140350341795,987.7710571289062,0,13.0,1,1
2.12,0.07862109,-0.15036029999999997,9.774164,-0.0003134496510028839,0.00046674974146299053,8.449889719486238e-06,-6.934365272521973,20.28602409362793,-35.7901611328125,1.0571142435073853,1.5873404741287231,-0.12529563903808594,987.750732421875,0,13.0,1,1
2.16,0.06903857,-0.15512635,9.76706,-0.0011121773859485984,0.00020039817900396883,0.0008074918296188116,-7.1063785552978525,20.862882614135746,-36.490272521972656,1.0490455627441406,1.5914533138275146,-0.10990142822265624,987.7261352539062,0,13.0,1,1
2.2,0.0690158,-0.1503592,9.769424,-0.00031300960108637815,0.0012656259350478651,8.638598956167698e-06,-7.603214740753174,20.9766788482666,-35.727508544921875,1.0596199035644531,1.5625226497650146,-0.12764358520507812,987.7462158203124,0,13.0,1,1
2.24,0.06899294,-0.15274189999999999,9.762321,-0.00031278934329748154,-0.00033230509143322706,8.732895366847515e-06,-7.312173843383789,20.77520179748535,-35.91453552246094,1.0517797470092771,1.566834807395935,-0.11704826354980467,987.7638549804688,0,13.0,1,1
2.28,0.06180042,-0.1598912,9.767054,-0.00017941161058843139,-0.0001991828321479261,8.827075362205505e-06,-7.52117395401001,20.158349990844727,-36.308143615722656,1.0531291961669922,1.571156620979309,-0.1253519058227539,987.7281494140624,0,13.0,1,1
2.32,0.07133722,-0.1598906,9.769419000000001,0.00035344029311090713,0.0005997291300445795,-0.00012423639418557286,-7.656774044036865,21.084943771362305,-36.34146499633789,1.0352380275726318,1.570952534675598,-0.13841533660888672,987.7385864257812,0,13.0,1,1
2.36,0.05458501,-0.1527402,9.769417,-4.581338725984097e-05,-0.00033241219352930784,-0.0009230897994711996,-7.331141471862793,20.59959602355957,-36.20927429199219,1.0508224964141846,1.5518529415130615,-0.11836910247802734,987.7462158203124,0,13.0,1,1
2.4,0.06440407,-0.13606368,9.759972,-4.581338725984097e-05,-0.00033241219352930784,-0.0009230897994711996,-7.409893989562987,20.42044258117676,-36.10967254638672,1.0525754690170288,1.53268563747406,-0.12204742431640625,987.7462158203124,0,13.0,1,1
2.44,0.064680636,-0.15751995,9.769466,0.0015523018082603812,-0.0003324479621369392,0.0008080577244982122,-7.6466941833496085,20.25128746032715,-35.90931701660156,1.0288660526275637,1.5371485948562622,-0.10669994354248047,987.7736206054688,0,13.0,1,1
2.48,0.06707054400000001,-0.17181958,9.764731,0.0003534238785505295,6.709998706355691e-05,-0.0007900332566350697,-7.421633243560791,21.14670753479004,-35.765438079833984,1.0252966880798342,1.5559663772583008,-0.11504173278808595,987.7561645507812,0,13.0,1,1
2.52,0.05990085,-0.1503701,9.7907715,8.246710058301687e-05,0.0011331170098856091,-0.00012623262591660025,-7.731098175048827,20.804296493530273,-35.77470397949219,1.031275749206543,1.536490797996521,-0.1470346450805664,987.7537231445312,0,13.0,1,1
2.56,0.05990085,-0.16228648,9.767097999999999,0.00048194092232733965,-6.530460086651146e-05,-0.000525706447660923,-7.380952835083008,20.86873435974121,-35.75544357299805,1.0229101181030271,1.5311862230300903,-0.11273193359375,987.7158813476562,0,13.0,1,1
2.6,0.05990085,-0.15513663,9.771833,0.00021562504116445783,0.0006004850147292018,0.0006727151339873673,-7.396876811981201,20.69607353210449,-36.20478820800781,1.029048204421997,1.5262669324874878,-0.11638164520263672,987.7589721679688,0,13.0,1,1
2.64,0.064680636,-0.15513663,9.767097999999999,-0.0003260438097640872,-0.00010716446558944881,-0.0005525797023437917,-7.356739521026611,20.786386489868164,-36.29324722290039,1.0207351446151731,1.520864963531494,-0.11048603057861328,987.7467651367188,0,13.0,1,1
2.68,0.057510972,-0.15275337,9.764731,0.0007392197148874402,-0.0005066383164376019,-0.00015310588059946897,-7.743680000305176,21.2667179107666,-35.95378875732422,1.0266928672790527,1.515711545944214,-0.12355899810791016,987.7515869140624,0,13.0,1,1
2.72,0.06707054400000001,-0.15751995,9.762363,7.343001198023559e-05,0.00015915137191768736,0.00011321011697873472,-7.486826419830322,20.874902725219727,-35.662506103515625,1.0137335062026978,1.5247299671173096,-0.11296939849853516,987.7359619140624,0,13.0,1,1
2.76,0.07185036,-0.16466977,9.776567,0.0002065879525616765,-0.0003734803758561611,0.0003795259981416166,-7.360464096069336,21.045812606811523,-35.53800964355469,1.0004637241363523,1.5051475763320925,-0.10234928131103516,987.73583984375,0,13.0,1,1
2.8,0.07185036,-0.16228648,9.769465,-0.000592359690926969,0.00015915137191768736,-0.00015310588059946897,-7.228557586669923,21.59090614318848,-35.82118606567383,1.0015861988067627,1.5092453956604004,-0.1106557846069336,987.7444458007812,0,13.0,1,1
2.84,0.062290728,-0.15513663,9.762364,0.0004729038337245584,0.0008249411475844681,0.0006458418793044983,-7.434512615203857,20.976999282836914,-36.36940002441406,0.9978043437004088,1.489932656288147,-0.10480880737304688,987.725830078125,0,13.0,1,1
2.88,0.06707054400000001,-0.15037008,9.7742,0.0008723776554688811,0.0009580989717505873,-1.994794001802802e-05,-7.446146011352539,20.596925735473636,-35.65250778198242,0.9940710663795472,1.4844108819961548,-0.12730789184570312,987.766357421875,0,13.0,1,1
2.92,0.064680636,-0.16228648,9.769465,-0.0004592017503455281,0.0001591514301253483,-0.0005525797023437917,-7.1909217834472665,21.30998420715332,-35.656578063964844,0.9807403087615968,1.4933382272720337,-0.10721683502197266,987.7615356445312,0,13.0,1,1
2.96,0.052731155999999994,-0.15751989,9.7789345,-0.0001928858691826463,-0.00024032246437855062,0.00011321011697873472,-7.408073425292969,21.054052352905273,-35.762107849121094,1.00586199760437,1.473783016204834,-0.11557769775390625,987.7543334960938,0,13.0,1,1
3.0,0.06946045,-0.15275337,9.755262,7.343001198023559e-05,0.0009580989717505873,0.00011321011697873472,-7.454703330993652,21.43205451965332,-36.161964416503906,0.9831183552742004,1.4778800010681152,-0.07656669616699219,987.7640991210938,0,13.0,1,1
3.04,0.055121064000000004,-0.14560355,9.762363,0.0007392197148874402,-0.0001071645092451945,0.00024636805756017566,-7.554924488067628,20.706064224243164,-36.10403823852539,0.9937524795532228,1.4537701606750488,-0.10388565063476562,987.7666015625,0,13.0,1,1
3.08,0.05990085,-0.15751989,9.776567,0.0006060617743059992,0.0009580989717505873,-1.9947823602706194e-05,-7.216274738311768,20.4963436126709,-36.06696701049805,0.9754285216331482,1.4676464796066284,-0.12169075012207033,987.7514038085938,0,13.0,1,1
3.12,0.05990085,-0.15037008,9.752895,0.00033974589314311743,0.0006917831487953662,-1.994794001802802e-05,-6.934908866882324,20.654321670532227,-35.888614654541016,0.971327006816864,1.4529237747192385,-0.08740901947021484,987.7365112304688,0,13.0,1,1
3.16,0.055121064000000004,-0.15275337,9.752895,-0.0003260438097640872,0.0002923092688433826,-0.00041942176176235085,-7.579842567443848,20.6304874420166,-36.78863525390625,0.9728150367736816,1.4524524211883545,-0.07688426971435547,987.7215576171876,0,13.0,1,1
3.2,0.057510972,-0.15990318,9.745794,0.0007392197148874402,-0.0007729542558081447,-0.0006857376429252326,-7.328097343444824,20.602540969848636,-36.36388778686523,0.9789321422576904,1.4423565864562988,-0.07106971740722656,987.7341918945312,0,13.0,1,1
3.24,0.07185036,-0.15037008,9.755262,-0.0001928858691826463,2.599344588816166e-05,-0.00028626382118090987,-7.216274738311768,20.4963436126709,-36.06696701049805,0.9608692526817322,1.4370609521865845,-0.079437255859375,987.7163696289062,0,13.0,1,1
3.28,0.064680636,-0.15513663,9.783669,0.001138693536631763,-0.0003734803176485002,-0.00028626382118090987,-7.6749000549316415,21.173185348510746,-36.112884521484375,0.9619314670562744,1.4320096969604492,-0.11151409149169922,987.7416381835938,0,13.0,1,1
3.32,0.062290757999999995,-0.16228648,9.7742,0.0004729038337245584,-0.0003734803758561611,0.0005126839387230575,-7.686938762664795,21.26731300354004,-36.19352340698242,0.9585267305374146,1.4361727237701416,-0.1057109832763672,987.7394409179688,0,13.0,1,1
3.36,0.06707054400000001,-0.15751989,9.771833,-5.972792860120535e-05,0.0002923093270510435,-0.0005525797023437917,-7.465656280517577,20.789609909057614,-36.04570007324219,0.9500437378883362,1.430867075920105,-0.08095169067382812,987.7393188476562,0,13.0,1,1
3.4,0.06933424,-0.15990008,9.774189,0.0006060617743059992,2.599344588816166e-05,0.00024636805756017566,-7.161597728729247,20.86375617980957,-36.32784271240234,0.94658225774765,1.4208086729049685,-0.0893411636352539,987.7393188476562,0,13.0,1,1
3.44,0.076498866,-0.15275018,9.759985,0.0003403526498004794,0.0006916847196407616,-0.0006854775710962713,-7.698976516723633,21.361452102661133,-36.27415466308594,0.9334073066711426,1.405988097190857,-0.09774112701416016,987.75439453125,0,13.0,1,1
3.48,0.06454429,-0.15513332,9.752884,0.0007404700154438615,-0.0007731571095064282,-0.00015256990445777774,-7.182630062103272,21.05497169494629,-36.64373016357422,0.9394193887710572,1.405438780784607,-0.0777444839477539,987.7547607421876,0,13.0,1,1
3.52,0.06931901,-0.1575165,9.767086,-0.00019158667419105768,-0.00024053327797446403,0.0005132408114150167,-7.817728042602539,21.197908401489254,-36.7851791381836,0.9310388565063475,1.4093047380447388,-0.08137130737304688,987.7747192382812,0,13.0,1,1
3.56,0.06453413,-0.1456,9.769453,-0.0007241696584969759,0.0004252484650351107,-0.00041884375968948007,-7.604598999023437,21.08112144470215,-36.349281311035156,0.937003493309021,1.384957790374756,-0.0992574691772461,987.7343139648438,0,13.0,1,1
3.6,0.06930885,-0.15036641,9.767083999999999,0.00034114287700504065,2.5766727048903704e-05,0.0002469668397679925,-7.42149543762207,21.252626419067386,-36.464515686035156,0.9236258268356324,1.3936240673065186,-0.06973552703857422,987.7421264648438,0,13.0,1,1
3.64,0.064523995,-0.15274958,9.771819,-0.0004577557556331157,0.00015891673683654517,0.00024698773631826043,-7.521418571472168,21.15877723693848,-35.981719970703125,0.9296668171882628,1.3880472183227541,-0.09233570098876953,987.7492065429688,0,13.0,1,1
3.68,0.06690881,-0.15751596,9.762348,0.00047439872287213797,-0.0007731967489235102,-1.9307131879031655e-05,-7.5593528747558585,20.80756187438965,-36.571197509765625,0.9120378494262696,1.3874821662902832,-0.0960550308227539,987.7341918945312,0,13.0,1,1
3.72,0.06451383,-0.15513258,9.76235,-0.00019134220201522112,2.5742920115590096e-05,0.0006465035257861017,-7.5071773529052725,20.80374336242676,-36.579017639160156,0.9227710962295532,1.3821438550949097,-0.07134246826171875,987.7421264648438,0,13.0,1,1
3.76,0.06928855,-0.14798264,9.759981,-0.00019134220201522112,2.5742920115590096e-05,0.0006465035257861017,-7.496661186218263,20.708139419555664,-36.42107391357422,0.9190187454223632,1.362757682800293,-0.0797891616821289,987.7421264648438,0,13.0,1,1
3.8,0.0740633,-0.1455992,9.762348,0.00034133857116103167,0.0004252087674103677,0.0003802086575888097,-7.901046752929687,21.01433753967285,-36.45366287231445,0.9012951850891112,1.3478870391845703,-0.06931018829345703,987.7445068359376,0,13.0,1,1
3.84,0.06927842,-0.14798237,9.769449,0.0008740192279219628,-0.00037374679232016206,-1.9244325812906027e-05,-7.957352161407472,21.75179481506348,-36.488136291503906,0.9028269052505492,1.3566548824310305,-0.10143375396728516,987.7598266601562,0,13.0,1,1
3.88,0.06210363,-0.14798225,9.774183,7.51204788684845e-05,-0.0007732285303063692,-0.00028553925221785903,-7.738570690155028,20.90284919738769,-36.087257385253906,0.9037166833877563,1.351398229598999,-0.09092044830322266,987.72998046875,0,13.0,1,1
3.92,0.062098562999999996,-0.14321561,9.767081,-5.798845086246728e-05,-0.0002406046987744048,0.00011395564069971442,-7.397420406341553,21.064363479614254,-36.30324172973633,0.904898762702942,1.341316819190979,-0.0899038314819336,987.7529296875,0,13.0,1,1
3.96,0.06448337400000001,-0.14798205,9.762346,0.0003415342653170228,0.000292019045446068,0.0002471345360390842,-7.368096351623535,20.61815071105957,-36.974510192871094,0.8963449001312256,1.3359472751617432,-0.06519603729248047,987.7274169921876,0,13.0,1,1
4.0,0.06447831,-0.15274848,9.750509,0.000208425335586071,-0.00010746266343630849,-0.0008181080338545144,-7.829468250274657,21.92417335510254,-36.44094848632813,0.8973006010055542,1.3254889249801636,-0.05465030670166016,987.7350463867188,0,13.0,1,1
4.04,0.06447321,-0.14798181,9.774181,7.531617302447557e-05,-0.00024062853481154892,0.0005134923267178237,-7.7987608909606925,21.37351417541504,-36.49044036865234,0.8843557238578796,1.3248409032821655,-0.08679676055908203,987.7274169921876,0,13.0,1,1
4.08,0.06924793,-0.15036489,9.769446,7.536518387496471e-05,0.0004251532955095172,-1.91184226423502e-05,-7.5442705154418945,20.716379165649414,-36.64517593383789,0.8852928280830383,1.3287655115127563,-0.08100414276123047,987.7146606445312,0,13.0,1,1
4.12,0.07163277,-0.15274806,9.762344,-0.0007235335651785135,0.00015882936713751403,-0.0002854134072549641,-7.74810791015625,21.36821937561035,-36.42095184326172,0.8813951015472412,1.3138009309768677,-0.0704965591430664,987.7348022460938,0,13.0,1,1
4.16,0.071627736,-0.15513118,9.764711,-0.0007664250442758203,0.0003759680257644504,0.0008148949127644299,-7.457067012786865,21.16673851013184,-36.60797882080078,0.8774305582046509,1.31799054145813,-0.05526447296142578,987.7628784179688,0,13.0,1,1
4.2,0.06923273,-0.14559801,9.767078,0.0005652033723890781,0.00037596005131490534,-0.0009161373600363732,-7.426902770996094,20.98436546325684,-36.75592803955078,0.8646610975265503,1.2978672981262207,-0.07792854309082031,987.7300415039062,0,13.0,1,1
4.24,0.062057942000000005,-0.15989752,9.755241,-0.0004999624798074366,-0.00028984560049138963,1.6010133549571037e-05,-7.81275749206543,20.728120803833008,-36.21956634521485,0.8738498687744141,1.3040858507156372,-0.0670003890991211,987.7708129882812,0,13.0,1,1
4.28,0.08356202,-0.15274759,9.7765465,0.00016587637946940956,-0.0005561694269999863,-0.00011712685227394104,-7.690823554992676,21.00052833557129,-36.562232971191406,0.8435822129249573,1.3011537790298462,-0.09017372131347656,987.747802734375,0,13.0,1,1
4.32,0.05965787,-0.14798091,9.759975,0.00016592515748925507,-0.00015670352149754763,0.0008149996865540742,-7.600033283233643,21.085542678833008,-36.581199645996094,0.873551607131958,1.286526441574097,-0.060832023620605476,987.7381591796876,0,13.0,1,1
4.36,0.07399222,-0.15751387,9.771811,-0.0003666577104013413,-0.0010888170218095183,0.0005487047601491213,-7.5680484771728525,21.536775588989254,-36.38157653808594,0.8511585593223572,1.299785017967224,-0.06457042694091797,987.745849609375,0,13.0,1,1
4.4,0.062037617,-0.14083083,9.7576065,-0.00116555648855865,-0.000289877352770418,-0.0001170639880001545,-7.995424270629883,21.29466438293457,-36.37853622436523,0.8667685389518738,1.2656069993972778,-0.044647216796875,987.7403564453124,0,13.0,1,1
4.44,0.06203258,-0.15751363,9.764708,0.00016607195721007884,-2.356938784942031e-05,0.00014927284792065618,-7.16700553894043,20.595495223999023,-36.61925506591797,0.8486343622207642,1.273992657661438,-0.06253719329833984,987.7381591796876,0,13.0,1,1
4.48,0.062027484,-0.1432138,9.769442,-0.0012986164074391127,0.0006422123406082393,-0.0007828116649761796,-7.7580809593200675,21.095529556274414,-36.480445861816406,0.8543035984039307,1.2491121292114258,-0.07570171356201172,987.7432250976562,0,13.0,1,1
4.52,0.059799135,-0.15513416,9.764722,-0.0010322517482563851,0.0006422044243663548,0.00014931487385183573,-7.8870506286621085,21.659730911254886,-36.72453689575195,0.8503239154815674,1.2674381732940674,-0.05575752258300781,987.74072265625,0,13.0,1,1
4.56,0.062359332999999996,-0.1622882,9.781309,-0.0007662867428734899,0.00010962961823679508,-0.0003834672970697284,-7.9577884674072275,21.013742446899414,-36.21392822265625,0.8464664220809937,1.276010036468506,-0.059536933898925774,987.743408203125,0,13.0,1,1
4.6,0.05997601,-0.15990503,9.764738000000001,0.00016300639254041016,-0.000156229711137712,1.4801276847720144e-05,-7.592560768127441,20.98699378967285,-36.268646240234375,0.8474745154380798,1.2609632015228271,-0.0632944107055664,987.7228393554688,0,13.0,1,1
4.64,0.06476247,-0.15990524,9.764739,-0.0006360050756484269,0.0009090440580621363,-0.00011838402133435012,-7.738432884216309,21.008764266967773,-36.78633117675781,0.8436840176582336,1.2411954402923584,-0.06232547760009765,987.7235107421876,0,13.0,1,1
4.68,0.06476903,-0.14798899,9.767107000000001,-0.00023659490398131308,-2.305109228473157e-05,0.0006805363227613269,-7.8870506286621085,21.659730911254886,-36.72453689575195,0.8401759266853333,1.2449662685394287,-0.06608963012695312,987.723388671875,0,13.0,1,1
4.72,0.052826165999999994,-0.16467206,9.771841,-0.0007692902581766247,-0.0006888305069878697,0.0005473510827869177,-7.9984683990478525,21.291719436645508,-36.22392654418945,0.8415683507919312,1.2538397312164309,-0.06517219543457031,987.7362060546876,0,13.0,1,1
4.76,0.062392354000000004,-0.14560612,9.755272,-0.00023672214592806998,0.00024328540894202885,-0.0007842555642127991,-7.908221244812013,21.745027542114254,-36.34133911132813,0.8233981132507324,1.219751238822937,-0.035803794860839844,987.7413940429688,0,13.0,1,1
4.8,0.057619125,-0.15513934,9.757639999999999,-0.00023678582510910928,0.00011013785842806101,1.466483809053898e-05,-7.461792945861816,20.63609504699707,-37.5000114440918,0.8291094303131104,1.2189507484436035,-0.049040794372558594,987.7463989257812,0,13.0,1,1
4.84,0.06957525,-0.1384566,9.769476,-0.000769481179304421,0.0017080435063689947,-0.00038483634125441313,-7.411821365356445,20.893178939819336,-36.82989501953125,0.8109832406044006,1.1943693161010742,-0.05755805969238281,987.7310791015624,0,13.0,1,1
4.88,0.062412173,-0.15513970000000002,9.76711,-0.001035860739648342,-0.0006887890631332995,1.4610239304602146e-05,-7.546335697174072,21.083192825317386,-36.66632080078125,0.8169239163398743,1.2220771312713623,-0.056612968444824226,987.7357788085938,0,13.0,1,1
4.92,0.076758176,-0.15752305,9.760009,-0.0009027664782479404,0.0005096426466479896,0.0004140567616559565,-7.801805019378662,21.370561599731445,-36.33583068847656,0.7988927364349365,1.2069109678268433,-0.050932884216308594,987.7459716796876,0,13.0,1,1
4.96,0.06481528,-0.15514,9.764744,-0.00023704030900262296,0.0007759688887745143,0.0002808715216815472,-7.918193817138673,21.47233772277832,-36.40083312988281,0.8044991493225098,1.2109383344650269,-0.04998302459716797,987.74658203125,0,13.0,1,1
5.0,0.060042082999999996,-0.15990673,9.778948,-0.00037026192876510317,0.0006428213091567159,-0.0002517875982448459,-7.720008850097656,21.55265998840332,-36.59004211425781,0.8054404258728027,1.1911579370498655,-0.06325340270996094,987.7261962890624,0,13.0,1,1
5.04,0.05765879,-0.16943993,9.764746,-0.0001040097267832607,0.00024335781927220523,-0.0006512886611744761,-8.048440933227539,21.034639358520508,-36.89404296875,0.8020656108856201,1.2143313884735107,-0.04816913604736328,987.7492065429688,0,13.0,1,1
5.08,0.0552755,-0.16229029,9.767113,-0.0006367051973938942,-0.00042242155177518725,-0.00011868414003401997,-7.9375972747802725,20.558683395385746,-36.42136764526367,0.8125250339508057,1.2039124965667725,-0.05669403076171875,987.729248046875,0,13.0,1,1
5.12,0.06484169,-0.15275733,9.764747,-0.00010413696873001754,0.0003765364235732704,1.4446501154452564e-05,-7.567505359649657,21.16848945617676,-36.28312301635742,0.7899450063705444,1.1794483661651611,-0.04634857177734375,987.7267456054688,0,13.0,1,1
5.16,0.06723821,-0.16467388,9.76238,-0.00010413696873001754,0.0003765364235732704,1.4446501154452564e-05,-7.2478227615356445,20.783159255981445,-36.540794372558594,0.7864986658096313,1.1883126497268677,-0.031269073486328125,987.7267456054688,0,13.0,1,1
5.2,0.062465012,-0.16229079999999999,9.760014,-0.0010363062610849738,0.00011023084516637029,0.00014757714234292507,-7.8495521545410165,21.272890090942386,-35.8608512878418,0.7831896543502808,1.1733925342559814,-0.03515148162841797,987.7167358398438,0,13.0,1,1
5.24,0.06486148,-0.15752436,9.757647,0.00016205155407078564,-0.0008218643488362433,-0.0001187660382129252,-7.814822196960449,21.094934463500977,-36.2407112121582,0.7845243215560913,1.1729748249053955,-0.03431129455566406,987.7422485351562,0,13.0,1,1
5.28,0.07442775,-0.15514125,9.776585,2.883005072362721e-05,0.00024340939125977457,-0.00025195127818733454,-7.562939643859862,21.17290687561035,-36.51504135131836,0.7615414261817932,1.1631428003311155,-0.061856269836425774,987.7626953125,0,13.0,1,1
5.32,0.06726462,-0.16944112,9.7623825,-0.000237549509620294,0.0005097357789054513,-0.00011882063699886204,-7.469403266906737,20.62873649597168,-37.11348724365234,0.7775293588638306,1.1677273511886597,-0.03740501403808594,987.7348022460938,0,13.0,1,1
5.36,0.062491417,-0.14322521,9.76475,0.0010939661879092457,-0.00015604369400534782,-0.0007846375228837132,-7.8192501068115225,21.196435928344727,-36.70787811279297,0.7793817520141602,1.138398051261902,-0.04132366180419922,987.7320556640624,0,13.0,1,1
5.4,0.06727785,-0.1527585,9.767118,-0.00010451881098560988,-0.0012212968431413176,0.0001474407035857439,-7.9782776832580575,20.83666038513184,-36.43136596679688,0.770832896232605,1.147144079208374,-0.03570079803466797,987.74755859375,0,13.0,1,1
5.44,0.07206425,-0.13845901,9.755282000000001,-0.0006372142815962434,-0.0010881285415962338,-0.00011890236055478455,-7.543292045593263,21.08614158630371,-36.82093048095703,0.7624927163124084,1.122708439826965,-0.030117034912109375,987.7450561523438,0,13.0,1,1
5.48,0.060121327999999995,-0.15990861,9.764750999999999,-0.0009035938419401647,0.0005097771063446999,-0.00011892965994775295,-7.46967887878418,20.416902542114254,-35.71533203125,0.7636728286743164,1.1412498950958252,-0.02927684783935547,987.7608032226562,0,13.0,1,1
5.52,0.061499685,-0.14796744,9.764659,2.8448208468034863e-05,0.00011031350004486741,0.0004136747738812119,-7.407935619354247,21.15996742248535,-36.461185455322266,0.7515621185302734,1.1213690042495728,-0.0377960205078125,987.7501220703124,0,13.0,1,1
5.56,0.080584645,-0.14320005,9.767023,-0.0007705632597208022,0.0006429556524381043,0.0001473316224291921,-7.500248908996582,21.0734806060791,-36.36491394042969,0.7388521432876587,1.1114730834960938,-0.03227806091308594,987.74267578125,0,13.0,1,1
5.6,0.06860092,-0.15988217,9.750449,-0.00023637851700186732,-0.00041995634092018014,0.0006841558497399093,-7.3722572326660165,20.1395206451416,-35.945068359375,0.7455207109451294,1.1111775636672974,-0.02679157257080078,987.7378540039062,0,13.0,1,1
5.64,0.06856668,-0.14319839,9.764649,0.000520456989761442,-0.0001858806499512866,-0.00024045706959441304,-7.320326805114746,21.13612174987793,-35.62646102905273,0.7467916011810303,1.0969067811965942,-0.03075885772705078,987.7382202148438,0,13.0,1,1
5.68,0.056582928,-0.1527306,9.769381,0.0005207867943681778,-5.277624586597085e-05,0.00029231596272438765,-7.423996925354004,20.88139533996582,-36.21145629882813,0.7529741525650024,1.1158822774887085,-0.04893207550048828,987.7484130859376,0,13.0,1,1
5.72,0.066108316,-0.15749632,9.776480000000001,0.0002548009506426752,-5.282981146592647e-05,0.0005587732885032891,-6.9761314392089835,21.30058479309082,-35.99706268310547,0.7353651523590088,1.1058229207992554,-0.04813671112060547,987.733154296875,0,13.0,1,1
5.76,0.07085386,-0.16226204,9.762273,-0.00041065859841182833,-0.000984988990239799,2.628291258588433e-05,-7.3628273010253915,20.780492782592773,-35.98402786254883,0.7326966524124146,1.1052078008651731,-0.033184051513671875,987.77392578125,0,13.0,1,1
5.8,0.06364992,-0.14557828,9.771739,0.0005217765574343503,-0.0017839901847764852,0.0002927402383647859,-7.065155029296875,20.216615676879886,-36.38182067871094,0.7343722581863403,1.085902214050293,-0.04190731048583984,987.7534790039062,0,13.0,1,1
5.84,0.068395495,-0.15749381,9.748063,-0.0002768408157862723,0.00034648334258235986,0.0001597237423993647,-7.2775816917419425,20.4913272857666,-35.59532165527344,0.726012110710144,1.0856033563613892,-0.01744842529296875,987.7484130859376,0,13.0,1,1
5.88,0.07075116,-0.15987627,9.766998,0.0005224367487244309,0.0002132718218490481,0.0002930232440121472,-6.907788276672362,20.468996047973636,-35.88195037841797,0.7226876020431519,1.0856587886810305,-0.035658836364746094,987.7486572265624,0,13.0,1,1
5.92,0.07549673,-0.15987538,9.769362,-0.00027618097374215717,-0.0009852033108472824,2.684869104996324e-05,-7.1044511795043945,20.39015007019043,-35.770050048828125,0.7196444272994995,1.0804346799850464,-0.0207061767578125,987.7210083007812,0,13.0,1,1
5.96,0.07785243,-0.15749128,9.7456875,0.0003899387666024268,-5.3151234169490635e-05,0.00016014795983210206,-7.013660907745361,20.475168228149414,-35.78901290893555,0.7116416096687317,1.0753365755081177,-0.005753517150878906,987.756591796875,0,13.0,1,1
6.0,0.06347877,-0.16464026,9.764622,0.0003902686876244843,-0.001118468353524804,0.0001602894044481218,-7.1234188079833975,20.214540481567386,-36.064788818359375,0.7227219343185425,1.0799392461776731,-0.02395820617675781,987.7311401367188,0,13.0,1,1
6.04,0.06583439999999999,-0.15272306,9.757517,0.0007900724303908646,0.00047937341150827706,-0.00023904308909550306,-7.1390442848205575,20.674020767211914,-36.089263916015625,0.714974045753479,1.0611733198165894,-0.01856231689453125,987.756591796875,0,13.0,1,1
6.08,0.070580006,-0.14795567,9.783553,0.00025777070550248027,-0.000985417515039444,-0.00010574370389804244,-6.972980499267577,20.19718742370605,-35.779014587402344,0.7068329453468323,1.0610164403915403,-0.0604391098022461,987.7138671875,0,13.0,1,1
6.12,0.06337607,-0.15033813,9.776448,0.0007907323888503015,0.00047926625120453537,-0.0006382339051924647,-7.14955997467041,20.769628524780273,-36.24720764160156,0.7131677865982056,1.0515573024749756,-0.02660083770751953,987.759521484375,0,13.0,1,1
6.16,0.06812161,-0.15987034,9.762241,0.0009242204832844435,-0.000586050795391202,-0.0005049346364103258,-7.282552719116211,20.96111488342285,-36.16093444824219,0.7003650665283203,1.0515443086624146,-0.011694908142089844,987.7440185546876,0,13.0,1,1
6.2,0.06808739999999999,-0.16463606,9.755137,0.00012560252798721194,-0.0005861043464392424,2.7838512323796753e-05,-7.234400749206543,20.5845890045166,-35.83838653564453,0.6975365877151489,1.0464926958084106,-0.015738487243652344,987.7520751953124,0,13.0,1,1
6.24,0.060883462,-0.15271883,9.769337,-7.225375156849623e-06,-0.0009856317192316057,-0.00023833598243072632,-7.5078582763671875,21.06611442565918,-35.9783935546875,0.694424033164978,1.0365511178970337,-0.029218673706054688,987.7269897460938,0,13.0,1,1
6.28,0.065629005,-0.15510131,9.7646,-0.0004063689266331494,7.957822526805103e-05,-0.00023819465423002842,-6.837486743927003,20.37693214416504,-36.11834716796875,0.7003963589668274,1.0366693735122678,-0.014308929443359375,987.7498779296876,0,13.0,1,1
6.32,0.063204885,-0.159867,9.759862,0.0013250138144940136,-0.00018679129425436256,2.8262671548873186e-05,-7.031351089477539,21.30145835876465,-35.83463668823242,0.6969406008720398,1.0366626977920532,-0.02780723571777344,987.7376098632812,0,13.0,1,1
6.36,0.06556058,-0.16701604,9.774061999999999,-0.0006720249657519162,7.947094854898751e-05,0.00029472011374309664,-7.007274627685548,21.11319923400879,-35.673362731933594,0.684472918510437,1.0315232276916504,-0.0271148681640625,987.7272338867188,0,13.0,1,1
6.4,0.06552631,-0.147949,9.759855,0.0003935684799216688,-0.0004532142775133252,0.00042801944073289633,-7.242415428161621,21.051424026489254,-36.2493896484375,0.6861574053764343,1.0170779228210451,-0.02169895172119141,987.7120971679688,0,13.0,1,1
6.44,0.07027188,-0.15271463,9.759852,0.0005270562251098454,0.00034567984403111035,0.0002950028865598142,-7.393396854400635,21.437074661254886,-36.63360977172852,0.6730106472969055,1.0123077630996704,-0.025730133056640625,987.7322998046876,0,13.0,1,1
6.48,0.07501748,-0.1479473,9.769319,-0.0004047192051075399,7.931038271635772e-05,-0.0003706453717313707,-7.7270755767822275,21.177003860473636,-36.105064392089844,0.6651917099952698,1.0027214288711548,-0.029801368713378906,987.7380981445312,0,13.0,1,1
6.52,0.0774886,-0.15039115,9.783748,-4.915462341159582e-06,-0.0003202170482836664,2.896989462897181e-05,-7.30608606338501,20.78109169006348,-36.2237548828125,0.6642849445343018,0.9934615492820741,-0.03411388397216797,987.72021484375,0,13.0,1,1
6.56,0.075163454,-0.16945897,9.762449,-4.915462341159582e-06,-0.0003202170482836664,2.896989462897181e-05,-7.397419929504394,21.064363479614254,-36.30324172973633,0.6611221432685852,1.0076428651809692,-0.005053520202636719,987.72021484375,0,13.0,1,1
6.6,0.06805843,-0.14562781,9.767189,0.0006427578045986593,7.906035170890391e-05,-0.0009144533541984855,-7.313153266906737,20.40543556213379,-35.73878479003906,0.6625556349754333,0.9790215492248536,-0.032802581787109375,987.7454223632812,0,13.0,1,1
6.64,0.08246255,-0.15039594,9.771930000000001,0.0002397311036475003,-0.00031983671942725783,-0.00011702853953465821,-7.347882270812987,20.583391189575195,-35.35892105102539,0.6492123603820801,0.983626902103424,-0.02737140655517578,987.7177124023438,0,13.0,1,1
6.68,0.06818789,-0.15516408,9.755365,0.0005054229986853899,0.000612370204180479,0.00028217799263074994,-7.433969497680664,20.608705520629886,-36.27095031738281,0.6603845953941345,0.9839307069778442,-0.012559890747070312,987.7606201171876,0,13.0,1,1
6.72,0.07303238,-0.14086600000000002,9.762472,-0.0001609904575161636,0.001411419128999114,0.00041506855632178485,-7.042165279388428,20.764928817749023,-36.41744995117188,0.6613156795501709,0.9645861983299256,-0.011855125427246094,987.7355346679688,0,13.0,1,1
6.76,0.07070723,-0.14801742,9.750643,-0.0001616142108105123,-0.00018637502216733992,1.5327532310038805e-05,-7.001186847686768,21.11908531188965,-35.982582092285156,0.6488024592399597,0.974082052707672,0.002963066101074219,987.736083984375,0,13.0,1,1
6.8,0.06360224,-0.1599354,9.762485,-0.0005617119022645056,0.0006126739317551255,-0.0005175715195946394,-7.092275619506836,20.401933670043945,-36.38848876953125,0.6596106290817261,0.9836028814315796,-0.015322685241699219,987.7484741210938,0,13.0,1,1
6.84,0.061277032,-0.14325409,9.764856,0.0003697699285112322,0.0007459330372512341,-0.000517838925588876,-7.361305236816406,20.78196907043457,-36.06133270263672,0.6470926403999329,0.9503271579742432,-0.0147247314453125,987.7383422851562,0,13.0,1,1
6.88,0.07090133400000001,-0.15278877,9.762497,0.00023598823463544247,-0.0009850189089775083,-0.00011863245163112882,-7.088390827178955,20.66872978210449,-36.019775390625,0.6391439437866211,0.9697564840316772,-0.023607254028320312,987.7357788085938,0,13.0,1,1
6.92,0.070966065,-0.17185654,9.745932,0.00023536459775641558,0.00021350386668927968,0.0005468897288665174,-7.143472194671631,20.775514602661133,-36.55642700195313,0.6504738926887512,0.9749985337257384,0.01483154296875,987.7638549804688,0,13.0,1,1
6.96,0.06386113,-0.15994175,9.760141,0.0007673726067878307,-0.0007185004651546477,0.00014714867575094104,-7.055182456970215,20.48929786682129,-36.32233047485352,0.6236207485198975,0.9513131380081176,-0.01772594451904297,987.743896484375,0,13.0,1,1
7.0,0.051976323,-0.14564367,9.767248,0.0008992831571958959,0.00048012353363446886,0.00014661398017778993,-7.3794312477111825,20.87020301818848,-35.83274841308594,0.6584625244140625,0.9513176083564758,-0.01236724853515625,987.7437133789062,0,13.0,1,1
7.04,0.05682087,-0.14326198,9.74595,0.00023286970099434257,8.075099322013557e-05,0.0005458205123431982,-7.271057605743407,21.23526954650879,-36.17874526977539,0.6312234401702881,0.9327004551887512,0.002415657043457031,987.7539672851562,0,13.0,1,1
7.08,0.06883508,-0.1647131,9.779097,0.0006317197694443166,0.00048032609629444783,0.0006787111051380634,-6.8861823081970215,21.12175941467285,-36.53935241699219,0.6323997974395752,0.952215313911438,-0.025394439697265625,987.7568969726562,0,13.0,1,1
7.12,0.054560363,-0.15279825,9.764897999999999,0.00023162207799032328,0.0007467432878911495,-0.0006531356484629214,-7.119097709655763,21.219388961791992,-35.97028350830078,0.6339948773384094,0.9285464882850648,-0.005870819091796875,987.7592163085938,0,13.0,1,1
7.16,0.057014999999999996,-0.16233297,9.772007,0.0012907548807561398,-0.0005979854613542558,-0.0005292219575494528,-7.179181098937987,20.583711624145508,-36.00080871582031,0.6356527805328369,0.9335224628448486,-0.02423286437988281,987.7642822265624,0,13.0,1,1
7.2,0.0642494,-0.16948439,9.762544,-0.000574079982470721,-0.0004647262103389949,3.142398782074452e-06,-7.758218765258789,20.989614486694336,-35.781368255615234,0.6183755397796631,0.938247799873352,-0.02365589141845703,987.7620239257812,0,13.0,1,1
7.24,0.06431416,-0.16948594,9.767284,-0.00044154591159895057,0.0002011647738981992,2.8751092031598087e-06,-7.231356143951416,20.5875301361084,-35.99299240112305,0.6246647834777832,0.9429035782814026,-0.0041141510009765625,987.754638671875,0,13.0,1,1
7.28,0.06915867,-0.14327152,9.755453,0.0003567778621800244,-0.0003313657362014055,-0.0006631819996982813,-7.57997989654541,20.524568557739254,-36.08955383300781,0.6023892164230347,0.9007332921028136,0.00588226318359375,987.7421264648438,0,13.0,1,1
7.32,0.06205368,-0.15518947,9.764928999999999,0.00035615410888567567,-6.494857370853424e-05,-0.000530291348695755,-7.445465087890625,20.334550857543945,-36.25313568115234,0.6277052164077759,0.9105018973350524,-0.012479782104492188,987.7496337890624,0,13.0,1,1
7.36,0.07167798,-0.15995763,9.7554655,0.00022237218217924237,0.0008672582916915418,0.0005347048281691967,-7.287416934967041,20.324560165405273,-36.35388946533203,0.6004393100738525,0.9106186032295228,0.007040977478027344,987.7217407226562,0,13.0,1,1
7.4,0.06696289999999999,-0.15519269,9.757839,8.859048830345273e-05,0.000201569841010496,-0.00039766798727214336,-7.127847194671631,20.316041946411133,-36.53195190429688,0.6116389036178589,0.9107276201248168,-0.0018625259399414067,987.7267456054688,0,13.0,1,1
7.44,0.07419735,-0.16234405,9.774416,-0.0003115070867352188,-6.464481703005731e-05,-0.00013161951210349798,-7.450978755950928,21.172632217407227,-36.91719818115234,0.5895886421203613,0.9014924168586732,-0.029737472534179688,987.7601928710938,0,13.0,1,1
7.48,0.07111144,-0.15994377,9.745944999999999,-4.5815075282007456e-05,-6.454350659623742e-05,-0.0003982027992606163,-7.363668918609619,20.51664161682129,-36.5073471069336,0.5866489410400391,0.9016522765159608,0.01814746856689453,987.7423095703124,0,13.0,1,1
7.52,0.07275963,-0.14324258,9.762447,-0.00044046860421076417,-0.0007311156950891018,0.0012017582776024938,-7.092819213867188,20.770227432250977,-36.4869384765625,0.58502596616745,0.8777880668640137,0.004652023315429688,987.7476196289062,0,13.0,1,1
7.56,0.06798366,-0.1599256,9.752979,0.00010544207179918884,0.001925586722791195,0.0002703589852899313,-7.543972492218018,21.348512649536133,-36.22030258178711,0.5961436033248901,0.8972155451774597,0.014669418334960938,987.770751953125,0,13.0,1,1
7.6,0.065597564,-0.14800934,9.774284,-0.0008266999502666295,-0.0002049342729151249,-0.0001291304943151772,-7.6457157135009775,20.621049880981445,-36.0850715637207,0.5931757688522339,0.8544800877571106,-0.0179290771484375,987.7432250976562,0,13.0,1,1
7.64,0.05365187,-0.14324285,9.757714,0.00023852701997384434,0.00032770345569588244,-0.0006617779727093875,-7.3575806617736825,20.522539138793945,-36.816566467285156,0.604304313659668,0.8785915970802307,-0.003178596496582031,987.7380981445312,0,13.0,1,1
7.68,0.05843544,-0.15754263,9.760082,-0.0005604576435871422,-0.0010038700420409439,-0.00012916192645207047,-7.44959545135498,21.068185806274414,-36.29542541503906,0.5920380353927612,0.873935341835022,0.00681304931640625,987.77587890625,0,13.0,1,1
7.72,0.070388794,-0.14800958,9.760082,0.00010529562132433055,6.139952165540308e-05,0.00013713823864236474,-8.276790618896483,21.136693954467773,-36.556888580322266,0.5795769095420837,0.8555052280426025,0.01204204559326172,987.7377319335938,0,13.0,1,1
7.76,0.06561279,-0.15754278,9.769552000000001,0.0005047326558269559,-7.17524962965399e-05,3.964523784816265e-06,-7.4188880920410165,20.517518997192386,-36.34492111206055,0.5767378807067871,0.8606865406036377,-0.0016574859619140625,987.760986328125,0,13.0,1,1
7.8,0.0632267,-0.15277638,9.764816999999999,0.00023838010383769867,-0.00033806244027800863,-0.0002623670152388513,-7.3596458435058585,20.889360427856445,-36.83771514892578,0.5689363479614258,0.8609445691108704,-0.01060199737548828,987.7664794921876,0,13.0,1,1
7.84,0.058450699999999994,-0.1551597,9.767184,-0.00029432500014081603,0.0016593184554949405,3.91743378713727e-06,-7.2254066467285165,20.48750877380371,-35.60313415527344,0.5735451579093933,0.8495926856994629,-0.0003376007080078125,987.7510375976562,0,13.0,1,1
7.88,0.07757372,-0.15039326,9.762450999999999,-0.00029432500014081603,0.0016593184554949405,3.91743378713727e-06,-7.2254066467285165,20.48750877380371,-35.60313415527344,0.5531324148178101,0.8473676443099976,0.018842697143554688,987.7510375976562,0,13.0,1,1
7.92,0.060848205999999995,-0.14562679999999997,9.762450999999999,-0.00029432500014081603,0.0016593184554949405,3.91743378713727e-06,-7.470221996307372,20.78518867492676,-35.81378555297852,0.5739128589630127,0.8380123972892761,0.005166053771972656,987.7510375976562,0,13.0,1,1
7.96,0.068021715,-0.15516,9.764818,-0.0006938356091268362,6.142925121821462e-05,3.901601303368807e-06,-7.895639419555664,21.282602310180664,-36.16225814819336,0.5564829111099243,0.8432739377021791,0.005666732788085938,987.7437744140624,0,13.0,1,1
8.0,0.072805315,-0.14801029999999998,9.783756,0.00010507547995075583,0.00019459312898106876,0.0010691494680941103,-7.415407657623291,21.25852394104004,-36.773738861083984,0.5490247011184692,0.8342195153236389,-0.017533302307128906,987.7584838867188,0,13.0,1,1
8.04,0.058469713,-0.15754344,9.767186,-2.8119015041738752e-05,6.144112558104098e-05,3.870285581797361e-06,-7.4736714363098145,21.25644874572754,-36.456703186035156,0.5699503421783447,0.8301765322685242,-0.002859115600585937,987.7432250976562,0,13.0,1,1
8.08,0.07042301,-0.16945992,9.76482,0.00023815996246412402,6.144710641819984e-05,-0.0001293033128604293,-7.156190872192383,21.132020950317386,-36.03643798828125,0.538373589515686,0.8546779751777649,0.011812210083007812,987.7616577148438,0,13.0,1,1
8.12,0.06803697,-0.15754361,9.771921,0.00010496535105630755,0.0007272427901625633,3.838853444904089e-06,-7.818408966064452,21.460275650024414,-36.18455123901367,0.5548105239868164,0.8218162059783936,0.007538795471191406,987.7515258789062,0,13.0,1,1
8.16,0.06804073,-0.15277718,9.755352,0.0005044026183895767,-0.00033801473909989,-0.0005288086249493061,-7.55546760559082,21.07435417175293,-36.202484130859375,0.5475697517395021,0.8177129626274109,0.007973670959472656,987.7542114257812,0,13.0,1,1
8.2,0.05609506400000001,-0.15277724,9.760087,0.0005043658311478794,-0.0006043247412890196,0.00027012330247089267,-7.061813354492188,20.851694107055664,-36.11156463623047,0.5539942979812622,0.8135041594505309,0.008455276489257812,987.7389526367188,0,13.0,1,1
8.24,0.058488727000000004,-0.15516068,9.783758,0.00037117121974006295,-0.0002048449678113684,3.791588824242354e-06,-7.378888130187987,20.501916885375977,-35.73429870605469,0.5508952140808105,0.8284307718276978,-0.024211883544921875,987.7616577148438,0,13.0,1,1
8.28,0.06327236,-0.16946037,9.755352,-0.0006941288593225181,0.0012598984176293015,-0.0003956979489885271,-6.968116760253906,20.8337459564209,-35.5860595703125,0.5384548902511597,0.8196843862533569,0.02357769012451172,987.7387084960938,0,13.0,1,1
8.32,0.060886264,-0.15516083,9.762455000000001,0.00010478176409378648,-0.00020483297703322023,0.00013691815547645092,-7.519054889678955,21.42408943176269,-35.53570556640625,0.5505232810974121,0.805911660194397,0.009796142578125,987.7396850585938,0,13.0,1,1
8.36,0.051330477,-0.14562784,9.762455000000001,0.0007705350290052593,-0.0010037746978923678,0.0005363762611523272,-7.071052074432372,21.94920539855957,-36.02038955688477,0.5481657981872559,0.7775596380233765,-0.003963470458984375,987.7493286132812,0,13.0,1,1
8.4,0.06806362,-0.16469412,9.760088,-0.0008274338324554265,-0.0007374469423666596,-0.0002626028726808727,-7.52225923538208,20.894929885864254,-36.505043029785156,0.5309821367263794,0.8113524913787842,0.015433311462402344,987.7567749023438,0,13.0,1,1
8.44,0.06089765,-0.16469426,9.771925,0.0001046353136189282,0.0004609804891515523,-0.0006620924104936421,-7.370437622070312,20.77312660217285,-35.59749984741211,0.5376111268997192,0.8023465871810913,-0.012516975402832031,987.767333984375,0,13.0,1,1
8.48,0.058925778,-0.15755464,9.760126,-0.0006943491171114148,0.0008604602189734577,-0.0007952660671435298,-6.962571144104004,21.20792579650879,-35.99372863769531,0.5388133525848389,0.7933841943740845,0.016315460205078125,987.7698974609376,0,13.0,1,1
8.52,0.056556165,-0.15040533,9.760128,0.00010367471259087324,-0.0003398367553018033,-0.0002653780393302441,-7.247960090637207,20.677244186401367,-35.84172058105469,0.5360341668128967,0.77028489112854,0.02621078491210937,987.757568359375,0,13.0,1,1
8.56,0.054186553,-0.15755560000000002,9.767232,-3.0649593099951744e-05,0.0007256160024553537,-0.0009316675132140516,-7.847487449645996,20.90607261657715,-35.83970642089844,0.5331166386604309,0.7755360603332521,-0.011219978332519531,987.7596435546876,0,13.0,1,1
8.6,0.056596695999999995,-0.14563973,9.771969,-3.0845170840620995e-05,-7.329980144277215e-05,0.00026667013298720116,-7.396983623504639,21.80241584777832,-36.577449798583984,0.5304099321365356,0.7667673826217651,-0.0013370513916015625,987.765380859375,0,13.0,1,1
8.64,0.05900693,-0.14802362,9.771971,-0.0004305144539102912,5.988989141769707e-05,-0.0006655192701146008,-7.192305088043213,21.4144229888916,-36.27835083007813,0.5182401537895203,0.7628018856048584,-0.0009336471557617188,987.7732543945312,0,13.0,1,1
8.68,0.049467622999999995,-0.15279062,9.755402,1.2111733667552471e-05,-0.0010319870198145509,0.00025669060414657,-7.250323295593263,20.411924362182614,-36.28773498535156,0.5300602316856384,0.754124641418457,0.02786540985107422,987.7581787109376,0,13.0,1,1
8.72,0.061437427999999995,-0.15994091,9.760138000000001,1.191615592688322e-05,-0.0007656392990611495,-0.00014286703662946818,-7.683053016662598,21.534109115600586,-35.824806213378906,0.5179356932640076,0.7690139412879944,0.028273582458496094,987.7428588867188,0,13.0,1,1
8.76,0.06384757,-0.15040828,9.753038,1.1720694601535795e-05,-0.00023297582811210302,-0.0005424246774055064,-7.341358661651611,21.327333450317386,-35.94234848022461,0.5155770182609558,0.7508159279823303,0.023916244506835938,987.7531127929688,0,13.0,1,1
8.8,0.078207254,-0.15994187,9.771978,1.1525233276188374e-05,3.33718053298071e-05,0.0006559130270034075,-7.195104122161865,20.41105079650879,-36.450157165527344,0.5079101324081421,0.7614573240280151,0.0006351470947265625,987.7606811523438,0,13.0,1,1
8.84,0.05671847,-0.15279265,9.769612,0.0004108034772798419,-9.97543684206903e-05,-0.0009420660207979381,-6.896399974822997,21.849496841430664,-36.272422790527344,0.5148922204971313,0.7621375918388367,0.0010318756103515623,987.7423095703124,0,13.0,1,1
8.88,0.06868824,-0.15755965,9.750676,0.0005437658401206137,-0.00036603855551220477,0.0006557453889399768,-7.3022003173828125,21.04788398742676,-35.85504913330078,0.4977586567401886,0.7582930922508241,0.029831886291503906,987.74560546875,0,13.0,1,1
8.92,0.07109845,-0.14802702,9.762514,0.0002772543812170625,0.0013650463661178944,-0.0005427599535323678,-7.209207534790039,20.871999740600586,-36.55194091796875,0.4949289560317993,0.74030601978302,0.011277198791503906,987.7732543945312,0,13.0,1,1
8.96,0.056779325,-0.16471042,9.753048,1.07430387288332e-05,0.00043297262163832784,0.00038926192792132497,-7.200893878936768,21.037294387817386,-35.716068267822266,0.5061956644058228,0.7459619641304016,0.030620574951171875,987.7913208007812,0,13.0,1,1
9.0,0.05679959,-0.1527945,9.771987,0.00041002139914780855,0.0009656361071392895,-0.0005429273587651551,-7.361305236816406,20.78196907043457,-36.06133270263672,0.4983184039592743,0.7325439453125,-0.01158428192138672,987.7684326171876,0,13.0,1,1
9.04,0.05681988599999999,-0.15756167,9.774357,1.0351883247494698e-05,-9.959573799278587e-05,-0.00014353747246786952,-7.381794929504394,20.604890823364254,-36.27876281738281,0.5009014606475829,0.7430651783943176,0.007697105407714844,987.7432250976562,0,13.0,1,1
9.08,0.05923009,-0.15041234,9.760155000000001,-0.00012300163507461548,-0.0002327218826394528,-0.0001436212914995849,-6.938794136047362,20.38752555847168,-36.25732421875,0.4889788627624512,0.7155492901802063,0.02698326110839844,987.7557373046876,0,13.0,1,1
9.12,0.061640263,-0.15517937,9.760157000000001,0.0002762768417596817,-0.0010316377738490699,0.00012261088704690337,-7.032192707061768,21.03761482238769,-36.35795593261719,0.4911319017410278,0.7164372205734253,0.0320892333984375,987.76904296875,0,13.0,1,1
9.16,0.05927068,-0.1694795,9.762526,0.00027608114760369057,3.365751763340086e-05,0.00012252706801518798,-6.9774088859558105,20.29868507385254,-36.24617385864258,0.4838148057460785,0.7363980412483215,0.004045486450195313,987.758544921875,0,13.0,1,1
9.2,0.06407076,-0.14803047,9.769629,-0.0005230620736256242,-9.946872887667269e-05,-1.071469159796834e-05,-7.312174320220947,20.77520179748535,-35.91453552246094,0.4814625382423401,0.7041239738464355,-0.000347137451171875,987.7788696289062,0,13.0,1,1
9.24,0.054531425,-0.14803107,9.762528999999999,0.0004088480491191149,-0.0007652266649529338,-1.079845242202282e-05,-7.658976554870605,21.345842361450195,-35.663536071777344,0.4882757365703583,0.7146415114402771,0.014222145080566406,987.761474609375,0,13.0,1,1
9.28,0.05694163,-0.14564826,9.7791,-0.000523453112691641,0.001365332049317658,-0.00041035615140572185,-7.348043441772461,20.05716896057129,-36.482872009277344,0.4803707003593445,0.6822941899299622,0.009870529174804688,987.7435913085938,0,13.0,1,1
9.32,0.059351802,-0.15279855,9.7649,-0.000523453112691641,0.001365332049317658,-0.00041035615140572185,-7.30097770690918,20.41722297668457,-36.35722351074219,0.4782590568065643,0.7022730708122253,0.014935493469238281,987.7435913085938,0,13.0,1,1
9.36,0.052202404,-0.15279903,9.755433,-0.00025733269285410637,0.00016694240912329406,0.0001221917918883264,-7.538321018218994,20.61635398864746,-36.255313873291016,0.4903212785720825,0.6936442852020264,0.029476165771484375,987.7588500976562,0,13.0,1,1
9.4,0.057002485,-0.15041621,9.757802,0.0001419455511495471,-0.0007651314372196794,-0.0005436817300505936,-7.223448276519775,21.22702980041504,-35.954647064208984,0.4730033576488495,0.6947633624076843,0.015636444091796875,987.7716064453124,0,13.0,1,1
9.44,0.056598723,-0.14802311,9.771969,-0.00012456602416932583,0.0004333217511884868,0.00025518209440633655,-7.42149543762207,21.252626419067386,-36.464515686035156,0.4658900499343872,0.6958588361740112,0.006493568420410156,987.7665405273438,0,13.0,1,1
9.48,0.05616924,-0.15277912,9.757727000000001,-0.00025791942607611423,-0.0008982258732430637,-0.0002775333705358207,-6.622835636138916,20.261625289916992,-35.75975799560547,0.48350167274475103,0.69224613904953,0.0258331298828125,987.7669067382812,0,13.0,1,1
9.52,0.058545172,-0.16469513,9.760092,0.00014237570576369762,0.0004332201788201928,-0.00027718167984858155,-7.228993415832519,20.852853775024414,-35.546974182128906,0.4667011499404907,0.6887088418006897,0.03089427947998047,987.7460327148438,0,13.0,1,1
9.56,0.058531225,-0.15516175,9.750622,0.00028264045249670744,-0.0005000390810891986,0.00012533814879134297,-7.560331344604492,20.43779945373535,-36.39544677734375,0.4686853289604187,0.6893420815467834,0.03600406646728516,987.7489013671876,0,13.0,1,1
9.6,0.03222835,-0.15039481,9.762457000000001,-0.00011669914238154888,0.0005652026156894863,-7.762166205793621e-06,-7.228312969207764,20.590478897094727,-36.147605895996094,0.4802597761154175,0.6710915565490723,0.022162437438964844,987.7615966796876,0,13.0,1,1
9.64,0.060893237999999995,-0.15516098,9.755353999999999,-0.0011818279745057225,0.0006983387283980846,0.0003917692811228335,-6.772730827331543,19.91069221496582,-35.947078704833984,0.4682415723800659,0.6772346496582031,0.031943321228027344,987.7694702148438,0,13.0,1,1
9.68,0.04892978,-0.16707705,9.769556,-0.0003827459877356887,0.000698316958732903,-0.0002739627962000668,-6.822404861450195,20.28574562072754,-36.19232177734375,0.4564258754253388,0.6974316239356995,0.01805400848388672,987.7489013671876,0,13.0,1,1
9.72,0.04174614,-0.16469343,9.755351,0.00041633646469563246,-0.0010327581549063325,-0.0005402209353633225,-6.7538700103759775,21.19264030456543,-36.02499771118164,0.4728175401687622,0.6699104905128479,0.02312755584716797,987.7694091796876,0,13.0,1,1
9.76,0.058461487,-0.15992658,9.764818,0.00041660526767373085,0.0001656196400290355,-7.474038284271955e-06,-7.158011436462402,20.498414993286133,-36.38400268554688,0.4511752724647522,0.6571323275566101,0.009226799011230469,987.7872924804688,0,13.0,1,1
9.8,0.056057602000000005,-0.16230948,9.757715,0.0002835819032043218,-0.00023387602414004502,-0.0005400480586104095,-7.293505191802978,20.318666458129886,-36.04467010498047,0.4491914808750153,0.6773405075073242,0.014255523681640625,987.7490844726562,0,13.0,1,1
9.84,0.065603256,-0.15515928,9.750612,-0.0006483893375843762,-0.0006333716446533799,0.00012579926988109946,-7.282010078430176,20.592824935913086,-36.06248474121094,0.4370973408222199,0.6545485258102417,0.03825283050537109,987.8076782226562,0,13.0,1,1
9.88,0.056029737,-0.15277566,9.757713,-0.0005150967044755816,-0.00010076169564854354,-0.0004067749832756817,-7.629355430603027,21.531763076782227,-35.909934997558594,0.4490397274494171,0.6557066440582275,0.02435779571533203,987.7847290039062,0,13.0,1,1
9.92,0.06318545,-0.14324228,9.748242999999999,0.0004171433392912149,0.0006981639890000224,-0.0008061910630203785,-7.09379768371582,20.400461196899414,-36.311180114746094,0.4465048313140869,0.6332085132598877,0.03886890411376953,987.7872924804688,0,13.0,1,1
9.96,0.060781598,-0.13847537,9.757710000000001,-0.00011535407975316048,-0.00010080542415380478,0.00012597214663401246,-7.112466812133789,20.85698890686035,-36.181053161621094,0.4345332086086273,0.6296923756599426,0.02496623992919922,987.7567749023438,0,13.0,1,1
10.0,0.06315756,-0.14800812,9.771913,-0.00011521938722580671,0.0012307522119954226,0.0001260298304259777,-7.71199369430542,21.085817337036133,-36.17903900146485,0.4364993870258331,0.621827244758606,0.0110626220703125,987.7694091796876,0,13.0,1,1
10.04,0.06553346,-0.15515758,9.769544999999999,0.00015123083721846342,-0.00010084912355523556,0.0009250350994989276,-7.460110664367676,21.163789749145508,-36.453369140625,0.4199595451354981,0.6469827890396118,0.020816802978515625,987.7822265625,0,13.0,1,1
10.08,0.058349847999999996,-0.15277393,9.764809,1.820758916437626e-05,0.00043176085455343127,0.000525618903338909,-6.596557140350343,19.812456130981445,-36.27641296386719,0.43663448095321655,0.633946418762207,0.025847434997558597,987.7670288085938,0,13.0,1,1
10.12,0.07028538,-0.15992345,9.764808,1.8341816030442715e-05,0.0008312128484249115,-0.0002732710563577712,-7.030670166015625,21.039087295532227,-36.43526458740234,0.4195449054241181,0.6400066614151001,0.026157379150390625,987.7698364257812,0,13.0,1,1
10.16,0.07027143,-0.1551566,9.767172,-0.00011468143202364443,0.00029855925822630525,0.0005257342709228396,-6.984880447387695,20.39723777770996,-36.55873107910156,0.4128391742706299,0.6223114728927612,0.007483482360839844,987.7547607421876,0,13.0,1,1
10.2,0.07503727,-0.15277295,9.769539,0.0012106378562748432,-0.0007051808061078192,0.00033162208274006844,-7.378750801086426,20.60783576965332,-36.43337631225586,0.4110212028026581,0.6291675567626953,0.017172813415527344,987.775146484375,0,13.0,1,1
10.24,0.060683905999999996,-0.15038933,9.762436,0.0008112984942272304,-0.0005720447516068816,-0.0006004258757457138,-7.5625343322753915,20.698701858520508,-35.71751403808594,0.4228211939334869,0.6355531811714172,0.026920318603515625,987.7802734375,0,13.0,1,1
10.28,0.065449774,-0.16707195,9.769536,0.0009445910109207033,0.0004931970033794641,-0.00046721030957996845,-6.931023597717285,20.921113967895508,-35.51990509033203,0.4209166765213013,0.6325887441635132,0.02242279052734375,987.747314453125,0,13.0,1,1
10.32,0.06065601,-0.15277196,9.752964,0.0010778831783682108,-0.0008384041721001267,0.0005981108988635242,-7.332119941711426,20.229825973510746,-36.03352355957031,0.4188351333141327,0.6058855056762695,0.027396202087402344,987.7727661132812,0,13.0,1,1
10.36,0.06542182,-0.1527716,9.760064999999999,0.0008117022225633264,-0.00017263639892917126,6.553682032972574e-05,-7.2152957916259775,20.866106033325195,-36.24272155761719,0.39740216732025146,0.6072707176208496,0.03240394592285156,987.7371826171876,0,13.0,1,1
10.4,0.06779778,-0.15753777,9.750595,-0.00012026913464069365,0.0004931314615532756,0.00046506826765835285,-7.682372093200684,21.271738052368164,-36.425437927246094,0.4048231244087219,0.6135274171829224,0.02792930603027344,987.7723388671876,0,13.0,1,1
10.44,0.062004805,-0.15518828,9.774393,0.000672262511216104,0.0006273310864344238,0.0004623184213414788,-7.250568389892577,21.4123477935791,-35.96131134033203,0.4142787456512451,0.6088723540306091,-0.00021839141845703125,987.7730712890624,0,13.0,1,1
10.48,0.07877603,-0.15280606,9.757827,0.000672262511216104,0.0006273310864344238,0.0004623184213414788,-7.250568389892577,21.4123477935791,-35.96131134033203,0.3893948793411255,0.5976652503013611,0.042511940002441406,987.7730712890624,0,13.0,1,1
10.52,0.066868365,-0.14565732,9.7673,-0.00012988958042114973,-0.0005739072803407907,5.7069293688982725e-05,-7.0191755294799805,21.31324577331543,-36.45307922363281,0.4065463244915009,0.5896625518798828,0.01907634735107422,987.7779541015624,0,13.0,1,1
10.56,0.07169002,-0.15995793,9.7696705,0.0008018126245588063,0.0004914217279292643,-7.626146543771029e-05,-7.3798370361328125,21.34441566467285,-36.630279541015625,0.3947278261184693,0.6058481335639954,0.019309043884277344,987.7625732421876,0,13.0,1,1
10.6,0.052612662000000004,-0.14804257,9.767307,2.461601980030537e-06,-0.00030746040283702314,-7.643422577530147e-05,-7.325596332550049,20.97377586364746,-36.61695098876953,0.4066880643367767,0.593223512172699,0.010087013244628906,987.757568359375,0,13.0,1,1
10.64,0.055044413,-0.15995999,9.767311,0.0008010058663785457,0.00035839475458487874,0.0004560246597975493,-7.467040538787843,20.89405632019043,-36.66747283935547,0.4045058786869049,0.5996003746986389,0.029262542724609375,987.7727661132812,0,13.0,1,1
10.68,0.07181555,-0.159961,9.772049,0.0008010058663785457,0.00035839475458487874,0.0004560246597975493,-7.483101844787598,20.615476608276367,-36.41773986816406,0.3828646540641785,0.5965194702148438,0.024778366088867188,987.7727661132812,0,13.0,1,1
10.72,0.059907854,-0.15281217,9.755483,-0.00013150309678167105,0.0004916182369925082,5.637784488499165e-05,-7.411277770996094,20.52488899230957,-36.7314453125,0.3998927474021912,0.5837249755859375,0.03448200225830078,987.7779541015624,0,13.0,1,1
10.76,0.06233960400000001,-0.13851358,9.767323,0.0005338832270354034,0.000225367781240493,0.0004556788480840624,-7.349129676818848,20.79374885559082,-36.679771423339844,0.3835864663124085,0.5616526603698729,0.011028289794921877,987.7807006835938,0,13.0,1,1
10.8,0.052821904,-0.15996404,9.781528,0.0005334798479452728,-0.0009729881421662867,0.0007218217942863702,-7.461090087890625,20.79403114318848,-36.277610778808594,0.40564900636672974,0.5916458368301392,0.02072238922119141,987.757568359375,0,13.0,1,1
10.84,0.06959307,-0.14328219,9.764961999999999,-0.0006653451127931477,-0.0001739750150591135,-0.0002104566665366292,-7.382880210876465,21.341463088989254,-36.475669860839844,0.38467976450920105,0.570022702217102,0.02564716339111328,987.7753295898438,0,13.0,1,1
10.88,0.057685375,-0.15281631,9.75313,0.000665831146761775,-0.0003070675302296877,0.0007214759243652225,-7.923601150512695,21.204076766967773,-36.69224166870117,0.392235279083252,0.576408326625824,0.04480648040771485,987.7735595703124,0,13.0,1,1
10.92,0.06250706,-0.16235039999999998,9.76497,0.00013279588893055916,-0.0008396338089369237,0.0005881452234461904,-7.412799835205077,20.52341651916504,-36.65414047241211,0.39445376396179205,0.5735524892807007,0.026101112365722656,987.7779541015624,0,13.0,1,1
10.96,0.06493878,-0.16711803,9.764974,0.0007981822127476335,9.25372587516904e-05,0.00032165658194571733,-7.551880836486816,20.709009170532227,-36.25864791870117,0.3785785436630249,0.5798664689064026,0.021567344665527344,987.7779541015624,0,13.0,1,1
11.0,0.06737053400000001,-0.14328629999999998,9.767344,-0.00013432675041258335,-4.055519821122289e-05,-7.799011655151844e-05,-7.4345130920410165,20.976999282836914,-36.36940002441406,0.3810490071773529,0.557914674282074,0.02652168273925781,987.7807006835938,0,13.0,1,1
11.04,0.07219219,-0.15997018,9.753145,0.0002647438086569309,-0.0008394372998736799,-0.00021132093388587242,-6.7822675704956055,20.376054763793945,-36.28077697753906,0.3692916333675385,0.5646859407424927,0.03619861602783203,987.765380859375,0,13.0,1,1
11.08,0.06984419,-0.16473784,9.767352,0.00013118248898535967,9.273365139961244e-05,-0.00034465175122022634,-7.3853816986083975,20.97023200988769,-36.22261047363281,0.3670075237751007,0.5807722806930542,0.03641891479492188,987.7679443359376,0,13.0,1,1
11.12,0.060326397000000004,-0.15043919,9.774459,0.0010628846939653158,0.0012912207748740911,-0.0007442985661327839,-7.605440139770508,20.817277908325195,-36.87260437011719,0.3697595298290253,0.5397975444793701,0.017681121826171875,987.7781982421876,0,13.0,1,1
11.16,0.050808668,-0.16235657,9.760259,0.0002631301758810878,-0.00017338573525194081,0.0003206193214282393,-7.695389270782472,20.99610710144043,-36.33031463623047,0.3818000555038452,0.5603839755058289,0.02264499664306641,987.7709350585938,0,13.0,1,1
11.2,0.06279999,-0.14567472,9.7697315,-0.000669378787279129,0.0014245749916881325,0.00085307820700109,-7.611528396606445,20.811384201049805,-36.563385009765625,0.365194171667099,0.5382521748542786,0.01339435577392578,987.7785034179688,0,13.0,1,1
11.24,0.070011556,-0.15759213,9.767368,0.0001291654771193862,0.00022621912648901343,0.0003202734515070915,-7.642778396606445,21.730337142944336,-36.61233901977539,0.3582954406738281,0.5402668714523315,0.03252887725830078,987.7634887695312,0,13.0,1,1
11.28,0.06527364,-0.15282656,9.769739,-4.395842552185059e-06,-0.0005726630333811045,0.0004532584571279586,-7.866018295288086,21.468515396118164,-36.408653259277344,0.3611541986465454,0.5180751085281372,0.03273200988769531,987.78369140625,0,13.0,1,1
11.32,0.08443469,-0.15759416,9.769743,-4.7992216423153886e-06,-0.0001731237425701693,0.0005862435791641474,-8.287986755371094,21.494672775268555,-36.114200592041016,0.3449085652828217,0.5434833168983461,0.01873302459716797,987.7959594726562,0,13.0,1,1
11.36,0.05101794,-0.15282865,9.760278,0.0003942711045965552,0.0004927314002998173,-0.000212877057492733,-7.748107433319093,21.368215560913086,-36.42095184326172,0.38582995533943176,0.5406641364097595,0.02366352081298828,987.7481689453124,0,13.0,1,1
11.4,0.05583954,-0.15997948,9.769751,-0.00027192174457013607,0.0002264809445478022,-0.00034620775841176515,-7.2798075675964355,20.331926345825195,-36.74041366577149,0.3310777842998505,0.5375248789787292,0.004935264587402344,987.7913818359376,0,13.0,1,1
11.44,0.04965663,-0.15517853,9.755419,-0.00027232524007558817,0.00022654648637399083,0.00045256712473928934,-7.733867168426514,21.013185501098636,-37.01824951171875,0.3398759365081787,0.4919536113739014,0.02419471740722656,987.75830078125,0,13.0,1,1
11.48,0.078320265,-0.16232802,9.755417,0.0008029291057027876,0.0008922017877921463,5.933712236583232e-05,-7.550764083862305,21.1846866607666,-37.13348388671875,0.3090254962444305,0.5179383158683777,0.029123306274414062,987.7635498046876,0,13.0,1,1
11.52,0.06157574,-0.13849479999999997,9.762518,5.817681085318327e-06,0.0006255877669900656,-0.0002061919076368213,-7.716421604156494,21.187314987182614,-36.64620208740234,0.335343599319458,0.4816664457321167,0.029336929321289062,987.7457275390624,0,13.0,1,1
11.56,0.080679744,-0.15279408,9.757782,-0.00012719345977529883,0.000758721842430532,0.0008591345977038145,-7.958874225616455,21.750322341918945,-36.410831451416016,0.33357107639312744,0.521693229675293,0.029521942138671875,987.7863159179688,0,13.0,1,1
11.6,0.049595743,-0.14802720000000003,9.779085,0.0002724271616898477,-0.00030656554736196995,6.0249818488955505e-05,-8.034881591796875,20.94198036193848,-36.890708923339844,0.3746295869350433,0.5237080454826355,0.010771751403808594,987.7711181640624,0,13.0,1,1
11.64,0.06391993,-0.1551766,9.771982000000001,-0.0009258476202376188,-0.00017343135550618172,-0.00047231907956302166,-7.760008335113525,21.568265914916992,-37.20066833496094,0.3286949694156647,0.5139496326446533,0.02055072784423828,987.7710571289062,0,13.0,1,1
11.68,0.080634,-0.16470937,9.750675,-0.0005262268823571503,0.0003591765998862684,-7.278227712959051e-05,-8.169395446777344,21.13199806213379,-36.727134704589844,0.33727189898490906,0.5315589904785156,0.03958320617675781,987.7963256835938,0,13.0,1,1
11.72,0.04716015,-0.15517591,9.767244999999999,0.0004137626674491912,-9.787190356291829e-05,-0.00035750243114307523,-8.098934173583983,21.56615257263184,-35.83958435058594,0.3689139187335968,0.519178032875061,0.02082729339599609,987.7539672851562,0,13.0,1,1
11.76,0.06865403,-0.16232539999999998,9.757775,0.0004139095835853368,0.00016842014156281948,0.0001751922536641359,-7.228832721710205,21.37907218933105,-34.42302703857422,0.33370673656463623,0.5119807124137878,0.035193443298339844,987.7590942382812,0,13.0,1,1
11.8,0.04951957,-0.14802535,9.767242,-0.0007843652274459599,3.5238335840404034e-05,0.0003084131167270243,-6.786512851715088,21.424081802368164,-33.80096435546875,0.34157392382621765,0.4994294047355652,0.030638694763183594,987.7539672851562,0,13.0,1,1
11.84,0.054284215,-0.15517475,9.748303,0.0009468347998335958,-0.000763733172789216,4.216015804558992e-05,-6.966273307800293,21.88765525817871,-33.41546630859375,0.3346153199672699,0.5019245743751526,0.05448341369628906,987.781982421875,0,13.0,1,1
11.88,0.06382856,-0.14325799,9.764873,0.00014803410158492625,0.00030150654492899776,-0.0006235666223801672,-7.277122497558594,21.649682998657227,-34.04650115966797,0.33764803409576416,0.4750818014144898,0.035724639892578125,987.7586669921876,0,13.0,1,1
11.92,0.06381333,-0.14802416,9.762504,0.00014818090130575,3.516682772897184e-05,4.2285944800823934e-05,-6.934342384338379,20.70633125305176,-33.967140197753906,0.3316456973552704,0.5009621977806091,0.035872459411621094,987.77392578125,0,13.0,1,1
11.96,0.06618798,-0.15040709,9.774339,0.0002814856416080147,-0.0012964364141225815,-0.00022396695567294955,-6.368429183959961,21.13113594055176,-34.464122772216804,0.33453482389450073,0.5032376646995544,0.007630348205566406,987.779052734375,0,13.0,1,1
12.0,0.059003055,-0.14802344,9.762501,-0.0006504732882604003,3.511918475851417e-05,0.0005750436102971435,-6.9301815032958975,21.184953689575195,-34.99658203125,0.3426549732685089,0.4956141114234924,0.03619670867919922,987.7844848632812,0,13.0,1,1
12.04,0.058987795999999995,-0.15517284,9.760132,-0.0006504732882604003,3.511918475851417e-05,0.0005750436102971435,-7.214155673980713,21.762094497680664,-35.294532775878906,0.3266926407814026,0.4927783012390137,0.03635978698730469,987.7844848632812,0,13.0,1,1
12.08,0.06375235,-0.15755577,9.762497999999999,-0.00025085252127610147,-0.0010301681468263268,0.0007082644151523709,-7.773843288421631,21.4490909576416,-35.80584716796875,0.3387591242790222,0.4898091554641724,0.03182029724121094,987.7719116210938,0,13.0,1,1
12.12,0.061347245999999994,-0.14563908,9.745925999999999,0.00028192592435516417,0.0007008612155914308,4.253757651895285e-05,-7.753790855407715,20.88811683654785,-35.31420135498047,0.32246658205986023,0.4772406816482544,0.04146862030029297,987.779052734375,0,13.0,1,1
12.16,0.061332047,-0.15755503,9.769597000000001,-0.0014489805325865743,0.0005676794680766761,0.00030891638016328216,-7.5374794006347665,20.88020133972168,-35.73199462890625,0.32546091079711914,0.4839636087417602,0.02269840240478516,987.7816162109376,0,13.0,1,1
12.2,0.066096604,-0.15993793,9.776697,-0.0003835701791103929,0.0004344976623542607,0.00017582142027094958,-7.857024669647218,21.37143898010254,-36.17340087890625,0.30907827615737915,0.4811322689056397,0.01340484619140625,987.792236328125,0,13.0,1,1
12.24,0.066081405,-0.16232087,9.76486,-0.0005165812326595186,3.50000336766243e-05,0.0012411478674039245,-7.955424785614014,21.2790584564209,-35.76791381835937,0.31222042441368103,0.4926697611808777,0.03723430633544922,987.779052734375,0,13.0,1,1
12.28,0.07562575,-0.14802088,9.764858,-0.0005164345493540168,0.0003012921661138534,0.0007085789693519473,-7.538022041320801,21.24848747253418,-35.8304443359375,0.3056228756904602,0.460904061794281,0.02320575714111328,987.756591796875,0,13.0,1,1
12.32,0.06605092,-0.15278699,9.76249,-0.00038312989636324346,0.0004344262415543199,0.0005754840094596148,-7.434650421142577,20.87108039855957,-35.670318603515625,0.31343191862106323,0.4628863334655762,0.02810001373291016,987.756591796875,0,13.0,1,1
12.36,0.05408615,-0.15516992,9.762488000000001,-0.0007824568310752512,0.0003012444358319044,-0.0004897165927104652,-7.32671308517456,20.49809455871582,-35.74211502075195,0.3307846784591675,0.4694502949714661,0.03299999237060547,987.7489624023438,0,13.0,1,1
12.4,0.05248922,-0.15518938,9.764928,-0.001314941793680191,-9.825325105339289e-05,4.2978033889085054e-05,-6.841073513031006,20.742280960083008,-36.06218719482422,0.3098935782909393,0.4716348648071289,0.033150672912597656,987.7924194335938,0,13.0,1,1
12.44,0.060500443,-0.15759327,9.776841000000001,-0.0003826893807854504,0.0003011968219652772,-0.000622748804744333,-7.2559757232666025,21.144086837768555,-36.25271606445313,0.3111441135406494,0.4595510959625244,0.028421401977539062,987.7772827148438,0,13.0,1,1
12.48,0.070109546,-0.15521120000000002,9.765009,0.0001443052024114877,3.5795965231955045e-05,-9.253289317712188e-05,-7.235486030578612,21.3211612701416,-36.03528594970703,0.29511719942092896,0.451974630355835,0.03330039978027344,987.7794799804688,0,13.0,1,1
12.52,0.07015902,-0.15759571,9.772116,-0.0001272822846658528,0.00043168978299945593,-0.0002334984019398689,-7.061270236968994,20.483407974243164,-36.01310729980469,0.2982223331928253,0.4588391780853272,0.02870464324951172,987.7899169921876,0,13.0,1,1
12.56,0.06064892,-0.15759696,9.750816,-0.0009267067653127016,0.0005649251397699118,0.0005652447580359876,-6.690636157989503,20.724924087524414,-35.77642059326172,0.30103257298469543,0.4702838063240051,0.03832817077636719,987.777099609375,0,13.0,1,1
12.6,0.06786811,-0.14329852,9.772125,-0.0003945520729757845,0.0001655287342146039,0.00016556656919419763,-6.85006856918335,20.8393611907959,-36.29743576049805,0.3036821782588959,0.4345400929450989,0.024270057678222656,987.7772827148438,0,13.0,1,1
12.64,0.07508734,-0.15283276,9.753192,-0.0003950287937186658,0.0006982379127293825,0.0002985201426781714,-6.901700496673584,20.474889755249023,-36.19116973876953,0.287521630525589,0.4460063576698303,0.04808902740478516,987.77197265625,0,13.0,1,1
12.68,0.06318727,-0.1576006,9.762665,-0.0005286639207042754,0.00016568356659263372,3.1999778002500534e-05,-7.07453203201294,21.208200454711914,-35.59157180786133,0.2954624593257904,0.4384636878967285,0.0387563705444336,987.779052734375,0,13.0,1,1
12.72,0.06323677,-0.15998508,9.781607000000001,-0.0005291411071084441,-0.00010055485472548753,0.0004312692326493561,-6.874281883239746,20.921709060668945,-35.75963592529297,0.2842270135879517,0.4500277042388916,0.005751609802246094,987.7718505859376,0,13.0,1,1
12.76,0.063286245,-0.16236956,9.755572,-0.0006627760012634099,-0.00010047740943264216,0.00016474886797368526,-6.8933868408203125,20.64018440246582,-35.35529327392578,0.287505567073822,0.4426390528678894,0.034282684326171875,987.7922973632812,0,13.0,1,1
12.8,0.065725684,-0.15998746,9.757944,-0.0005300948978401719,-0.0004998737713322043,-0.00023492926266044376,-6.587807655334473,20.71580696105957,-35.714744567871094,0.2811569571495056,0.4493992924690247,0.04861831665039063,987.7769165039062,0,13.0,1,1
12.84,0.068165064,-0.16475524,9.755581,-0.00026425597025081515,-0.00010032253339886664,-0.00010197586379945278,-6.4333457946777335,21.071157455444336,-35.75934219360352,0.2940044701099396,0.4421880841255188,0.05820465087890625,987.7899169921876,0,13.0,1,1
12.88,0.058654934000000006,-0.15522338,9.776892,-0.0003978910972364247,-0.00023340301413554698,0.0009630832355469463,-6.470439434051514,20.983793258666992,-35.82550048828125,0.2924639880657196,0.4346519112586975,0.02045726776123047,987.7974853515624,0,13.0,1,1
12.92,0.06826407,-0.15999116,9.762692,-0.0002652103430591524,-0.00010016764281317592,3.077322617173195e-05,-6.609818935394287,20.537256240844727,-35.85487365722656,0.2860094308853149,0.43214297294616705,0.03951835632324219,987.7745971679688,0,13.0,1,1
12.96,0.06831354,-0.15045924,9.767431,-0.0006651611183770001,0.00016622571274638176,0.0004300426226109266,-6.239481925964356,20.146631240844727,-36.043052673339844,0.2890369594097137,0.42952436208724976,0.03491401672363281,987.7693481445312,0,13.0,1,1
13.0,0.0659731,-0.15761022,9.767436,-0.0003993220743723213,0.0002994610113091767,-0.00023595162201672792,-6.3987531661987305,20.78728675842285,-35.44012451171875,0.28725698590278625,0.4271805286407471,0.030302047729492188,987.769287109375,0,13.0,1,1
13.04,0.066022575,-0.1599948,9.779276,-0.00013348303036764264,-0.00036625118809752166,0.00016331777442246675,-6.008226871490479,19.941606521606445,-35.83573913574219,0.2805359363555908,0.42339569330215454,0.025730133056640625,987.7719116210938,0,13.0,1,1
13.08,0.04934275,-0.15046291,9.765077999999999,-0.0004002760979346931,-0.00076564762275666,0.0004294293175917119,-5.935263633728027,20.74700355529785,-35.20124816894531,0.303615927696228,0.4080066680908203,0.03525543212890625,987.7743530273438,0,13.0,1,1
13.12,0.058951855,-0.140931,9.769816,0.0002650367678143084,0.0004328512586653233,0.0005623829201795161,-6.068554878234862,20.30635643005371,-35.53984832763672,0.2781292200088501,0.4053868651390076,0.01643657684326172,987.7737426757812,0,13.0,1,1
13.16,0.07095083599999999,-0.15284853,9.769821,-0.0010670195333659649,-0.0002328609843971208,2.9546907171607014e-05,-6.460902214050293,20.5184268951416,-35.491798400878906,0.27633243799209595,0.4123829007148743,0.04023170471191406,987.783935546875,0,13.0,1,1
13.2,0.061440706,-0.15761639,9.762724,-0.0013338127173483374,-9.962562762666494e-05,-0.0006364474538713694,-5.873658180236816,21.384157180786133,-35.24803161621094,0.27979519963264465,0.4193561673164368,0.04033851623535156,987.7719116210938,0,13.0,1,1
13.24,0.063880116,-0.15761758,9.762729,0.0006129348184913398,-0.0006449584616348147,0.00013831770047545433,-6.003500938415527,20.47224998474121,-34.94370651245117,0.2826545834541321,0.4111445546150208,0.04522132873535156,987.7736206054688,0,13.0,1,1
13.28,0.06153971,-0.15285225,9.762733,0.0006129348184913398,-0.0006449584616348147,0.00013831770047545433,-6.003500938415527,20.47224998474121,-34.94370651245117,0.28168222308158875,0.4004032611846924,0.040549278259277344,987.7736206054688,0,13.0,1,1
13.32,0.06397909,-0.15047015,9.779307000000001,0.00021298392675817013,0.0006866983021609485,-0.0007939923088997602,-5.874499320983888,21.120309829711914,-35.7713508605957,0.2707037925720215,0.40775609016418457,0.00750732421875,987.7662963867188,0,13.0,1,1
13.36,0.071198285,-0.15762122,9.762742,7.934891618788242e-05,-0.0014437513891607525,-0.0005278808530420065,-6.147712707519531,20.601411819458008,-36.23777770996094,0.2694992125034332,0.4104726314544678,0.026531219482421875,987.7662963867188,0,13.0,1,1
13.4,0.06334412,-0.15522106,9.765047000000001,-0.00032060209196060896,-0.0005115682724863291,4.546425770968199e-06,-6.190487861633301,20.033945083618164,-35.197181701660156,0.2685925662517548,0.4033696055412293,0.05037879943847656,987.7587280273438,0,13.0,1,1
13.44,0.0681442,-0.14330532,9.753212,-0.00032060209196060896,-0.0005115682724863291,4.546425770968199e-06,-5.979286193847656,20.389902114868164,-35.48151016235352,0.2717244327068329,0.3914009928703308,0.04575920104980469,987.7587280273438,0,13.0,1,1
13.48,0.06099480400000001,-0.16713853,9.750847,-0.00044391048140823836,0.0008138034027069808,0.00013638118980452418,-6.127903938293457,21.040864944458008,-35.419715881347656,0.2748928666114807,0.4133101403713226,0.055327415466308594,987.7763061523438,0,13.0,1,1
13.52,0.06340498,-0.14092298,9.753216,0.0007560356752946973,0.0004140821692999453,0.0001370347454212606,-6.14342212677002,20.393999099731445,-35.071537017822266,0.2589020431041717,0.3874193429946899,0.04596138000488281,987.7685546875,0,13.0,1,1
13.56,0.05625555,-0.15283982,9.774523,-4.310754593461752e-05,0.000414113950682804,-0.0002625228953547776,-6.226602554321289,20.316347122192386,-35.43909454345703,0.2766186594963074,0.3903584480285645,0.027112960815429688,987.7637939453124,0,13.0,1,1
13.6,0.07061523,-0.17190655,9.765057,0.0010219606338068843,1.4671793906018136e-05,-0.0007952383602969347,-5.852924346923827,20.560815811157227,-35.357017517089844,0.26077747344970703,0.4072388410568237,0.0366811752319336,987.7914428710938,0,13.0,1,1
13.64,0.05629611,-0.15999071,9.774527,-4.3498585000634193e-05,-0.0005179282161407173,-0.00012953259283676744,-5.899829864501952,20.72697639465332,-34.35871124267578,0.2740964889526367,0.385948121547699,0.046235084533691406,987.7730102539062,0,13.0,1,1
13.68,0.07543564,-0.140925,9.750856,0.0002226217184215784,-0.0003847385232802481,-0.001594353700056672,-5.994368553161621,20.481088638305664,-35.40753936767578,0.2531929612159729,0.3695818781852722,0.04160594940185547,987.8041381835938,0,13.0,1,1
13.72,0.051556885,-0.15522511,9.757959,0.0004887421382591128,1.476702163927257e-05,0.0008024054113775492,-6.014994621276856,20.198091506958008,-34.925891876220696,0.2705845832824707,0.3866123855113983,0.03223896026611328,987.7711181640624,0,13.0,1,1
13.76,0.06352669,-0.15760888,9.769798,8.907285518944262e-05,0.0006805885350331664,-0.0003960998146794736,-5.444516181945801,20.627317428588867,-35.65479278564453,0.2595707476139069,0.3986082971096039,0.022869110107421875,987.7913208007812,0,13.0,1,1
13.8,0.063546956,-0.16952576,9.765065,-0.00031059666071087117,-0.0001183274434879422,-0.000396183633711189,-5.807380199432372,20.91938591003418,-35.15406036376953,0.25350022315979004,0.3965588510036469,0.05136299133300781,987.7836303710938,0,13.0,1,1
13.84,0.061177342999999995,-0.15284337,9.760332,0.00022183975670486689,-0.00025145363179035485,-0.00039626745274290437,-5.745530128479004,20.55611228942871,-35.527259826660156,0.26157820224761963,0.3756512999534607,0.05145072937011719,987.77099609375,0,13.0,1,1
13.88,0.05880773,-0.15522714,9.767437,0.0003546065418049693,0.0008138733683153987,-0.0003964349743910134,-5.5127525329589835,20.352563858032227,-35.397247314453125,0.2500000596046448,0.3784071803092957,0.02788639068603516,987.7609252929688,0,13.0,1,1
13.92,0.06599775,-0.14807779999999998,9.772173,-4.5062857680022717e-05,0.0009470629738643763,-0.0006628347910009326,-5.538351058959961,20.53935432434082,-35.48121643066406,0.2485396862030029,0.3668397665023804,0.01850795745849609,987.7886962890624,0,13.0,1,1
13.96,0.07079780000000001,-0.15761138,9.772175,0.00035421561915427446,-0.0001181687111966312,-0.00013028673129156232,-5.545279502868652,20.26961326599121,-35.69532012939453,0.24252212047576904,0.3837321400642395,0.028061866760253903,987.74755859375,0,13.0,1,1
14.0,0.06842822,-0.15761183,9.776911,-0.0005780855426564813,-0.0001181370171252638,0.0002691032423172146,-5.800748825073242,20.55698585510254,-35.36483383178711,0.25073954463005066,0.3674579560756683,0.03287982940673828,987.7807006835938,0,13.0,1,1
14.04,0.066058576,-0.16237898,9.77928,0.0006201403448358178,-0.00025126320542767644,0.0002690195105969906,-5.91713809967041,20.658761978149414,-35.429832458496094,0.24914103746414185,0.3701188564300537,0.02350425720214844,987.7880859375,0,13.0,1,1
14.08,0.06846875,-0.16714601,9.762711,0.0003536288859322667,0.0012135059805586936,-0.0009294858318753539,-5.883524417877197,20.005128860473636,-34.934860229492195,0.24261274933815,0.3731350898742676,0.033064842224121094,987.7853393554688,0,13.0,1,1
14.12,0.078048676,-0.14808027,9.767447,0.0010192232439294457,0.00014827409177087247,0.00026885190163739026,-5.70096492767334,20.544931411743164,-35.148548126220696,0.2315554916858673,0.37116289138793945,0.02841663360595703,987.7423095703124,0,13.0,1,1
14.16,0.063729525,-0.14569749,9.772182,-0.00017939379904419184,0.00041462163790129125,-0.00013070571003481746,-6.026895523071289,20.39813804626465,-35.70560836791992,0.24915367364883426,0.3550027310848236,0.03797149658203125,987.7830810546876,0,13.0,1,1
14.2,0.06852963599999999,-0.15523101,9.760349,-0.0004459052579477429,0.000680969445966184,-0.0011960531119257214,-6.047086715698242,20.85319709777832,-35.49817276000977,0.23352879285812375,0.3577176034450531,0.04278564453125,987.7777099609376,0,13.0,1,1
14.24,0.07332975,-0.1576149,9.772186,0.0004860047483816743,-0.0003842624137178064,-0.0011961369309574366,-5.837841987609862,20.469621658325195,-35.43098831176758,0.2322821617126465,0.36536520719528204,0.03812789916992188,987.757568359375,0,13.0,1,1
14.28,0.06618029,-0.14569901,9.76272,-0.0004462961805984378,-0.0006505465134978294,-0.00013095710892230272,-5.749659538269043,21.289743423461914,-35.569549560546875,0.23133933544158936,0.3390939831733704,0.038204193115234375,987.7902221679688,0,13.0,1,1
14.32,0.056640983,-0.1528493,9.765089,-0.0008459656964987516,-0.0010499886702746153,-0.00039735663449391717,-5.8655052185058585,21.02323341369629,-35.536102294921875,0.24932754039764404,0.3512348532676697,0.033545494079589844,987.75732421875,0,13.0,1,1
14.36,0.058674276,-0.15760710000000003,9.767425,-0.0008461611578240992,-0.00011785131937358528,-0.0001311246887780726,-5.757568359375,20.650243759155273,-35.60789489746094,0.2431163191795349,0.3538458049297333,0.04309844970703125,987.7723388671876,0,13.0,1,1
14.4,0.06307456,-0.14091487,9.755552,-0.00044597906526178116,0.00041466546826995915,0.00026865265681408346,-5.137850761413574,19.96636390686035,-35.817344665527344,0.2328712344169617,0.3373607099056244,0.05745792388916016,987.8103637695312,0,13.0,1,1
14.44,0.07023415,-0.15521426,9.772122999999999,9.294773917645216e-05,0.0004136435745749623,-0.000927071028854698,-5.758546829223633,20.280481338500977,-35.4321403503418,0.22191783785820007,0.344931036233902,0.02913188934326172,987.774658203125,0,13.0,1,1
14.48,0.060664355999999996,-0.16474713,9.755552,-0.0007059021154418588,0.0008131015347316861,-0.0009270288865081967,-5.73653507232666,20.45903205871582,-35.29200744628906,0.2397206127643585,0.3618803024291992,0.04815196990966797,987.7694091796876,0,13.0,1,1
14.52,0.060654223,-0.14329745,9.77212,0.0002263013739138842,-0.0006516517605632544,-0.000394355331081897,-5.615581035614014,20.36168098449707,-35.45892333984375,0.22908815741539,0.331363320350647,0.0245513916015625,987.7796020507812,0,13.0,1,1
14.56,0.06542390599999999,-0.15759684,9.786324,-0.00043939054012298573,-0.0006516675930470227,5.160458385944367e-06,-6.0580387115478525,20.21074867248535,-35.38190841674805,0.2232835292816162,0.3388923406600952,0.02935504913330078,987.8026123046876,0,13.0,1,1
14.6,0.06780365,-0.15283008,9.772119,9.333901107311247e-05,-0.000917999423108995,-0.0003942715120501816,-6.4539737701416025,20.788164138793945,-35.2776985168457,0.23148736357688904,0.33236587047576904,0.03890037536621094,987.775146484375,0,13.0,1,1
14.64,0.06540358,-0.15282984,9.7555485,-0.0005723529029637575,0.0006798800313845277,-0.0005273874267004429,-5.817789077758789,19.908647537231445,-34.939346313476555,0.22070547938346866,0.3444035947322845,0.04844856262207031,987.75927734375,0,13.0,1,1
14.68,0.06539345,-0.15997936,9.757914,-0.00017278117593377826,-0.0003853993548545986,-0.0005273456335999073,-5.719388961791992,20.00103187561035,-35.3448371887207,0.22447657585144046,0.3426749110221863,0.05324554443359375,987.79248046875,0,13.0,1,1
14.72,0.065383255,-0.16474558,9.774483,0.0004931063158437611,-0.0005185731570236385,-0.00039414566708728666,-5.830232620239258,20.47698402404785,-35.81751251220703,0.22321352362632751,0.355057030916214,0.024913787841796875,987.789794921875,0,13.0,1,1
14.76,0.06537315,-0.15282895,9.769749000000001,0.0003452218952588737,0.0003191065916325897,-0.00031116325408220286,-6.223559379577638,20.31929588317871,-35.59370422363281,0.22676825523376465,0.3296185731887817,0.02971363067626953,987.7567749023438,0,13.0,1,1
14.8,0.07253271,-0.1647451,9.757912,0.0003452218952588737,0.0003191065916325897,-0.00031116325408220286,-6.088202953338622,20.39312171936035,-35.23396301269531,0.2064562439918518,0.3418935537338257,0.04872417449951172,987.7567749023438,0,13.0,1,1
14.84,0.055793256,-0.1623616,9.755543,-0.0003204700187779963,-8.038310625124723e-05,0.00022151059238240123,-5.753002166748048,20.654664993286133,-35.83980941772461,0.2286629378795624,0.3349434435367584,0.05354785919189453,987.7465209960938,0,13.0,1,1
14.88,0.06295282,-0.16474466,9.762644,7.91015918366611e-05,0.00018591692787595093,-0.00017792137805372477,-6.314350128173827,20.234277725219727,-35.574745178222656,0.2275818884372711,0.32855725288391113,0.03940582275390625,987.7769165039062,0,13.0,1,1
14.92,0.05577296,-0.14806147,9.769745,-0.0001871165004558861,0.0008516907691955566,8.843647083267571e-05,-6.232989311218263,19.678316116333008,-35.554744720458984,0.22125139832496646,0.322324812412262,0.04421043395996094,987.7413940429688,0,13.0,1,1
14.96,0.0653224,-0.16236092,9.772111,0.000745086872484535,-0.0007462203502655028,-0.00017783755902200935,-5.7443060874938965,19.925447463989254,-36.02943420410156,0.21017664670944214,0.3493069410324097,0.04428291320800781,987.7899169921876,0,13.0,1,1
15.0,0.06053245,-0.15282758,9.767375999999999,0.0006120268371887505,0.001117974752560258,-0.00017779564950615168,-6.1994829177856445,20.13102912902832,-35.43243408203125,0.21860429644584656,0.3139951825141907,0.030145645141601562,987.7997436523438,0,13.0,1,1
15.04,0.07725161,-0.15759386,9.769741,0.00047896668547764415,0.0004521693044807762,-0.00017775373999029398,-5.965725898742676,20.2972354888916,-35.478179931640625,0.20778417587280276,0.3120248317718506,0.034951210021972656,987.76416015625,0,13.0,1,1
15.08,0.06768191,-0.14329389999999997,9.772108,-0.0005861990503035487,-0.0002136362891178578,0.0004880779306404293,-6.317638397216798,21.23175621032715,-35.093711853027344,0.20215344429016116,0.31974780559539795,0.030271530151367188,987.764404296875,0,13.0,1,1
15.12,0.06767169,-0.15759327,9.769739,-0.00031978538027033215,-0.00034681009128689766,0.00035496189957484603,-5.983554363250732,21.01761817932129,-34.824722290039055,0.2103456258773804,0.31816768646240234,0.03033733367919922,987.7361450195312,0,13.0,1,1
15.16,0.06766158,-0.15520974,9.769739,0.0004792601685039699,0.00031896375003270805,-4.447007086127997e-05,-6.3248653411865225,20.32988166809082,-35.73268127441406,0.2136743664741516,0.3160910606384277,0.03514862060546875,987.75927734375,0,13.0,1,1
15.2,0.05809182,-0.15759279,9.755535,-0.0001864317455329001,0.000718421651981771,0.0006213615415617825,-6.0483641624450675,19.85129737854004,-35.74728775024414,0.2121928036212921,0.3096013963222504,0.04942131042480469,987.7618408203124,0,13.0,1,1
15.24,0.06525138,-0.152826,9.753166,0.00047955353511497384,0.0011178638087585568,-0.0004438181640580297,-6.446798801422119,20.05747413635254,-35.3900146484375,0.20584380626678467,0.3078122437000275,0.06369781494140625,987.7665405273438,0,13.0,1,1
15.28,0.055681586,-0.1480592,9.767368,0.0004796514404006303,0.00031890018726699054,0.00035517150536179537,-6.959122657775879,20.736665725708008,-35.35081100463867,0.21914011240005493,0.30653172731399536,0.02587413787841797,987.7615356445312,0,13.0,1,1
15.32,0.074790716,-0.15759207,9.762633000000001,0.00034659117227420216,-0.0006132212001830338,0.000488371355459094,-6.62696647644043,20.995256423950195,-35.80204772949219,0.18472209572792053,0.3096199035644531,0.04959869384765625,987.7664794921876,0,13.0,1,1
15.36,0.06204015,-0.16233899,9.769662,-0.0005854163900949062,-0.0004800792085006833,-0.0004436923190951348,-6.2401628494262695,20.40900993347168,-35.44242858886719,0.2034156620502472,0.32225748896598816,0.02605915069580078,987.76611328125,0,13.0,1,1
15.4,0.052438676,-0.15995468,9.764924,0.00034506391966715455,0.0003241555241402238,-0.0001728547504171729,-6.495930671691895,20.06424903869629,-35.53681182861328,0.2118666470050812,0.2966054081916809,0.049793243408203125,987.7763061523438,0,13.0,1,1
15.44,0.07151601,-0.14803733,9.762552000000001,0.0002160347648896277,-7.598863157909364e-05,-3.7927296943962574e-05,-6.76634407043457,20.548715591430664,-35.83142852783203,0.19182801246643064,0.2950121760368347,0.035643577575683594,987.7461547851562,0,13.0,1,1
15.48,0.05235493,-0.15518607,9.762547999999999,0.00048275449080392713,-0.00020921212853863835,-0.0004372280091047287,-6.6047096252441415,20.17337989807129,-35.98834228515625,0.2051113247871399,0.2980826497077942,0.03096771240234375,987.7640380859376,0,13.0,1,1
15.52,0.057092845,-0.15280174,9.769647,-0.0008484213030897081,-0.00034243561094626784,-3.75811941921711e-05,-6.570767402648926,21.364145278930664,-36.14023208618164,0.21310102939605716,0.296002060174942,0.03577995300292969,987.7588500976562,0,13.0,1,1
15.56,0.066610575,-0.15518405,9.783846,-0.0008480175747536122,0.00032328857923857873,0.0004952235613018273,-6.746696472167969,20.461950302124023,-36.13731384277344,0.2029128074645996,0.3037606477737427,0.016889572143554688,987.7814331054688,0,13.0,1,1
15.6,0.064178735,-0.15994956,9.762537,-0.0007144560222513974,-0.0006088825757615267,0.000761712493840605,-6.6334896087646475,20.251314163208008,-35.218624114990234,0.2018356025218964,0.30666252970695496,0.05956077575683594,987.763427734375,0,13.0,1,1
15.64,0.059357077,-0.16233177,9.757799,0.00048436928773298865,0.0004563154361676425,-0.0007028521504253148,-6.606912136077881,20.434282302856445,-35.31040954589844,0.205510288476944,0.2953539490699768,0.04541587829589844,987.7967529296876,0,13.0,1,1
15.68,0.06409502,-0.17186387,9.769630000000001,0.0006179308402352035,0.0007225658046081662,-0.00043636315967887635,-6.6870484352111825,20.35957908630371,-35.83258056640625,0.19455045461654666,0.2987201511859894,0.0360107421875,987.74560546875,0,13.0,1,1
15.72,0.07122278,-0.15994652,9.781464,0.0004851766279898584,0.0001898684713523835,-0.00016987428534775972,-6.5826988220214835,20.351938247680664,-35.84821319580078,0.18421396613121035,0.3065691590309143,0.026589393615722656,987.7662353515624,0,13.0,1,1
15.76,0.07357085,-0.15041234,9.757788,-0.0008459990494884551,-0.00034282883279956877,9.661482181400059e-05,-6.775338172912598,20.645795822143555,-36.066673278808594,0.18292057514190674,0.28577476739883423,0.050324440002441406,987.78662109375,0,13.0,1,1
15.8,0.054409742000000004,-0.16232769,9.764885000000001,0.0004859842010773719,-7.657852256670594e-05,-0.0005690017715096474,-6.7226200103759775,20.273683547973636,-35.976043701171875,0.2055830955505371,0.2987404465675354,0.04091072082519531,987.7581787109376,0,13.0,1,1
15.84,0.06870726,-0.15041031,9.755413,0.0006195456371642648,0.0012549352832138536,-0.00030251313000917435,-6.955534934997559,20.37131690979004,-35.40696716308594,0.18524989485740664,0.2875609397888184,0.06464099884033203,987.75341796875,0,13.0,1,1
15.88,0.07105529,-0.15517579,9.774346000000001,0.0002204757765866816,-0.000343025429174304,-0.00016918207984417677,-6.667102813720702,20.90494728088379,-35.71359634399414,0.1797272264957428,0.27677273750305176,0.0315399169921875,987.7662353515624,0,13.0,1,1
15.92,0.06384367,-0.15994133,9.760139,0.00022087927209213373,-0.0007425647927448152,-0.00016900908667594194,-6.8917274475097665,20.74757575988769,-36.13167953491211,0.1932336688041687,0.2894144058227539,0.04105663299560547,987.7810668945312,0,13.0,1,1
15.96,0.061411917,-0.15994032,9.779073,-4.503288073465228e-05,5.6317338021472096e-05,-3.567792009562254e-05,-6.916377067565918,20.091867446899414,-35.31966781616211,0.1924603879451752,0.2878284454345703,0.04110240936279297,987.7760009765624,0,13.0,1,1
16.0,0.06375989,-0.14563961,9.755398,-0.00017778709297999742,-0.0012753276387229562,0.00023081095423549414,-6.61949348449707,20.89670753479004,-35.48949432373047,0.18204173445701602,0.271986722946167,0.05535221099853516,987.771240234375,0,13.0,1,1
16.04,0.06371802,-0.1456386,9.750658999999999,0.0006215642788447441,0.0004556601343210786,9.782577399164438e-05,-7.197307586669923,20.671953201293945,-35.77223205566406,0.17635105550289154,0.26089003682136536,0.06960296630859375,987.763427734375,0,13.0,1,1
16.08,0.06606609,-0.16232051,9.776695,-0.00017697975272312758,-7.703724259044975e-05,-0.00016831711400300264,-7.01268196105957,20.84493064880371,-35.96476745605469,0.18454059958457947,0.2926338016986847,0.01758289337158203,987.7658081054688,0,13.0,1,1
16.12,0.056464553,-0.16470273,9.769589,-0.0003097339649684727,0.000988160725682974,0.0006308036390691996,-7.495820045471191,20.971982955932614,-35.89775085449219,0.1881480813026428,0.2865238487720489,0.03183746337890625,987.7932739257812,0,13.0,1,1
16.16,0.061202466,-0.15993513,9.769585000000001,-0.0003097339649684727,0.000988160725682974,0.0006308036390691996,-7.1510820388793945,20.76815223693848,-36.169898986816406,0.18254126608371732,0.2751328945159912,0.04135513305664063,987.7932739257812,0,13.0,1,1
16.2,0.05638078,-0.15278436,9.769581,-0.00017617229605093598,-0.0008761159842833878,9.83449281193316e-05,-7.0694236755371085,20.844335556030273,-35.72503662109375,0.19127114117145536,0.2782490849494934,0.0366668701171875,987.77294921875,0,13.0,1,1
16.24,0.06589851,-0.15754981,9.76721,-0.00044208444887772197,0.0011211875826120377,-3.4640077501535416e-05,-7.103472709655763,20.759912490844727,-35.94580841064453,0.1804732084274292,0.2624345123767853,0.02251720428466797,987.7836303710938,0,13.0,1,1
16.28,0.06824654,-0.15516554,9.776675,3.451696829870343e-05,-0.0013815290294587614,-0.00042467203456908464,-6.68704891204834,20.35957908630371,-35.83258056640625,0.16984499990940094,0.27976322174072266,0.03203678131103516,987.75341796875,0,13.0,1,1
16.32,0.06820467,-0.15516452,9.776671,3.4920696634799235e-05,0.0014147222973406315,0.00037444871850311756,-7.512423992156982,21.06169319152832,-35.74647521972656,0.17348352074623108,0.25903281569480896,0.02735424041748047,987.7779541015624,0,13.0,1,1
16.36,0.07384294,-0.15041901,9.767281,-0.0006304652779363097,-0.0003163964138366282,0.00037462182808667416,-6.40416145324707,20.51902198791504,-35.73153305053711,0.17125974595546722,0.2527555525302887,0.05099964141845703,987.7657470703124,0,13.0,1,1
16.4,0.06427699,-0.16948505,9.767281,-0.0006300616660155356,0.0016809070948511364,0.0009074265835806726,-7.207823753356934,20.76755714416504,-35.93016815185547,0.17045634984970093,0.27976036071777344,0.04630279541015625,987.778564453125,0,13.0,1,1
16.44,0.06666055,-0.14803539,9.769648,0.0006905819172970952,-4.570040619000793e-05,0.0005061894189566374,-7.223448753356934,21.22702980041504,-35.95465087890625,0.1687539517879486,0.24922025203704834,0.03689861297607422,987.7500610351562,0,13.0,1,1
16.48,0.052314848,-0.15280183,9.762545,0.0006905819172970952,-4.570040619000793e-05,0.0005061894189566374,-7.223448753356934,21.22702980041504,-35.95465087890625,0.1872483193874359,0.2673783898353577,0.04165840148925781,987.7500610351562,0,13.0,1,1
16.52,0.07381761,-0.15041836,9.77438,0.0005574850947596133,0.00022060557967051866,0.00010674179065972568,-7.209208011627197,20.87200355529785,-36.55194091796875,0.1621924638748169,0.2608570456504822,0.02750205993652344,987.7550659179688,0,13.0,1,1
16.56,0.061861753,-0.15280144,9.762544,-0.0010403492487967014,0.0007532274466939269,-0.00015954789705574512,-7.33817720413208,21.43619728088379,-36.79603576660156,0.19021961092948916,0.2546301484107971,0.05594062805175781,987.7836303710938,0,13.0,1,1
16.6,0.06663522,-0.14565150000000002,9.779114,-0.00037449825322255487,0.00022058573085814717,0.0003731100587174296,-6.950396060943604,21.219709396362305,-36.6121711730957,0.1652781069278717,0.23889023065567014,0.027574539184570312,987.7805786132812,0,13.0,1,1
16.64,0.064238966,-0.15041794,9.738871000000001,-0.00010806025238707663,0.00035372376441955566,0.00010684656444936992,-7.382881164550781,21.34147071838379,-36.475669860839844,0.16409677267074585,0.2374540865421295,0.06549358367919922,987.7627563476562,0,13.0,1,1
16.68,0.066622525,-0.16710071,9.769644,-0.00010799913434311748,-0.00031207580468617385,0.00010687275789678095,-7.513127326965332,20.903764724731445,-36.9688720703125,0.1490851640701294,0.2552223205566406,0.027647018432617188,987.79833984375,0,13.0,1,1
16.72,0.069006085,-0.14326777,9.772011000000001,0.0002915356890298426,0.0002205460914410651,0.0009058464784175159,-7.390108108520508,20.439592361450195,-37.11463928222656,0.15289106965065002,0.23482856154441836,0.032418251037597656,987.7836303710938,0,13.0,1,1
16.76,0.059440136,-0.15995057,9.760174000000001,2.5281042326241728e-05,-0.00044525356497615576,0.00010692514479160307,-7.473128318786621,20.888158798217773,-36.35824966430664,0.16646058857440948,0.25729960203170776,0.0371856689453125,987.747314453125,0,13.0,1,1
16.8,0.061823725999999996,-0.15280057,9.764908,0.00015849998453631997,0.0006200001225806773,-0.00015936465933918953,-7.704383850097656,21.09318733215332,-36.56556701660156,0.16515123844146729,0.2510639429092407,0.056168556213378906,987.770263671875,0,13.0,1,1
16.84,0.06659716,-0.1528004,9.760172,0.00029171904316172004,-0.00017895754717756065,-2.618040889501572e-05,-7.5153303146362305,21.1646671295166,-36.29093933105469,0.17392519116401672,0.2592372596263885,0.04199790954589844,987.7327270507812,0,13.0,1,1
16.88,0.07137066,-0.15756686,9.760172,2.546428004279733e-05,-4.580951645039022e-05,0.0005064774304628372,-7.38720178604126,20.33662223815918,-36.57017517089844,0.17309346795082092,0.2578567266464233,0.04676437377929688,987.747314453125,0,13.0,1,1
16.92,0.06897437599999999,-0.15994991,9.762539,-0.0005071064806543291,0.0007531282608397305,-0.0006919177249073982,-7.6623191833496085,20.71076011657715,-35.93379592895508,0.16206912696361542,0.2465927302837372,0.05628395080566406,987.7702026367188,0,13.0,1,1
16.96,0.05701855,-0.15756647,9.764906,-0.0009065190679393707,0.00035364454379305243,0.00010705599561333656,-7.267768859863281,20.237794876098636,-36.65978240966797,0.16592107713222504,0.24498489499092105,0.04685020446777344,987.7520751953124,0,13.0,1,1
17.0,0.06896174,-0.16709949,9.762537,0.00029196339892223483,0.00035363464849069715,-0.00015923369210213423,-7.509380340576173,21.06464195251465,-35.901084899902344,0.15557357668876648,0.24365663528442386,0.0563516616821289,987.7476806640624,0,13.0,1,1
17.04,0.057005882,-0.14564979999999997,9.786209,0.00015886657638475302,-0.0013774286489933731,0.001305529847741127,-7.489732265472412,20.977876663208008,-36.20697021484375,0.1551993489265442,0.2279707938432693,0.009028434753417969,987.7652587890624,0,13.0,1,1
17.08,0.07133895,-0.14564963,9.764904,0.0001589276944287121,-4.585908027365804e-05,-0.0005586551269516349,-7.148879528045653,20.507253646850586,-36.84783172607422,0.14485430717468262,0.2408890277147293,0.03746509552001953,987.7760620117188,0,13.0,1,1
17.12,0.059383094000000004,-0.15994914,9.781473,-0.0011725907679647207,-0.00031218488584272563,-0.00015915511175990105,-7.67834997177124,21.644445419311523,-36.75579833984375,0.1583232432603836,0.2443016469478607,0.023293495178222656,987.792724609375,0,13.0,1,1
17.16,0.07371616,-0.14326607,9.772003,0.00042536581167951226,-0.0008448265725746751,0.00024034478701651094,-7.692888259887695,21.367341995239254,-36.58338165283203,0.14318111538887024,0.2191292941570282,0.03752803802490234,987.76513671875,0,13.0,1,1
17.2,0.05698049,-0.15756552,9.764902000000001,-0.00010720494901761413,0.0008862167014740409,-0.00015910272486507893,-7.360624313354492,20.519594192504886,-36.661956787109375,0.16620437800884247,0.2415324002504349,0.042293548583984375,987.76513671875,0,13.0,1,1
17.24,0.05936408,-0.1408825,9.779104,-0.0002403017715550959,-0.0008448464213870466,-0.00042539252899587154,-7.231356620788574,20.587533950805664,-35.99299240112305,0.15587785840034485,0.21622908115386966,0.023386001586914062,987.7428588867188,0,13.0,1,1
17.28,0.07130724,-0.1480322,9.7649,-0.0006397144752554594,-0.00017906658467836678,0.00010726554319262503,-7.231058120727539,21.219667434692386,-35.56812286376953,0.1552078276872635,0.2292115092277527,0.03761482238769531,987.7449951171876,0,13.0,1,1
17.32,0.069259375,-0.16234018,9.767299000000001,-0.00010702171130105852,-0.0005785503890365362,-0.0006916560232639313,-7.515873432159424,21.5329532623291,-36.3893928527832,0.1591119021177292,0.24215759336948395,0.03764629364013672,987.7449951171876,0,13.0,1,1
17.36,0.072012305,-0.14804943,9.772066,0.0002900203107856214,-0.00044499762589111924,0.00037256535142660136,-7.415545463562013,21.15260505676269,-36.07466125488281,0.14816008508205414,0.2265283763408661,0.04707622528076172,987.76513671875,0,13.0,1,1
17.4,0.06725407,-0.16473289,9.767334,-0.0005107791512273252,0.0006182753713801503,-0.00016336864791810513,-7.249887466430664,21.14997673034668,-36.56193923950195,0.1521032750606537,0.23478715121746066,0.03289794921875,987.7371826171876,0,13.0,1,1
17.44,0.057716012000000004,-0.15281709,9.762602000000001,0.000421118747908622,8.567716577090323e-05,-0.0002966156462207437,-7.050179958343506,21.23177146911621,-36.82845306396485,0.15581046044826508,0.21428734064102173,0.028194427490234375,987.7825317382812,0,13.0,1,1
17.48,0.074466884,-0.15043433,9.774441,-0.0005111947539262474,-0.0001806049549486488,-0.00016354676336050034,-7.39024543762207,20.33367347717285,-36.41556167602539,0.13611695170402527,0.22242501378059387,0.03294944763183594,987.7723388671876,0,13.0,1,1
17.52,0.06731874,-0.15281816,9.776810000000001,-0.0006445604958571494,-4.741328302770853e-05,-0.00042995170224457985,-7.552561283111572,20.97138786315918,-35.65802001953125,0.14479857683181765,0.21644166111946106,0.03771018981933594,987.7699584960938,0,13.0,1,1
17.56,0.06256047,-0.14805205,9.776812,-0.0006445604958571494,-4.741328302770853e-05,-0.00042995170224457985,-7.8244972229003915,21.45438575744629,-35.87533187866211,0.15360404551029205,0.21012885868549347,0.04246807098388672,987.7699584960938,0,13.0,1,1
17.6,0.07214165,-0.14566942,9.760242,-0.0005116102402098477,-0.0007131692254915832,0.00010259100235998629,-7.228717803955077,21.06468391418457,-36.94512939453125,0.13823948800563812,0.21409612894058228,0.03776073455810547,987.7953491210938,0,13.0,1,1
17.64,0.060213685,-0.15520294,9.760244,2.081372076645493e-05,0.0006184439407661557,0.00010250206105411053,-7.506741523742676,21.54179573059082,-36.85322570800781,0.14681805670261386,0.22246363759040835,0.05672359466552735,987.7754516601562,0,13.0,1,1
17.68,0.079354465,-0.16711994,9.774449,0.0017516592051833868,-0.00031362799927592283,0.00036872876808047295,-7.45470380783081,21.43205451965332,-36.161964416503906,0.13171271979808807,0.24499817192554474,0.02834033966064453,987.8212280273438,0,13.0,1,1
17.72,0.074596226,-0.15758729999999999,9.764982,-0.0002459177630953491,0.0006185114616528152,-0.0005634656408801675,-7.015182971954347,20.473695755004886,-35.711708068847656,0.13118022680282593,0.2292963266372681,0.03782749176025391,987.782470703125,0,13.0,1,1
17.76,0.06744808,-0.1480548,9.772086,-0.0002461254480294883,-0.0004467185353860259,-0.0013625024585053325,-7.3883185386657715,19.86094093322754,-35.695335388183594,0.14964072406291962,0.20957383513450625,0.04257774353027344,987.7393188476562,0,13.0,1,1
17.8,0.06746966,-0.1623549,9.764986,-0.000801840506028384,-6.480817683041096e-05,0.00010077928891405463,-7.30912971496582,20.778146743774414,-36.06914520263672,0.14407557249069214,0.2175749242305756,0.0426015853881836,987.744873046875,0,13.0,1,1
17.84,0.057931542,-0.1480558,9.779192,0.0014616367407143116,-0.0005974062369205058,-0.000298783415928483,-7.295271396636963,21.3176212310791,-35.64094543457031,0.14804768562316895,0.20691078901290894,0.028418540954589844,987.81884765625,0,13.0,1,1
17.88,0.07229257,-0.14567305,9.772093,-0.00013646617298945785,-0.0005973725346848369,-3.255670890212059e-05,-7.276602745056152,20.8610897064209,-35.77107620239258,0.13761761784553528,0.21513760089874268,0.02370834350585937,987.7928466796876,0,13.0,1,1
17.92,0.07231411,-0.14567359,9.769728,0.0001296416739933193,0.0002016089274547994,-3.264565020799637e-05,-7.301359176635742,21.31172752380371,-35.33172607421875,0.13209496438503265,0.18556547164916992,0.03793048858642578,987.7373046875,0,13.0,1,1
17.96,0.06277603,-0.16474034,9.755526,-0.00013688177568838,6.848457269370556e-05,0.0004998970543965697,-6.8706955909729,20.556367874145508,-35.8157958984375,0.1460643708705902,0.227348655462265,0.06161403656005859,987.76220703125,0,13.0,1,1
18.0,0.07235724,-0.15997432,9.7626295,0.0002621764433570206,-0.0011298693716526034,0.0004997189389541745,-6.864308834075928,21.19439125061035,-35.70014190673828,0.13588526844978333,0.19762945175170896,0.042695045471191406,987.7677001953124,0,13.0,1,1
18.04,0.058039367,-0.14805849,9.767366,0.0009277583449147643,-0.00033088793861679733,-3.300188109278679e-05,-7.33638858795166,20.857545852661133,-35.376731872558594,0.14498625695705414,0.2012195736169815,0.033237457275390625,987.7857666015624,0,13.0,1,1
18.08,0.058060944,-0.1599753,9.767367,-0.0002708708052523434,-0.0007303280872292818,0.00023322505876421928,-7.1155104637146,20.85404396057129,-36.02644348144531,0.1392878293991089,0.21449024975299835,0.037995338439941406,987.7804565429688,0,13.0,1,1
18.12,0.074811816,-0.15282606,9.765003,-0.0002710787230171263,0.0007344430196098982,0.0004994517657905816,-7.18263053894043,21.05497169494629,-36.64373016357422,0.12866976857185364,0.20367206633090973,0.04749011993408203,987.7933349609376,0,13.0,1,1
18.16,0.06766364,-0.15759315,9.760269000000001,-4.970526788383722e-06,0.00033500295830890536,9.988888632506132e-05,-7.047274589538574,21.128801345825195,-36.28398895263672,0.13732214272022247,0.1978163719177246,0.052247047424316406,987.7652587890624,1,1.0,2,2
18.2,0.0629054,-0.15521042,9.765007,0.000394295493606478,0.0010008264798671007,-0.00016651605255901814,-7.271195411682129,21.129358291625977,-35.47966766357422,0.14127875864505768,0.19685271382331848,0.03806304931640625,987.7783203125,1,1.0,2,2
18.24,0.067706764,-0.15997745,9.760275,0.0009267194545827807,-0.0007301931036636232,-0.00029976305086165667,-6.93363094329834,21.656213760375977,-35.63949584960937,0.1406581699848175,0.2150763273239136,0.04754638671875,987.7734985351562,1,1.0,2,2
18.28,0.06772834,-0.1552114,9.762644,0.0002607219503261149,-0.0008633173420093954,-3.353622741997242e-05,-7.5951995849609375,20.509836196899414,-35.316505432128906,0.1262470781803131,0.20427635312080386,0.042817115783691406,987.780517578125,1,1.0,2,2
18.32,0.05943322,-0.14803405,9.776743,-0.00027211749693378806,-0.0012627574615180492,0.00036584859481081367,-7.34233808517456,20.957571029663086,-35.7665901184082,0.15030339360237122,0.19386039674282074,0.033473968505859375,987.7982788085938,1,1.0,2,2
18.36,0.06179905,-0.15518327,9.769639999999999,0.0009343252168036996,0.0008664674242027104,0.0005024443380534649,-7.006731986999513,20.74490547180176,-35.574913024902344,0.12562310695648193,0.19297251105308533,0.05243492126464844,987.7933349609376,1,1.0,2,2
18.4,0.066554695,-0.15279938,9.776739,0.00027145614149048924,6.704573752358556e-05,-0.00029525160789489746,-7.370138645172119,21.40526008605957,-35.17262649536133,0.139141783118248,0.18693239986896515,0.03352165222167969,987.7783203125,1,1.0,2,2
18.44,0.06892055,-0.14564897,9.772002,-0.00026094348868355155,-0.0001993079058593139,-0.0005614680703729391,-7.373343467712402,20.876096725463867,-36.1419677734375,0.11000975966453552,0.1766270250082016,0.04300594329833984,987.782958984375,1,1.0,2,2
18.48,0.08323580000000001,-0.13373198,9.748329,0.0028019214514642954,-0.0028625042177736764,0.0009033688111230732,-7.008253574371338,20.743432998657227,-35.49760437011719,0.15629778802394867,0.20974428951740265,0.009680747985839844,987.7805786132812,1,1.0,2,2
18.52,-0.005214691,-0.08368255,9.873788000000001,0.018115317448973656,-0.03162465989589691,0.0003708364674821496,-7.574572086334228,20.79283332824707,-35.79814910888672,0.1462760716676712,0.14881132543087006,-0.023293495178222656,987.7932739257812,1,1.0,2,2
18.56,0.01627031,-0.20999570000000004,9.966106,-0.11770554631948472,-0.014047848992049694,0.0630883276462555,-7.225406169891357,20.487504959106445,-35.6031379699707,0.31592416763305664,-0.08444014191627502,-0.14672088623046875,987.7296752929688,1,1.0,2,2
18.6,0.16681010000000002,-0.28626,10.344856,-0.17736008763313293,-0.003794722957536578,-0.12493058294057845,-7.114669322967528,21.117891311645508,-35.50312042236328,-0.014783650636672975,0.27075138688087463,-0.507533073425293,987.668701171875,1,1.0,2,2
18.64,0.16678596,-0.69380003,9.980305,-0.5474057793617249,-0.008455288596451283,-0.08897784352302551,-7.499001502990723,20.86311912536621,-35.0440673828125,0.00579012930393219,-0.09553632140159607,-0.14397430419921875,987.7069091796876,1,1.0,2,2
18.68,0.9745486999999999,-0.65328366,9.831169000000001,-1.0004088878631592,-0.1370858997106552,-0.15662197768688202,-7.7724056243896475,22.97721290588379,-34.43278121948242,-0.7082780599594116,-0.08688312768936157,-0.16448974609375,987.71923828125,1,1.0,2,2
18.72,-0.5191641,-2.1285324,9.4524145,-1.2926902770996094,-0.5698492527008057,-0.20415927469730374,-8.575066566467285,24.015810012817386,-32.984146118164055,1.7615997791290283,0.3173787593841553,0.058344841003417976,987.7219848632812,1,1.0,2,2
18.76,0.33161688,-2.2000303,9.286709,-1.357271671295166,0.4099268615245819,-0.28844815492630005,-9.056766510009766,25.67098426818848,-31.54406929016113,-0.3020994365215301,0.22484982013702395,0.4156074523925781,987.7249755859376,1,1.0,2,2
18.8,0.09977227400000001,-2.5646709999999997,9.099697,-1.0968145132064822,0.0968724936246872,0.0321962796151638,-8.618278503417969,27.08176612854004,-30.53942680358887,0.04253101348876953,-0.08952212333679199,0.2325763702392578,987.719482421875,1,1.0,2,2
18.84,0.03761071,-2.7338831000000003,9.866669,-0.8487409949302673,0.3141861855983734,-0.03198574110865593,-8.514172554016112,28.07454872131348,-30.22863578796387,0.12144817411899568,0.2493762969970703,0.22551441192626956,987.7299194335938,1,1.0,2,2
18.88,0.20965958,-3.4846152999999997,7.9492326,-0.5255665183067322,0.1338903307914734,0.0034343653824180365,-8.433194160461426,28.41310310363769,-29.183141708374023,-0.13514311611652374,0.4547054767608642,0.6566715240478516,987.7757568359376,1,1.0,2,2
18.92,-0.22054687,-2.7982306,9.958984,-0.4596530199050903,0.2820950448513031,0.03432710468769073,-8.339604377746582,29.50148963928223,-29.03029823303223,0.4004932045936585,-0.1588895320892334,-0.14197635650634766,987.7805786132812,1,1.0,2,2
