Timestamp,Ax,Ay,Az,Gx,Gy,Gz,Mx,My,Mz,LiAx,LiAy,LiAz,P,Value,Type,GroupType
0.0,0.07270932,-0.15122452,9.755357,0.00020384459639899435,0.004155003000050783,9.455837425775826e-05,2.0712006092071533,19.14944839477539,-14.39872932434082,-0.9853872060775756,0.6495457887649536,0.006901741027832031,990.7745971679688,0,0.0,0
0.04,0.091772676,-0.15122315,9.774289,0.003845468396320939,0.0008268868550658227,0.0005664911586791277,2.155902862548828,19.228574752807614,-14.10847282409668,-0.9915218353271484,0.6478180885314941,-0.021099090576171875,990.7745971679688,0,0.0,0
0.08,0.058258175999999995,-0.15837163,9.748244,0.0014491637703031301,-0.0005047799786552787,0.0006998798344284296,1.768664836883545,19.07677459716797,-14.193887710571287,-0.9532793760299684,0.6637935638427734,0.007906913757324219,990.6078491210938,0,0.0,0
0.12,0.07296574,-0.16314718,9.771951,-1.5035111573524771e-05,0.0012261858209967613,-0.0010309426579624414,2.054160118103028,18.501110076904297,-13.973241806030273,-0.9753298759460448,0.6625089049339294,-0.015529632568359375,990.6078491210938,0,0.0,0
0.16,0.078139365,-0.16077360000000002,9.771987,0.00011866090062540025,-0.0006381127750501037,-0.0003649223654065281,2.250281572341919,18.948246002197266,-14.183599472045898,-0.9681160449981691,0.660427451133728,-0.010466575622558594,990.6310424804688,0,0.0,0
0.2,0.07094818,-0.16077307,9.762514999999999,0.00037785840686410666,-0.000503211806062609,-0.0002322586951777339,2.2970492839813232,18.67616081237793,-14.482820510864258,-0.9626255631446838,0.6481029391288757,-0.01929187774658203,990.627685546875,0,0.0,0
0.24,0.07570636,-0.16077259,9.762513,0.0010418279562145472,-0.0003697583451867104,0.00016643514391034842,1.9138031005859373,17.68480682373047,-13.826868057250975,-0.9513009786605836,0.6470818519592285,-0.004877090454101562,990.6585693359376,0,0.0,0
0.28,0.06373533599999999,-0.1488556,9.757777,0.001441509579308331,-0.0011687397491186855,-0.001031897380016744,2.0165247917175293,18.78203582763672,-14.137849807739258,-0.9476779103279114,0.6402528882026672,-0.01864910125732422,990.665771484375,0,0.0,0
0.32,0.068493605,-0.15838823,9.767242999999999,-5.9402686019893736e-05,-0.0002254220307804644,-0.0006431575166061522,1.4967293739318848,19.559772491455078,-14.411195755004885,-0.9584643840789796,0.6333938837051392,-0.00402069091796875,990.668701171875,0,0.0,0
0.36,0.07325187,-0.15362108,9.7743435,0.00020712088735308495,-0.000758087495341897,-0.00024359486997127533,1.603687763214111,18.81702423095703,-14.307233810424805,-0.9503348469734192,0.6312885880470276,-0.0036144256591796884,990.6329956054688,0,0.0,0
0.4,0.07084042,-0.15600389,9.771974,-0.00019214524945709852,0.00017398434283677489,0.0001559679803904146,1.8139102458953855,18.80321311950684,-14.415803909301758,-0.9423945546150208,0.638390302658081,-0.007946968078613281,990.656005859375,0,0.0,0
0.44,0.06364918,-0.1655364,9.745933,-0.00032488806755281985,4.075907054357231e-05,0.001221409416757524,1.8118460178375244,19.17002868652344,-14.436952590942385,-0.9374069571495056,0.6442304849624634,0.011616706848144531,990.6580200195312,0,0.0,0
0.48,0.068407476,-0.16076937,9.764869000000001,-0.00032488806755281985,4.075907054357231e-05,0.001221409416757524,1.8118460178375244,19.17002868652344,-14.436952590942385,-0.9407194256782532,0.6382966041564941,-0.00713348388671875,990.6580200195312,0,0.0,0
0.52,0.07555556,-0.15361899,9.753032000000001,-5.815680924570188e-05,0.0009727972792461513,0.0005557977710850537,2.175414085388184,19.035888671875,-13.715280532836914,-0.9314392805099488,0.6346114277839661,0.007647514343261719,990.6356201171876,0,0.0,0
0.56,0.07792398,-0.16315159,9.767232,-5.815680924570188e-05,0.0009727972792461513,0.0005557977710850537,2.175414085388184,19.035888671875,-13.715280532836914,-0.9394595623016356,0.633813738822937,0.007821083068847656,990.6356201171876,0,0.0,0
0.6,0.06117308,-0.1583845,9.762496,0.000208366647711955,0.0005732895806431769,0.0008222026517614722,2.236583709716797,18.93498992919922,-13.487855911254885,-0.9173156023025512,0.636093258857727,-0.010730743408203123,990.6431884765624,0,0.0,0
0.64,0.06593138,-0.15123412,9.760126,-0.0005903732962906362,0.0012390456395223735,-0.00024297204799950123,2.3665318489074707,18.740554809570312,-13.419519424438475,-0.9049646258354188,0.6286289691925049,-0.0008859634399414062,990.6404418945312,0,0.0,0
0.68,0.08263916,-0.13931724,9.769592999999999,-0.0005901657277718186,0.00044006435200572014,0.00015659086056984958,1.7334990501403809,18.516674041748047,-13.539819717407227,-0.944240391254425,0.593093752861023,-0.00992584228515625,990.62255859375,0,0.0,0
0.72,0.06349838,-0.16553274,9.767224,-0.00032364207436330616,-0.00035891711013391614,0.0004229957703500986,1.6892318725585938,19.159996032714844,-13.493661880493164,-0.9218316674232484,0.628944993019104,-6.103515625e-05,990.6279907226562,0,0.0,0
0.76,0.070646554,-0.15599915,9.764854,0.00020919715461786842,0.0007063128286972643,0.0006894005928188562,1.929619312286377,18.963809967041016,-13.750177383422852,-0.9139037132263184,0.6125760078430176,0.000308990478515625,990.6630859375,0,0.0,0
0.8,0.0777947,-0.16553167,9.771955,-5.691093247151002e-05,4.04893362428993e-05,0.0009558054734952748,1.8674707412719729,18.6949462890625,-13.801851272583008,-0.915396213531494,0.6242835521697998,-0.008755683898925781,990.6251220703124,0,0.0,0
0.84,0.075383246,-0.15361479,9.743546499999999,-5.691093247151002e-05,4.04893362428993e-05,0.0009558054734952748,1.5001788139343262,19.088512420654297,-13.768281936645508,-0.9072044491767884,0.6123316287994385,0.024791717529296875,990.6251220703124,0,0.0,0
0.88,0.0658021,-0.1512309,9.755381,-0.0004561773093882948,0.0005730874254368246,0.00015694680041633544,2.054596424102783,19.23916244506836,-14.24744987487793,-0.898768424987793,0.620163083076477,-0.0032215118408203125,990.6499633789062,0,0.0,0
0.92,0.070560396,-0.16314685,9.764847,0.0003429781354498118,4.042197542730719e-05,0.00029019376961514354,1.8292911052703855,19.34416389465332,-14.064905166625975,-0.9047732353210448,0.6132698655128479,-0.0028209686279296875,990.6275634765624,0,0.0,0
0.96,0.06814891,-0.15361318,9.774314,-5.608042556559667e-05,-0.0004922772059217094,0.000157213828060776,1.76920747756958,18.708480834960934,-14.095438003540039,-0.8869559764862059,0.6057493686676025,0.002337455749511719,990.6653442382812,0,0.0,0
1.0,0.06812739,-0.15599594,9.764844,-0.0005885044811293483,-0.00035915302578359837,2.4144886992871758e-05,2.127368450164795,18.306079864501953,-13.665178298950195,-0.8883365392684937,0.6081970930099487,-0.002004623413085937,990.6448974609376,0,0.0,0
1.04,0.070495695,-0.1559954,9.750639,0.0002106507163261995,0.0003066029166802764,0.00015739179798401892,1.8752183914184568,18.8082275390625,-14.887453079223633,-0.8977237939834595,0.5953279733657837,0.008031845092773438,990.6499633789062,0,0.0,0
1.08,0.07047421,-0.15361157,9.760105000000001,0.00021085840126033872,0.0005728850956074892,0.00015748073928989467,1.9001357555389404,18.88381004333496,-14.202859878540039,-0.8962140083312988,0.599062442779541,0.003470420837402344,990.6474609375,0,0.0,0
1.12,0.06369203,-0.14647129,9.774344000000001,0.00021106596977915612,0.00030653554131276906,0.0002907276793848723,2.050711154937744,18.972370147705078,-14.61616325378418,-0.888746440410614,0.5730348825454712,0.00379180908203125,990.6522827148438,0,0.0,0
1.16,0.07324657,-0.15838751,9.76014,-0.00018917840498033908,0.0009724503615871072,0.00029039743822067976,1.9413590431213381,18.23754119873047,-14.09440803527832,-0.8808667659759521,0.6089128255844116,0.013620376586914062,990.6370849609376,0,0.0,0
1.2,0.06607178,-0.15600413,9.7696085,-6.705450505251065e-05,0.0009783459827303886,0.000294240890070796,1.8508663177490237,18.784664154052734,-13.650571823120115,-0.8679164052009583,0.5920870304107666,-0.00018978118896484372,990.6576538085938,0,0.0,0
1.24,0.07084653,-0.14647087,9.762506,0.00019931039423681798,-0.0007527152192778884,-0.0003715278580784797,1.9193477630615237,18.058988571166992,-14.234537124633787,-0.8688822388648987,0.5898059010505676,-0.009241104125976562,990.6447143554688,0,0.0,0
1.28,0.068451524,-0.17030358,9.7601385,-0.00020011430024169385,-0.00048640719614923,0.0002942827995866537,1.9863598346710205,18.96440887451172,-13.989908218383787,-0.884556770324707,0.6017341613769531,0.01955127716064453,990.6348266601562,0,0.0,0
1.32,0.07322627,-0.15362051,9.76724,-0.0002000655222218484,0.00017937450320459902,0.0005606196355074644,1.5325455665588381,18.645238876342773,-14.594156265258787,-0.8665261268615723,0.58038330078125,0.005751609802246094,990.6320190429688,0,0.0,0
1.36,0.075611085,-0.16077021,9.753036,-0.0003331746847834438,-0.00035326514625921845,0.0005606405902653934,1.6167054176330566,19.092653274536133,-14.402353286743164,-0.8706842660903931,0.5954837799072266,0.01109600067138672,990.629638671875,0,0.0,0
1.4,0.06604642,-0.14170387,9.753036,-0.0008657574653625487,-0.0006195890600793064,2.8029840905219316e-05,1.8244271278381348,18.70760726928711,-14.257867813110352,-0.8451701402664185,0.5751157999038696,0.02075386047363281,990.6195068359376,0,0.0,0
1.44,0.058871627,-0.15362012,9.745934,-0.0005993925733491777,-0.0006195969181135298,-0.0002382652019150555,1.8842122554779053,18.711151123046875,-14.652200698852539,-0.8495355844497681,0.5670166015625,0.026048660278320312,990.6195068359376,0,0.0,0
1.48,0.08276552,-0.15362,9.767238,0.00019960399367846549,0.00017934276547748595,0.0008270193939097227,1.8865759372711184,18.97646713256836,-14.20619010925293,-0.8666632175445557,0.5802116394042969,0.002584457397460937,990.6625366210938,0,0.0,0
1.52,0.07320088,-0.16076967,9.764871000000001,0.00033281082869507367,-0.0004864549264311791,0.0002944085863418877,1.911874771118164,18.15753936767578,-14.547086715698242,-0.8426652550697327,0.5814610719680786,0.012592315673828123,990.647216796875,0,0.0,0
1.56,0.063636184,-0.16076955,9.764869000000001,6.65439511067234e-05,0.00031248480081558233,0.0006939034210518003,1.5062661170959473,19.094406127929688,-14.07750129699707,-0.8316926956176758,0.5660881996154785,0.008017539978027344,990.6572875976562,0,0.0,0
1.6,0.0755806,-0.15361962,9.757767999999999,-0.00019972302834503358,0.0011114245280623436,-0.00023818126646801832,1.599557638168335,19.5506591796875,-14.349527359008787,-0.8504712581634521,0.5675001740455627,-0.0009069442749023438,990.6423950195312,0,0.0,0
1.64,0.070795745,-0.15123620000000002,9.769603,0.00033295751200057566,4.6153014409355826e-05,-0.0005044761346653104,2.011117458343506,18.513769149780273,-14.429258346557615,-0.8373593688011169,0.5650577545166016,0.008945465087890625,990.6494140625,0,0.0,0
1.68,0.063620925,-0.15838593,9.769603,-0.0003327341692056507,-8.702080231159925e-05,-0.00010496040340512992,1.950490951538086,18.246379852294922,-14.558237075805664,-0.8196479082107544,0.5721363425254822,0.009311676025390623,990.6369018554688,0,0.0,0
1.72,0.07317549,-0.16315237,9.760133,-0.0003327341692056507,-8.702080231159925e-05,-0.00010496040340512992,1.950490951538086,18.246379852294922,-14.558237075805664,-0.8463852405548096,0.5759415626525879,0.0142364501953125,990.6369018554688,0,0.0,0
1.76,0.07317042,-0.14885256,9.774337,0.00033310442813672125,-0.0006196604808792473,0.00016137646161951122,2.0192701816558842,18.1528434753418,-14.71733283996582,-0.8282921314239502,0.559522271156311,0.009882926940917969,990.6267700195312,0,0.0,0
1.8,0.06838554,-0.15838555,9.753031,0.0005994691746309401,-0.0006196683971211313,-0.00023807637626305225,1.5886056423187256,18.90821075439453,-14.23326301574707,-0.8201451301574707,0.5619390606880188,0.01970863342285156,990.6441650390624,0,0.0,0
1.84,0.06599057,-0.15838543,9.757766,0.00026735159917734563,0.00024438853142783046,-0.00016843629418872294,1.7606499195098877,19.54361343383789,-14.604890823364258,-0.81202232837677,0.5548465847969055,0.015325546264648438,990.6239013671876,0,0.0,0
1.88,0.07076526,-0.16791844,9.764864999999999,1.0844887583516536e-06,-2.19352514250204e-05,-0.00043473122059367597,1.8984766006469729,18.776418685913086,-13.426473617553713,-0.827483594417572,0.5717744827270508,0.010960578918457031,990.6514282226562,0,0.0,0
1.92,0.06837028,-0.15123531,9.769599000000001,0.0008000811212696135,-0.000421417091274634,9.792149649001658e-05,2.403625249862671,18.82792091369629,-13.353357315063475,-0.8147457838058472,0.5506874918937683,0.01128387451171875,990.6565551757812,0,0.0,0
1.96,0.07314503,-0.14646864,9.757764,1.2314048944972456e-06,0.0005106725730001925,-0.00043466835631988937,2.0975022315979004,19.120586395263672,-13.09235954284668,-0.8191293478012085,0.5377733707427979,0.016546249389648438,990.6363525390624,0,0.0,0
2.0,0.05880055,-0.16076818,9.762497999999999,1.2314048944972456e-06,0.0005106725730001925,-0.00043466835631988937,2.0975022315979004,19.120586395263672,-13.09235954284668,-0.7935042381286621,0.5555797815322876,0.007258415222167969,990.6363525390624,0,0.0,0
2.04,0.06118536,-0.15838477,9.753028,0.00013443813077174127,-0.0009540725732222199,-0.0005678053712472321,1.9582610130310056,18.77996635437012,-13.820817947387695,-0.8048722743988037,0.5438481569290161,0.01703929901123047,990.6641845703124,0,0.0,0
2.08,0.06596011,-0.16076794,9.757763,0.00013448714162223038,0.0015759202651679516,9.800540283322334e-05,2.5616726875305176,18.817928314208984,-13.454111099243164,-0.8016027212142944,0.5416448116302489,0.017370223999023438,990.6387329101562,0,0.0,0
2.12,0.07790452,-0.14170161,9.753027000000001,0.0006672167801298201,-0.0005546226166188717,-3.5110657336190336e-05,1.9645092487335205,19.312074661254886,-13.006082534790039,-0.7964226007461548,0.5386864542961121,0.027342796325683597,990.6487426757812,0,0.0,0
2.16,0.07550955,-0.163151,9.760129,0.0006672167801298201,-0.0005546226166188717,-3.5110657336190336e-05,1.9645092487335205,19.312074661254886,-13.006082534790039,-0.7945569753646851,0.5471360087394714,0.018053054809570312,990.6487426757812,0,0.0,0
2.2,0.06833476,-0.15361777,9.760127,0.00040094993892125785,-0.0006877885898575188,0.0006307000294327736,1.7866535186767578,18.882614135742188,-13.723390579223633,-0.7814335823059082,0.5351919531822205,0.018410682678222656,990.6287231445312,0,0.0,0
2.24,0.06354987599999999,-0.1703006,9.760127,0.00040094993892125785,-0.0006877885898575188,0.0006307000294327736,2.05239486694336,19.50006103515625,-13.569520950317385,-0.7826046943664551,0.5469608306884766,0.00457000732421875,990.6287231445312,0,0.0,0
2.28,0.07071453,-0.16791722,9.755392,-0.0006642647203989327,0.00011115116649307309,-0.00030138457077555364,1.9550793170928955,18.671100616455078,-12.967126846313475,-0.7885602712631226,0.5399178266525269,0.009656906127929688,990.615966796875,0,0.0,0
2.32,0.07548928,-0.1464675,9.764861,1.6226767911575737e-06,-0.0006878123385831714,0.0003644470416475088,1.7238245010375977,18.87612533569336,-13.174440383911133,-0.7788928747177124,0.5175143480300903,0.0006704330444335938,990.635986328125,0,0.0,0
2.36,0.07309428,-0.15361723,9.762493,0.00013482963549904525,0.0003774432116188109,0.0003644680546130985,2.1298692226409908,18.67731475830078,-13.918237686157227,-0.7724912166595459,0.5308295488357544,0.019762039184570312,990.661376953125,0,0.0,0
2.4,0.06352958,-0.15600039999999998,9.755391,1.7208149074576797e-06,0.0006437511183321477,-0.0007007744861766696,2.1749775409698486,18.297836303710934,-13.441076278686525,-0.7694681882858276,0.5286033153533936,0.024799346923828125,990.6537475585938,0,0.0,0
2.44,0.063524485,-0.16791669,9.755391,0.0009338752715848386,0.0006437432020902634,9.819414117373525e-05,2.041985273361206,18.48932647705078,-13.354806900024414,-0.7646061182022095,0.5253244638442993,0.020536422729492188,990.6181640625,0,0.0,0
2.48,0.07307905,-0.15838343,9.753022999999999,0.00026813437580130994,0.0005105773452669382,9.821506682783364e-05,1.813230037689209,19.06558609008789,-13.815179824829102,-0.7663849592208862,0.5325367450714111,0.03503894805908203,990.6407470703124,0,0.0,0
2.52,0.08024365,-0.16076657,9.767225,-0.0002644483756739646,0.00037741143023595214,-0.0012333435006439686,2.3390064239501958,19.400081634521484,-14.223711013793945,-0.7727435231208801,0.5156729221343994,0.006955146789550781,990.6456909179688,0,0.0,0
2.56,0.07067898,-0.15361664,9.769592999999999,-0.0007970312726683915,0.0011763512156903744,-0.0004343747568782419,1.792060375213623,19.150880813598636,-13.431985855102539,-0.761505126953125,0.5099018812179565,0.011845588684082031,990.6152954101562,0,0.0,0
2.6,0.068284035,-0.15599981,9.762489,0.000667754968162626,-0.0005547100445255637,-0.00030119580333121116,1.8759222030639648,18.966157913208008,-13.665056228637695,-0.748753547668457,0.5172176361083984,0.016887664794921875,990.6381225585938,0,0.0,0
2.64,0.058719277,-0.1655328,9.764857000000001,0.0005346460384316742,0.0003773876233026385,0.00036461488343775267,1.942636489868164,19.23944091796875,-13.845293045043945,-0.7403288483619691,0.5249680280685425,0.0030040740966796875,990.6327514648438,0,0.0,0
2.68,0.087393075,-0.14169988,9.774325,0.001200484810397029,-0.0006878839340060949,-0.0005674697458744049,2.0399200916290283,18.856142044067386,-13.375947952270508,-0.7592976689338684,0.5026442408561707,0.012933731079101562,990.6151123046876,0,0.0,0
2.72,0.07543847,-0.15838268,9.767223,2.1122032194398344e-06,0.000510529731400311,9.834091179072857e-05,2.2691104412078857,19.01793670654297,-13.189779281616213,-0.7563077807426453,0.5098881721496582,0.008487701416015625,990.6430053710938,0,0.0,0
2.76,0.06587380000000001,-0.15123269,9.769589,-0.0002641547762323171,0.00037736378726549447,-0.0008337437175214291,2.098076343536377,19.964557647705078,-14.065645217895508,-0.7359054088592529,0.5133757591247559,0.01809215545654297,990.6251220703124,0,0.0,0
2.8,0.082203895,-0.14883962,9.764819000000001,2.20999208977446e-06,0.0013094614259898665,0.00023154079099185762,2.0664968490600586,19.03911590576172,-13.467737197875975,-0.7515023946762085,0.4869948029518128,0.004221916198730469,990.6451416015624,0,0.0,0
2.84,0.07462108,-0.16074589,9.764781,-0.0007966887787915766,-2.2125925170257688e-05,9.840380516834556e-05,1.885894536972046,19.23884391784668,-13.605562210083008,-0.7266314625740051,0.4931439161300659,0.01895427703857422,990.6576538085938,0,0.0,0
2.88,0.067427754,-0.15597874,9.783717,-0.0001316753914579749,-0.000285036163404584,-0.00016364399925805628,1.81986141204834,18.703187942504886,-14.025949478149414,-0.748569130897522,0.5014029741287231,-0.028211593627929688,990.6373291015624,0,0.0,0
2.92,0.07218391,-0.1440618,9.764776,-0.0003968194359913469,-0.0006847000913694501,-0.00029629984055645764,2.0089139938354488,18.7746696472168,-13.751321792602539,-0.7210157513618469,0.4800580143928528,0.028928756713867188,990.6498413085938,0,0.0,0
2.96,0.06499064,-0.15597764,9.757672,-0.0006629076087847352,-0.0009510532254353166,0.0007690613274462521,2.0951390266418457,18.855266571044922,-13.53837776184082,-0.7131697535514832,0.4871272742748261,0.019753456115722656,990.6426391601562,0,0.0,0
3.0,0.09364581,-0.16074356,9.76714,-0.0005295219598338008,0.0006468052743002772,-0.00016294672968797386,1.98233699798584,18.59170150756836,-13.659540176391602,-0.7293167114257812,0.5038065910339355,0.015298843383789062,990.6521606445312,0,0.0,0
3.04,0.0649434,-0.16550955,9.760035499999999,3.3373962651239712e-06,0.0017120318952947855,-0.00016284905723296106,2.258594512939453,19.113540649414066,-13.347723007202148,-0.7263654470443726,0.5109612345695496,0.02978038787841797,990.6521606445312,0,0.0,0
3.08,0.07447934,-0.15120932,9.774238,0.00013672304339706898,0.0003804154694080353,-0.00029590949998237187,2.2115278244018555,18.753490447998047,-13.473371505737305,-0.7086718082427979,0.4800894558429718,0.00640869140625,990.6572875976562,0,0.0,0
3.12,0.100744665,-0.170275,9.762399,-0.000795154832303524,0.00011406267003621907,-0.0004289699427317828,1.86486291885376,19.4300537109375,-13.921442031860352,-0.752976655960083,0.5064327716827393,0.03512287139892578,990.656982421875,0,0.0,0
3.16,0.05770281,-0.14882487,9.750561,4.0205213736044235e-06,-0.00015229012933559716,0.00023691740352660415,1.99633264541626,19.23709297180176,-13.930414199829102,-0.7067227363586426,0.4709694981575012,0.03540611267089844,990.6239624023438,0,0.0,0
3.2,0.060069084,-0.16550723,9.769496,4.4757052819477386e-06,-1.9206112483516332e-05,0.0005034284549765289,1.855432748794556,18.789077758789066,-13.882486343383787,-0.7069594860076904,0.4914025664329529,0.012144088745117188,990.6515502929688,0,0.0,0
3.24,0.08155459,-0.15835688,9.764759,0.00027101929299533367,-0.00028555895551107824,0.0003703680704347789,1.7139883041381836,18.70935821533203,-13.933008193969727,-0.7081911563873291,0.47022891044616705,0.03611660003662109,990.6643676757812,0,0.0,0
3.28,0.062411725999999994,-0.15120643,9.767125,0.00027101929299533367,-0.00028555895551107824,0.0003703680704347789,1.7139883041381836,18.70935821533203,-13.933008193969727,-0.6923867464065552,0.4645161032676697,0.026772499084472656,990.6643676757812,0,0.0,0
3.32,0.081507355,-0.1655055,9.76949,0.0004044050583615899,0.0003801937564276159,-0.0005616398993879557,2.1479949951171875,18.589073181152344,-14.146821975708008,-0.6987351179122925,0.4908064305782318,0.027054786682128903,990.6236572265624,0,0.0,0
3.36,0.076703906,-0.16312167,9.762385,-0.0005829440196976067,0.00010942430526483804,0.0003436330007389188,1.5589847564697266,18.722293853759766,-13.98686408996582,-0.6952956914901733,0.4789597690105438,0.032085418701171875,990.6184692382812,0,0.0,0
3.4,0.062340915,-0.1512047,9.743446,0.000349616864696145,0.0006419821293093264,0.0006101439939811826,1.4882779121398926,19.288562774658203,-14.547994613647461,-0.6719416975975037,0.4616214334964752,0.04665565490722656,990.6465454101562,0,0.0,0
3.44,0.06470716,-0.15358737,9.767116999999999,0.000349616864696145,0.0006419821293093264,0.0006101439939811826,1.4882779121398926,19.288562774658203,-14.547994613647461,-0.6796045899391174,0.4654262661933899,0.008932113647460938,990.6465454101562,0,0.0,0
3.48,0.076633066,-0.15835336,9.767114,0.0003498444566503167,0.0003756292862817645,-5.554809467867017e-05,1.7315716743469238,18.98940658569336,-14.260046005249025,-0.6953517198562622,0.4585886001586914,0.032883644104003906,990.6738891601562,0,0.0,0
3.52,0.06465995,-0.15358621,9.762378,-0.00018233201990369707,0.0006418713019229473,0.000344120868248865,1.9082884788513184,18.522884368896484,-14.490930557250975,-0.676558256149292,0.4601581692695618,0.009592056274414062,990.6432495117188,0,0.0,0
3.56,0.07897574,-0.16311875,9.745805,-0.00018233201990369707,0.0006418713019229473,0.000344120868248865,1.9082884788513184,18.522884368896484,-14.490930557250975,-0.6749296188354492,0.4734092056751251,0.033397674560546875,990.6432495117188,0,0.0,0
3.6,0.067002594,-0.13928542,9.767107000000001,-0.00018233201990369707,0.0006418713019229473,0.000344120868248865,1.476346731185913,18.276351928710934,-14.255975723266602,-0.6859592199325562,0.44278523325920105,0.014729499816894531,990.6432495117188,0,0.0,0
3.64,0.06697899,-0.14881793,9.767106,0.0002173695102101192,0.00010920260683633387,0.00047737630666233605,1.7985305786132812,18.26226234436035,-14.766702651977539,-0.6778856515884399,0.426733672618866,0.01972198486328125,990.64306640625,0,0.0,0
3.68,0.07651496,-0.15596718,9.767103,0.0006172987632453443,-0.0005566610489040613,-0.0003213761956430972,1.4345805644989014,19.290910720825195,-14.46287727355957,-0.6841683387756348,0.4532497227191925,0.029456138610839844,990.6381225585938,0,0.0,0
3.72,0.076491326,-0.16311643,9.7671,-4.8263362259604044e-05,-0.00042354009929113085,0.0006108270608820021,1.4391465187072754,19.295330047607425,-14.694787979125975,-0.6692690253257751,0.4499704539775848,0.015680313110351562,990.6581420898438,0,0.0,0
3.76,0.059738398,-0.15119949,9.752895,-4.803565389011055e-05,-2.4103141186060384e-05,0.0010103983804583552,1.7644815444946291,18.17784118652344,-14.98747444152832,-0.6468563675880432,0.45249328017234797,0.03961944580078125,990.6607666015624,0,0.0,0
3.8,0.089268744,-0.16313675,9.760076,-0.0003141239285469055,-0.0006899298168718816,0.00021154835121706128,1.6734459400177002,19.09325218200684,-14.642084121704102,-0.6924246549606323,0.4551030993461609,0.03032207489013672,990.6427001953124,0,0.0,0
3.84,0.06777105,-0.15598723,9.7506075,-0.00018386974988970903,-0.00028998465859331185,-0.00018917006673291328,1.7366809844970703,18.625534057617188,-14.39350700378418,-0.6765011548995972,0.4490600526332855,0.030455589294433594,990.6425170898438,0,0.0,0
3.88,0.08212188,-0.15360418,9.767178999999999,-5.9340873121982434e-05,0.00024417115491814906,-5.6868942920118564e-05,1.9799742698669436,18.326377868652344,-14.105558395385742,-0.6542115211486816,0.4375497102737427,0.02123355865478516,990.6527099609376,0,0.0,0
3.92,0.08691311,-0.16552088,9.748242,-0.0003257667704019696,-0.00015528482617810369,-0.00019007391529157758,1.6611096858978271,18.555248260498047,-15.147592544555664,-0.6497329473495483,0.4394756555557251,0.03578662872314453,990.649658203125,0,0.0,0
3.96,0.06541538,-0.14645493,9.760079,0.0008725448278710246,0.00037736483500339085,0.00034251061151735485,1.8386683464050293,18.35257339477539,-14.855157852172852,-0.6244134902954102,0.42412126064300537,0.031165122985839844,990.637451171875,0,0.0,0
4.0,0.0749864,-0.16075483,9.757713,0.00020664496696554124,0.0003773826756514609,7.61475821491331e-05,1.93929386138916,18.604358673095703,-14.115556716918945,-0.6535643339157104,0.4352841973304749,0.031508445739746094,990.642333984375,0,0.0,0
4.04,0.07499784,-0.15598857,9.750613000000001,7.337701390497386e-05,0.0006437164265662433,-0.0004565312410704792,1.554556369781494,18.82379150390625,-14.45402717590332,-0.6410520672798157,0.4329418241977692,0.04594993591308594,990.6725463867188,0,0.0,0
4.08,0.08695876599999999,-0.15360561,9.755347,-0.0004593647608999163,0.0009100502356886864,-0.0003234205651097,1.63773775100708,18.901443481445312,-14.086469650268555,-0.6631659269332886,0.42224028706550604,0.03661823272705078,990.664794921875,0,0.0,0
4.12,0.07263076,-0.15122256,9.774287,-0.0008589485660195352,-0.00042151130037382245,-0.00019030983094125983,1.8757615089416504,18.439937591552734,-14.789003372192385,-0.6401685476303101,0.4286424517631531,0.013257980346679688,990.6445922851562,0,0.0,0
4.16,0.0702523,-0.16075602,9.75535,-0.0001932690211106092,0.001442717737518251,-0.0005898307426832616,1.8826904296875,18.709678649902344,-14.574899673461914,-0.6242374181747437,0.4417254030704498,0.03232097625732422,990.6643676757812,0,0.0,0
4.2,0.06548393,-0.16075626,9.76482,0.00020609490456990895,0.00024431402562186117,0.00020906975260004398,1.601186752319336,18.445789337158203,-14.054174423217773,-0.6310259103775024,0.4396074712276459,0.023069381713867188,990.6416625976562,0,0.0,0
4.24,0.06788522,-0.15598994,9.762454,-0.0003266468702349812,0.0006438057171180843,0.00020902263349853456,1.5264573097229004,18.63935089111328,-14.284936904907227,-0.623175323009491,0.4184678792953491,0.028036117553710938,990.6514282226562,0,0.0,0
4.28,0.07028651,-0.14884046,9.764822,0.0007385065546259284,0.00011119180999230591,-0.00019049836555495858,1.9128546714782717,18.527305603027344,-14.722841262817385,-0.6345967054367065,0.4168742895126343,0.03297901153564453,990.6641845703124,0,0.0,0
4.32,0.06790805,-0.15599054,9.752987,7.260681013576686e-05,0.00024436760577373207,-5.738757317885757e-05,1.8286945819854736,18.07988929748535,-14.914651870727539,-0.6171565651893616,0.4147087931632996,0.03794670104980469,990.6463623046876,0,0.0,0
4.36,0.09181845,-0.16314068,9.752988,-0.00019381896709091961,-0.0001550883607706055,-0.00032375060254707927,1.3488988876342771,18.842025756835934,-14.577371597290039,-0.6184860467910767,0.42663511633872986,0.042937278747558594,990.6514282226562,0,0.0,0
4.4,0.07510054,-0.16075769,9.760091000000001,7.22767726983875e-05,-2.1894697056268345e-05,-0.00032384495716542006,1.4502055644989014,18.831432342529297,-14.438394546508787,-0.5853515267372131,0.4139294922351837,0.03853607177734375,990.6610107421876,0,0.0,0
4.44,0.03687352,-0.14407495,9.767194,7.22767726983875e-05,-2.1894697056268345e-05,-0.00032384495716542006,1.4502055644989014,18.831432342529297,-14.438394546508787,-0.5601106882095337,0.3985471427440643,0.019701004028320312,990.6610107421876,0,0.0,0
4.48,0.113361835,-0.15837494,9.764827,-0.0004605750145856291,-0.0013534384779632092,0.00034185050753876567,1.754944086074829,18.643211364746094,-15.321168899536133,-0.6553674936294556,0.4191336333751679,0.024801254272460938,990.6533813476562,0,0.0,0
4.52,0.06796509,-0.15837523,9.752993,0.00033826261642389,0.00037763273576274514,-0.00019082840299233797,1.8184769153594968,18.807632446289066,-14.647722244262695,-0.5856927037239075,0.4125241935253143,0.02026462554931641,990.66845703125,0,0.0,0
4.56,0.044077455999999994,-0.15122566,9.752994000000001,0.00033826261642389,0.00037763273576274514,-0.00019082840299233797,1.8184769153594968,18.807632446289066,-14.647722244262695,-0.550956666469574,0.4064466655254364,0.029836654663085938,990.66845703125,0,0.0,0
4.6,0.10144657,-0.16314241,9.769565,-0.00046079492312856013,-2.182324715249706e-05,0.00020859827054664493,1.5530338287353516,18.82232093811035,-14.37672233581543,-0.6335128545761108,0.4185063540935517,0.02534770965576172,990.6404418945312,0,0.0,0
4.64,0.06321955,-0.16075936,9.767199,0.0007374065462499857,-2.178752220061142e-05,0.00047481988440267736,1.9845399856567385,18.330799102783203,-14.337472915649414,-0.5715484619140625,0.4158165752887726,0.03513145446777344,990.6806640625,0,0.0,0
4.68,0.06562084,-0.15360975,9.769567,0.0007374065462499857,-2.178752220061142e-05,0.00047481988440267736,1.9845399856567385,18.330799102783203,-14.337472915649414,-0.5750888586044312,0.3910805583000183,0.021017074584960938,990.6806640625,0,0.0,0
4.72,0.087141365,-0.17029306,9.7672,-0.0005943928845226765,-0.0016196470241993664,0.0007410413818433881,1.611595630645752,19.456525802612305,-14.268884658813475,-0.6035788059234619,0.4113956689834595,0.011899948120117188,990.6679077148438,0,0.0,0
4.76,0.06281653,-0.15121633,9.760060000000001,-0.0005943928845226765,-0.0016196470241993664,0.0007410413818433881,1.611595630645752,19.456525802612305,-14.268884658813475,-0.5778986215591431,0.40098392963409424,0.03095245361328125,990.6679077148438,0,0.0,0
4.8,0.07192361,-0.17027149,9.752917,0.00020444460096769035,-0.0006875236867927015,-0.00019111129222437742,2.007529735565185,18.87911605834961,-14.37309455871582,-0.5882363319396973,0.4035162329673767,0.04072093963623047,990.6525268554688,0,0.0,0
4.84,0.07667935,-0.15597120000000003,9.77422,-2.9343342248466804e-05,0.00012407837493810803,-0.00012771564070135358,1.930980205535889,18.43906593322754,-14.951425552368164,-0.5790048837661743,0.371728241443634,0.01735973358154297,990.6729125976562,0,0.0,0
4.88,0.07187539,-0.14167091,9.767116,-2.9343342248466804e-05,0.00012407837493810803,-0.00012771564070135358,1.930980205535889,18.43906593322754,-14.951425552368164,-0.5730184316635132,0.3804320096969605,0.04111480712890625,990.6729125976562,0,0.0,0
4.92,0.06229171,-0.16073659,9.75291,-0.0005617429851554334,0.00025719861150719225,-0.00026077410439029336,1.7982864379882812,19.26268768310547,-14.440282821655273,-0.5683244466781616,0.3873504102230072,0.041420936584472656,990.6572875976562,0,0.0,0
4.96,0.069437325,-0.15596941,9.757643,-0.0005617429851554334,0.00025719861150719225,-0.00026077410439029336,1.7982864379882812,19.26268768310547,-14.440282821655273,-0.5714733004570007,0.39072924852371216,0.027334213256835938,990.6572875976562,0,0.0,0
5.0,0.07419303,-0.15358558,9.764741,0.0006369110778905451,-0.0008081026608124375,0.00013879936886951327,1.611297607421875,18.824390411376953,-14.693758010864258,-0.5780196189880371,0.3841807842254639,0.032265663146972656,990.6144409179688,0,0.0,0
5.04,0.0669992,-0.1488184,9.778943,0.0003710596938617528,0.000257085426710546,0.00013899858458898962,1.557600021362305,18.826736450195312,-14.608636856079102,-0.5564132928848267,0.3732334077358246,0.018222808837890625,990.63427734375,0,0.0,0
5.08,0.08370441,-0.15358439,9.762371,0.0010370818199589849,0.0005233635893091558,0.0006717299111187457,1.5696377754211426,18.73260498046875,-14.52800178527832,-0.5801552534103394,0.37028321623802185,0.02800846099853516,990.6624755859376,0,0.0,0
5.12,0.069340885,-0.15120050000000002,9.767102000000001,-0.0005605812766589223,-0.0009414113592356443,0.00013919765478931367,1.9795684814453125,18.800588607788086,-14.903085708618164,-0.5678540468215942,0.3636164963245392,0.0187225341796875,990.652099609375,0,0.0,0
5.16,0.07409662,-0.14881662,9.748161999999999,-2.7717136617866345e-05,-0.0005419754306785761,-0.00039333460154011846,1.5599637031555176,19.092056274414066,-14.162622451782227,-0.5615586042404175,0.37202441692352295,0.04723072052001953,990.654052734375,0,0.0,0
5.2,0.08841187,-0.1535826,9.767097999999999,-0.0002938007819466293,0.0001237766700796783,0.0004057126643601805,1.4185199737548828,19.01233673095703,-14.213144302368164,-0.5670630931854248,0.359560489654541,0.04749774932861328,990.6590576171876,0,0.0,0
5.24,0.06926858400000001,-0.15119871,9.769464,-0.00029356830054894084,0.001189002301543951,-0.0007926091202534735,1.9062237739562988,18.88970184326172,-14.512079238891602,-0.5512871742248535,0.3682861328125,0.028650283813476562,990.6593627929688,0,0.0,0
5.28,0.07402432,-0.16311452,9.764727,0.00023929560848046094,-0.0004089304711669684,6.438029231503607e-06,1.8003511428833008,18.895870208740234,-14.419137954711914,-0.5518056154251099,0.37041231989860535,0.024183273315429688,990.6466674804688,0,0.0,0
5.32,0.07161027,-0.15119752,9.762358,0.0003726858994923532,-0.0004089682770427317,-0.0005260942270979285,2.0147047042846684,18.148422241210934,-14.485418319702148,-0.5504202842712402,0.3647385537624359,0.038474082946777344,990.649169921875,0,0.0,0
5.36,0.069196284,-0.14166382,9.757621,0.0006392341456376016,-0.00014269007078837606,0.0001397950400132686,1.9945135116577148,18.60348129272461,-14.277978897094727,-0.5414830446243286,0.35715311765670776,0.0434722900390625,990.608154296875,0,0.0,0
5.4,0.06439236,-0.15834620000000002,9.769454,-0.0006921128951944411,0.0005230618990026414,0.00013989457511343062,1.323300838470459,19.02881622314453,-14.661340713500975,-0.5305347442626953,0.3704182207584381,0.01989078521728516,990.6565551757812,0,0.0,0
5.44,0.07392788,-0.16072893,9.757617,-0.00015924886974971741,0.0001235503877978772,-0.0005257955635897815,1.735701322555542,18.25577163696289,-14.217752456665039,-0.5361088514328003,0.3674954473972321,0.053284645080566406,990.63818359375,0,0.0,0
5.48,0.06912398,-0.16072837,9.764716,-0.00015901662118267268,-9.645337740948891e-06,-0.0003925379714928568,1.999078750610352,18.60790061950684,-14.509893417358398,-0.5301436185836792,0.3621485531330109,0.05335521697998047,990.6260375976562,0,0.0,0
5.52,0.08582914,-0.16311103,9.771815,0.000640163489151746,0.0007892646826803683,0.00014019335503689945,1.6771707534790041,18.833824157714844,-15.397321701049805,-0.5496929883956909,0.3637217879295349,0.029956817626953125,990.6514282226562,0,0.0,0
5.56,0.04995656,-0.16072717,9.750508,-0.0008243417250923812,-9.720760317577516e-06,-0.0006586547824554144,1.8018732070922847,18.8973445892334,-14.496442794799805,-0.5100037455558777,0.3533537685871124,0.04424571990966797,990.6560668945312,0,0.0,0
5.6,0.08578098,-0.16549313,9.764708500000001,0.00010799647134263067,-0.0009418639820069076,0.00040670827729627485,1.762279033660889,18.438743591308594,-14.309537887573242,-0.5403722524642944,0.36591896414756775,0.016021728515625,990.6611328125,0,0.0,0
5.64,0.07141745,-0.1559594,9.769441,0.0002413865440757945,-0.0009419017587788404,0.0006731237517669798,1.679938793182373,18.62493896484375,-14.153772354125975,-0.5120035409927368,0.34865063428878784,0.021025657653808597,990.6558837890624,0,0.0,0
5.68,0.06900343,-0.15357554,9.76944,-0.0001578549126861617,-0.0006756235379725696,-0.0007915138849057258,1.4140911102294922,19.11383056640625,-14.680307388305664,-0.5104916095733643,0.34323692321777344,0.02584171295166016,990.6407470703124,0,0.0,0
5.72,0.07853895400000001,-0.16549134,9.76707,0.0005081670242361723,-0.0006756613147445022,-0.00012562464689835906,1.3700690269470217,18.75672912597656,-14.960565567016602,-0.534988284111023,0.3597416877746582,0.030821800231933594,990.645751953125,0,0.0,0
5.76,0.070853055,-0.1607121,9.759921,0.0002420835226075724,-0.00014306722732726485,7.632828783243895e-06,1.7322521209716797,18.727033615112305,-14.86067008972168,-0.5143969058990479,0.3587870299816132,0.026172637939453125,990.6354370117188,0,0.0,0
5.8,0.070307374,-0.15116557,9.7433,0.00024348376609850675,0.000123021294712089,-0.000258082989603281,1.8938875198364256,18.351696014404297,-15.017587661743164,-0.5203584432601929,0.33801406621932983,0.04535579681396485,990.645751953125,0,0.0,0
5.84,0.07980353,-0.16069713,9.759865,0.0005024074926041067,-0.00014079424727242443,0.00014899930101819336,1.6540420055389404,18.179595947265625,-14.662614822387695,-0.5225204229354858,0.3412138521671295,0.03130340576171875,990.6480102539062,0,0.0,0
5.88,0.08451992,-0.16307887,9.755125,0.00010354484402341768,0.00039173822733573616,0.0005487351445481181,1.6248576641082764,18.731731414794922,-14.690427780151367,-0.5339696407318115,0.3491176962852478,0.05513858795166016,990.65576171875,0,0.0,0
5.92,0.046218097,-0.14877766,9.755119,0.000903715321328491,-0.0005405658157542348,-0.0003828463377431035,1.8957071304321291,18.985309600830078,-14.670019149780273,-0.4867080450057984,0.3421769142150879,0.04590415954589844,990.6607666015624,0,0.0,0
5.96,0.08917287,-0.15830919,9.769317,0.000903715321328491,-0.0005405658157542348,-0.0003828463377431035,1.8957071304321291,18.985309600830078,-14.670019149780273,-0.51368248462677,0.3457920849323273,0.02706527709960937,990.6607666015624,0,0.0,0
6.0,0.0652104,-0.15354106,9.759841,-2.7778854928328656e-05,-0.001339612645097077,-0.00011626852210611104,1.7632575035095217,18.808507919311523,-14.485292434692385,-0.506001353263855,0.3392468094825745,0.02722930908203125,990.6301879882812,0,0.0,0
6.04,0.08187628,-0.15592279999999997,9.759836,-0.0006923461914993823,0.0002580840664450079,-0.00011574453674256802,1.595235824584961,18.54581451416016,-14.444032669067385,-0.5020511150360107,0.34578096866607666,0.032196044921875,990.6124877929688,0,0.0,0
6.08,0.06986338,-0.16068783,9.7669325,0.0002403710386715829,0.0003911427629645914,-0.0005149563075974584,1.7231202125549316,18.718196868896484,-14.39683723449707,-0.4899156391620636,0.3299092948436737,0.03233909606933594,990.642333984375,0,0.0,0
6.12,0.06741002,-0.16068628,9.75509,-0.0008242809562943876,-0.0012068517971783874,0.0005505692679435015,1.590808391571045,18.64731216430664,-14.911195755004885,-0.4919267296791077,0.3278791904449463,0.04670143127441406,990.6525268554688,0,0.0,0
6.16,0.06973648,-0.15591815,9.757451,-0.0008242809562943876,-0.0012068517971783874,0.0005505692679435015,1.590808391571045,18.64731216430664,-14.911195755004885,-0.481057196855545,0.3363889455795288,0.04677677154541016,990.6525268554688,0,0.0,0
6.2,0.06250337,-0.16068316,9.764547,-2.472178857715335e-05,-0.00040800336864776915,-0.0007807482033967973,1.393059492111206,19.30504608154297,-14.996194839477539,-0.4777185618877411,0.33010345697402954,0.032745361328125,990.6454467773438,0,0.0,0
6.24,0.09589857,-0.16544816,9.750338000000001,0.0002422050456516445,-0.0013402082258835435,-0.00038101221434772015,2.0286998748779297,18.793819427490234,-14.756296157836914,-0.5134188532829285,0.3421744406223297,0.03763103485107422,990.6631469726562,0,0.0,0
6.28,0.0623765,-0.1487636,9.7527,-0.0010887628886848688,0.00025758781703189015,-0.0006470660446211697,1.7382023334503174,18.62700653076172,-14.47081184387207,-0.4763193428516388,0.32513129711151123,0.04256916046142578,990.6473999023438,0,0.0,0
6.32,0.0766525,-0.1416122,9.745592,-0.00015604571672156453,0.0005238045123405755,-0.00038048822898417717,1.8512492179870603,17.890151977539062,-14.676069259643555,-0.4833906590938568,0.3139228820800781,0.061642646789550774,990.6678466796876,0,0.0,0
6.36,0.06702945,-0.16306022,9.759789,-0.00015604571672156453,0.0005238045123405755,-0.00038048822898417717,1.8512492179870603,17.890151977539062,-14.676069259643555,-0.4914804995059967,0.33219313621521,0.03331279754638672,990.6678466796876,0,0.0,0
6.4,0.057406396,-0.15352556,9.75505,0.0011869046138599515,-9.7846204880625e-05,-0.0002909646136686206,1.6987459659576416,18.274324417114254,-14.982988357543945,-0.4638134837150574,0.3199737370014191,0.052455902099609375,990.6578369140624,0,0.0,0
6.44,0.09319150400000001,-0.17259026,9.757411,-0.0005435373750515282,-9.7945419838652e-05,-0.0006901763845235108,1.611840009689331,18.456100463867188,-14.595308303833008,-0.4991555213928223,0.3278866112232208,0.04313468933105469,990.6600952148438,0,0.0,0
6.48,0.07400888,-0.1654388,9.743201,-0.0005429258453659713,-0.0006306763971224427,-0.0006899143336340785,1.3681116104125977,18.017200469970703,-14.60905647277832,-0.4694309532642365,0.3364520370960236,0.057398796081542976,990.6245727539062,0,0.0,0
6.52,0.06916565,-0.15352085,9.755032,-0.00014284014469012618,0.0004344878252595663,-2.3862696252763268e-05,2.1983504295349117,17.951641082763672,-14.502202987670898,-0.4673382043838501,0.3154415190219879,0.04331493377685547,990.6776733398438,0,0.0,0
6.56,0.06910217,-0.17020229,9.759761,-0.00014222919708117845,0.0012333362828940153,-0.0004230744671076536,1.6162691116333008,18.35459899902344,-14.128149032592773,-0.4692520797252655,0.3185390830039978,0.043460845947265625,990.6600952148438,0,0.0,0
6.6,0.085768074,-0.17020068,9.745550999999999,0.00012469786452129486,-0.0011636059498414395,-0.00028965459205210214,1.7049942016601562,18.80643653869629,-14.16826057434082,-0.4795545637607575,0.33506208658218384,0.06733894348144531,990.6448974609376,0,0.0,0
6.64,0.08331472,-0.17258242,9.740811,0.00025846745120361453,-0.000364757637726143,-0.00028939254116266966,1.9430189132690432,18.344928741455078,-14.870790481567385,-0.4733951389789581,0.3339914381504059,0.0674123764038086,990.6547241210938,0,0.0,0
6.68,0.06891188,-0.16066447,9.745541000000001,-0.0010725002503022554,-0.00049801473505795,-2.2814609110355374e-05,1.934865474700928,18.705856323242188,-14.58271598815918,-0.4472434818744659,0.31779691576957697,0.06279850006103516,990.6197509765624,0,0.0,0
6.72,0.07123837,-0.16066292,9.752635,-0.00040609942516312003,0.000833465368486941,0.000243763264734298,1.2545218467712402,19.12234878540039,-14.502248764038086,-0.4533863961696625,0.3107859194278717,0.05350494384765625,990.6525268554688,0,0.0,0
6.76,0.08287430000000001,-0.17024699,9.745725,0.00026030122535303235,0.0007002082420513034,-0.0004217644454911351,1.7217359542846682,18.82263946533203,-15.018617630004885,-0.4682122468948364,0.3244031369686127,0.04391860961914063,990.6470947265624,0,0.0,0
6.8,0.07811606,-0.15833107,9.759929,0.00091230048565194,-0.0008941625710576774,-0.0010904143564403057,1.6951589584350586,18.639667510986328,-14.926828384399414,-0.4610938131809234,0.2989306449890137,0.03929805755615234,990.6395874023438,0,0.0,0
6.84,0.07096797,-0.16786477,9.7694,0.00023632352531421932,0.0004390705726109445,0.00010364115587435664,2.041717052459717,19.069448471069336,-14.851411819458008,-0.444423258304596,0.3213353157043457,0.03467369079589844,990.6392822265624,0,0.0,0
6.88,0.06859958,-0.14879900000000001,9.7575655,0.00010295778338331729,-0.00035984331043437123,0.0003698679793160409,1.7874712944030762,18.726158142089844,-15.023096084594727,-0.4504095613956451,0.2854973673820496,0.039580345153808594,990.6369018554688,0,0.0,0
6.92,0.07101104,-0.16786584,9.745732,-0.0005630398518405856,-0.00022665165306534615,-0.0006954845739528537,1.9689147472381592,18.79027557373047,-14.361948013305664,-0.4431639313697815,0.31720489263534546,0.06336688995361328,990.6470947265624,0,0.0,0
6.96,0.06625283,-0.15594992,9.755203,0.0002357001212658361,-9.346001024823636e-05,0.000502847833558917,1.975545883178711,18.427875518798828,-14.572717666625975,-0.43729513883590704,0.292245090007782,0.030282020568847656,990.64697265625,0,0.0,0
7.0,0.05910468,-0.15118396,9.75994,-0.0009629291598685086,-9.342624980490656e-05,0.00010328495409339665,2.001579761505127,18.979137420654297,-14.762956619262695,-0.4204635322093964,0.29060959815979004,0.0446014404296875,990.65478515625,0,0.0,0
7.04,0.06868589,-0.1535677,9.759942,0.00010212646157015116,-0.00022655051725450903,0.0002363537787459791,1.9936718940734863,18.339637756347656,-14.801301956176758,-0.432500958442688,0.2888891100883484,0.03997611999511719,990.6519775390624,0,0.0,0
7.08,0.061537713,-0.14880168,9.762311,-0.0004307132330723107,-0.000359674624633044,-3.0051101930439472e-05,1.989243745803833,18.441133499145508,-15.268465042114258,-0.4111729860305786,0.2873431444168091,0.040078163146972656,990.6593627929688,0,0.0,0
7.12,0.066339076,-0.14641893,9.752842999999999,-0.0005642868927679956,3.986664523836225e-05,0.0003692444879561663,1.4788475036621094,18.647586822509766,-14.509035110473633,-0.4171561896800995,0.2754151225090027,0.04971027374267578,990.6572265625,0,0.0,0
7.16,0.05919093,-0.1583359,9.767049,-0.0005642868927679956,3.986664523836225e-05,0.0003692444879561663,1.4788475036621094,18.647586822509766,-14.509035110473633,-0.4111937582492829,0.274595320224762,0.026091575622558597,990.6572265625,0,0.0,0
7.2,0.07833171,-0.16786954,9.769418,0.00036761100636795163,3.9900391129776835e-05,-3.0318391509354115e-05,2.0220689773559566,19.15621566772461,-14.545522689819336,-0.433064728975296,0.301617443561554,0.04038906097412109,990.6624145507812,0,0.0,0
7.24,0.054454267,-0.15118709,9.752849000000001,-3.207072222721763e-05,0.0005725658847950399,0.00010275043314322828,1.7180118560791016,19.08206558227539,-14.263376235961914,-0.4072825014591217,0.29060620069503784,0.05467891693115234,990.6470947265624,0,0.0,0
7.28,0.06642532,-0.16310403,9.745749,0.00010087942064274101,0.0008389154681935906,-0.00016365444753319022,1.5213484764099119,19.003219604492188,-14.15147590637207,-0.40531277656555176,0.28903675079345703,0.05950260162353516,990.6369018554688,0,0.0,0
7.32,0.059277177,-0.16072121,9.759953999999999,0.0004999376251362264,0.0005726670497097075,0.0002356412005610764,1.7163288593292236,18.55437469482422,-15.310018539428713,-0.3976345062255859,0.28704172372817993,0.05016231536865234,990.652099609375,0,0.0,0
7.36,0.06646845,-0.17025492,9.759957,0.0004999376251362264,0.0005726670497097075,0.0002356412005610764,1.7163288593292236,18.55437469482422,-15.310018539428713,-0.4158733487129211,0.2862384915351868,0.035999298095703125,990.652099609375,0,0.0,0
7.4,0.06649002400000001,-0.14880589,9.771794,0.0004997297073714435,0.0007058586925268173,-0.00016392167890444398,1.6544785499572754,18.91764640808105,-14.936822891235352,-0.408991277217865,0.2800508141517639,0.04082489013671875,990.6649780273438,0,0.0,0
7.44,0.054562032,-0.14880648,9.757594000000001,0.00023320615582633764,0.0003064186603296548,0.0003686209965962917,1.941932201385498,19.081512451171875,-15.067697525024414,-0.4020111262798309,0.2785845100879669,0.04565238952636719,990.606689453125,0,0.0,0
7.48,0.07131290400000001,-0.15357351,9.743392,-0.00016647546726744622,-0.00022617941431235517,0.0003685319388750941,2.082397937774658,18.79146957397461,-14.841413497924805,-0.3998193442821503,0.2818765044212341,0.06468391418457031,990.6220092773438,0,0.0,0
7.52,0.06894460000000001,-0.17264035,9.759965,9.942469478119163e-05,-9.295398194808512e-05,0.00023519582464359703,1.7138280868530271,18.183135986328125,-15.056962966918945,-0.4107921421527863,0.2892354130744934,0.06009006500244141,990.6701049804688,0,0.0,0
7.56,0.064186335,-0.16310772,9.755233,9.942469478119163e-05,-9.295398194808512e-05,0.00023519582464359703,1.7138280868530271,18.183135986328125,-15.056962966918945,-0.40976348519325256,0.27416563034057617,0.03646278381347656,990.6701049804688,0,0.0,0
7.6,0.06659782,-0.15595838,9.762336,-0.0003004648606292904,0.0004397453449200839,0.0005013336194679142,1.6544787883758545,18.917648315429688,-14.936822891235352,-0.3923852145671845,0.2767062783241272,0.02712345123291016,990.6346435546876,0,0.0,0
7.64,0.06422949,-0.16072550000000002,9.774174,-0.0003004648606292904,0.0004397453449200839,0.0005013336194679142,1.2726480960845947,19.034109115600586,-14.730829238891602,-0.4045837223529816,0.2752023935317993,0.027213096618652344,990.6346435546876,0,0.0,0
7.68,0.08337024,-0.16549260000000002,9.757606,-0.0003004648606292904,0.0004397453449200839,0.0005013336194679142,1.2726480960845947,19.034109115600586,-14.730829238891602,-0.40807175636291504,0.28388434648513794,0.03673362731933594,990.6346435546876,0,0.0,0
7.72,0.04479128,-0.15356782,9.755206,-0.00016772250819485637,-0.0007586086867377162,0.00010168165317736566,1.8530693054199217,18.523761749267575,-14.32850456237793,-0.3609994649887085,0.2578122615814209,0.05587196350097656,990.6571044921876,0,0.0,0
7.76,0.065937996,-0.16785863,9.774111999999999,-0.00016772250819485637,-0.0007586086867377162,0.00010168165317736566,1.8530693054199217,18.523761749267575,-14.32850456237793,-0.3789425790309906,0.2809614837169647,0.02277851104736328,990.6571044921876,0,0.0,0
7.8,0.07548994,-0.14879218,9.764642,-3.477248901617713e-05,-0.0003591010463424027,-0.0002978811971843242,1.482870101928711,19.02029800415039,-14.83940315246582,-0.4099577069282532,0.2510285079479217,0.04181194305419922,990.6549682617188,0,0.0,0
7.84,0.06353283,-0.15832514,9.771742999999999,0.00023750502441544086,-0.0006263847462832928,0.00023730541579425332,1.5499897003173828,18.819374084472656,-14.222116470336914,-0.3983494341373444,0.25449031591415405,0.04662895202636719,990.6369018554688,0,0.0,0
7.88,0.068305016,-0.16309151,9.750438,-0.0001415433653164655,0.0005994343664497138,0.0003988833341281861,1.6294236183166504,18.73614883422852,-14.922346115112305,-0.3872445523738861,0.2766648828983307,0.04669761657714844,990.6321411132812,0,0.0,0
7.92,0.06351763,-0.14164177,9.748069000000001,-0.0005409436998888849,0.00099889631383121,0.00013259894330985844,1.408684492111206,18.84556579589844,-14.971715927124025,-0.37918475270271296,0.2555201053619385,0.05629634857177735,990.63720703125,0,0.0,0
7.96,0.07545951,-0.16785774,9.767007000000001,-0.00014139668201096356,-0.0003326950827613473,-0.0001336855930276215,1.494365930557251,19.294456481933594,-14.857217788696287,-0.3970798552036285,0.2690122425556183,0.03740596771240234,990.612060546875,0,0.0,0
8.0,0.073062,-0.16547420000000002,9.764638,0.0001249926572199911,-0.0009984966600313783,-0.0001336540444754064,1.5606446266174316,18.829683303833008,-14.763250350952148,-0.38422638177871693,0.2619084417819977,0.03280162811279297,990.6547241210938,0,0.0,0
8.04,0.051545262,-0.15832421,9.757537,-8.09193716122536e-06,-0.0004658768302761018,-0.0002667805529199541,1.5678186416625977,18.098995208740234,-14.875566482543945,-0.3593125343322754,0.2800220251083374,0.06124973297119141,990.6572265625,0,0.0,0
8.08,0.070656836,-0.158324,9.759903,-0.000940124038606882,0.0004662168794311583,-0.0010656968224793673,1.2437069416046145,18.585819244384766,-15.085062026977539,-0.3716264963150024,0.2643113136291504,0.05185985565185547,990.6525268554688,0,0.0,0
8.12,0.06347954,-0.16070712,9.762269,0.0002583705063443631,-0.0005990586359985173,0.00093170371837914,1.8963882923126218,18.72293472290039,-15.270647048950195,-0.3684503436088562,0.2624679207801819,0.05197811126708984,990.6347045898438,0,0.0,0
8.16,0.06825173,-0.15832368,9.757535,0.0003916020214091986,0.0008656669524498284,-0.00013352831592783332,1.4230852127075195,19.016754150390625,-14.445058822631836,-0.3771026730537415,0.25238090753555303,0.03307437896728516,990.6346435546876,0,0.0,0
8.2,0.04673502,-0.15594015,9.767002,0.0002585174224805087,-0.0003327664453536272,0.0001328189973719418,1.87880539894104,18.44288444519043,-14.943613052368164,-0.3652598857879639,0.2415884435176849,0.04736137390136719,990.6575317382812,0,0.0,0
8.24,0.061066805999999994,-0.15355673,9.764634,0.00039174870471470063,-6.646261317655444e-05,-0.0005329392733983697,1.975545883178711,18.427875518798828,-14.572721481323242,-0.3399295210838318,0.2355780303478241,0.04741859436035156,990.6276245117188,0,0.0,0
8.28,0.13753605,-0.18453911,9.743329,0.00012550628161989152,-0.0001996324281208217,0.00013288189074955878,1.9023382663726809,18.62291145324707,-14.88078498840332,-0.4285639822483063,0.2814459204673767,0.0617055892944336,990.6499633789062,0,0.0,0
8.32,0.029982805,-0.15355632,9.766999,-0.0006733679911121726,0.0011319350451231005,-0.0006660342332907021,1.6674957275390625,19.19327735900879,-15.031946182250975,-0.292999804019928,0.2367079257965088,0.028635025024414062,990.629638671875,0,0.0,0
8.36,0.032365143,-0.14402303,9.757531,0.0003919688460882753,0.002729818457737565,-2.1309824660420412e-07,1.3458549976348877,18.839080810546875,-14.422761917114258,-0.30158731341362,0.22659018635749814,0.05707550048828125,990.6224975585938,0,0.0,0
8.4,0.10644448,-0.14640608,9.769366,-7.431513040501158e-06,-0.0008654578123241662,0.0010650819167494774,1.1983237266540527,18.753463745117188,-14.164072036743164,-0.4042750000953674,0.2491973042488098,0.038224220275878906,990.6448974609376,0,0.0,0
8.44,0.051469147,-0.16070563,9.76463,0.00039211564580909913,-0.0004659958649426698,0.0001330077066086233,1.5580363273620603,19.564790725708008,-14.882844924926758,-0.34980157017707825,0.23390664160251615,0.05249309539794922,990.6474609375,0,0.0,0
8.48,0.07297063,-0.1821549,9.740958000000001,0.0003921889874618501,0.0008655715500935912,-0.0010653822682797909,1.7593722343444824,18.54171371459961,-14.854005813598633,-0.35765278339385986,0.2797728180885315,0.06676387786865234,990.6658325195312,0,0.0,0
8.52,0.077742845,-0.15355542,9.757528,-0.0002734539157245308,0.0016644953284412622,0.000133102061226964,1.8046183586120603,18.26815414428711,-15.075925827026367,-0.35059893131256104,0.23469138145446775,0.062115669250488274,990.6575317382812,0,0.0,0
8.56,0.05144632,-0.14878863,9.764629,-0.0002734539157245308,0.0016644953284412622,0.000133102061226964,1.8046183586120603,18.26815414428711,-15.075925827026367,-0.32115980982780457,0.22425276041030884,0.03373908996582031,990.6575317382812,0,0.0,0
8.6,0.068167984,-0.1654714,9.769362,-0.001072328188456595,0.0005992199294269085,0.0005326073151081799,1.8046190738677976,18.26815414428711,-15.075925827026367,-0.33846256136894226,0.2514573335647583,0.04327392578125,990.6702880859376,0,0.0,0
8.64,0.07294017,-0.1607047,9.755158,-0.00027330723241902893,0.0001997342187678441,-0.0001331509556621313,1.2716686725616455,18.664348602294922,-14.555078506469727,-0.35080966353416443,0.2498997449874878,0.05754756927490234,990.640380859375,0,0.0,0
8.68,0.068152726,-0.17262086,9.757525,-0.00014007583376951516,-0.0005992253427393733,0.0001331964158453047,1.6800765991210938,18.73085594177246,-14.852853775024414,-0.3397859036922455,0.25295931100845337,0.04813385009765625,990.6678466796876,0,0.0,0
8.72,0.06380910000000001,-0.15356538,9.769401,0.0007905886741355063,0.000865745940245688,0.0006652105366811156,1.7867913246154783,18.988529205322266,-14.42247200012207,-0.34261009097099304,0.2417454719543457,0.03870773315429688,990.635498046875,0,0.0,0
8.76,0.06381923,-0.14641579999999998,9.7623005,0.0007905886741355063,0.000865745940245688,0.0006652105366811156,1.7867913246154783,18.988529205322266,-14.42247200012207,-0.3368741869926453,0.22690272331237796,0.034003257751464844,990.635498046875,0,0.0,0
8.8,0.070999086,-0.16309899,9.738629,0.00012409404735080898,-0.00020012371533084658,0.00039705849485471845,1.3768606185913086,18.920551300048828,-14.047388076782227,-0.3489244282245636,0.23065391182899475,0.07195091247558594,990.6423950195312,0,0.0,0
8.84,0.06622946,-0.16071594,9.767036000000001,0.0006566278170794249,-0.0009990553371608255,0.00026385861565358937,1.843233346939087,18.35699462890625,-15.087072372436525,-0.3328243792057037,0.2339978665113449,0.03886890411376953,990.6430053710938,0,0.0,0
8.88,0.04951027,-0.1607162,9.752834,-0.0005418914370238781,0.0003325398138258606,-0.00013565714471042156,1.7152431011199951,19.29095458984375,-15.506921768188475,-0.3168664872646332,0.2374091148376465,0.053127288818359375,990.6354370117188,0,0.0,0
8.92,0.059080064,-0.16071644,9.755202,0.0003901163290720433,-0.00020007604325655848,-0.0002688569948077202,1.6338515281677246,18.634653091430664,-14.455179214477539,-0.3294514119625092,0.24108634889125824,0.04844856262207031,990.630615234375,0,0.0,0
8.96,0.07581952,-0.15833339,9.752837,0.00039001842378638685,0.0005988875054754318,-0.0009346887236461043,1.7762746810913086,19.084138870239254,-14.580415725708008,-0.3516301810741425,0.2258656769990921,0.04376697540283203,990.6278076171876,0,0.0,0
9.0,0.06865996,-0.15833363,9.752837,0.0007893943693488836,0.0005989033961668612,-0.00040209887083619833,1.9143762588500977,18.528778076171875,-14.800149917602539,-0.3262676000595093,0.2342246174812317,0.05801773071289064,990.6604614257812,0,0.0,0
9.04,0.066280216,-0.17025027,9.75994,-0.00014280914911068976,0.0005989192286506295,-0.00013582489918917418,1.715648174285889,18.81674575805664,-14.709390640258787,-0.3293420970439911,0.2328643053770065,0.05807304382324219,990.6480102539062,0,0.0,0
9.08,0.07823986,-0.14880103,9.750472,-0.00014280914911068976,0.0005989192286506295,-0.00013582489918917418,1.6036880016326904,18.81702423095703,-14.307233810424805,-0.33699241280555725,0.22199970483779907,0.04866504669189453,990.6480102539062,0,0.0,0
9.12,0.0639106,-0.16071773,9.759941,-9.748991942615248e-06,0.00046577712055295706,-0.0005353406304493545,1.401073932647705,18.83820343017578,-14.58519172668457,-0.3397650718688965,0.2259988486766815,0.039254188537597656,990.6328735351562,0,0.0,0
9.16,0.07109046,-0.16071796,9.764676,0.00012331115431152284,-6.683862011414021e-05,0.0003967230150010437,1.4095253944396973,19.109413146972656,-14.448389053344727,-0.3286455571651459,0.22486071288585666,0.039302825927734375,990.6838989257812,0,0.0,0
9.2,0.07588047,-0.16548476,9.755208,0.0007890029810369015,-0.00033313868334516883,0.0006629968993365765,1.6075730323791504,19.083816528320312,-13.93852424621582,-0.3319542706012726,0.22868990898132324,0.058284759521484375,990.6459350585938,0,0.0,0
9.24,0.05438143,-0.15833518,9.738639,0.00038933343603275716,0.0005989986821077764,-2.8766808100044723e-06,1.881711483001709,18.339914321899414,-14.399145126342773,-0.3112489879131317,0.22278819978237152,0.07253646850585938,990.6336669921876,0,0.0,0
9.28,0.05917144,-0.16786852,9.759946000000001,0.0002560777065809816,0.00046585663221776485,0.0003965552605222911,1.6990442276000977,18.90645980834961,-14.558115005493164,-0.3002589046955109,0.23096996545791626,0.048908233642578125,990.6387939453124,0,0.0,0
9.32,0.06874119999999999,-0.16548547,9.77415,0.0001228217442985624,0.0007321883458644153,0.0001301974116358906,1.704833984375,18.280216217041016,-15.292207717895508,-0.3215357661247253,0.2241048514842987,0.04425334930419922,990.6738891601562,0,0.0,0
9.36,0.07114124,-0.1440362,9.762315,-0.00027674963348545134,0.0004658883553929627,0.0001301555021200329,1.556621551513672,18.45697784423828,-14.432886123657227,-0.33010953664779663,0.19488398730754847,0.04901695251464844,990.641357421875,0,0.0,0
9.4,0.059201837,-0.16310266,9.764682,-0.0008254663553088902,-0.0002112983638653532,1.3119366485625505e-05,1.4456393718719482,18.827016830444336,-14.206480026245115,-0.304272323846817,0.22222758829593656,0.03960514068603516,990.6334838867188,0,0.0,0
9.44,0.075941324,-0.16071963,9.759949,-0.0006924062035977839,-0.001143388100899756,0.00014623536844737828,1.466672658920288,18.63580322265625,-13.890596389770508,-0.3120352029800415,0.2110256105661392,0.058597564697265625,990.6514282226562,0,0.0,0
9.48,0.0711717,-0.16071989999999997,9.776521,-0.0005593460518866777,-7.810865645296873e-05,-0.00025328033370897174,1.3412890434265137,18.834659576416016,-14.190847396850586,-0.3092529773712158,0.20490147173404694,0.030266761779785163,990.6514282226562,0,0.0,0
9.52,0.049672693,-0.16310349,9.767053,0.000905293389223516,-7.809273665770887e-05,0.00027930940268561244,1.862743854522705,18.164306640625,-14.693883895874025,-0.2977341413497925,0.22281841933727264,0.03979015350341797,990.6287841796876,0,0.0,0
9.56,0.09987083,-0.16310373,9.755217,0.0005057216621935369,-0.0007438665488734841,0.00027926749316975474,1.5728197097778318,18.841466903686523,-15.381689071655273,-0.3398302495479584,0.2126128077507019,0.044551849365234375,990.6415405273438,0,0.0,0
9.6,0.05686274,-0.15118757,9.759953,-0.0005596396513283253,-0.000344376836437732,-0.00012024829629808664,1.457815170288086,18.838802337646484,-14.824922561645508,-0.2893840074539185,0.2012682408094406,0.03988933563232422,990.6488647460938,0,0.0,0
9.64,0.06165266,-0.15833765,9.752852,-0.00016026372031774372,5.511285780812614e-05,0.0001460256753489375,1.7107839584350586,18.18019294738769,-14.902349472045898,-0.2886019647121429,0.21953889727592468,0.0635833740234375,990.6363525390624,0,0.0,0
9.68,0.08726445,-0.15355447,9.745688000000001,-0.0008261512266471982,-0.0004775030538439751,0.0006786154699511826,1.9458181858062744,19.348302841186523,-14.698980331420898,-0.3227570056915283,0.2127753645181656,0.07325363159179688,990.64404296875,0,0.0,0
9.72,0.07459599,-0.17260304,9.755092,-0.0005599332507699728,5.514461008715443e-05,1.2783857528120281e-05,2.25636887550354,18.954139709472656,-14.492818832397461,-0.30147892236709595,0.22124329209327695,0.05911064147949219,990.6463623046876,0,0.0,0
9.76,0.07216048,-0.15830229999999998,9.759822,0.0007729594944976269,-0.0004780291928909719,0.0002864728448912501,1.7953801155090332,19.36565971374512,-14.984750747680664,-0.3055076599121094,0.20639297366142276,0.059131622314453125,990.63134765625,0,0.0,0
9.8,0.084064305,-0.1606844,9.764552,-0.0001554190821480006,-0.0004786342615261674,0.00042122800368815666,1.883669376373291,19.079439163208008,-14.75065803527832,-0.3180471956729889,0.20531100034713745,0.040244102478027344,990.6514282226562,0,0.0,0
9.84,0.06250954,-0.16544989,9.764548,0.0002444944402668625,-0.00034554765443317587,-0.0002443731646053493,1.6378755569458008,19.00735855102539,-14.785547256469727,-0.2829708456993103,0.208709716796875,0.040291786193847656,990.64404296875,0,0.0,0
9.88,0.06963357,-0.16306543,9.7550745,-0.00015409939805977046,-0.0002125325845554471,-0.0010429436806589363,1.3693885803222656,19.019100189208984,-14.35993766784668,-0.30435240268707275,0.21160678565502167,0.05456733703613281,990.6290893554688,0,0.0,0
9.92,0.06719807,-0.1582978,9.762172,0.000512130034621805,-0.000345761887729168,0.0005551400827243924,1.4774641990661619,18.752033233642575,-15.130807876586914,-0.288415789604187,0.19614112377166748,0.059346199035644524,990.6466064453124,0,0.0,0
9.96,0.06954235,-0.14638028,9.757433,0.000512130034621805,-0.000345761887729168,0.0005551400827243924,1.4774641990661619,18.752033233642575,-15.130807876586914,-0.2969264388084412,0.1812095493078232,0.05463981628417969,990.6466064453124,0,0.0,0
10.0,0.076666415,-0.15591225,9.759797,-0.0004190955951344222,-0.0006122206104919313,2.2885389626026154e-05,1.5747475624084473,18.368736267089844,-14.661466598510742,-0.3036105036735535,0.1934904158115387,0.04524993896484375,990.64208984375,0,0.0,0
10.04,0.067061126,-0.16544425,9.757424,-0.0004190955951344222,-0.0006122206104919313,2.2885389626026154e-05,1.5747475624084473,18.368736267089844,-14.661466598510742,-0.2934905886650085,0.2169538289308548,0.04526519775390625,990.64208984375,0,0.0,0
10.08,0.07418519,-0.15114346,9.759788499999999,0.0007797655998729169,-7.966025441419333e-05,-0.0003764000139199197,1.5655083656311035,19.46623992919922,-14.570291519165039,-0.2871043682098389,0.18281415104866028,0.05004119873046875,990.6825561523438,0,0.0,0
10.12,0.08130926,-0.16305879,9.75505,-0.00015145991346798834,0.00045282865175977355,0.0005560828140005468,1.9089694023132324,18.26051139831543,-15.091554641723633,-0.2798455357551575,0.2049213945865631,0.05957794189453125,990.6446533203124,0,0.0,0
10.16,0.06214443,-0.15352449,9.752678,-0.00015145991346798834,0.00045282865175977355,0.0005560828140005468,1.9089694023132324,18.26051139831543,-15.091554641723633,-0.2743450999259949,0.1995158344507217,0.05486297607421875,990.6446533203124,0,0.0,0
10.2,0.07404828,-0.1678231,9.755042,-0.0006836519460193813,0.0003195992903783917,0.00015679746866226196,1.5883078575134275,18.276073455810547,-14.658132553100586,-0.2914735972881317,0.20321667194366452,0.0596466064453125,990.6622314453124,0,0.0,0
10.24,0.06444305,-0.16305533,9.752669000000001,0.0002488937752787024,-0.0011452094186097386,-0.0009082775213755668,1.9292140007019043,19.438018798828125,-14.547700881958008,-0.2656475007534027,0.20177173614501956,0.06443119049072266,990.6446533203124,0,0.0,0
10.28,0.07634690400000001,-0.15828773,9.752665499999999,-0.0008159299031831324,-0.0011452807812020185,-0.0003754571662284434,1.6824405193328855,18.996173858642575,-14.406839370727539,-0.2875519692897797,0.1864655613899231,0.04554462432861328,990.6369018554688,0,0.0,0
10.32,0.06435174,-0.15590331,9.752661999999999,-0.0005487341550178826,5.299778422340751e-05,0.0006901833694428205,1.9434547424316408,19.082983016967773,-15.144998550415039,-0.2612959146499634,0.1988515108823776,0.05980873107910156,990.6448974609376,0,0.0,0
10.36,0.07864547,-0.15590218,9.759758999999999,-0.0005487341550178826,5.299778422340751e-05,0.0006901833694428205,1.9434547424316408,19.082983016967773,-15.144998550415039,-0.2842859029769897,0.17957478761672974,0.04089164733886719,990.6448974609376,0,0.0,0
10.4,0.08576959,-0.14398465,9.752653,0.00011749533587135376,-0.00047970539890229697,0.0002908980823121965,1.6222493648529053,19.466838836669922,-14.810022354125975,-0.2870696783065796,0.1782776266336441,0.07881546020507812,990.6575317382812,0,0.0,0
10.44,0.0666047,-0.15113336,9.766852,0.00011749533587135376,-0.00047970539890229697,0.0002908980823121965,1.114737033843994,19.150020599365234,-15.329156875610352,-0.2617012858390808,0.17732307314872742,0.0315093994140625,990.6575317382812,0,0.0,0
10.48,0.06177929,-0.16066542,9.771583,-0.0005478544044308363,-0.00034661887912079686,-0.00037470308598130936,1.4586565494537354,19.10264587402344,-14.301599502563475,-0.25959140062332153,0.19524049758911133,0.03629302978515625,990.6525268554688,0,0.0,0
10.52,0.07607305,-0.15351442,9.766844,0.00011881501995958389,-0.001278867246583104,0.0005577795673161745,1.6831209659576416,18.733800888061523,-15.007463455200195,-0.271869957447052,0.17957985401153564,0.05528163909912109,990.63232421875,0,0.0,0
10.56,0.07124761,-0.1582799,9.755004,0.0006518866284750402,0.0005852725589647889,-0.0005072954227216542,1.32330060005188,19.02881622314453,-14.661340713500975,-0.2655051350593567,0.1878805309534073,0.05058479309082031,990.6354370117188,0,0.0,0
10.6,0.056862533,-0.16304532,9.740796000000001,-0.0005460945540107787,-0.0002137465635314584,-0.0002407909487374127,1.602846622467041,18.553180694580078,-14.830556869506836,-0.25906825065612793,0.18212977051734924,0.06009292602539064,990.6903686523438,0,0.0,0
10.64,0.07115632,-0.15827763,9.766831,-0.0005456548533402383,-0.0008796077454462647,0.0004251872596796602,1.827609062194824,18.81647109985352,-15.111551284790039,-0.2764069736003876,0.17159633338451385,0.04119682312011719,990.6703491210938,0,0.0,0
10.68,0.07166585,-0.16305664,9.762144000000001,-1.2583301213453526e-05,5.242650513537228e-05,0.00042537576518952847,1.4668092727661133,18.741722106933594,-14.589670181274414,-0.2660403847694397,0.18529462814331052,0.05068302154541016,990.6347045898438,0,0.0,0
10.72,0.07459852,-0.1511536,9.759826,-0.00014661878230981531,-0.0003469049115665257,0.0006913154502399267,1.8526639938354488,18.997966766357425,-15.126031875610352,-0.2597731053829193,0.174098402261734,0.060108184814453125,990.6679077148438,0,0.0,0
10.76,0.06264776,-0.16545328,9.762193,-0.0004219590628053993,-0.0006117558223195374,0.0005542900180444121,1.8813061714172363,18.81412124633789,-15.196672439575195,-0.2638273239135742,0.17849567532539368,0.04118537902832031,990.6170043945312,0,0.0,0
10.8,0.07459599,-0.1511536,9.740888,-0.00015563084161840382,-7.912598084658384e-05,0.001353242783807218,2.3579206466674805,17.94312286376953,-14.680261611938475,-0.26584550738334656,0.1723330169916153,0.06017875671386719,990.6753540039062,0,0.0,0
10.84,0.06981492,-0.16545317,9.750358,0.0002438548544887453,-0.0008780756033957005,-0.0002446472062729299,2.3096303939819336,18.21373748779297,-14.303735733032227,-0.2639678120613098,0.16639365255832672,0.06021690368652344,990.65576171875,0,0.0,0
10.88,0.07220358,-0.15115348,9.750358,-2.244868483103346e-05,-0.001677025225944817,0.0004211477353237569,2.0573418140411377,18.609973907470703,-14.826932907104492,-0.2583687901496887,0.17489099502563474,0.05549907684326172,990.6430053710938,0,0.0,0
10.92,0.06981236,-0.15353677,9.755092,0.00013476616004481912,0.0014361965004354715,-0.0002417699433863163,2.073128223419189,18.676715850830078,-13.678506851196287,-0.2426467537879944,0.1694469004869461,0.06972885131835938,990.6533203125,0,0.0,0
10.96,0.08415055,-0.15591997,9.759825,0.0002679360914044082,0.00010461507190484555,-0.0006412385264411569,2.17291259765625,18.66465377807617,-13.462224960327148,-0.2659825086593628,0.16912850737571716,0.05080413818359375,990.6635131835938,0,0.0,0
11.0,0.067419946,-0.15353665,9.757458,1.6323174349963663e-06,0.0007704028394073247,-0.0006412334041669965,2.1645991802215576,18.49935913085937,-14.298097610473633,-0.2544905245304108,0.153535857796669,0.04610729217529297,990.635498046875,0,0.0,0
11.04,0.06263888,-0.14638677,9.747989,0.00026796077145263547,0.0006372429197654128,-0.0003749122261069715,1.4510469436645508,19.09528350830078,-13.915071487426758,-0.23489443957805636,0.1531066596508026,0.05558490753173828,990.6407470703124,0,0.0,0
11.08,0.07458711,-0.17021960000000003,9.752723,0.0009337624651379883,-2.8548820409923792e-05,0.00042404068517498667,1.2137036323547363,19.294414520263672,-13.813165664672852,-0.2623307704925537,0.17599095404148102,0.060343742370605476,990.6660766601562,0,0.0,0
11.12,0.07219595,-0.1630697,9.774028,-0.00013148883590474725,0.0006372389034368098,-0.0002417437499389052,1.1983237266540527,18.753463745117188,-14.164064407348633,-0.2413890212774277,0.17502832412719727,0.0035657882690429688,990.6455688476562,0,0.0,0
11.16,0.06741488,-0.15353653,9.750356,0.0005343133234418929,0.0005040789837948979,-0.0006412123329937457,0.8581509590148926,18.96170997619629,-14.123834609985352,-0.2549821734428406,0.16529782116413114,0.05565738677978516,990.6583862304688,0,0.0,0
11.2,0.069803536,-0.14876994,9.757458,0.001066957367584109,0.00037091900594532484,0.0005572143709287047,0.7302675247192383,18.789329528808594,-14.171022415161133,-0.2391965389251709,0.16428391635417938,0.05095005035400391,990.6586303710938,0,0.0,0
11.24,0.07458204,-0.15591979,9.750356,-0.0003977555898018181,-0.00042803259566426277,-0.0007743545575067401,1.0251929759979248,18.854639053344727,-13.989339828491213,-0.24655447900295255,0.16299720108509064,0.050991058349609375,990.65869140625,0,0.0,0
11.28,0.07458076,-0.15591976,9.757457,-0.0003977555898018181,-0.00042803259566426277,-0.0007743545575067401,1.0251929759979248,18.854639053344727,-13.989339828491213,-0.2603977620601654,0.15768253803253174,0.03679752349853516,990.65869140625,0,0.0,0
11.32,0.076969415,-0.15830296,9.752723,0.0004012042772956193,0.0009035448892973363,0.00042407217551954085,1.1868281364440918,18.479305267333984,-14.14625358581543,-0.2590522170066833,0.16189438104629514,0.0510244369506836,990.643310546875,0,0.0,0
11.36,0.07935804,-0.15591967,9.764558000000001,0.0006675320328213273,0.000370911177014932,-0.00024171225959435103,0.9935076236724854,19.035539627075195,-13.76408576965332,-0.2478504925966263,0.1609218418598175,0.04158496856689453,990.6539306640624,0,0.0,0
11.4,0.06740731,-0.14400327,9.743253999999999,0.00013492506695911288,0.0003709071024786681,0.00015777198132127523,1.8893213272094729,18.347280502319336,-14.785669326782227,-0.2460373193025589,0.1452871710062027,0.0510854721069336,990.643798828125,0,0.0,0
11.44,0.06979591,-0.15591958,9.745622000000001,0.00013493694132193923,0.0006372210336849092,-0.0003748545423150063,1.5239567756652832,18.268112182617188,-14.031877517700195,-0.240122452378273,0.15413518249988556,0.07004261016845703,990.6591796875,0,0.0,0
11.48,0.069794625,-0.15353629,9.762191,0.00013493694132193923,0.0006372210336849092,-0.0003748545423150063,1.5239567756652832,18.268112182617188,-14.031877517700195,-0.2488456517457962,0.14889754354953766,0.04165077209472656,990.6591796875,0,0.0,0
11.52,0.07696307,-0.1630694,9.747989,-0.000930301786866039,-0.00029488850850611925,-0.0006411599460989237,1.5921926498413086,18.54286766052246,-14.289422988891602,-0.2469703257083893,0.16635988652706146,0.055886268615722656,990.6643676757812,0,0.0,0
11.56,0.07218200000000001,-0.1606861,9.752723,-0.0005308159743435682,-2.857466461136937e-05,-0.0007743126479908824,1.688253402709961,18.790231704711914,-13.317903518676758,-0.24101080000400546,0.15581189095973969,0.04643821716308594,990.6441040039062,0,0.0,0
11.6,0.06023124,-0.15591943,9.762189999999999,-0.0005308159743435682,-2.857466461136937e-05,-0.0007743126479908824,1.688253402709961,18.790231704711914,-13.317903518676758,-0.21636620163917544,0.15526731312274933,0.04645061492919922,990.6441040039062,0,0.0,0
11.64,0.07456937400000001,-0.16783586,9.757456,-0.00013132992899045348,-0.0004280504072085023,-0.0003748335875570774,1.6085522174835205,19.45358085632324,-14.114278793334961,-0.2341179996728897,0.17378246784210205,0.04173851013183594,990.6569213867188,0,0.0,0
11.68,0.07087457,-0.15594605,9.748087,0.0010671040508896112,-2.857850631698966e-05,2.4645443772897124e-05,1.5274357795715332,19.009109497070312,-14.460691452026367,-0.2434412389993668,0.1491578370332718,0.0700674057006836,990.6318359375,0,0.0,0
11.72,0.08525592,-0.1535638,9.755192999999998,1.7776037566363811e-06,-0.00016463981592096388,2.127513289451599e-05,1.5093104839324951,19.09735107421875,-14.232110977172852,-0.24207159876823425,0.1433829516172409,0.04641437530517578,990.6515502929688,0,0.0,0
11.76,0.07095837599999999,-0.16786453,9.767032,-0.0006694819894619286,0.0006351958145387472,0.00028524670051410794,1.7727947235107422,18.343135833740234,-14.15159797668457,-0.23178330063819885,0.17544570565223694,0.05115699768066406,990.6517944335938,0,0.0,0
11.8,0.063830554,-0.16071573,9.759934,-0.0008030436583794652,0.0007684192387387156,0.0009508634102530775,1.5403156280517578,19.17882537841797,-13.856729507446287,-0.22068104147911072,0.1602681428194046,0.051178932189941406,990.6371459960938,0,0.0,0
11.84,0.07343206,-0.15833345,9.752837,-0.0008030436583794652,0.0007684192387387156,0.0009508634102530775,1.4009366035461426,18.73228645324707,-13.886110305786133,-0.2291153371334076,0.1543225795030594,0.04645919799804688,990.6371459960938,0,0.0,0
11.88,0.06391436,-0.15118465,9.755207,-0.0004039735649712384,-0.000696252565830946,-0.0002477311063557863,1.6908915042877195,19.26738739013672,-14.270044326782227,-0.23278847336769104,0.1392093151807785,0.04647254943847656,990.6321411132812,0,0.0,0
11.92,0.07829565,-0.16310206,9.774149000000001,0.0002610085648484528,0.0006354579236358403,0.00015139661263674498,1.331315994262695,18.561973571777344,-14.250337600708008,-0.2212710976600647,0.166675865650177,0.032294273376464844,990.6194458007812,0,0.0,0
11.96,0.07833752,-0.16071978,9.75048,0.0002610085648484528,0.0006354579236358403,0.00015139661263674498,1.331315994262695,18.561973571777344,-14.250337600708008,-0.2300129532814026,0.157015860080719,0.07017993927001953,990.6194458007812,0,0.0,0
12.0,0.06881982,-0.15357104,9.7528515,0.0001270432840101421,-3.020066651515663e-05,-0.0006478969589807093,1.9838593006134035,18.593170166015625,-13.736845016479492,-0.2283664792776108,0.14640887081623075,0.05126190185546875,990.6145629882812,0,0.0,0
12.04,0.07603139,-0.15595531,9.762324000000001,0.0007924292585812509,-0.00016329309437423942,0.0004171935725025833,1.8750805854797363,18.702312469482425,-14.188379287719727,-0.2278207987546921,0.1506444215774536,0.04179954528808594,990.6400756835938,0,0.0,0
12.08,0.06651366,-0.16548946,9.755227,-0.00014008005382493138,0.0005025622085668147,1.754669938236475e-05,1.9226899147033687,18.694072723388672,-13.964273452758787,-0.21694865822792053,0.15456898510456085,0.056018829345703125,990.63232421875,0,0.0,0
12.12,0.07850510000000001,-0.16549054,9.752863,-7.3258415795862675e-06,-0.0005626358324661852,-0.0013142058160156012,1.4531116485595703,18.728466033935547,-13.893926620483398,-0.21962322294712067,0.1583961695432663,0.056044578552246094,990.6423950195312,0,0.0,0
12.16,0.08332679,-0.16549152,9.745766999999999,0.0006580602494068444,-0.0006957282312214375,1.7200596630573273e-05,2.1372036933898926,18.47284698486328,-12.906606674194336,-0.22392034530639648,0.1581597626209259,0.0702524185180664,990.6074829101562,0,0.0,0
12.2,0.064249426,-0.15119287,9.764707000000001,0.00025818269932642584,0.0006359167164191604,-0.0002492882777005434,1.9481501579284668,18.401365280151367,-13.181230545043945,-0.208792507648468,0.1477852165699005,0.04185295104980469,990.6170043945312,0,0.0,0
12.24,0.059511512999999995,-0.16549361,9.738672,0.0007904106169007719,0.0011686140205711124,-0.000515777210239321,1.844235897064209,19.14706039428711,-13.439802169799805,-0.21289418637752533,0.14732182025909424,0.05606269836425781,990.622802734375,0,0.0,0
12.28,0.05238372,-0.16787788,9.75998,0.0006568489479832351,0.0010355216218158603,0.0005493132048286498,1.9085867404937744,19.15502166748047,-14.066057205200195,-0.2023044228553772,0.16109177470207214,0.04660606384277344,990.63232421875,0,0.0,0
12.32,0.07154482599999999,-0.15357920000000003,9.774187,0.0006564452196471393,-0.00029599221306852996,-0.0001166494912467897,2.1313915252685547,18.678787231445312,-13.995538711547852,-0.2111436426639557,0.14622992277145386,0.03714275360107422,990.6353759765624,0,0.0,0
12.36,0.05724725,-0.16787997,9.748152000000001,0.0003897257265634835,0.0010356527054682374,0.00014949351316317916,1.9679360389709477,18.42051124572754,-14.186197280883787,-0.20448440313339236,0.14507457613945007,0.06083488464355469,990.6554565429688,0,0.0,0
12.4,0.066848814,-0.16073110000000002,9.759992,0.0003893219982273877,-0.0001627031888347119,-0.0005164691829122604,2.240605592727661,19.307697296142575,-13.818216323852539,-0.1988807320594788,0.14943228662014008,0.04664134979248047,990.6354370117188,0,0.0,0
12.44,0.06450075,-0.15596559999999998,9.7623625,7.066594844218343e-05,-0.0010296269319951534,-0.0006243918905965984,2.0209529399871826,18.680538177490234,-13.670686721801758,-0.20224326848983765,0.1435280442237854,0.0371856689453125,990.6278076171876,0,0.0,0
12.48,0.06693256,-0.15120009,9.764733,7.026222010608764e-05,0.000834649836178869,0.00030754058388993144,1.763120412826538,18.70259094238281,-13.786218643188475,-0.20099282264709475,0.1380862146615982,0.05140209197998047,990.635498046875,0,0.0,0
12.52,0.062194615999999994,-0.1512011,9.760003,0.00020301654876675457,-0.0006300219683907926,-0.0004915800527669488,1.4067790508270264,19.738605499267575,-13.868913650512695,-0.18564726412296292,0.13704216480255127,0.051410675048828125,990.6254272460938,0,0.0,0
12.56,0.076575935,-0.15835193,9.769475,-0.00046317689702846115,0.00043530709808692336,-0.0003585951635614037,1.8825526237487795,18.603763580322266,-13.875818252563475,-0.19926756620407104,0.14163412153720856,0.0372161865234375,990.6254272460938,0,0.0,0
12.6,0.06227839,-0.16788611,9.745808,-0.0004639844701159745,0.0005685961223207414,0.0001736904087010771,1.7807035446166992,18.98263931274414,-14.113252639770508,-0.20279870927333832,0.14993368089199066,0.06563186645507812,990.6483154296876,0,0.0,0
12.64,0.05708331,-0.1726425,9.743403,-0.0004639844701159745,0.0005685961223207414,0.0001736904087010771,1.7807035446166992,18.98263931274414,-14.113252639770508,-0.1924328505992889,0.14941968023777008,0.06564044952392578,990.6483154296876,0,0.0,0
12.68,0.06620002,-0.15356538,9.752831,0.0003482014581095428,-0.0002331804425921291,-0.0008910000324249268,1.7456750869750977,18.52845764160156,-14.158258438110352,-0.18012875318527222,0.12934651970863342,0.06101036071777344,990.6357421875,0,0.0,0
12.72,0.06859499,-0.1535655,9.7575655,-0.0005828624125570059,-0.000765981269069016,-9.160599438473581e-05,1.7019510269165041,18.803489685058594,-14.013650894165039,-0.1929967701435089,0.1379588395357132,0.05155658721923828,990.6234130859376,0,0.0,0
12.76,0.06621015,-0.16071546,9.759933,-0.0005828624125570059,-0.000765981269069016,-9.160599438473581e-05,1.7019510269165041,18.803489685058594,-14.013650894165039,-0.1878294348716736,0.13758763670921326,0.061030387878417976,990.6234130859376,0,0.0,0
12.8,0.056655645,-0.16309887,9.752832000000001,-5.0279802962904796e-05,0.0002992901427205652,0.00017468893202021718,1.5700440406799316,18.258398056030273,-13.730470657348633,-0.17250637710094452,0.14170169830322266,0.05157279968261719,990.62841796875,0,0.0,0
12.84,0.07100013,-0.16786554,9.7670355,8.282935596071184e-05,-0.00010017571912612766,-0.00022480590268969536,2.0627498626708984,18.87823867797852,-14.535524368286133,-0.1952672153711319,0.13619397580623627,0.03738117218017578,990.6309814453124,0,0.0,0
12.88,0.06861529,-0.14879942,9.759934,0.0006154122529551388,0.0002993060043081641,-9.166891686618328e-05,2.027721643447876,18.424055099487305,-14.580533981323242,-0.19862405955791476,0.11656560003757475,0.04686737060546875,990.6334838867188,0,0.0,0
12.92,0.07101029,-0.15833268,9.7552,0.0003489985538180917,-0.0010322575690224767,0.0005740789347328246,1.4947712421417236,18.82024955749512,-14.059686660766602,-0.196519136428833,0.1298532336950302,0.051624298095703125,990.6386108398438,0,0.0,0
12.96,0.063845634,-0.1559495,9.745732,-5.05240423080977e-05,-0.0006327757146209477,0.0011066896840929985,1.6672205924987793,18.981441497802734,-13.633787155151367,-0.1906011402606964,0.13397397100925446,0.06110572814941406,990.641357421875,0,0.0,0
13.0,0.061460793,-0.15594962,9.759936,-5.05240423080977e-05,-0.0006327757146209477,0.0011066896840929985,1.6672205924987793,18.981441497802734,-13.633787155151367,-0.17135319113731384,0.1335086077451706,0.051636695861816406,990.641357421875,0,0.0,0
13.04,0.051906258,-0.16071629999999998,9.762303,0.00021569392993114891,0.0002993457310367376,0.00017454224871471524,1.6889333724975586,18.52785873413086,-13.918527603149414,-0.16983109712600708,0.1325090080499649,0.051651954650878906,990.6362915039062,0,0.0,0
13.08,0.06625074,-0.15833321,9.752835000000001,8.248709491454065e-05,0.0001661957066971809,-9.179452899843454e-05,1.5523533821105957,19.084693908691406,-13.776094436645508,-0.1783069372177124,0.14594657719135284,0.06113243103027344,990.6337890625,0,0.0,0
13.12,0.07820532,-0.16786644,9.764672000000001,8.248709491454065e-05,0.0001661957066971809,-9.179452899843454e-05,1.5523533821105957,19.084693908691406,-13.776094436645508,-0.19701147079467773,0.1364150047302246,0.051667213439941406,990.6337890625,0,0.0,0
13.16,0.07104069,-0.15595016,9.741,0.0006150699919089675,-0.00036642813938669866,0.00017450033919885757,1.6211328506469729,18.99115753173828,-13.935190200805664,-0.1952345222234726,0.12105057388544085,0.046950340270996094,990.6414794921876,0,0.0,0
13.2,0.0758256,-0.17501652,9.764672000000001,0.00021554724662564692,-0.00023326228256337345,4.1321502067148685e-05,2.0776934623718257,18.681135177612305,-13.910421371459961,-0.19400978088378906,0.14426155388355255,0.037494659423828125,990.6134033203124,0,0.0,0
13.24,0.07583067,-0.16310024,9.774142,0.00021549835219047964,-0.00010009638208430259,0.0008402480743825437,1.807685613632202,18.691404342651367,-13.407510757446287,-0.1879587471485138,0.12411230802536012,0.04697418212890625,990.6416625976562,0,0.0,0
13.28,0.07344583,-0.15356722,9.762306,-5.08663033542689e-05,-0.0002332463918719441,0.00030759547371417284,1.6355342864990234,19.16234397888184,-13.408536911010742,-0.1775704324245453,0.12801040709018707,0.05644989013671875,990.6312255859376,0,0.0,0
13.32,0.06867108,-0.16786703,9.752839,-0.0008498628158122301,0.00043255122727714484,4.125863779336214e-05,1.5884678363800049,18.802295684814453,-13.534185409545898,-0.18176600337028506,0.1278240978717804,0.06592369079589844,990.626708984375,0,0.0,0
13.36,0.07345599,-0.15356746,9.767041,0.0006148255197331308,-0.0004995462950319052,0.00017439559451304376,1.5950989723205566,18.43989562988281,-13.744951248168945,-0.190295934677124,0.12228894233703612,0.04226207733154297,990.6267700195312,0,0.0,0
13.4,0.06629133,-0.16071743,9.752839,0.0003484607150312513,0.0008320410270243883,-0.0002250992693006992,1.9147820472717283,18.054567337036133,-14.002622604370115,-0.17554910480976105,0.12671233713626862,0.05173206329345703,990.6366577148438,0,0.0,0
13.44,0.056736827000000004,-0.16310084,9.741004,0.0006147277308627963,0.00043257506331428885,0.0007069854764267802,1.854453563690185,18.41931915283203,-13.706727981567385,-0.1789085566997528,0.12095826864242555,0.0659475326538086,990.6445922851562,0,0.0,0
13.48,0.07586110000000001,-0.15118459,9.757575,-0.0007169005693867803,-0.0004995225463062526,0.0003074906417168677,1.7365424633026123,18.51961898803711,-13.694429397583008,-0.18725448846817014,0.11091755330562593,0.04702091217041016,990.6366577148438,0,0.0,0
13.52,0.07825604,-0.16786769,9.762309,-0.0004506336117628962,-0.0004995146300643681,-0.00022516201715916395,1.573087215423584,18.26134490966797,-13.885080337524414,-0.1909966766834259,0.14282271265983582,0.047027587890625,990.6470947265624,0,0.0,0
13.56,0.07348132,-0.15356812,9.762310000000001,-5.120856440044008e-05,0.0006989148096181452,0.00044060670188628137,1.7060804367065432,18.069854736328125,-13.971353530883787,-0.1766708791255951,0.11402146518230437,0.05175971984863281,990.6293334960938,0,0.0,0
13.6,0.0782662,-0.15356824,9.764678,-0.0005838893121108412,0.001497870427556336,-0.00035836186725646263,1.391399383544922,19.197654724121094,-14.219812393188475,-0.18064486980438232,0.1130790114402771,0.03756237030029297,990.6522216796876,0,0.0,0
13.64,0.07412499,-0.17026687,9.757634,8.185158367268741e-05,0.0008320885244756937,0.0004405648214742541,1.6348307132720947,19.00441551208496,-14.630937576293945,-0.1699591875076294,0.12646813690662384,0.0564565658569336,990.5990600585938,0,0.0,0
13.68,0.06698573,-0.16073444,9.77184,7.953561726026237e-05,-0.0006322728004306555,0.00017325644148513677,1.3607993125915527,18.64197540283203,-13.797658920288086,-0.17381133139133453,0.1161217838525772,0.04699134826660156,990.6141967773438,0,0.0,0
13.72,0.078965664,-0.14881888,9.752906,-5.071398481959477e-05,-0.0002340211649425328,-0.00036375672789290553,1.8393716812133791,18.5105037689209,-13.632761001586914,-0.17754881083965302,0.11040502786636353,0.05173015594482422,990.62939453125,0,0.0,0
13.76,0.06704658,-0.160736,9.738706,-0.0008499551331624389,0.0002986581821460277,0.0009676970075815916,1.6853463649749756,18.89320373535156,-13.862367630004885,-0.1577654778957367,0.1338195502758026,0.08014106750488281,990.6447143554688,0,0.0,0
13.8,0.06946695,-0.16073671,9.752912,-0.00045077476534061134,-0.0010328736389055848,0.0001686236064415425,1.4803695678710938,18.649059295654297,-14.586339950561525,-0.18068233132362368,0.11864960938692093,0.061207771301269524,990.6371459960938,0,0.0,0
13.84,0.062327682999999995,-0.1559709,9.7623825,-0.0003179098421242088,0.0004319113795645535,-0.00023097597295418384,1.9150798320770264,18.68670654296875,-13.577753067016602,-0.17488780617713928,0.10860947519540788,0.03754138946533203,990.6041870117188,0,0.0,0
13.88,0.06713789999999999,-0.15835497,9.750549000000001,0.0003475862613413483,-0.00010067276161862536,3.521429607644677e-05,1.831899642944336,18.609054565429688,-13.945306777954102,-0.17867082357406616,0.11734533309936525,0.056483268737792976,990.6447143554688,0,0.0,0
13.92,0.07672799,-0.1535891,9.755286,-0.0008511285996064544,-0.0005000989185646175,-0.00023122743004932997,1.614203929901123,18.721420288085934,-14.149293899536133,-0.17779582738876346,0.10711915791034697,0.06595420837402344,990.6200561523438,0,0.0,0
13.96,0.06958872,-0.15835639999999998,9.755289,0.003022681223228574,-0.001899254973977804,-4.43690805695951e-05,1.8339643478393557,18.242237091064453,-13.924165725708008,-0.16702622175216675,0.11651352047920227,0.04702568054199219,990.6245727539062,0,0.0,0
14.0,0.07917869,-0.16074052,9.757660000000001,-0.0021707722917199135,0.001562899211421609,-0.0005771265714429318,1.6373322010040283,19.37564849853516,-14.883996963500975,-0.18553461134433746,0.12493407726287843,0.051758766174316406,990.688720703125,0,0.0,0
14.04,0.048140435999999995,-0.15835795,9.738725,9.261965897167102e-05,-3.4948578104376786e-05,0.00048801119555719197,1.5858602523803709,19.537403106689453,-13.653779983520508,-0.15543311834335327,0.09585370868444444,0.05176830291748047,990.5870971679688,0,0.0,0
14.08,0.07445979,-0.16312519,9.767134,0.004619402345269918,-0.0030974862165749073,-0.0005775037570856513,1.553194522857666,19.348541259765625,-13.252775192260742,-0.1677333116531372,0.1242085099220276,0.03757953643798828,990.6448974609376,0,0.0,0
14.12,0.0768801,-0.16074270000000002,9.748199000000001,0.004619402345269918,-0.0030974862165749073,-0.0005775037570856513,1.553194522857666,19.348541259765625,-13.252775192260742,-0.1679566502571106,0.1132582575082779,0.056507110595703125,990.6448974609376,0,0.0,0
14.16,0.06257117,-0.16074347,9.760036999999999,-0.0057672099210321895,0.0030278267804533248,0.000620792037807405,2.157830715179444,18.755840301513672,-13.388254165649414,-0.14805172383785248,0.11222827434539796,0.0517730712890625,990.7576293945312,0,0.0,0
14.2,0.06738138,-0.15359434,9.764774000000001,-0.0001748695794958621,0.00023155777307692915,-4.512345185503364e-05,1.9766845703125,19.323862075805664,-13.624528884887695,-0.15174612402915955,0.11162738502025604,0.04704475402832031,990.5487670898438,0,0.0,0
14.24,0.072191626,-0.15597838,9.755309,-0.00017516329535283148,-0.0007005001534707844,-4.524918040260673e-05,1.7427911758422852,19.051733016967773,-12.879701614379885,-0.15536898374557495,0.10611030459403993,0.042313575744628906,990.6075439453124,0,0.0,0
14.28,0.07222211,-0.16074571,9.745842999999999,9.085969213629139e-05,-0.0007004524231888354,0.0007535727927461268,1.7775216102600098,18.873775482177734,-13.259561538696287,-0.1639990210533142,0.10591360181570053,0.06599044799804688,990.6201782226562,0,0.0,0
14.32,0.07464239,-0.17266282,9.750580000000001,0.0004900400526821613,0.00023170068743638692,8.765736129134892e-05,2.0609517097473145,18.66493225097656,-13.060064315795898,-0.15886390209197998,0.11450816690921785,0.07072067260742188,990.6430053710938,0,0.0,0
14.36,0.07945263400000001,-0.16074714,9.75295,-0.00044235904351808136,0.0006312220939435066,-4.5626366045326e-05,2.0724477767944336,18.9390869140625,-13.077878952026367,-0.16261714696884155,0.1138019636273384,0.06125545501708984,990.6301879882812,0,0.0,0
14.4,0.07231339999999999,-0.16789779,9.762422,-0.00030949412030167883,-3.4519965993240476e-05,-4.575197817757726e-05,1.8342628479003904,18.87437438964844,-13.499292373657227,-0.15724027156829834,0.11781617999076845,0.03284740447998047,990.635498046875,0,0.0,0
14.44,0.06995392,-0.1559821,9.755322,0.0003560018667485565,0.0004981594393029809,0.0003535960568115115,1.7319772243499756,18.51520156860352,-13.462518692016602,-0.16090846061706546,0.0933755487203598,0.056522369384765625,990.6331176757812,0,0.0,0
14.48,0.07715404,-0.148833,9.774263000000001,-0.0007098481291905046,-0.00016753500676713884,0.0007528184214606881,1.6737136840820312,18.51313018798828,-13.145479202270508,-0.1641569286584854,0.09702223539352416,0.04232311248779297,990.6431884765624,1,1.0,1
14.52,0.06762489999999999,-0.16075018,9.764797,0.0003551218833308667,-0.00016748739290051162,-0.0005788866546936332,1.545722484588623,19.44709014892578,-13.565324783325195,-0.15826863050460815,0.1111750453710556,0.03759574890136719,990.6635131835938,1,1.0,1
14.56,0.07243508,-0.17266735,9.752964,0.0003551218833308667,-0.00016748739290051162,-0.0005788866546936332,1.545722484588623,19.44709014892578,-13.565324783325195,-0.1485072821378708,0.12043365836143495,0.06599998474121094,990.6635131835938,1,1.0,1
14.6,0.060063303,-0.1678904,9.738723,0.0007543026003986598,0.00036519201239570975,-0.00031269650207832456,2.1563091278076167,18.754369735717773,-13.310945510864258,-0.1420002281665802,0.10550927370786667,0.08028697967529297,990.6558837890624,1,1.0,1
14.64,0.06917301,-0.16787937,9.769454,0.0007543026003986598,0.00036519201239570975,-0.00031269650207832456,2.1563091278076167,18.754369735717773,-13.310945510864258,-0.160811185836792,0.1098225638270378,0.047145843505859375,990.6558837890624,1,1.0,1
14.68,0.06677675,-0.16549589999999997,9.767087,-3.419548011152074e-05,0.0003626026737038046,-0.0001781843020580709,1.7509443759918213,18.690805435180664,-13.16777229309082,-0.15019218623638153,0.11376911401748654,0.04241657257080078,990.6737670898438,1,1.0,1
14.72,0.066770375,-0.16072923,9.759984,-0.0009640745120123028,-0.0003035484696738422,8.908577729016541e-05,1.9852433204650881,18.488727569580078,-13.115072250366213,-0.15380382537841794,0.09822231531143187,0.04241943359375,990.6304931640624,1,1.0,1
14.76,0.07154381,-0.1559625,9.759984,-0.0005645391065627338,-0.00017040052625816315,0.0007549017900601028,1.8402130603790283,18.774349212646484,-13.109437942504885,-0.1536760777235031,0.09791061282157898,0.05188751220703125,990.6535034179688,1,1.0,1
14.8,0.059587955,-0.17026201,9.759984,0.0005007855361327528,0.000495379266794771,0.0007549280999228357,2.1089978218078613,19.394744873046875,-13.110170364379885,-0.1428271383047104,0.12125933170318605,0.056629180908203125,990.6256713867188,1,1.0,1
14.84,0.073921084,-0.16072875,9.776553,0.000500846654176712,-3.726241993717849e-05,0.0003554804134182632,1.8472795486450195,19.15000534057617,-13.594415664672852,-0.156602680683136,0.09711335599422456,0.04242992401123047,990.6282348632812,1,1.0,1
14.88,0.085864216,-0.15119544,9.767083999999999,0.0002345918910577893,-0.00017043029947672042,-0.0007097569177858531,1.6014852523803709,19.077926635742188,-13.629304885864258,-0.1652563512325287,0.10127590596675873,0.042433738708496094,990.6282348632812,1,1.0,1
14.92,0.06195885,-0.15357855,9.767083,-0.0005642947508022188,-3.7282254197634757e-05,-4.394102143123746e-05,1.6250178813934326,19.25794982910156,-13.56648063659668,-0.14631220698356628,0.09002324938774109,0.03768730163574219,990.6537475585938,1,1.0,1
14.96,0.054782807999999995,-0.120212525,9.76945,-0.003094234736636281,0.0016937612090259788,0.0006218749331310391,1.7899956703186035,19.517696380615234,-13.453134536743164,-0.11250869184732436,0.04505257308483124,0.051849365234375,990.6483154296876,1,1.0,1
15.0,-0.0025811791,-0.08446318,9.774184,-0.028793655335903168,-0.0015020393766462805,0.009942956268787384,2.0835065841674805,18.47519302368164,-12.821481704711914,-0.14945831894874573,0.3114649355411529,0.02799510955810547,990.6078491210938,1,1.0,1
15.04,0.13602679999999998,-0.32517412,9.797855,-0.054226763546466834,-0.026402585208415985,0.024590352550148964,1.9906508922576904,18.756994247436523,-12.823663711547852,-0.2279680818319321,0.27671146392822266,-0.024187088012695312,990.5977172851562,1,1.0,1
15.08,0.07866281,-0.35615662,10.0038,-0.060618277639150626,-0.011755221523344515,-0.054239116609096534,1.6189310550689695,19.25205612182617,-13.257257461547852,-0.0968276858329773,0.11848045885562895,-0.09090900421142578,990.5597534179688,1,1.0,1
15.12,0.14318383,-0.41335508,10.323373,-0.10922087728977203,-0.008293123915791513,-0.035064350813627236,1.5030851364135742,18.98554229736328,-13.223810195922852,-0.09357412159442903,0.19578412175178528,-0.6808404922485352,990.58251953125,1,1.0,1
15.16,0.32958984,-0.6492996,9.653455000000001,-0.4881882965564728,-0.19391530752182007,0.034177806228399284,1.4442787170410156,19.35176086425781,-13.005228042602539,-0.21337741613388064,-0.1708989441394806,0.0017309188842773438,990.5601806640624,1,1.0,1
15.2,0.51360595,-1.6407433,9.348084,-0.9650267958641052,-0.3687516748905182,0.01846519485116005,0.7650737762451172,20.664241790771484,-11.976564407348633,-0.051454469561576836,0.3856633901596069,0.37550926208496094,990.6107788085938,1,1.0,1
15.24,1.1015153999999998,-1.640743,9.629781,-0.8754115104675293,-0.2703479528427124,-0.04571690410375595,0.08793401718139647,21.609901428222656,-10.926759719848633,-0.6002629995346069,0.6250468492507935,0.20148754119873047,990.6106567382812,1,1.0,1
15.28,0.20768577,-0.9233761,9.81679,-0.5947144627571106,-0.8029797673225403,-0.1443869173526764,-1.4028406143188477,22.531414031982425,-10.135080337524414,0.10332906246185304,-0.4137117862701416,-0.20353126525878906,990.6183471679688,1,1.0,1
15.32,1.0106865,-1.7241576,9.700795,-0.7397233843803406,-0.27727222442626953,-0.2742158770561218,-1.83820915222168,23.17644500732422,-8.72001838684082,-0.6236175298690796,0.09864091873168944,0.03053569793701172,990.6644287109376,1,1.0,1
15.36,0.7740799,-2.48204,8.997736,-0.8783406615257263,1.0953198671340942,-0.09045787155628204,-1.0560688972473145,25.11997985839844,-8.184427261352539,-0.4367335438728333,0.3940925598144531,0.6578922271728516,990.7099609375,1,1.0,1
15.4,0.7214956,-2.9801450000000003,9.51852,-0.8783406615257263,1.0953198671340942,-0.09045787155628204,-1.0560688972473145,25.11997985839844,-8.184427261352539,-0.4481073915958405,0.5913801193237305,-0.007725715637207031,990.7099609375,1,1.0,1
15.44,0.7549479,-2.7537333999999998,9.234454,-0.5057647228240967,0.3160795569419861,0.1987612098455429,-0.2511286735534668,25.87334442138672,-7.736673355102539,-0.5686359405517578,0.18431496620178225,0.22530746459960935,990.6689453125,1,1.0,1
15.48,0.31758958,-2.6941512000000003,9.303103,-0.6304004788398743,-0.6469186544418335,0.3403080999851227,-0.9850096702575684,26.81840896606445,-6.447134017944336,0.03720539808273315,-0.05046534538269043,0.16408824920654294,990.6947631835938,1,1.0,1
15.52,0.42273890000000003,-3.4162845999999996,9.22025,-0.5272030830383301,-0.19151856005191806,0.4974344670772553,-0.7032084465026855,27.71443176269531,-6.542989730834961,-0.004470765590667725,0.1287839412689209,0.04709148406982422,990.6946411132812,1,1.0,1
15.56,-0.172353,-3.3424027,8.668693,-0.4804645478725433,0.3624184429645538,0.476661890745163,-0.15542078018188474,28.227481842041016,-6.811389923095702,-0.0516015961766243,-0.10004305839538574,0.035717010498046875,990.6616821289062,1,1.0,1
15.6,-0.10233797,-3.6236467000000006,9.217948,-0.10602597147226334,0.13764812052249908,-0.018020519986748692,1.4475290775299072,29.4644775390625,-6.129983901977539,-0.18693828582763672,0.0848093032836914,-0.20686054229736328,990.6056518554688,1,1.0,1
15.64,-0.09919742,-3.3138392,9.24879,-0.10602597147226334,0.13764812052249908,-0.018020519986748692,1.4475290775299072,29.4644775390625,-6.129983901977539,-0.2450670003890991,0.06504583358764647,-0.015265464782714844,990.6056518554688,1,1.0,1
15.68,-0.10153654,-3.020697,9.102029,-0.10842377692461014,0.1054217889904976,-0.27475735545158386,1.448913335800171,29.36003112792969,-5.508211135864258,0.35979005694389343,-0.4119105339050293,0.05269432067871094,990.6337280273438,1,1.0,1
15.72,0.29045808,-3.5021207000000003,9.236964,-0.1772669106721878,0.09357082098722458,-0.2514549493789673,1.2287168502807615,29.10116195678711,-5.459131240844727,-0.436124324798584,-0.05527186393737793,-0.09031486511230467,990.6337280273438,1,1.0,1
15.76,0.17340365,-3.6260524,8.9079275,-0.03225840628147125,0.06587404012680054,-0.17781879007816315,1.2378487586975098,29.11000061035156,-5.92296028137207,-0.29277822375297546,0.07608175277709961,0.018522262573242188,990.6463623046876,1,1.0,1
15.8,0.092197716,-2.6298432000000003,9.182528,-0.15609578788280487,0.008216737769544125,-0.0012515652924776075,1.2854580879211426,29.10175704956055,-5.698862075805664,0.05950025096535683,-0.7543737888336182,0.1921367645263672,990.7073974609376,1,1.0,1
15.84,0.31689924,-3.7237692000000004,9.4381895,0.16388225555419922,0.02419576980173588,0.06838982552289963,1.188579559326172,29.01084899902344,-5.370676040649414,-0.7084838747978209,0.471437931060791,-0.5511980056762695,990.8369750976562,1,1.0,1
15.88,-0.5075662000000001,-3.2375817000000002,9.251185000000001,0.672145664691925,0.3537617623806,0.04229066148400307,1.252387523651123,29.38710021972656,-6.09538459777832,0.025929361581802368,0.10508084297180176,1.0165338516235352,990.8446044921876,1,1.0,1
15.92,-0.32588288,-3.1374853,10.302228,0.589187741279602,0.30755603313446045,0.15201258659362793,1.8427293300628664,27.51687240600586,-6.384859085083008,-0.1747184693813324,0.7117660045623779,-1.7054796218872068,990.719970703125,1,1.0,1
15.96,-0.56004256,-3.2256677000000002,8.583644,0.589187741279602,0.30755603313446045,0.15201258659362793,2.4555482864379883,27.775508880615234,-7.880144119262695,-0.031025171279907227,-0.2553892135620117,0.786585807800293,990.719970703125,1,1.0,1
16.0,-0.012704253,-2.9539752,8.806165,-0.04357927292585373,0.3907798230648041,0.06412813812494278,3.2260024547576904,27.70640563964844,-7.378948211669923,-0.454291582107544,0.04952812194824219,0.6324024200439453,990.7481689453124,1,1.0,1
16.04,0.6230604000000001,-3.6022282,10.806457,-0.2353271991014481,0.5642846822738647,0.3165953755378723,3.667480945587158,27.487571716308594,-7.2802066802978525,-1.1639561653137207,0.6949231624603271,-1.5137710571289062,990.6410522460938,1,1.0,1
16.08,-1.6449058,-2.1555796000000003,9.989775999999999,0.5296641588211061,-1.1248235702514648,0.25986969470977783,2.1841554641723637,27.890220642089844,-7.999002456665039,1.1805826425552368,-0.3749873638153076,-0.3460311889648437,990.5929565429688,1,1.0,1
16.12,-0.44990408,-2.3891419999999997,8.915071000000001,0.6052974462509155,0.0018257673364132645,-0.18234805762767792,2.097631931304932,27.177490234375,-8.636823654174805,0.35124388337135315,-0.1676957607269287,-0.12903213500976562,990.6791381835938,1,1.0,1
16.16,-0.34708756,-2.1984807999999996,9.3979845,0.6036989688873291,0.4702755510807037,0.12564605474472046,2.3573696613311768,26.26239776611328,-9.624101638793944,-0.04116740822792053,0.5081613063812256,1.0889196395874023,990.6558837890624,1,1.0,1
16.2,-0.47131175,-1.6765442,9.016869999999999,0.8827976584434509,-0.2703488767147064,-0.02921682968735695,1.8020567893981931,24.21533966064453,-10.41954231262207,0.4245593845844269,-0.5537464618682861,0.26128387451171875,990.5949096679688,1,1.0,1
16.24,0.48947959999999996,-1.5931308000000002,8.976631,0.9220786690711976,-0.2411872297525406,0.01938560605049133,1.4441404342651367,23.617319107055664,-11.17622184753418,-1.0863666534423828,0.1827094554901123,0.3770465850830078,990.6409912109376,1,1.0,1
16.28,-0.39234346,-2.0674043,8.718612,0.5235365033149719,-0.28512927889823914,-0.07369200885295868,0.5373520851135254,23.242828369140625,-11.861406326293945,0.19391971826553345,-0.03353893756866455,2.3257293701171875,990.6051025390624,1,1.0,1
16.32,0.21235242,-2.2985835,13.057698,-0.3812722265720368,0.4349890053272247,-0.29433491826057434,0.9670901298522948,23.75026130676269,-11.418428421020508,-0.5873007774353027,1.267377257347107,-5.011137962341309,990.5897216796876,1,1.0,1
16.36,-0.416141,-0.8757676999999999,8.829879,-0.34518688917160034,0.7037017941474915,0.08995869010686874,2.307045221328736,23.740619659423828,-11.470376968383787,-0.6185590624809265,-0.3406157493591309,1.4689865112304688,990.6585083007812,1,1.0,1
16.4,-0.23923755,-0.7137059,7.982425,0.8423150777816772,0.6099587082862854,-0.1498589813709259,2.444007396697998,22.289276123046875,-12.638307571411133,-0.572198212146759,-0.4835286140441895,2.1512937545776367,990.729736328125,1,1.0,1
16.44,-0.60723174,-1.8290814999999998,11.509561,0.9649531245231628,-0.531071662902832,-0.41550928354263306,1.130033016204834,21.217613220214844,-13.527887344360352,0.4376508593559265,0.5780719518661499,-1.128056526184082,990.5896606445312,1,1.0,1
16.48,0.39657790000000004,-1.5955215,10.825444000000001,0.3673397898674011,-1.0205602645874023,-0.2671715021133423,-0.9359469413757324,21.17926025390625,-12.899343490600586,-0.14885564148426056,1.1301701068878174,-1.1748809814453125,990.5949096679688,1,1.0,1
16.52,0.41096800000000006,-0.48014840000000003,11.076373,0.3713340163230896,-0.437860906124115,0.4955569207668304,-1.2357373237609863,20.477392196655273,-13.273984909057615,-0.5432469844818115,-0.047863543033599854,-1.6543550491333008,990.6429443359376,1,1.0,1
16.56,0.37039042,-0.15125722,9.6655245,0.458019345998764,-0.1646207571029663,0.1093987002968788,-1.0557322502136228,19.013389587402344,-13.985902786254885,-0.16191351413726807,-0.3740259110927582,0.08228111267089844,990.5840454101562,1,1.0,1
16.6,0.24377632,-0.38481978,9.992204,0.5272609591484071,0.06667465716600418,-0.07848736643791199,-1.5175929069519043,17.948802947998047,-13.929422378540039,-0.10012638568878174,0.08422258496284485,-0.13295936584472656,990.5946655273438,1,1.0,1
16.64,0.44218898,-0.34668848,10.48932,0.5192710161209106,-0.3148227632045746,-0.21044710278511047,-2.440985679626465,17.66402816772461,-14.463327407836914,-0.1940286010503769,0.2129293382167816,-0.2455377578735352,990.5642700195312,1,1.0,1
16.68,0.34186387,-0.35622296,10.931992,0.2621425688266754,-0.15543262660503387,-0.20844992995262146,-2.946977138519287,17.348682403564453,-15.059762954711914,-0.2024507820606232,0.4873788952827454,-1.6318092346191406,990.60693359375,1,1.0,1
16.72,0.24392861,0.029866992999999998,9.535346,0.4352473914623261,0.08811333030462265,-0.1382759064435959,-2.738030910491944,16.332969665527347,-15.417444229125975,0.048122838139534004,0.30887895822525024,0.302764892578125,990.60693359375,1,1.0,1
16.76,0.7004505999999999,0.7210164000000001,10.288122,0.538177490234375,-0.18113186955451965,-0.13534684479236606,-3.536093711853028,14.216773986816404,-16.40239143371582,-0.4313625693321228,-0.1343822479248047,-0.7889509201049805,990.6041870117188,1,1.0,1
16.8,0.40415347,0.22291003,10.612433,0.538177490234375,-0.18113186955451965,-0.13534684479236606,-3.536093711853028,14.216773986816404,-16.40239143371582,-0.13269606232643127,0.4594063460826874,-0.9904241561889648,990.6041870117188,1,1.0,1
16.84,0.6049561,0.82587814,9.826528,0.7183392643928528,-0.34158703684806824,-0.2646436393260956,-4.855069637298584,12.402645111083984,-16.78584861755371,-0.1668912172317505,0.08123183250427246,0.22397518157958984,990.6527709960938,1,1.0,1
16.88,0.65519476,0.7901279,9.978032,0.7183392643928528,-0.34158703684806824,-0.2646436393260956,-4.855069637298584,12.402645111083984,-16.78584861755371,-0.05461794137954712,0.2483352422714233,0.224365234375,990.6527709960938,1,1.0,1
16.92,0.89423573,1.3454304,9.504598,0.5913060307502747,-0.4495780169963837,-0.2264275252819061,-5.551528453826903,10.908000946044922,-17.206941604614258,-0.1845446228981018,0.39067018032073975,-0.4119205474853516,990.6629638671876,1,1.0,1
16.96,0.91818535,1.7458199,8.827580000000001,0.7152755260467529,-0.2675510346889496,-0.0790218934416771,-6.362992763519287,9.410686492919922,-17.071271896362305,-0.0359157919883728,-0.014477729797363281,1.0012960433959959,990.6396484375,1,1.0,1
17.0,0.99471295,1.6886201,9.630068,0.27904921770095825,-0.5543731451034546,-0.13015495240688324,-7.9559693336486825,8.446372985839844,-17.693185806274414,0.12915456295013428,0.2345298528671265,-0.26909446716308594,990.6396484375,1,1.0,1
17.04,1.1142589,1.8602148,10.401781,0.27904921770095825,-0.5543731451034546,-0.13015495240688324,-7.9559693336486825,8.446372985839844,-17.693185806274414,0.0909181833267212,0.17344021797180176,-1.0050048828125,990.6396484375,1,1.0,1
17.08,1.0378326,2.2820537,9.059581,0.5299183130264282,-0.5433209538459778,-0.12416306138038635,-8.695066452026367,6.490184783935548,-17.772768020629886,0.3365837335586548,0.13829970359802246,0.04587936401367188,990.6343994140624,1,1.0,1
17.12,1.1095803999999998,2.5203805,10.302367,0.7039552330970764,-0.22334229946136475,-0.05705165863037109,-9.228857040405273,6.622528076171875,-17.775239944458008,0.3145188093185425,-0.10063624382019044,-0.1639728546142578,990.6395874023438,1,1.0,1
17.16,0.77504504,2.460797,9.592212,0.35947516560554504,-0.0739390105009079,-0.07436240464448929,-10.112144470214844,5.215807914733887,-17.325860977172848,0.5145937204360962,0.37853074073791504,-0.9755315780639648,990.618896484375,1,1.0,1
17.2,0.81572413,2.8921695,9.000415,0.8075510859489441,0.003026358550414443,-0.06610682606697083,-9.797325134277344,4.1939239501953125,-17.776487350463867,0.5935888290405273,0.2263202667236328,0.4917421340942383,990.6494140625,1,1.0,1
17.24,0.86691034,3.1758132000000003,9.310391000000001,0.5372395515441895,0.2907808125019073,0.1382901966571808,-9.836971282958984,2.1027555465698238,-18.34087562561035,0.4435713291168213,0.17381811141967773,0.07720661163330078,990.601318359375,1,1.0,1
17.28,0.8798059000000001,3.5690901,9.319728,0.5372395515441895,0.2907808125019073,0.1382901966571808,-9.836971282958984,2.1027555465698238,-18.34087562561035,0.4136028289794922,-0.05660676956176758,0.04129695892333984,990.601318359375,1,1.0,1
17.32,0.8606676,3.7287703000000003,9.087741000000001,0.5665512084960938,0.2835889160633087,0.1951608657836914,-9.539300918579102,1.5388774871826172,-18.738672256469727,0.21540462970733645,0.008000373840332031,-0.3333320617675781,990.6292724609376,1,1.0,1
17.36,0.85586894,4.205426,9.636929499999999,0.5665512084960938,0.2835889160633087,0.1951608657836914,-9.18739128112793,0.6043643951416016,-19.123136520385746,0.12582826614379886,-0.38277220726013184,-0.29015350341796875,990.6292724609376,1,1.0,1
17.4,0.40415865,4.002848,9.902055,0.560562789440155,0.3323241472244263,0.14988872408866882,-8.166191101074219,-0.2827558517456055,-19.84446907043457,0.32660120725631714,0.010615110397338869,-1.2149343490600586,990.572998046875,1,1.0,1
17.44,0.5547036,4.5700684,10.100897999999999,0.6451184153556824,0.3568251430988312,0.07199149578809738,-7.397313594818115,-1.9858961105346682,-20.01725959777832,0.22673052549362185,-0.3560643196105957,-1.0409574508666992,990.6134033203124,1,1.0,1
17.48,0.26311666,4.431839,9.868909,0.592787504196167,0.514350950717926,0.14522843062877655,-6.255948543548584,-1.6016521453857422,-20.677526473999023,0.022730767726898197,0.01703929901123047,-0.9521322250366212,990.6011352539062,1,1.0,1
17.52,0.12687334,4.6010523,10.498584,0.4758751094341278,0.8741436600685121,0.17665378749370575,-4.712456226348877,-2.895270824432373,-21.378572463989254,0.017008349299430847,-0.11562728881835938,-2.052896499633789,990.6106567382812,1,1.0,1
17.56,-0.46345133,4.4461393,8.803666,0.6389937400817871,0.671610414981842,0.1999565064907074,-3.3189949989318848,-4.645745277404785,-21.567853927612305,0.3461038768291473,0.5062251091003418,-0.4850368499755859,990.6106567382812,1,1.0,1
17.6,-0.10498494,5.394685,9.217925,0.7923918962478638,0.6754719614982605,0.18677394092082975,-2.705771446228028,-4.8613128662109375,-22.26561164855957,-0.14992600679397586,-0.6056547164916992,-0.5052499771118164,990.5418701171876,1,1.0,1
17.64,-0.94385946,4.1148653,10.53172,0.4018398225307465,0.7017040252685547,0.2303166687488556,-1.7921061515808103,-5.849654197692871,-22.11762046813965,0.454187422990799,0.994114875793457,-1.802825927734375,990.55712890625,1,1.0,1
17.68,-1.1995978,4.5081067,8.974099,0.4519074261188507,0.5456429123878479,0.061472490429878235,-1.0168414115905762,-6.914763450622559,-22.174760818481445,0.6102906465530396,1.2113451957702637,-1.645524978637695,990.5521850585938,1,1.0,1
17.72,-1.338231,5.1658916,7.5679784,1.069494128227234,0.6140860915184021,0.269065797328949,0.34061145782470703,-9.489181518554688,-22.233301162719727,0.8494805693626404,0.8467078208923341,0.32590293884277344,990.5775756835938,1,1.0,1
17.76,-1.3430296999999998,5.5591335,7.461453,1.144329071044922,0.4423123300075531,0.4255264699459076,0.7997803688049316,-10.534313201904297,-22.088930130004886,0.4826458692550659,0.5018401145935059,0.17188453674316406,990.536865234375,1,1.0,1
17.8,-1.7708409999999999,5.139676000000001,7.096902,0.7915937900543213,0.5405828952789307,0.4891760349273682,1.3148488998413086,-11.842691421508787,-22.70762062072754,0.9905724525451659,1.1196813583374023,0.16092157363891602,990.5313110351562,1,1.0,1
17.84,-1.8377773000000002,5.628248999999999,6.983274000000001,0.3527054488658905,0.7301996350288391,0.5291234850883484,2.5230345726013184,-12.291508674621582,-23.17547035217285,1.2590901851654053,1.1001930236816406,1.0806093215942385,990.536865234375,1,1.0,1
17.88,-1.0825870000000002,5.5162354,8.910176,0.048040259629487984,0.6379212737083435,0.7200720310211182,3.4154224395751958,-12.08820915222168,-23.01694679260254,0.2296003699302673,0.4607295989990234,-1.8970541954040527,990.5465087890624,1,1.0,1
17.92,-2.3181853,4.8370013,7.4046330000000005,0.3483116328716278,0.2989011108875275,0.6444383859634399,3.2097647190093994,-12.069976806640625,-23.140291213989254,1.6670988798141482,1.992948532104492,-0.2292938232421875,990.5949096679688,1,1.0,1
17.96,-1.5845042,5.702132,6.514563,0.8292782306671143,0.5686790943145752,0.5887784957885742,3.952364683151245,-13.32395076751709,-22.796422958374023,0.8319217562675476,1.0218510627746582,0.712132453918457,990.5770874023438,1,1.0,1
18.0,-1.2284278,5.9666767,6.481421,0.6077035665512085,0.8307338356971741,0.9208744764328004,4.922227382659912,-13.943400382995605,-22.98661231994629,0.657497763633728,0.9558000564575196,0.6265711784362793,990.5617065429688,1,1.0,1
18.04,-1.0348647,6.1096735,7.7289343,0.09930679202079773,0.8634907007217407,0.9136840105056764,6.103293418884277,-14.206900596618652,-23.461130142211914,0.31324541568756104,1.0320210456848145,-0.2701864242553711,990.5540161132812,1,1.0,1
18.08,-1.2069565,5.9237785,7.754972,-0.14410574734210968,0.9676201343536376,0.8979714512825012,6.889808177947997,-13.99742603302002,-23.209665298461914,0.6084943413734436,0.9008679389953612,-1.5845928192138672,990.5361938476562,1,1.0,1
18.12,-1.1543976,5.6306357,5.6150199999999995,0.7584389448165894,0.8238095641136169,0.7625499367713928,7.622434616088867,-15.524087905883787,-22.92529106140137,0.4540557861328125,1.9407038688659668,0.34591102600097656,990.5816040039062,1,1.0,1
18.16,-0.56650054,6.266971599999999,5.274141,1.3291540145874023,0.7618910670280457,0.7002320289611816,8.964263916015625,-17.63903045654297,-23.008310317993164,0.10050493478775024,1.646939754486084,0.999567985534668,990.5081787109376,1,1.0,1
18.2,-0.10048860000000001,6.717411500000001,6.273098,1.0066456794738772,0.6979752779006958,0.8749352693557739,9.3636474609375,-18.68770408630371,-22.4695987701416,-0.33864426612854004,1.2933220863342283,-0.5158877372741699,990.5382690429688,1,1.0,1
18.24,0.17470682,6.669737,5.970129,0.4990478157997131,0.8883910179138184,0.857758104801178,9.716804504394533,-19.832578659057614,-21.53321647644043,-0.7514491677284241,1.2998533248901367,-0.4559502601623535,990.5208129882812,1,1.0,1
18.28,0.069547385,6.8341837,5.364125,0.5371302962303162,1.139926552772522,0.7861188054084778,11.380572319030762,-20.961183547973636,-21.8005428314209,-0.6026278734207153,1.4580273628234863,-0.15498971939086914,990.5559692382812,1,1.0,1
18.32,0.1245113,7.022463,4.909621700000001,0.6509777307510376,1.2102344036102295,0.7383139729499817,12.38823127746582,-21.33533477783203,-20.70218086242676,-0.7117871642112732,1.4509248733520508,0.01931905746459961,990.5360717773438,1,1.0,1
18.36,0.36827750000000004,7.520567999999999,4.760488,0.6646929979324341,1.14219069480896,0.7132803201675415,13.889928817749025,-22.82665634155273,-20.53838539123535,-0.7973513007164001,1.0021605491638184,0.24498987197875974,990.5562133789062,1,1.0,1
18.4,0.578585,7.730296000000001,4.838605,0.4317998588085175,1.183735966682434,0.7738671898841858,14.73674201965332,-24.19419860839844,-19.511075973510746,-1.0647461414337158,0.9102225303649902,0.03928184509277344,990.5460815429688,1,1.0,1
18.44,0.65505815,8.287984,4.691838,0.2280682176351547,1.355908989906311,0.7854519486427307,16.376049041748047,-24.24002456665039,-18.9141788482666,-1.2286491394042969,0.36073875427246094,-0.18570375442504886,990.5637817382812,1,1.0,1
18.48,0.6478845999999999,8.261766999999999,4.4030385,0.17547087371349335,1.3881332874298096,0.7447056174278259,17.69135284423828,-24.90536880493164,-18.154115676879886,-1.1015942096710205,0.4160623550415039,0.3148732185363769,990.5913696289062,1,1.0,1
18.52,0.5498948,8.333266,5.0705895,0.2810651659965515,1.158968448638916,0.6352498531341553,19.055927276611328,-25.47156524658203,-17.946340560913086,-1.1137961149215698,0.3670015335083008,-0.3957605361938477,990.5684814453124,1,1.0,1
18.56,0.68372554,8.464347,5.191317,0.2070293724536896,1.0845332145690918,0.5789240598678589,19.184057235717773,-26.29961395263672,-18.22557258605957,-1.1543290615081787,0.3173637390136719,-0.8917689323425293,990.5657348632812,1,1.0,1
18.6,0.6144145999999999,8.528694999999999,5.214988,0.13086307048797607,1.2059733867645264,0.6047566533088684,20.47332763671875,-27.51622009277344,-17.275270462036133,-1.133723497390747,0.2560272216796875,-0.6346569061279297,990.5760498046876,1,1.0,1
18.64,0.43038833,8.342799000000001,5.0587525,0.02154044061899185,1.3375333547592163,0.5946366190910339,21.979236602783203,-26.896350860595703,-17.38962745666504,-1.0710642337799072,0.3712234497070313,-1.0616860389709473,990.5379638671876,1,1.0,1
18.68,0.7171728,8.635942,4.462217,0.14431209862232208,1.4303444623947144,0.6122135519981384,23.134971618652344,-27.553180694580078,-16.451509475708008,-1.022822022438049,0.3787193298339844,-0.3561882972717285,990.53759765625,1,1.0,1
18.72,0.7458477,8.650243,4.308349,0.14431209862232208,1.4303444623947144,0.6122135519981384,24.652454376220703,-28.97775650024414,-15.139287948608398,-1.4491102695465088,0.09580230712890624,-0.3547091484069824,990.53759765625,1,1.0,1
18.76,0.77213275,8.643092999999999,3.6668364999999996,0.3499079942703247,1.269622802734375,0.6829203963279724,25.52823638916016,-28.68474578857422,-14.82948112487793,-0.9586101174354552,0.6019372940063477,0.226534366607666,990.5507202148438,1,1.0,1
18.8,1.0732566000000001,9.112599000000001,4.005346299999999,0.2282016724348068,1.3492511510849,0.6211351752281189,26.39195251464844,-29.50985908508301,-13.528581619262695,-1.7583574056625366,-0.2879238128662109,0.053731441497802734,990.5402221679688,1,1.0,1
18.84,0.59049267,8.635943,4.265738,0.010488517582416534,1.0271422863006592,0.5332509875297546,27.98141860961914,-30.49880409240723,-11.40611457824707,-0.9874812960624696,0.2581815719604492,-0.260347843170166,990.5449829101562,1,1.0,1
18.88,0.67891526,8.542995,4.083463,0.03099487535655498,0.7592282891273499,0.3586809039115906,28.580509185791016,-31.46568298339844,-11.133920669555664,-1.0866535902023315,0.5025405883789062,-0.16346287727355954,990.5732421875,1,1.0,1
18.92,0.8414248,8.755107,4.232596400000001,0.0002354284806642681,0.6943804025650024,0.3774561882019043,28.677249908447266,-31.48069190979004,-10.763025283813477,-1.1759974956512451,0.2805185317993164,-0.27815771102905273,990.572998046875,1,1.0,1
18.96,0.7601644000000001,8.807539,4.0361185,-0.08165667206048965,0.6392529606819153,0.4245941042900085,28.879180908203125,-31.23949813842773,-9.88444709777832,-1.1608660221099854,0.15516281127929688,-0.27983880043029785,990.5929565429688,1,1.0,1
19.0,0.846197,8.857589,4.3249164,-0.0427745133638382,0.5380529761314392,0.3384409546852112,28.95361328125,-32.06519317626953,-10.078554153442383,-0.93709397315979,0.18376541137695312,-0.037678003311157234,990.5525512695312,1,1.0,1
19.04,1.0875732,8.705059,4.6042466,-0.07672974467277527,0.4124850332736969,0.2925014495849609,29.0196475982666,-31.52953720092773,-9.658166885375977,-1.4388136863708496,0.10544586181640624,-0.8922655582427979,990.5776977539062,1,1.0,1
19.08,1.0612805,8.750341,4.724973,0.001966627081856132,0.4305945038795471,0.22232723236083984,29.424171447753906,-31.729820251464844,-10.324655532836914,-1.1577273607254028,0.41287994384765625,-0.5823915004730225,990.544677734375,1,1.0,1
19.12,1.1210243,9.55589,2.5897563,0.032592996954917915,0.5749377012252808,0.2056825160980225,29.47150802612305,-31.949899673461914,-8.702402114868164,-1.797952651977539,-1.2040891647338867,1.7157144546508791,990.5523071289062,1,1.0,1
