Timestamp,P,Gx,Gy,Gz,Mx,My,Mz,LiAx,LiAy,LiAz,Ax,Ay,Az,Value,Type
0,990.4019,0.00492739,-0.008753111,-3.0417222E-4,-10.851984,23.629595,-27.537872,5.2818656E-4,-0.0048798025,0.0706768,0.11324543,-0.13901272,9.740051,0
0,990.4019,0.00492739,-0.008753111,-3.0417222E-4,-10.854188,23.890495,-26.85994,0.0058857575,0.0044569373,0.013856888,0.1060465,-0.1413953,9.775556,0
0,990.15137,-1.2755021E-4,-0.00182972,-1.6884488E-4,-10.985956,23.451323,-27.27584,-0.013115168,0.014199242,0.051735878,0.12513655,-0.14854443,9.773187,0
0,990.223,2.7220487E-4,3.007614E-4,-9.676718E-4,-10.548065,23.59783,-27.12094,0.015655532,0.0143443495,0.056473732,0.09881842,-0.13662729,9.766082,0
0,990.2559,9.3827595E-4,-0.0012971796,2.3087012E-4,-11.118406,23.274519,-27.091118,-0.002776146,0.014738321,0.042272568,0.11312866,-0.14377633,9.758977,0
0,990.25366,6.722412E-4,-8.9775136E-4,-1.6848318E-4,-10.361375,23.403992,-27.292334,0.012159221,2.8698146E-4,0.037531853,0.10831967,-0.14377561,9.78028,0
0,990.24567,-2.5958335E-4,-0.0015635868,6.3058495E-4,-10.969353,23.361609,-27.42712,0.0075254887,0.004801497,0.013855934,0.1011208,-0.13900834,9.782645,0
0,990.246,-9.250917E-4,-0.0011641587,3.6438965E-4,-10.714563,23.33661,-27.156982,-0.0021263137,-2.65792E-4,0.02332592,0.11543104,-0.14139092,9.777907,0
0,990.2585,-1.2586266E-4,7.000069E-4,-1.681216E-4,-11.145527,23.45984,-27.097784,-0.02085349,-1.8064678E-4,0.0091228485,0.12735134,-0.1413902,9.792108,0
0,990.23285,2.738922E-4,-4.9846014E-4,-0.0011001066,-10.712063,23.707846,-27.410042,0.012883835,-0.009592101,0.03279686,0.108202964,-0.13423964,9.770801,0
0,990.2354,5.4048933E-4,-7.648217E-4,-4.341965E-4,-10.936826,23.444555,-27.12905,0.017485403,-1.0588765E-4,0.0138607025,0.10578388,-0.13185564,9.775533,0
0,990.2353,-3.91335E-4,9.661859E-4,8.975035E-4,-11.035631,23.82638,-27.521086,0.01748687,4.1164458E-4,0.028077126,0.10814464,-0.12947169,9.775529,0
0,990.2736,9.405257E-4,-7.64913E-4,-4.339554E-4,-10.834105,24.541784,-27.440033,0.016664766,-0.0040787607,0.042181015,0.11161286,-0.14141455,9.761425,0
0,990.2256,6.691617E-4,-3.6461974E-4,-4.3611886E-4,-10.966852,23.732847,-27.68018,0.011587165,-0.003901869,0.05638981,0.11400044,-0.13903117,9.773261,0
0,990.2833,1.3128761E-4,3.0202096E-4,9.426623E-5,-10.615728,24.167048,-27.83668,-0.007561028,6.752312E-4,0.04218483,0.11877799,-0.13188133,9.766158,0
0,990.2582,-1.3498415E-4,-2.3061795E-4,-5.715045E-4,-10.557358,23.06277,-27.78106,0.011474937,0.005549118,0.056390762,0.109216064,-0.1437976,9.763791,0
0,990.2557,-1.8040882E-6,-0.0015622011,3.6061055E-4,-10.52483,23.145718,-27.482986,0.007333912,0.019744962,0.027976036,0.12116331,-0.15333074,9.782729,0
0,990.2557,-1.8040882E-6,-0.0015622011,3.6061055E-4,-10.52483,23.145718,-27.482986,0.012179546,0.0150657445,0.032710075,0.10443169,-0.139031,9.77326,0
0,990.2404,-1.349398E-4,-9.7467186E-5,2.2746206E-4,-10.49771,22.960398,-27.476322,0.01674617,0.005590588,0.032712936,0.113988936,-0.14379749,9.785096,0
0,990.2404,-1.349398E-4,-9.7467186E-5,2.2746206E-4,-10.333712,22.850384,-27.187218,0.0026737452,0.02909483,0.046909332,0.10681701,-0.1509473,9.766158,0
0,990.24756,2.6457815E-4,1.688415E-4,-3.051508E-4,-10.636354,23.88405,-27.355034,0.017440312,0.014985964,0.04217434,0.113984406,-0.14379737,9.777993,0
0,990.24756,2.6457815E-4,1.688415E-4,-3.051508E-4,-10.636354,23.88405,-27.355034,-0.0063411295,0.0054600835,0.03743744,0.11159223,-0.14141405,9.763791,0
0,990.2527,-5.3432514E-4,3.019923E-4,4.9381587E-4,-10.321238,23.494303,-27.380789,-0.0015768707,2.207905E-4,0.023227692,0.11158994,-0.13664743,9.777993,0
0,990.25757,-5.3430314E-4,-7.6327485E-4,-3.0512235E-4,-10.8701105,23.717836,-27.309288,-0.0065557435,0.004878357,0.018494606,0.11397752,-0.13664737,9.775626,0
0,990.25757,-5.3430314E-4,-7.6327485E-4,-3.0512235E-4,-10.8701105,23.717836,-27.309288,0.012310803,0.014289752,0.023230553,0.10680556,-0.14141384,9.775625,0
1,990.2451,-2.6796537E-4,4.3514304E-4,-3.0511292E-4,-11.217755,24.024635,-27.581608,-0.011491649,-5.0738454E-5,0.023229599,0.121142626,-0.13664731,9.768523,0
1,990.24994,1.3155269E-4,-6.301276E-4,-3.05094E-4,-10.668882,23.801104,-27.653107,0.008195691,-0.004888937,0.027955055,0.11397067,-0.1342639,9.782727,0
1,990.24994,1.3155269E-4,-6.301276E-4,-3.05094E-4,-10.668882,23.801104,-27.653107,0.00790263,0.0048134476,0.046899796,0.11635828,-0.14141375,9.768523,0
1,990.25757,1.3159681E-4,-9.7503E-5,-3.0507502E-4,-10.244848,23.408134,-27.926407,-0.0012101233,0.004717335,0.032691002,0.106796354,-0.13664708,9.777991,0
1,990.2475,1.3161905E-4,-4.969804E-4,9.440823E-5,-10.798831,23.995539,-27.721443,-8.926317E-4,0.014183432,0.023216248,0.11874363,-0.14379689,9.787461,0
1,990.2475,1.3161905E-4,-4.969804E-4,9.440823E-5,-10.798831,23.995539,-27.721443,0.008775748,0.00927873,0.023213387,0.10201198,-0.15571317,9.773257,0
1,990.2626,-5.3412665E-4,5.6827586E-4,4.9390097E-4,-10.881606,23.443682,-27.291475,0.023100853,-0.0051202476,0.037415504,0.10678953,-0.12473056,9.77089,0
1,990.2626,-5.3412665E-4,5.6827586E-4,4.9390097E-4,-10.881606,23.443682,-27.291475,0.00878571,0.018737122,0.042150497,0.11395693,-0.15094653,9.780358,0
1,990.2549,2.6486535E-4,-3.638368E-4,-1.7186982E-4,-10.936826,23.444555,-27.129047,0.027803041,-3.5773218E-4,0.042152405,0.102005124,-0.13903013,9.770888,0
1,990.26965,-6.6721824E-4,7.014231E-4,3.6077143E-4,-10.944298,23.543108,-27.4416,-9.6078217E-4,-5.310029E-4,0.027947426,0.118732154,-0.13426343,9.775624,0
1,990.25995,0.0011970149,-9.75281E-5,-3.869293E-5,-11.116747,23.38191,-27.8675,0.0038395673,0.0047110766,0.009016037,0.10917023,-0.14141327,9.785092,0
1,990.2679,5.312476E-4,-3.6384762E-4,6.271063E-4,-10.93158,23.1866,-27.96159,0.013426125,4.3536723E-4,0.04689884,0.118727565,-0.13426337,9.76142,0
1,990.285,9.307433E-4,-9.753533E-5,3.607998E-4,-10.731711,23.794615,-27.104156,0.023069903,-0.0043985397,0.037421227,0.102054,-0.13903129,9.777995,0
1,990.262,-4.012991E-4,-6.300918E-4,2.2744367E-4,-10.496188,22.961872,-27.553627,0.008553617,6.851703E-4,0.032693863,0.09966412,-0.14379784,9.761425,0
1,990.2393,0.0011965283,1.6886683E-4,3.6057254E-4,-10.7516575,23.249247,-27.223139,0.008416079,6.0234964E-4,0.013756752,0.10922372,-0.136648,9.777995,0
1,990.2345,6.6389656E-4,3.570884E-5,2.274146E-4,-10.928374,23.715765,-26.992252,0.018120348,0.010452822,0.027962685,0.10922372,-0.13903129,9.785097,0
1,990.2496,-1.893146E-6,-3.6376496E-4,2.274146E-4,-10.454093,23.791708,-27.993593,-0.010640651,0.01541169,0.037434578,0.12595305,-0.15333098,9.76616,0
1,990.24445,7.970545E-4,-9.744907E-5,-1.7205923E-4,-10.368304,23.134253,-27.506435,0.0328098,0.010820761,0.042167664,0.10205403,-0.15333098,9.780362,0
1,990.2292,-1.893146E-6,-0.0014290285,-3.0521728E-4,-10.683421,23.524002,-27.480682,0.022878096,-0.017827123,0.02323246,0.09249443,-0.12949821,9.768527,0
1,990.2595,4.0979695E-4,0.0011244738,6.157204E-4,-10.777256,23.436037,-27.307108,-0.0011362135,0.010264993,0.023226738,0.11161363,-0.13903129,9.780362,0
1,990.26514,-0.0010549404,0.0013907896,-1.8322724E-4,-10.437627,23.596079,-27.445793,0.036719322,0.019671246,0.046902657,0.10444391,-0.15094772,9.773261,0
1,990.262,-2.5599275E-4,-4.7342165E-4,7.4887834E-4,-10.625839,23.788443,-27.197094,0.017379507,0.009950936,0.023229599,0.102054,-0.13903129,9.770894,0
1,990.23663,-2.5599275E-4,9.913157E-4,-3.1638518E-4,-11.38882,23.758995,-27.385735,0.0119865015,3.5129488E-4,0.013768196,0.09966412,-0.13188145,9.770894,0
1,990.25684,-3.891507E-4,5.9184193E-4,8.308864E-5,-10.9722595,23.464579,-27.971588,0.026135512,0.009750977,0.05164337,0.094884336,-0.13903129,9.76616,0
1,990.2212,-3.891507E-4,5.918419E-4,2.1624658E-4,-10.732552,23.530767,-27.627476,0.016443357,0.004823059,0.03270626,0.10444391,-0.14856443,9.76616,0
2,990.2442,1.032314E-5,3.25526E-4,-5.00693E-5,-10.8204365,23.34278,-27.064045,0.029966503,0.0046922565,0.03744793,0.097274214,-0.14141458,9.775628,0
2,990.247,-3.891507E-4,0.0011244736,-3.163853E-4,-10.676493,23.793737,-27.26658,0.005987406,3.3304095E-5,0.03271675,0.11161363,-0.13903129,9.773261,0
2,990.262,1.032314E-5,-3.402637E-4,-1.8322736E-4,-10.848398,23.264254,-27.59403,0.015516616,0.0048262626,0.042185783,0.10922372,-0.14379784,9.768527,0
2,990.2518,4.0979695E-4,8.581577E-4,4.8256246E-4,-11.012098,24.006405,-27.458263,0.015308201,0.0049142838,0.046923637,0.097274214,-0.14379784,9.763792,0
2,990.2518,4.0979695E-4,8.581577E-4,4.8256246E-4,-10.87704,23.448097,-27.523388,0.020020053,0.009985521,0.032725334,0.09966409,-0.14856443,9.773261,0
2,990.2442,9.424287E-4,-7.394781E-5,-3.163853E-4,-10.619643,22.687994,-27.133656,0.020142935,-0.0044412166,0.032722473,0.10444391,-0.13188145,9.775628,0
2,990.2442,9.424287E-4,-7.394781E-5,-3.163853E-4,-10.619643,22.687994,-27.133656,0.024683252,0.0052389055,0.018523216,0.09966412,-0.14379784,9.785097,0
2,990.2518,-3.891507E-4,-4.7342165E-4,-0.0011153329,-10.865002,23.353966,-27.442753,0.024719521,1.2604892E-4,0.05165863,0.09966412,-0.13903129,9.761425,0
2,990.2594,-7.886245E-4,5.9210128E-5,-4.4954324E-4,-11.301617,24.209356,-27.348541,0.015121579,0.014002442,0.046919823,0.102054,-0.14379784,9.763792,0
2,990.27216,1.032314E-5,4.5868388E-4,3.4940452E-4,-10.987042,24.187902,-27.472744,0.009825736,-1.8821657E-4,0.027990341,0.106833816,-0.13188145,9.763792,0
2,990.2591,-2.5599275E-4,7.249999E-4,-4.4954324E-4,-10.993131,24.182013,-27.163523,0.014967792,-0.0048840046,0.05165863,0.11639345,-0.12949815,9.773261,0
2,990.2591,-1.228348E-4,-8.728954E-4,2.1624658E-4,-10.789293,23.530169,-27.387745,0.0056917295,0.004894525,0.037549973,0.11115402,-0.13663676,9.773219,0
2,990.2516,6.7940215E-4,0.0015234135,-1.8181768E-4,-10.713883,23.074236,-27.757608,-0.0043079853,2.8805435E-4,0.018623352,0.11066681,-0.13662478,9.770807,0
2,990.2516,6.7940215E-4,0.0015234135,-1.8181768E-4,-10.713883,23.074236,-27.757608,0.0052439496,0.01444234,0.028092384,0.110630006,-0.14854029,9.775538,0
2,990.2492,1.8250663E-5,3.2698485E-4,-1.7716354E-4,-10.982913,23.45427,-27.430452,-0.009069875,1.7081201E-4,0.028096199,0.1105932,-0.1342397,9.770801,0
2,990.2414,4.180791E-4,-7.254658E-5,4.8877817E-4,-10.79636,23.154516,-26.90277,0.009936139,4.0911138E-4,0.051778793,0.11294633,-0.13900533,9.766063,0
2,990.2518,1.8959981E-5,6.0553837E-5,-4.370167E-5,-10.805354,23.251596,-27.138016,1.7151237E-4,0.005321607,0.042315483,0.11768937,-0.13423792,9.770794,0
2,990.2516,5.5194634E-4,0.0013920757,3.5592413E-4,-10.814892,23.716963,-27.471714,2.9992312E-4,0.00544025,0.02812004,0.11287278,-0.14853665,9.763688,0
2,990.26715,2.8598506E-4,-0.001004825,-5.7602953E-4,-10.656002,23.970816,-27.049149,0.009690091,0.0051885396,0.047058105,0.10805616,-0.13900265,9.766052,0
2,990.24164,2.0023668E-5,9.924867E-4,-1.764037E-4,-10.609235,23.698729,-27.34837,-0.0046338663,0.010036379,0.023389816,0.115189135,-0.14376834,9.77315,0
2,990.254,2.8669415E-4,-8.71782E-4,-4.309381E-5,-10.815189,23.084826,-27.896587,0.009958103,0.014559537,0.028122902,0.119932115,-0.1413841,9.792085,0
2,990.25146,-0.0010445308,-7.28919E-5,-0.0011082054,-10.912313,23.994343,-27.241982,0.009937584,0.014572933,0.04232979,0.112725586,-0.15091634,9.775512,0
2,990.2387,-1.1207047E-4,-2.061074E-4,-4.4226364E-4,-10.777255,23.436037,-27.307108,0.02418387,1.3287365E-4,0.03286457,0.11029893,-0.13899902,9.782609,0
2,990.2439,5.5407395E-4,8.5909857E-4,-1.7579584E-4,-10.399309,23.05278,-27.881813,1.180172E-5,0.024058118,0.042342186,0.112652004,-0.15568104,9.77077,0
3,990.2311,2.1796674E-5,4.5956712E-4,7.564617E-4,-10.838426,23.53694,-27.534538,-0.018937744,0.004824102,0.018668175,0.11022538,-0.13899726,9.770766,0
3,990.2442,-2.441646E-4,-3.3943803E-4,-4.2334024E-5,-10.479584,22.87216,-27.704906,0.009667203,-0.009230241,0.032881737,0.11257845,-0.13184646,9.782599,0
3,990.26117,4.219797E-4,1.9313613E-4,-4.4165578E-4,-10.972397,23.358664,-27.27251,0.009647042,-0.013902247,0.051822662,0.11732146,-0.13184562,9.78023,0
3,990.2264,-1.1029758E-4,5.9920596E-5,6.237597E-4,-10.81587,23.347198,-27.29596,-0.004574612,0.00524424,0.0423584,0.12445438,-0.13661125,9.766023,0
3,990.2643,8.221627E-4,-3.396108E-4,-4.1878026E-5,-10.886171,23.43926,-27.059559,0.005255677,0.010078505,0.037626266,0.10529834,-0.1461434,9.763652,0
3,990.2414,2.3569679E-5,-3.396683E-4,3.5774775E-4,-10.869568,23.349546,-27.210838,0.0057237074,0.005458504,0.023422241,0.09570199,-0.15329245,9.766015,0
3,990.239,6.8971387E-4,-0.0015381472,-1.747321E-4,-10.696981,23.61666,-27.484015,0.015233241,0.019627392,0.03289509,0.110004604,-0.14614162,9.775481,0
3,990.2438,-6.7385053E-4,-6.708297E-4,-2.4824514E-4,-10.732553,23.530767,-27.627476,-0.017888889,0.009783268,0.03289032,0.124307215,-0.14375749,9.775477,0
3,990.2264,3.9176748E-4,1.2806049E-4,-3.8125116E-4,-11.11384,23.27894,-27.323032,0.0011729449,3.8783252E-4,0.028162956,0.107541114,-0.13899001,9.763638,0
3,990.2264,3.9176748E-4,1.2806049E-4,-3.8125116E-4,-11.11384,23.27894,-27.323032,0.001377292,0.0049266964,0.028158188,0.11467403,-0.13422251,9.768369,0
3,990.2362,-4.0682557E-4,-8.0410263E-4,1.8374645E-5,-10.7385025,23.630793,-28.017334,-0.0030398145,0.009525329,0.023422241,0.10985747,-0.14375481,9.777835,0
3,990.2442,-2.733129E-4,-1.3837054E-4,1.516846E-4,-10.433496,22.862444,-27.403503,-0.0032513887,0.009369135,0.023425102,0.11221057,-0.14613715,9.782566,0
3,990.25146,6.521803E-4,-0.0010694027,-2.5062298E-4,-10.735458,23.633738,-28.171944,-0.008361243,-0.004664868,0.028067589,0.11797398,-0.13424489,9.775554,0
3,990.25146,6.521803E-4,-0.0010694027,-2.5062298E-4,-10.735458,23.633738,-28.171944,-0.0034391508,8.904934E-5,0.0422678,0.10841817,-0.14139482,9.763719,0
3,990.24164,5.1659415E-4,-4.032188E-4,4.1412594E-4,-10.871496,23.82228,-27.93106,-0.0032438189,0.0048368424,0.04226494,0.11798161,-0.13662833,9.756617,0
3,990.24164,5.1659415E-4,-4.032188E-4,4.1412594E-4,-10.77864,23.54048,-27.92888,-0.027363762,0.014415011,0.00439167,0.120375305,-0.14616159,9.777923,0
3,990.239,1.17046875E-4,-3.7330174E-6,1.4777857E-4,-10.724102,23.80198,-27.49068,0.010837451,-0.014008015,-3.3950806E-4,0.11320943,-0.13662854,9.796861,0
3,990.23395,1.1697365E-4,-9.358267E-4,-1.18568714E-4,-10.980412,23.825504,-27.683514,0.0016517043,0.004975617,0.028061867,0.1108233,-0.14139518,9.766087,0
3,990.23395,1.1697365E-4,-9.358267E-4,-1.18568714E-4,-10.980412,23.825504,-27.683514,0.015970469,0.018949509,0.03752327,0.10843721,-0.14854509,9.775557,0
3,990.24646,-6.8201066E-4,-4.03189E-4,-3.849003E-4,-10.740025,23.62932,-27.94003,0.006394021,-1.8586218E-4,0.042258263,0.09888142,-0.12709573,9.758986,0
3,990.24646,-6.8201066E-4,-4.03189E-4,-3.849003E-4,-10.740025,23.62932,-27.94003,-0.0033498034,-0.009700701,0.032791138,0.12278426,-0.1366289,9.775557,0
3,990.26917,-8.1524195E-4,1.294547E-4,-1.1861592E-4,-10.774212,23.438982,-27.461718,0.0016318709,0.013895974,0.01858139,0.12517795,-0.14377883,9.785027,0
3,990.26917,-8.1524195E-4,1.294547E-4,-1.1861592E-4,-10.774212,23.438982,-27.461718,0.0064699203,0.009307757,0.03752041,0.12279183,-0.14139566,9.777925,0
3,990.23395,-1.6331094E-5,-1.3685528E-4,-1.1863158E-4,-10.325123,23.22751,-27.7495,0.006290965,-3.3695996E-4,0.051724434,0.11323607,-0.13186261,9.773191,0
3,990.24164,5.1622756E-4,3.9578837E-4,4.1396875E-4,-10.768261,23.338957,-27.07186,0.025549479,0.009409964,0.032787323,0.101290345,-0.14854565,9.792129,0
4,990.24164,5.1622756E-4,3.9578837E-4,4.1396875E-4,-10.768261,23.338957,-27.07186,-0.002936922,-0.00974147,0.04698658,0.118023485,-0.13424611,9.754253,0
4,990.25903,-6.822675E-4,-3.6735291E-6,8.1341114E-4,-10.477327,24.243822,-27.631544,0.006226301,-7.5921416E-5,0.05646324,0.10846764,-0.12947965,9.768457,0
4,990.25397,6.492754E-4,7.952801E-4,2.8076363E-4,-10.678855,23.528418,-27.712597,-0.0036429614,0.014288694,0.02805996,0.106081575,-0.15331253,9.770825,0
4,990.2514,-1.6551236E-5,1.2949633E-4,-1.18725875E-4,-10.959242,23.74021,-28.066706,0.0013551563,-0.0048451275,0.046993256,0.12042478,-0.13186306,9.768458,0
4,990.2314,3.8288604E-4,3.9581815E-4,-7.8453124E-4,-11.085306,24.201439,-27.76633,9.5281005E-4,-0.0050895065,0.013853073,0.10847905,-0.13662973,9.77556,0
4,990.2314,3.8288604E-4,3.9581815E-4,-7.8453124E-4,-11.085306,24.201439,-27.76633,-0.008466393,0.0048843473,0.028060913,0.11565262,-0.14377972,9.777927,0
4,990.2518,1.1649681E-4,-8.0259144E-4,1.4754286E-4,-10.795787,23.998484,-27.876053,-0.008033179,-4.595071E-4,0.01857853,0.12760589,-0.1390132,9.785029,0
4,990.2518,-8.1564556E-4,-9.357433E-4,-0.0010508945,-10.6297245,23.52165,-27.565804,-0.012900807,-0.01024954,0.0280447,0.120440006,-0.12471363,9.76846,0
4,990.24677,-8.156821E-4,2.6268404E-4,1.4751137E-4,-10.493824,23.22719,-27.10761,0.001378715,-7.996857E-4,0.04224682,0.115664005,-0.13186356,9.773194,0
4,990.26685,-2.8308714E-4,1.2953208E-4,-1.1882023E-4,-10.644263,23.244549,-27.393381,0.016129784,-0.010732859,0.01856327,0.11566782,-0.13186368,9.792132,0
4,990.25684,-0.0010820715,-0.0010688833,2.8063788E-4,-10.978484,23.352772,-26.963291,0.016527452,0.0036290586,0.032762527,0.103722095,-0.14378014,9.775562,0
4,990.24646,2.494714E-4,-0.0012020353,1.4306279E-5,-10.468089,23.146315,-27.722717,-0.011824258,-0.015078589,0.028030396,0.12966898,-0.12708881,9.784999,0
4,990.2492,6.4973766E-4,-5.3637434E-4,-2.5167002E-4,-10.699345,23.35134,-27.930033,0.02256579,0.0039090514,0.042292595,0.10540697,-0.1413796,9.775498,0
4,990.2771,-1.4465654E-4,-9.308096E-7,0.0012174635,-10.928237,23.821684,-27.69133,0.0029013231,0.008800611,0.037570953,0.11494249,-0.14852884,9.773128,0
4,990.2337,6.545233E-4,5.3166325E-4,1.5229953E-4,-10.992588,23.81372,-27.065071,0.0075385273,0.008611634,0.028102875,0.10296887,-0.14614496,9.761291,0
4,990.2337,-1.1033993E-5,1.3215165E-4,5.518729E-4,-10.79288,23.895514,-27.331585,0.0029259622,0.004063517,0.03284073,0.110114455,-0.14376107,9.775491,0
4,990.2365,-1.4395968E-4,-7.9999154E-4,2.856565E-4,-10.668339,23.432812,-27.554655,0.021972165,-0.005328417,0.042313576,0.10531056,-0.13661066,9.768388,0
4,990.27216,3.8890445E-4,6.64708E-4,1.5259814E-4,-10.701548,23.612242,-27.252102,0.002699405,-0.005548358,0.028113365,0.11962587,-0.1318435,9.782588,0
4,990.23914,-1.0337015E-5,6.646703E-4,6.853296E-4,-10.574069,24.25883,-28.002438,0.016787902,-0.010183141,0.042324066,0.098092616,-0.13899276,9.763648,0
4,990.23627,3.8936894E-4,-1.3431507E-4,-9.124662E-4,-10.975005,24.093771,-27.392105,0.012262605,0.008561954,0.04705429,0.121967584,-0.146142,9.773115,0
4,990.22864,5.6383127E-5,5.6251686E-4,2.9675828E-4,-11.086966,24.09405,-26.989948,0.007323265,-0.0056390315,0.04705906,0.11716366,-0.13660827,9.773112,0
4,990.22864,5.6383127E-5,5.6251686E-4,2.9675828E-4,-11.086966,24.09405,-26.989948,-0.006918356,0.0039094537,0.023388863,0.11235976,-0.13899097,9.77311,0
4,990.24445,5.6615492E-5,-2.3646849E-4,-0.0010347216,-11.179277,24.007559,-26.893679,0.0120667,-0.005440086,0.037596703,0.10755584,-0.13660708,9.7778425,0
4,990.24445,5.6615492E-5,-2.3646849E-4,-0.0010347216,-10.744728,23.518984,-27.009037,0.002442427,-0.0053652376,0.06600857,0.109921634,-0.13898978,9.749434,0
5,990.2442,0.0012552693,6.955993E-4,1.6379947E-4,-10.630566,23.257803,-28.089127,-0.0023509786,0.009007305,0.013933182,0.11228743,-0.14375576,9.763635,0
5,990.24164,5.7080222E-5,1.629299E-4,-2.3557464E-4,-10.8435335,23.900806,-27.401073,-0.0025194436,-0.014722228,0.03287697,0.11465323,-0.13422206,9.782571,0
5,990.24677,1.9070254E-4,9.618021E-4,-1.0221769E-4,-10.550972,23.7008,-27.665405,-0.016816199,-4.171729E-4,0.02814579,0.12418878,-0.13660473,9.770732,0
5,990.24677,1.9070254E-4,9.618021E-4,-1.0221769E-4,-10.550972,23.7008,-27.665405,0.021312855,-0.0050036013,0.051822662,0.107435316,-0.12707105,9.77073,0
5,990.2595,5.9087336E-4,2.9583374E-5,-1.01919024E-4,-10.527438,23.880823,-27.602581,0.011664212,-0.009471819,0.04709816,0.11458096,-0.13422027,9.770728,0
5,990.2595,5.9087336E-4,2.9583374E-5,-1.01919024E-4,-10.922287,23.721657,-27.301472,0.021345936,0.01448448,0.03763199,0.107387096,-0.15566918,9.773093,0
5,990.2595,5.9087336E-4,2.9583374E-5,-1.01919024E-4,-10.922287,23.721657,-27.301472,0.0024392977,4.0733814E-4,0.013961792,0.11214286,-0.1413689,9.789661,0
5,990.247,7.24496E-4,-2.3680796E-4,4.3091195E-4,-10.88465,23.440735,-27.136866,0.0074659362,-0.009287074,0.03763199,0.10494903,-0.12706864,9.765986,0
5,990.247,7.24496E-4,-2.3680796E-4,4.3091195E-4,-10.88465,23.440735,-27.136866,-0.002083324,5.6889653E-4,0.056575775,0.12165421,-0.13660118,9.768352,0
5,990.2722,-6.06851E-4,-0.0010357933,1.6469558E-4,-10.652416,23.605474,-27.105309,0.012364045,0.004972145,0.032899857,0.10968059,-0.13898388,9.777819,0
5,990.26483,-3.4007052E-4,-1.03763145E-4,-2.3457923E-4,-10.712063,23.707848,-27.410042,0.002578579,0.014662951,0.061315536,0.12160605,-0.15089968,9.768348,0
5,990.26483,-3.4007052E-4,-1.03763145E-4,-2.3457923E-4,-10.712063,23.707848,-27.410042,0.012056999,0.010036424,0.032913208,0.107242525,-0.1461325,9.77308,0
5,990.2646,-7.329015E-5,9.61425E-4,2.9825183E-4,-10.800108,22.993639,-27.970558,-0.014253125,5.0520897E-4,0.042204857,0.121160686,-0.13426438,9.761424,0
5,990.26483,4.5158446E-4,2.940176E-4,5.5875105E-4,-11.280203,23.12364,-28.058153,-0.005071223,0.0052057207,0.051671028,0.11643672,-0.14141563,9.751961,0
5,990.26483,4.5158446E-4,2.940176E-4,5.5875105E-4,-11.280203,23.12364,-28.058153,-2.1749735E-4,0.0050928295,0.027994156,0.111712694,-0.141417,9.768536,0
5,990.2372,1.7480575E-4,-2.3691558E-4,1.5479306E-4,-10.657143,23.074833,-27.997341,0.004370816,0.005265981,0.046928406,0.11415845,-0.13426852,9.766173,0
5,990.2622,4.1109743E-5,1.6264553E-4,5.5403635E-4,-10.71236,23.075708,-27.834915,0.0041658133,-0.0043551773,0.0469265,0.11182436,-0.13665316,9.766179,0
5,990.2421,-2.257441E-4,1.6273287E-4,2.1173968E-5,-10.541296,23.341349,-28.030787,0.0039803535,6.8216026E-4,0.018515587,0.10232055,-0.13665453,9.780387,0
5,990.25006,7.0582354E-4,2.959781E-4,-1.1221453E-4,-10.771029,23.547846,-28.315407,-7.7824295E-4,0.005333051,0.037448883,0.11432588,-0.13665596,9.773291,0
5,990.2546,1.7265382E-4,1.6290751E-4,5.533446E-4,-10.952206,22.903605,-27.479946,-0.01562605,0.010044903,0.027980804,0.11438173,-0.14142382,9.773295,0
5,990.2549,-4.9367384E-4,0.0012282585,-5.121495E-4,-11.120877,24.115545,-27.90979,0.003560461,0.0051863045,0.023234367,0.11682743,-0.1366587,9.780402,0
5,990.2546,-2.2789603E-4,-7.690233E-4,6.860414E-4,-11.094872,23.454546,-27.028296,-0.0014219731,-0.0042170584,0.037436485,0.119273126,-0.13427672,9.766204,0
5,990.2626,3.041979E-4,4.294854E-4,2.0021223E-5,-10.422001,23.136602,-27.421314,0.007922471,0.019671127,0.046905518,0.11215925,-0.14619455,9.773311,0
5,990.24976,5.699757E-4,-1.03059036E-4,-2.4652533E-4,-10.5800495,23.146593,-27.32056,0.007983029,8.198172E-4,0.027960777,0.10504538,-0.13904598,9.775683,0
5,990.26807,3.0312198E-4,3.0186231E-5,1.9560073E-5,-10.993429,23.549871,-27.588394,-0.01087223,-0.0039277375,0.01848793,0.11705068,-0.13666412,9.787524,0
6,990.2501,5.688997E-4,1.634315E-4,-7.796182E-4,-10.508769,23.424295,-27.732716,-0.015915409,-0.0039449334,0.037421227,0.12188628,-0.13904878,9.763858,0
6,990.26764,-6.300595E-4,-3.6911288E-4,1.5225692E-4,-11.0129385,23.742556,-27.981585,-0.015643358,-0.0037211925,0.027943611,0.12433201,-0.13666686,9.780433,0
6,990.2546,7.009817E-4,-6.353415E-4,-2.4744746E-4,-11.218054,23.3925,-28.006477,0.0083043575,-0.0034946352,0.056350708,0.11482823,-0.13428494,9.770969,0
6,990.26025,7.00444E-4,1.6369353E-4,5.512696E-4,-10.50366,23.060423,-27.86618,-0.0012495816,0.015587479,0.027938843,0.11488408,-0.14381945,9.775708,0
6,990.2878,5.6674774E-4,-2.3569296E-4,8.173549E-4,-10.672768,23.53431,-28.021818,0.0035836846,0.0060296953,0.051600456,0.11732975,-0.14143759,9.778081,0
6,990.2347,-8.990655E-4,-9.013079E-4,-1.1521188E-4,-10.59263,23.609018,-27.499647,0.013454884,0.01036334,0.042116165,0.117385566,-0.14858875,9.773352,0
6,990.2347,-8.990655E-4,-9.013079E-4,-1.1521188E-4,-10.861958,23.356913,-27.597363,0.0033724234,0.019834608,0.04685116,0.11027169,-0.15812328,9.770989,0
6,990.2347,-8.990655E-4,-9.013079E-4,-1.1521188E-4,-10.861958,23.356913,-27.597363,0.01312454,0.010380238,0.051579475,0.11271742,-0.13905832,9.763894,0
6,990.2347,1.6458391E-4,2.9737555E-4,5.4988614E-4,-10.97476,23.093344,-27.718525,-0.0014224574,0.01998575,0.04684162,0.11277324,-0.14620963,9.761531,0
6,990.2347,1.6458391E-4,2.9737555E-4,5.4988614E-4,-10.97476,23.093344,-27.718525,-0.006155826,-0.003804192,0.03263569,0.11282903,-0.13906106,9.771005,0
6,990.26776,5.180198E-4,-6.922082E-4,-5.956317E-5,-10.980305,22.719162,-27.310856,-0.015482992,-0.0034574568,0.023161888,0.12722427,-0.14144579,9.782846,0
6,990.2679,-1.4830803E-4,2.3998466E-4,-4.5926744E-4,-11.034109,23.827852,-27.598392,0.0033199042,-0.0036499798,0.01842022,0.11533058,-0.13668057,9.77575,0
6,990.2831,2.5062784E-4,2.4007203E-4,-4.5949817E-4,-11.462166,23.848112,-26.994724,-0.009774856,0.0010547638,0.023284912,0.11394018,-0.14856288,9.775622,0
6,990.24994,1.2959656E-4,3.693255E-4,3.4313387E-4,-10.934324,23.81579,-27.38211,0.009160481,0.01028274,0.037486076,0.10915911,-0.15094617,9.766154,0
6,990.2755,-5.344902E-4,3.6904903E-4,3.4386374E-4,-10.587384,23.351063,-28.332191,0.004519157,5.825907E-4,0.051685333,0.11871746,-0.14617947,9.768521,0
6,990.2705,-2.6816234E-4,-2.9674266E-4,-1.8876267E-4,-11.075333,24.474123,-27.70684,5.8464706E-5,0.005302578,0.013806343,0.123495996,-0.13426307,9.792192,0
6,990.2705,-2.6816234E-4,-2.9674266E-4,-1.8876267E-4,-11.075333,24.474123,-27.70684,0.0094383955,-0.00419499,0.037481308,0.111545205,-0.13664636,9.768519,0
6,990.2757,-1.3499195E-4,-6.962184E-4,3.438742E-4,-10.831358,23.912592,-28.019516,0.0091654435,0.005252436,0.037483215,0.121103555,-0.1485627,9.777989,0
6,990.24756,-1.8216597E-6,9.0167485E-4,-3.2191025E-4,-10.7922,23.63314,-27.932213,-0.0048770458,0.019383699,0.032743454,0.11632246,-0.15094593,9.766152,0
6,990.2507,3.9766403E-4,1.027252E-4,2.1072675E-4,-10.710297,22.708893,-27.813766,-0.004436098,-0.009537458,0.023264885,0.116321206,-0.13187966,9.766152,0
6,990.2507,-0.001067061,-6.962244E-4,-5.5583892E-5,-10.893644,23.537813,-27.372112,8.197129E-5,0.014146522,0.023264885,0.116319954,-0.14141282,9.787457,0
6,990.26807,-6.675746E-4,-4.2991043E-4,-3.2189448E-4,-10.964787,23.366028,-27.659035,0.0049176216,0.014119357,0.037467003,0.113928795,-0.14617929,9.766152,0
6,990.23285,2.645551E-4,-1.635986E-4,-3.2188406E-4,-10.709019,23.71079,-27.564653,3.9485097E-4,-9.319186E-5,0.03746605,0.101978004,-0.14141268,9.775622,0
6,990.23285,6.640415E-4,-8.293903E-4,3.4391094E-4,-10.842991,23.532516,-27.302624,0.0049560964,0.009332001,0.03273201,0.10675651,-0.14379594,9.768519,0
6,990.2404,1.3142172E-4,-3.044463E-5,-5.555767E-5,-10.75318,23.247774,-27.145832,0.014375024,0.0089419335,0.051667213,0.10436535,-0.14141268,9.761417,0
7,990.2404,-0.0012001457,6.353431E-4,7.760551E-5,-10.813805,22.980381,-27.274815,0.005095765,0.01360248,0.023256302,0.11631361,-0.14617917,9.7803545,0
7,990.2253,-1.3486948E-4,-6.962383E-4,-1.8870516E-4,-10.6466255,22.979227,-27.839397,-0.009101197,-0.0056514144,0.023251534,0.11153251,-0.14141259,9.77562,0
7,990.26843,-4.0117337E-4,-4.2992434E-4,4.7708984E-4,-10.417978,23.50931,-27.75168,0.014606126,0.02290681,0.056394577,0.10675144,-0.15332896,9.763784,0
7,990.2557,1.3147038E-4,7.68495E-4,-1.8869468E-4,-10.705976,23.71374,-27.719263,0.028487481,-0.0011368096,0.042194366,0.09958047,-0.136646,9.768519,0
7,990.2557,-5.3430663E-4,5.021772E-4,2.107844E-4,-10.825951,24.180859,-27.728107,0.018762574,0.0132869035,0.05166626,0.111528695,-0.14379573,9.773253,0
7,990.26544,3.9781095E-4,3.690173E-4,-7.2131597E-4,-11.069138,23.37367,-27.643402,0.004378915,0.013239369,0.027994156,0.11391735,-0.14617899,9.787457,0
7,990.24567,-1.6508784E-6,1.0269943E-4,-8.544687E-4,-11.27754,24.021093,-27.187265,-3.0119717E-4,-0.0053405017,0.0185318,0.09957668,-0.13902918,9.763784,0
7,990.2685,0.0010636252,-2.9677642E-4,-5.881475E-4,-11.090414,24.56531,-27.632866,0.023522824,0.018391013,0.032733917,0.09957543,-0.14617899,9.7732525,0
7,990.2735,3.9784773E-4,-0.0010957259,3.4396333E-4,-10.775733,23.43751,-27.384413,0.009665698,-7.1772933E-4,0.032728195,0.10913375,-0.13902906,9.7756195,0
7,990.27106,-4.0108804E-4,-4.2993826E-4,3.4396854E-4,-11.004925,23.275717,-27.570581,1.1591613E-4,0.008924574,0.009057999,0.101962775,-0.14141232,9.7827215,0
7,990.26117,-2.6791764E-4,-5.6309823E-4,-5.8813184E-4,-10.714426,23.442526,-27.85606,0.009944841,0.0037225485,0.027985573,0.10913122,-0.13426247,9.7732525,0
7,990.28644,-5.342212E-4,-4.2994227E-4,7.7663135E-5,-11.165037,23.652525,-27.49097,-0.0041809976,0.008804604,0.02327919,0.11378294,-0.148559,9.763772,0
7,990.28644,-5.342212E-4,-4.2994227E-4,7.7663135E-5,-11.006147,23.906378,-27.068405,0.009698749,-6.5617263E-4,0.03275776,0.099307835,-0.13902256,9.770862,0
7,990.2612,2.6723812E-4,0.0011675453,3.4505548E-4,-10.840925,23.1657,-27.281479,0.033471823,0.008650288,0.028020859,0.09929639,-0.14855537,9.777962,0
7,990.26886,-3.9844145E-4,1.02263904E-4,3.4510266E-4,-11.07911,23.100985,-27.702892,-7.864088E-5,-8.531362E-4,0.018554688,0.113624394,-0.14378855,9.768492,0
7,990.2459,-9.309632E-4,2.35404E-4,-5.43239E-5,-10.905544,23.73786,-28.151827,0.018840909,-0.0059632063,0.05169487,0.10405338,-0.1342552,9.770858,0
7,990.26373,1.3441045E-4,1.02228136E-4,-5.8690854E-4,-10.355287,23.409885,-27.601555,0.0049787015,-0.005905971,0.023283958,0.104041964,-0.12948826,9.773225,0
7,990.26373,1.3441045E-4,1.02228136E-4,-5.8690854E-4,-10.632332,24.256758,-27.685402,0.009340093,0.01329647,0.042229652,0.10642046,-0.1485543,9.756653,0
7,990.23615,2.6778853E-4,6.3482416E-4,-5.868142E-4,-11.073704,23.369251,-27.411488,-0.009684272,0.008427203,0.013822556,0.11835849,-0.14378741,9.775589,0
7,990.23615,2.6778853E-4,6.3482416E-4,-5.868142E-4,-10.378277,22.86157,-27.56593,-0.00970789,-0.0055688918,0.018561363,0.120737016,-0.13425401,9.775588,0
7,990.25867,2.6789866E-4,3.6849038E-4,-5.413522E-5,-10.496731,23.33016,-27.652077,0.013808712,-5.350709E-4,0.03750801,0.11355585,-0.13663703,9.782689,0
7,990.26416,4.0127675E-4,2.3529676E-4,-3.203568E-4,-10.805898,23.619883,-27.236467,-4.4831634E-4,-0.0010258108,0.028035164,0.111154556,-0.13187018,9.773219,0
7,990.2462,-0.0010633505,-2.9735293E-4,-5.399369E-5,-11.011556,23.638115,-27.359812,0.00949657,0.0035340935,0.046966553,0.10397339,-0.14378628,9.763749,0
7,990.2616,-3.4496794E-4,-8.039864E-4,6.498338E-5,-10.664316,23.805521,-27.885023,0.018545605,0.0036420822,0.046975136,0.10635191,-0.14140278,9.770849,0
8,990.2311,3.209319E-4,0.0011933647,-6.0075906E-4,-10.995495,23.916693,-27.609539,-0.0053347126,-0.005669266,0.042243958,0.1159001,-0.13901913,9.766114,0
8,990.249,5.873579E-4,-5.074544E-6,6.507774E-5,-10.825407,23.812567,-27.629658,-0.0054107085,0.008636966,0.032777786,0.11827853,-0.1390189,9.768479,0
8,990.249,5.873579E-4,-5.074544E-6,6.507774E-5,-10.825407,23.812567,-27.629658,0.0043571293,0.008754596,0.032777786,0.123046935,-0.14855179,9.780315,0
8,990.26416,5.4836288E-5,2.6122347E-4,5.977567E-4,-10.664316,23.805521,-27.885023,0.004680313,0.013304099,0.03750515,0.106306195,-0.14616814,9.763744,0
8,990.26416,1.8810436E-4,-4.0458416E-4,-6.798576E-5,-10.482192,23.607267,-27.824503,-0.004786633,-0.0010934621,0.023301125,0.10868466,-0.1366348,9.770844,0
8,990.25397,-8.7693916E-4,1.2801192E-4,7.310562E-4,-10.709019,23.71079,-27.564651,0.0044020116,0.0034710765,0.028038025,0.11106312,-0.13901779,9.777945,0
8,990.24396,-7.7881254E-5,-1.3832185E-4,-8.6679193E-4,-10.773776,24.177038,-27.735924,-0.01434084,0.003395334,0.02330017,0.12300122,-0.13425091,9.77321,0
8,990.2621,-4.7724496E-4,-4.0465558E-4,-3.34113E-4,-10.902203,24.372942,-27.881565,0.004436955,-0.001369819,0.03750801,0.099090815,-0.13186738,9.759006,0
8,990.2542,-7.766111E-5,6.6059007E-4,-3.3406573E-4,-10.743611,23.994661,-27.88387,0.013913497,0.0034232438,0.056448936,0.10146928,-0.13663366,9.75427,0
8,990.2493,9.877125E-4,-5.217502E-6,-4.6717658E-4,-10.375776,23.232805,-27.818989,0.009243913,-0.001196295,0.056450844,0.11818719,-0.13425007,9.763738,0
8,990.262,-6.1007275E-4,-1.383933E-4,-4.6712937E-4,-10.536868,23.239851,-27.563623,-0.0049657375,0.0083500445,0.037511826,0.11339593,-0.13901642,9.768472,0
8,990.2824,-4.7680468E-4,-2.7156918E-4,-4.6708217E-4,-11.224685,23.7549,-27.79571,0.0091237575,-0.0012491196,0.023312569,0.11099458,-0.14378262,9.785041,0
8,990.2849,1.8909517E-4,-1.3842912E-4,4.6507063E-4,-10.793722,23.631666,-27.854908,-5.525574E-4,-0.010703862,0.023262978,0.10671374,-0.1390284,9.77325,0
8,990.2393,4.5185955E-4,-4.041684E-4,-4.6855703E-4,-10.28985,22.681269,-28.03091,0.009030826,0.013259023,0.037467957,0.11150241,-0.14617833,9.777986,0
8,990.2646,4.505776E-4,-1.3764443E-4,-6.963263E-5,-10.863481,23.355438,-27.520058,0.013834208,-0.0060736835,0.04693222,0.11151132,-0.13187891,9.773252,0
8,990.2853,-7.4792944E-4,-1.3763046E-4,-6.9669244E-5,-10.891144,23.909048,-27.625172,0.004453905,-0.0013379753,0.042194366,0.1115202,-0.1366457,9.7756195,0
8,990.2774,-8.2225175E-5,-5.370905E-4,5.960838E-4,-10.3211,23.600222,-28.079865,-0.009891316,0.012716949,0.013781548,0.11630887,-0.15571219,9.77562,0
8,990.2519,-3.4862664E-4,-4.4448243E-6,4.628891E-4,-11.019028,23.736668,-27.672363,0.009306446,0.008068159,0.061127663,0.11392784,-0.143796,9.763785,0
8,990.29803,0.001249183,3.9504288E-4,1.9653657E-4,-10.992992,24.287928,-27.862602,-0.01009427,0.012962967,0.032725334,0.11632663,-0.14617953,9.773255,0
8,990.26495,5.0675953E-5,2.6189885E-4,4.628158E-4,-11.071203,23.740488,-27.664547,-0.005387187,-0.0013285875,0.018521309,0.11872539,-0.13902989,9.775623,0
8,990.25433,-3.4888345E-4,1.2875476E-4,-2.0301066E-4,-10.950248,23.643131,-27.831459,-0.005334601,0.0129279345,0.02325344,0.11634439,-0.15332973,9.787459,0
8,990.27765,5.0504706E-5,-2.707051E-4,1.9642655E-4,-11.233816,23.746058,-27.331879,0.013692327,-0.0012784451,0.0469265,0.10918361,-0.13664702,9.773257,0
8,990.2594,-2.1589662E-4,6.6141435E-4,-8.6887367E-4,-10.7244,23.169842,-27.91555,0.022868171,-0.006002426,0.023259163,0.104412615,-0.13188067,9.777993,0
8,990.2699,9.824393E-4,5.282703E-4,-6.996273E-5,-11.028458,23.095694,-27.633406,0.008142799,0.017675161,0.023260117,0.106811404,-0.15333045,9.768525,0
8,990.275,-3.4922594E-4,9.2775805E-4,3.294744E-4,-11.0772915,23.734598,-27.355328,0.013020694,-0.0013729334,0.06113434,0.11399001,-0.13903102,9.768525,0
9,990.275,-3.4922594E-4,9.2775805E-4,3.294744E-4,-11.0772915,23.734598,-27.355328,-0.0013038516,-0.0014164895,0.023257256,0.1163888,-0.13903117,9.785096,0
9,990.2649,-6.1571284E-4,1.2883818E-4,-2.0323068E-4,-10.980412,23.825504,-27.683514,-0.0012609214,0.007850185,0.027986526,0.11400777,-0.1461812,9.770894,0
9,990.2598,3.1630718E-4,-1.3746381E-4,1.9620644E-4,-10.811167,23.457533,-28.226952,-0.010646209,0.0080215335,0.032720566,0.109236866,-0.13903159,9.761426,0
9,990.2853,4.4937956E-4,-5.3692376E-4,-2.0330402E-4,-10.741547,23.627844,-27.862724,0.013708763,-0.0014797449,0.042183876,0.111635625,-0.13664854,9.773263,0
9,990.25494,-0.0014150029,-4.03738E-4,6.293849E-5,-11.019464,22.998613,-27.398159,-4.6072155E-4,0.012236789,0.023234367,0.1188142,-0.14141533,9.782733,0
9,990.29553,-3.498249E-4,-1.3740822E-4,-2.0341403E-4,-10.733095,23.899057,-27.72593,-4.227832E-4,0.031051248,0.03269863,0.114043295,-0.15809855,9.775632,0
9,990.29553,-3.498249E-4,-1.3740822E-4,-2.0341403E-4,-10.733095,23.899057,-27.72593,0.018532746,0.012088895,0.05163765,0.10927236,-0.13903248,9.770899,0
9,990.29553,-3.498249E-4,-1.3740822E-4,-2.0341403E-4,-10.934187,23.92171,-28.081188,0.008852959,-0.0022584796,0.042170525,0.10928124,-0.13426611,9.775634,0
9,990.2855,4.956349E-5,1.2892153E-4,1.9602312E-4,-10.992887,23.181583,-27.489944,0.0087025985,-0.0022683442,0.027967453,0.10451031,-0.14379945,9.766166,0
9,990.26044,4.9392125E-5,5.284231E-4,3.2910766E-4,-10.495209,23.331636,-27.729382,-0.020333536,-0.0023865402,0.0327034,0.118858576,-0.12950003,9.766166,0
9,990.2348,-6.1648304E-4,9.2791085E-4,-7.040278E-5,-11.1113405,23.650175,-27.576094,-0.006237939,0.0018005371,0.023227692,0.11647758,-0.13903335,9.78037,0
9,990.2555,-0.0010160423,5.284509E-4,-7.362291E-4,-10.793179,23.263376,-27.756458,-0.011181988,-0.0027369708,0.032661438,0.11667514,-0.13665494,9.761451,0
9,990.2859,5.2041386E-4,-5.2592263E-4,-1.0301592E-6,-10.970737,23.466053,-28.048893,0.008326337,-0.0027855337,0.027920723,0.10732451,-0.14380988,9.773306,0
9,990.258,-1.4770405E-4,-0.0011935113,-4.0293112E-4,-10.9041605,23.633417,-27.530056,-0.010702707,-0.0032944977,0.032645226,0.1097385,-0.13427737,9.768573,0
9,990.28326,1.1837958E-4,-2.6136788E-4,5.290749E-4,-10.9757395,22.72358,-27.54277,0.0037128255,0.016193584,0.023176193,0.11932224,-0.15096092,9.789882,0
9,990.29315,-1.4816866E-4,-2.6133022E-4,-1.3681455E-4,-10.83288,23.91112,-27.942211,0.0039033815,0.00663808,0.037376404,0.114566505,-0.14619496,9.773313,0
9,990.29877,-4.1471678E-4,-3.944505E-4,-1.3691408E-4,-10.597059,23.710516,-27.966812,-0.0058162436,-0.003333807,0.03263378,0.11220074,-0.14619556,9.766213,0
9,990.258,-2.817912E-4,1.3821905E-4,-4.0332944E-4,-10.440533,23.699049,-27.990261,0.013056524,0.0011507869,0.032629967,0.105055094,-0.14142957,9.773316,0
9,990.258,-2.817912E-4,1.3821905E-4,-4.0332944E-4,-10.440533,23.699049,-27.990261,-0.0016102567,-0.008576453,0.046833992,0.114638865,-0.13189706,9.761483,0
9,990.2916,-1.5940062E-5,0.001203558,1.2910325E-4,-10.851549,24.367651,-27.81208,0.012307234,-0.008543581,0.046833992,0.10749322,-0.13189763,9.780423,0
9,990.2916,-1.5940062E-5,0.001203558,1.2910325E-4,-10.851549,24.367651,-27.81208,0.0030207038,0.005416706,0.05155945,0.11946684,-0.14381465,9.761488,0
9,990.2734,-8.153523E-4,-6.605778E-4,-2.7056987E-4,-10.710978,22.971266,-27.213142,-0.0015927106,-0.009031564,0.018411636,0.10993135,-0.14143196,9.768592,0
9,990.28864,-2.829528E-4,-3.9422407E-4,-4.0382723E-4,-11.123379,23.74431,-27.65673,0.0030086413,-0.0042566955,0.04208374,0.114735246,-0.14143255,9.76386,0
9,990.2789,-1.686929E-5,1.3844534E-4,-4.0392688E-4,-10.788612,23.267794,-27.988373,0.012576699,2.6971102E-4,0.046811104,0.11236948,-0.14143315,9.775698,0
10,990.2734,-5.497334E-4,1.38483E-4,-4.0402636E-4,-10.673449,23.796684,-27.421192,-0.0018237531,0.009769365,0.03260708,0.11000365,-0.14620027,9.770965,0
10,990.25085,-1.7333787E-5,6.711525E-4,6.6113763E-4,-10.421566,23.874659,-27.695522,-0.0068074465,0.014690027,0.056282043,0.11958736,-0.15811726,9.7662325,0
10,990.28656,-1.5072433E-4,-3.9407331E-4,5.2788004E-4,-10.436105,23.597551,-27.523098,-0.011237815,-0.014178842,0.02312851,0.117221594,-0.13905159,9.775704,0
10,990.28394,1.1535942E-4,-6.603515E-4,3.9462242E-4,-10.662794,23.806993,-27.962328,0.003060259,-0.019153059,0.056264877,0.11246592,-0.12951908,9.759135,0
10,990.26874,-6.838208E-4,5.4759294E-6,1.28207E-4,-10.962286,23.737263,-27.912096,0.008234426,0.004472807,0.042051315,0.11487988,-0.13905278,9.773341,0
10,990.2912,-5.50895E-4,-0.0010597499,1.2810747E-4,-10.93821,23.549002,-27.750822,-0.0010034889,-0.014425114,0.027845383,0.11490399,-0.13905334,9.780444,0
10,990.27924,2.4782028E-4,-0.0011928701,-1.3830792E-4,-11.0566635,24.017591,-27.836971,0.013848744,2.1727383E-4,0.032575607,0.105368495,-0.1438205,9.76151,0
10,990.264,0.0010465356,-0.0011928324,2.6106634E-4,-10.858073,23.623705,-27.228651,0.004751876,0.014543146,0.027832985,0.10300273,-0.15812078,9.782817,0
10,990.264,0.0010465356,-0.0011928324,2.6106634E-4,-10.858073,23.623705,-27.228651,-0.0039181113,-0.004206449,0.051495552,0.117366195,-0.14382169,9.75678,0
10,990.26624,5.1343907E-4,-0.0019917046,1.2770909E-4,-10.861958,23.356913,-27.597363,0.019941978,4.4581294E-4,0.042024612,0.11500043,-0.13190591,9.778087,0
10,990.26624,5.1343907E-4,-0.0019917046,1.2770909E-4,-10.384228,22.961594,-27.955786,0.0015166476,-0.009262562,0.037275314,0.12458414,-0.13190648,9.773355,0
10,990.28955,-4.1889865E-4,5.7022116E-6,-5.3818006E-4,-11.136938,23.83697,-27.660065,0.0015525222,-0.009083644,0.046746254,0.117438555,-0.13667363,9.761519,0
10,990.27924,-5.522891E-4,-0.0017253133,0.0010596155,-11.065115,23.746382,-27.973768,0.011993438,-0.004401952,0.06105423,0.11390227,-0.13426223,9.763783,0
10,990.29205,1.1326837E-4,1.389356E-4,1.2741052E-4,-10.695459,23.618132,-27.561321,0.006907113,0.0049254,0.027917862,0.10909957,-0.14141151,9.77325,0
10,990.2848,-1.4275606E-4,-1.272416E-4,-1.4872057E-7,-10.663773,23.437231,-27.786572,0.0023216307,-0.004483506,0.023184776,0.10907677,-0.14141098,9.775615,0
10,990.2848,-1.4275606E-4,-1.272416E-4,-1.4872057E-7,-10.586543,23.614908,-27.808868,-0.003056176,-3.3974648E-6,0.03265953,0.11622363,-0.13902715,9.77798,0
10,990.2819,-2.7569398E-4,2.7219654E-4,-5.4424163E-8,-11.011417,23.74403,-28.05889,0.020577192,0.0047039837,0.05160141,0.11142102,-0.14140984,9.773244,0
10,990.2468,-0.0010744216,9.3795045E-4,-5.325919E-4,-10.860001,24.096437,-27.948875,0.01113946,-3.171116E-4,0.042128563,0.116178006,-0.13902602,9.775609,0
10,990.2568,-4.079717E-4,-0.0010595256,0.0010655863,-10.544884,23.706694,-27.974628,0.03543184,-3.426373E-4,0.027924538,0.09464601,-0.14617527,9.782708,0
10,990.2568,-4.079717E-4,-0.0010595256,0.0010655863,-10.370369,23.501072,-27.527582,0.020888418,0.004191488,0.042128563,0.11613232,-0.14379147,9.777972,0
10,990.2797,-5.4090953E-4,5.383338E-4,6.662068E-4,-11.084763,23.833147,-27.667881,0.01614388,-0.009911343,0.018462181,0.10177004,-0.13425773,9.787438,0
10,990.2797,-5.4090953E-4,5.383338E-4,6.662068E-4,-11.084763,23.833147,-27.667881,0.0019196644,-0.004972726,0.046871185,0.11608666,-0.13425723,9.777967,0
10,990.2548,5.2479404E-4,-5.270012E-4,-7.9834176E-4,-10.455072,23.421947,-27.817837,-0.007209882,1.3485551E-5,0.0421381,0.113673925,-0.1437898,9.7637615,0
10,990.2548,5.2479404E-4,-5.270012E-4,-7.9834176E-4,-10.455072,23.421947,-27.817837,0.01660031,0.009463534,0.032670975,0.09931165,-0.14855579,9.766127,0
10,990.27716,-7.397648E-6,4.050329E-4,4.002682E-4,-10.998538,23.913744,-27.45493,-0.0073170215,-0.018996596,0.023205757,0.12318784,-0.13187227,9.77086,0
11,990.24963,-7.1775066E-6,-7.9342426E-4,8.8871457E-7,-11.08672,23.09362,-27.316368,-0.0019060895,-0.004524961,0.051609993,0.12077513,-0.13187167,9.770858,0
11,990.2446,9.034992E-4,-0.0027800156,-3.398497E-4,-11.192158,23.837843,-27.497637,0.0034522489,5.7797134E-4,0.02320385,0.11358261,-0.14140424,9.770856,0
11,990.2899,3.710875E-4,2.8258128E-4,3.260343E-4,-10.26754,23.491957,-27.46591,0.012928858,0.01949881,0.042142868,0.11355978,-0.15093681,9.763751,0
11,990.2498,1.0499175E-4,1.6229664E-5,5.9244456E-4,-10.649074,24.240557,-26.835045,0.0032211244,-0.009199187,0.032676697,0.11831671,-0.13187,9.773218,0
11,990.24756,-0.0012263677,0.0014809314,5.9907004E-5,-10.549993,24.070566,-27.841162,-0.0021635368,-0.004670441,0.02794838,0.11112416,-0.14378586,9.773216,0
11,990.2601,-5.603578E-4,0.0014808956,-7.3894614E-4,-10.957177,23.373392,-28.045559,0.011638999,1.090765E-4,0.042160034,0.11110136,-0.14378527,9.773214,0
11,990.27075,3.7196782E-4,4.1559633E-4,-7.3062285E-5,-10.50877,23.424295,-27.732716,0.016595893,-0.004672259,0.03742504,0.12063813,-0.13186827,9.770845,0
11,990.25745,2.3903002E-4,-0.0010491767,5.9282174E-4,-10.719971,23.068342,-27.44839,0.017158695,2.2757053E-4,0.023220062,0.10388601,-0.14378414,9.775577,0
11,990.26215,9.050397E-4,-0.0014486862,-7.2873634E-5,-10.626137,23.156305,-27.621964,-0.011137888,-0.004453048,0.032689095,0.11820257,-0.13425049,9.768473,0
11,990.2602,6.3894375E-4,-0.0011824062,5.930104E-4,-11.059164,23.646357,-27.583912,-0.010278717,0.0011151284,0.046895027,0.122959554,-0.13901648,9.761369,0
11,990.23224,6.391641E-4,-0.0010492839,-7.268498E-5,-10.974462,23.72548,-27.293655,0.018091127,-0.013203189,0.037430763,0.115767,-0.13424936,9.777939,0
11,990.2224,-2.927214E-4,6.817336E-4,4.600411E-4,-10.695459,23.618132,-27.561321,0.008183494,0.0056167394,0.03743553,0.11813402,-0.13901535,9.780303,0
11,990.2682,5.064461E-4,1.4906607E-4,-2.0565433E-4,-10.76576,23.710192,-27.32492,0.017412014,0.010641843,0.032661438,0.11381349,-0.14617646,9.770877,0
11,990.2784,-5.626229E-4,2.828418E-4,-4.736012E-4,-11.153244,24.55882,-27.083916,-0.006766312,0.005472034,0.023190498,0.11619961,-0.14379314,9.775611,0
11,990.25287,-2.968339E-4,8.1555906E-4,4.582786E-4,-10.628883,23.785498,-27.042484,-0.016160063,-0.003858745,0.032660484,0.12575543,-0.13425985,9.768508,0
11,990.2576,7.6846615E-4,-0.0013149738,5.882047E-5,-11.061665,23.275118,-27.330849,-0.0011988282,-0.0034544468,0.046863556,0.11858189,-0.13902631,9.761406,0
11,990.26074,5.0218694E-4,-6.4919016E-4,5.8836245E-5,-11.051554,23.653719,-27.970436,0.018132657,0.010936737,0.056329727,0.11140841,-0.13902625,9.75904,0
11,990.2682,5.0222385E-4,-5.1603816E-4,1.920099E-4,-10.560945,23.428114,-27.7249,0.008448884,-0.008240789,0.032658577,0.104234874,-0.13187635,9.780343,0
11,990.2535,-0.0013619142,0.0020139506,4.5835722E-4,-10.894485,23.273966,-27.895435,0.0025418922,6.9507957E-4,0.04686737,0.11857051,-0.13902608,9.775609,0
11,990.2535,-0.0013619142,0.0020139506,4.5835722E-4,-10.894485,23.273966,-27.895435,-0.016691685,0.010110259,0.027929306,0.12812626,-0.15570894,9.773242,0
11,990.2609,-8.2924566E-4,0.0013481552,5.889905E-5,-10.543797,22.970112,-27.777725,-0.0031859279,2.9204786E-4,0.0421381,0.11856291,-0.14140919,9.780343,0
11,990.3141,3.6924894E-4,6.8235357E-4,-3.4054325E-4,-11.105932,23.91844,-27.284687,-0.008519217,0.009842217,0.023209572,0.11377928,-0.14855888,9.775607,0
11,990.3141,3.6924894E-4,6.8235357E-4,-3.4054325E-4,-11.060687,23.644882,-27.506607,0.010608897,-0.009052068,0.03268051,0.108995676,-0.14617556,9.777974,0
11,990.3141,3.6924894E-4,6.8235357E-4,-3.4054325E-4,-11.060687,23.644882,-27.506607,-0.013409734,-0.0042519122,0.018479347,0.12333131,-0.14617544,9.780341,0
12,990.2585,1.03006634E-4,2.828678E-4,-4.7366988E-4,-11.034109,23.827852,-27.598392,6.031245E-4,0.010011539,0.042155266,0.11854768,-0.14617532,9.768505,0
12,990.2585,1.03006634E-4,2.828678E-4,-4.7366988E-4,-10.5875225,23.245146,-27.633112,-0.008923419,0.01001671,0.042154312,0.12571359,-0.15094182,9.77324,0
12,990.2585,-6.959047E-4,8.1549364E-4,9.910832E-4,-11.084518,22.832722,-27.9943,0.010245271,0.019240186,0.04688549,0.11376029,-0.15332499,9.768504,0
12,990.27356,2.3623792E-4,-3.829338E-4,4.584672E-4,-10.476541,22.875105,-27.859516,-0.008468576,-6.7949295E-5,0.03740883,0.11136654,-0.14140853,9.768504,0
12,990.25085,-1.6319935E-4,-2.4978173E-4,3.2532495E-4,-10.629724,23.52165,-27.565804,-0.018140689,-0.019147664,0.02320671,0.12092239,-0.13664189,9.777972,0
12,990.26404,-2.9628383E-4,-2.4979367E-4,3.253564E-4,-10.77269,23.440456,-27.539022,-0.008310057,0.0047552586,0.027939796,0.12330845,-0.1533247,9.780339,0
12,990.26404,-2.9628383E-4,-2.4979367E-4,3.253564E-4,-10.77269,23.440456,-27.539022,0.0059611127,7.927418E-6,0.061081886,0.12091476,-0.13902494,9.77087,0
12,990.2389,2.3638437E-4,-5.1611545E-4,-7.410176E-5,-10.820843,23.816986,-27.861572,0.010908239,0.0094310045,0.04214096,0.11374122,-0.14140812,9.773237,0
12,990.2763,-6.956847E-4,1.6510283E-5,-3.4040186E-4,-10.495752,23.699926,-27.827833,0.001560986,0.009235218,0.03266716,0.113737434,-0.13902476,9.770869,0
12,990.26154,6.359683E-4,2.8281426E-4,1.9226133E-4,-10.856115,24.36323,-27.580162,0.011246145,5.979836E-5,0.061077118,0.1161235,-0.14140794,9.763768,0
12,990.25903,1.0337311E-4,-2.4982347E-4,8.580667E-4,-10.66323,23.068941,-27.688122,-0.0030872002,-0.009482041,0.03267193,0.113729835,-0.13902459,9.773235,0
12,990.2565,-8.286956E-4,-2.498294E-4,5.9176655E-4,-10.496188,22.96187,-27.553627,0.0065060183,-0.004831791,0.018465996,0.11133617,-0.14140776,9.775603,0
12,990.26666,5.0292036E-4,1.648051E-5,1.9230848E-4,-10.625158,23.52607,-27.797718,0.0065946057,-0.019162431,0.037402153,0.1212247,-0.12949947,9.763797,0
12,990.26917,2.3425979E-4,1.5001907E-4,-2.081703E-4,-10.867609,24.089071,-27.56235,0.010299273,0.0046568513,0.032610893,0.10962415,-0.14857426,9.778031,0
12,990.2542,-4.3563938E-4,5.5016E-4,5.8901624E-4,-10.784727,23.534586,-27.61966,-0.01346688,1.2052059E-4,0.013672829,0.11920664,-0.14142495,9.782769,0
12,990.25653,6.2229554E-4,8.170842E-6,1.3014994E-4,-11.215691,23.65782,-27.560463,-0.0040028244,0.005117193,0.0326128,0.13117898,-0.14857534,9.780404,0
12,990.23944,-4.3714404E-5,-6.575831E-4,1.3005556E-4,-10.542818,23.339874,-27.953484,0.010400325,0.0050024837,0.032608032,0.1120826,-0.1390428,9.780406,0
12,990.2567,4.886972E-4,5.408741E-4,-3.1966774E-6,-11.073268,24.107306,-27.685694,0.010767065,-0.0046699643,0.032600403,0.11449534,-0.1366601,9.770938,0
12,990.24677,-3.1047058E-4,-0.0013233013,1.2986685E-4,-10.6090975,23.804647,-28.04745,-0.008393928,0.0047915727,0.008923531,0.11690807,-0.15096033,9.778043,0
12,990.24396,-1.7753289E-4,6.741035E-4,-2.6970138E-4,-10.704996,24.083502,-27.89502,8.273423E-4,0.0048577785,0.04206562,0.12649053,-0.1485776,9.761475,0
12,990.26184,2.217208E-4,4.0782342E-4,7.954678E-4,-10.737118,23.526346,-27.395561,-0.0041144267,3.1615794E-4,0.046804428,0.11456388,-0.1461949,9.773313,0
12,990.22644,3.5465846E-4,6.7417504E-4,1.2958379E-4,-10.978347,23.458689,-27.662369,-0.0042773187,-0.013828769,0.027867317,0.109806925,-0.12712917,9.7780485,0
12,990.24426,4.8759638E-4,-1.247369E-4,3.9580528E-4,-10.507247,23.425768,-27.81002,0.005014986,4.3275952E-4,0.032603264,0.11221969,-0.14381269,9.770949,0
12,990.2316,-4.5255627E-5,5.410885E-4,2.6255302E-4,-11.152157,23.822239,-26.887012,-0.004596524,0.0146009475,0.032600403,0.1146324,-0.14142999,9.770951,0
12,990.2343,-8.4442354E-4,0.0024053357,3.9561652E-4,-10.839404,23.167173,-27.358784,0.0033656359,-1.00925565E-4,0.008937836,0.11226535,-0.14858043,9.78279,0
13,990.2677,-5.783278E-4,0.0020058975,-5.3658336E-4,-11.02718,24.097591,-27.384289,-0.006736867,0.018637717,0.05628109,0.1194579,-0.15334752,9.763854,0
13,990.2674,0.0023509266,-0.0033203843,-0.0012024675,-10.7407055,23.891695,-27.339401,0.03213676,0.0047710687,0.04681015,0.09797162,-0.14381495,9.792262,0
13,990.2142,-0.0012445578,0.0018728111,-5.367721E-4,-10.496731,23.330162,-27.652077,-0.006066717,-0.0046607554,0.027870178,0.11711371,-0.13666567,9.773327,0
13,990.257,-4.635645E-5,5.4126733E-4,7.947129E-4,-11.234795,23.376297,-27.156124,-0.010904327,-0.01880996,0.027870178,0.11474663,-0.13189968,9.778064,0
13,990.2552,-1.7973476E-4,8.671253E-6,-4.3290784E-6,-10.45355,23.42342,-27.895142,0.0032080784,-0.00937438,0.018400192,0.11237955,-0.14143339,9.7828,0
13,990.2552,-1.7973476E-4,8.671253E-6,-4.3290784E-6,-10.985819,23.557238,-27.97492,-0.0059956014,-0.008919165,0.04207325,0.1195721,-0.13428405,9.775701,0
13,990.2473,2.1929866E-4,2.750587E-4,-1.3767582E-4,-11.012939,23.742558,-27.981585,-0.0054682717,-0.013326108,0.037334442,0.11242527,-0.13428465,9.7686,0
13,990.25757,0.0011511841,-0.0017222747,3.9486165E-4,-10.552357,23.805246,-28.28718,-8.7976456E-5,9.202659E-4,0.03258896,0.114838004,-0.14620158,9.773337,0
13,990.21936,-4.7457506E-5,-0.0015890811,-4.706555E-6,-10.73796,23.262503,-27.918884,4.580617E-4,-0.0034366995,0.04205513,0.124420464,-0.1390523,9.768605,0
13,990.2449,4.8473384E-4,-5.23746E-4,-2.7121117E-4,-10.81337,23.718433,-27.549019,-0.0041210204,-0.0032388866,0.042053223,0.11966351,-0.1390529,9.775708,0
13,990.2449,4.8473384E-4,-5.23746E-4,-2.7121117E-4,-10.8494835,24.000834,-27.790932,-0.008846089,0.0016195327,0.027849197,0.12207627,-0.12952039,9.770976,0
13,990.2423,8.5039894E-5,-1.2423642E-4,-2.713056E-4,-10.591949,23.346643,-28.100275,-0.008926243,-0.007679075,0.027851105,0.107759655,-0.14143726,9.768611,0
13,990.2423,8.5039894E-5,-1.2423642E-4,-2.713056E-4,-10.591949,23.346643,-28.100275,-0.014808379,0.0059332997,0.04204178,0.1174694,-0.15097407,9.768625,0
13,990.2499,6.1745127E-4,8.957286E-6,-2.714E-4,-10.59263,23.609018,-27.499647,-0.011543311,-0.0046866387,0.027838707,0.10793769,-0.14144167,9.768628,0
13,990.25507,-0.003376113,0.0054657767,-2.7431882E-4,-11.106476,24.286734,-27.383137,-0.016218826,9.23872E-4,0.02784729,0.11991513,-0.14620894,9.770997,0
13,990.2427,6.17789E-4,6.722264E-4,-6.741511E-4,-10.618526,23.163671,-28.00849,-0.0073487014,0.005449608,0.023112297,0.10799354,-0.1485928,9.775735,0
13,990.26025,-4.826972E-5,5.3911214E-4,1.2468133E-4,-10.891441,23.276913,-28.050045,-0.012010157,-0.003806144,0.02784729,0.122360885,-0.13429382,9.763901,0
13,990.2427,6.172508E-4,-2.5979188E-4,3.908819E-4,-11.000901,23.648426,-27.900948,-0.0024359077,-0.008662224,0.056248665,0.11282918,-0.13429454,9.768638,0
13,990.2325,-3.1512344E-4,-1.2659022E-4,-4.0818102E-4,-10.874975,23.081282,-27.502243,0.002050452,0.014718279,0.027837753,0.12480658,-0.15097824,9.780477,0
13,990.22284,-9.811822E-4,8.05559E-4,3.9065134E-4,-10.28042,23.32224,-28.06987,-0.012342535,0.005251944,0.023100853,0.12961423,-0.14382899,9.782846,0
13,990.2325,2.1697013E-4,2.7297088E-4,3.9053606E-4,-10.6200485,23.162199,-27.931185,0.0066892803,0.015021086,0.05151081,0.11530274,-0.15097955,9.763911,0
13,990.2325,2.1697013E-4,2.7297088E-4,3.9053606E-4,-10.6200485,23.162199,-27.931185,-0.0027097464,-0.0037544966,0.04203987,0.12250039,-0.13191399,9.766281,0
13,990.23755,0.0012816958,-1.264156E-4,7.8977935E-4,-10.621273,23.792864,-27.429008,-0.0026459768,-0.008114725,0.032574654,0.11296868,-0.13906458,9.766283,0
13,990.2654,4.8247926E-4,4.0625985E-4,-4.0875745E-4,-10.7666025,23.446348,-27.848244,0.020997748,-0.0029736906,0.04678154,0.10821682,-0.13906524,9.766286,0
13,990.2758,8.27364E-5,4.063035E-4,1.2375915E-4,-10.923128,23.457811,-27.824795,-0.0035469383,0.0020943582,0.042057037,0.122584105,-0.13906589,9.775758,0
14,990.258,8.8141486E-4,0.0014716107,9.225914E-4,-10.918401,23.988451,-26.93276,-0.003952414,0.002231434,0.046795845,0.12500197,-0.14859971,9.773393,0
14,990.25037,7.47988E-4,9.3902263E-4,5.2300235E-4,-10.718449,23.069817,-27.525692,0.005665876,-0.007299483,0.04679203,0.11547026,-0.13191745,9.7639265,0
14,990.2534,-3.175444E-4,-1.261972E-4,-5.4237654E-4,-11.263437,23.560143,-27.085484,-0.008597888,0.0070319623,0.032586098,0.115498126,-0.14383456,9.768662,0
14,990.256,0.0015463978,-0.0011914171,-9.859999E-6,-11.096939,23.821363,-27.04944,-0.022916175,-0.0023129433,0.037319183,0.122695714,-0.14145187,9.7734,0
14,990.26355,-0.0011170302,0.0024038912,1.2318272E-4,-10.96881,22.993319,-27.328669,4.0667504E-4,-0.016502634,0.032590866,0.115553945,-0.14383587,9.782872,0
14,990.24316,-1.851937E-4,1.4024964E-4,-4.0956438E-4,-10.565511,23.423697,-27.492983,-0.013515502,-0.002482608,0.01837349,0.11797178,-0.13668674,9.780507,0
14,990.22314,8.085361E-5,-0.0013244441,3.8926798E-4,-10.962423,23.631348,-27.213018,-0.009282663,0.0068144947,0.05624962,0.115609765,-0.14860386,9.759205,0
14,990.24835,-4.520473E-4,0.0013387584,-1.03211205E-5,-10.9865,23.819613,-27.374292,-0.014092699,-0.00734514,0.027843475,0.1180276,-0.13192153,9.778145,0
14,990.22797,2.1347337E-4,1.4038064E-4,6.5535336E-4,-11.268003,23.555723,-26.853567,-0.023893699,0.002231434,0.03257847,0.12283528,-0.14383861,9.771046,0
14,990.2382,3.4636215E-4,0.0012056879,2.557642E-4,-10.897231,23.903158,-27.315952,-0.004567921,0.016714081,0.018370628,0.1133036,-0.13907278,9.78762,0
14,990.25085,3.4609335E-4,-0.0011911116,1.2249098E-4,-10.529802,23.615507,-28.0486,0.004963115,0.002528295,0.032575607,0.11811131,-0.14384004,9.7805195,0
14,990.25085,2.1266649E-4,7.353694E-6,1.2237573E-4,-10.602604,23.336332,-27.55914,-0.0038976893,0.007339731,0.046844482,0.112982094,-0.14144814,9.759183,0
14,990.25604,3.4645983E-4,1.4040852E-4,-4.0998365E-4,-10.823343,23.445751,-27.608513,0.009961024,0.0074734837,0.03738308,0.1126098,-0.14858887,9.778087,0
14,990.2484,-4.462348E-4,-7.927122E-4,6.579597E-4,-10.534506,23.50517,-27.117607,0.010301024,-0.006983623,0.037377357,0.117387116,-0.13428912,9.773353,0
14,990.24097,5.6557823E-4,2.5451375E-4,-1.7459385E-4,-10.747635,23.621954,-27.553505,-0.008937731,0.012284741,0.042116165,0.11021486,-0.14382216,9.76625,0
14,990.24097,5.6557823E-4,2.5451375E-4,-1.7459385E-4,-10.747635,23.621954,-27.553505,4.9272925E-4,-0.0020834506,0.03738308,0.122161806,-0.134289,9.778087,0
14,990.23364,4.3246927E-4,-1.4496804E-4,-3.0773078E-4,-10.721058,23.804924,-27.64529,6.8903714E-4,0.012326986,0.046850204,0.11259973,-0.14858863,9.768617,0
14,990.23364,4.3246927E-4,-1.4496804E-4,-3.0773078E-4,-10.721058,23.804924,-27.64529,-0.0042082146,-0.0022025555,0.051582336,0.10064763,-0.13428888,9.754414,0
14,990.23364,4.3246927E-4,-1.4496804E-4,-3.0773078E-4,-11.120036,24.379393,-27.38647,-0.004272923,-0.0070275813,0.02791214,0.112594604,-0.13190553,9.773351,0
14,990.23364,-1.0011348E-4,3.8765586E-4,-1.7455188E-4,-10.421022,23.506365,-27.597069,-0.004218027,-0.0023535043,0.032645226,0.107812285,-0.12952217,9.768617,0
14,990.23364,-1.0011348E-4,3.8765586E-4,-1.7455188E-4,-10.421022,23.506365,-27.597069,0.009698369,-0.0070173293,0.04685402,0.1101996,-0.1319054,9.76625,0
14,990.23083,-3.6640515E-4,-2.7813792E-4,-7.0717325E-4,-10.98552,24.189377,-27.550049,0.0096932575,0.011886433,0.023180008,0.103027344,-0.1414384,9.775718,0
14,990.2384,2.9940935E-4,9.2027965E-4,2.249429E-4,-10.817392,23.345724,-27.218655,0.009752385,-0.0023760349,0.023180962,0.09107533,-0.14620498,9.778085,0
14,990.2337,-2.3317375E-4,1.21324076E-4,6.2443764E-4,-10.8013315,23.624302,-27.468384,1.0905415E-4,-0.00259386,0.018444061,0.117361724,-0.13905501,9.785186,0
15,990.2337,-2.3317375E-4,1.21324076E-4,6.2443764E-4,-10.8013315,23.624302,-27.468384,-0.004521206,-0.0026079863,0.02791214,0.11496931,-0.14143828,9.787553,0
15,990.2288,-3.6630713E-4,-1.449958E-4,2.249743E-4,-10.438467,23.332232,-27.969114,0.028443366,0.0111234635,0.04684639,0.10301724,-0.14620474,9.759147,0
15,990.2417,1.6637353E-4,0.0014528916,-5.7395233E-4,-10.880925,23.181305,-27.892101,0.009240553,0.0017930716,0.037382126,0.11257428,-0.1390549,9.770982,0
15,990.2417,1.6637353E-4,0.0014528916,-5.7395233E-4,-10.880925,23.181305,-27.892101,-0.009980589,-0.0031980574,0.0042390823,0.11018187,-0.14143804,9.787553,0
15,990.2314,3.324004E-5,-5.4448145E-4,-3.07626E-4,-10.954814,23.638712,-27.599543,-0.009930335,-0.007844612,0.037381172,0.11256924,-0.13667145,9.768615,0
15,990.21375,-7.6568313E-4,3.8762006E-4,7.57648E-4,-10.85685,22.99304,-27.730827,-0.0049904063,0.0110375285,0.06104946,0.11973643,-0.15097106,9.766247,0
15,990.254,-2.3302683E-4,-5.4448936E-4,-7.0707884E-4,-11.07827,23.364832,-27.179573,0.004903838,0.0061593056,0.042107582,0.1197339,-0.14382115,9.773347,0
15,990.2492,-9.984456E-5,-8.1080943E-4,-5.739104E-4,-11.20213,23.56516,-27.557129,-3.862083E-4,-0.0033347905,0.023176193,0.110171705,-0.13905454,9.778083,0
15,990.2418,8.323102E-4,-1.4502753E-4,2.250582E-4,-11.038538,23.92935,-28.065554,0.014220998,0.0013014823,0.04684353,0.117338896,-0.14143777,9.773348,0
15,990.2418,8.323102E-4,-1.4502753E-4,2.250582E-4,-11.038538,23.92935,-28.065554,0.004465051,0.015851796,0.023177147,0.10060704,-0.15812066,9.785184,0
15,990.2645,2.9972717E-4,-1.4503548E-4,3.582371E-4,-10.901116,23.636364,-27.684666,-0.009593338,0.0013844669,0.023172379,0.1077742,-0.13905436,9.768613,0
15,990.2495,1.6659367E-4,-2.7819746E-4,-4.4070007E-4,-10.53839,23.238379,-27.486319,0.009424917,0.005901009,0.037373543,0.10060197,-0.14382085,9.768613,0
15,990.2418,-9.969788E-5,5.207463E-4,9.194217E-5,-10.709562,24.07908,-27.663105,-5.9441477E-4,0.0058425516,0.046824455,0.10799056,-0.1485928,9.76153,0
15,990.2393,-7.665275E-4,-1.1716678E-5,-7.0745125E-4,-11.0166645,24.001986,-27.226349,0.013952881,0.005652562,0.05155182,0.11038682,-0.13905981,9.768634,0
15,990.2398,-2.3500019E-4,-4.1101116E-4,-4.4160863E-4,-10.804237,23.72727,-28.01285,0.008780174,9.4623864E-4,0.013682365,0.10800326,-0.14144328,9.787571,0
15,990.2474,1.6441252E-4,9.205781E-4,-4.4163482E-4,-10.443034,23.327814,-27.737198,0.018262044,0.015340164,0.037355423,0.110399574,-0.1485933,9.775736,0
15,990.2393,3.1193227E-5,2.547984E-4,-1.7534525E-4,-10.5859995,23.246618,-27.710419,0.008508034,8.8372827E-4,0.05155754,0.1032362,-0.14621013,9.761534,0
15,990.24005,1.6428981E-4,3.879663E-4,3.572602E-4,-10.748613,23.25219,-27.377748,0.02260217,0.005456984,0.02788639,0.09129304,-0.14621025,9.768636,0
15,990.2655,-5.01561E-4,7.8745E-4,-9.7434537E-4,-11.274252,23.023611,-27.668297,0.0031639934,-0.004013106,0.018419266,0.103248894,-0.14144388,9.773372,0
15,990.207,3.100964E-5,-1.4464563E-4,3.572078E-4,-11.140823,23.570175,-28.028776,0.017465763,0.01980485,0.042092323,0.0984754,-0.15336046,9.775739,0
15,990.2477,-2.3536725E-4,3.8799603E-4,4.903396E-4,-10.901116,23.636364,-27.684666,-0.006432101,-0.004017934,0.037356377,0.110431254,-0.1342943,9.768638,0
15,990.2604,4.3036122E-4,-2.7778366E-4,-4.4179222E-4,-10.943617,23.280733,-28.042229,0.007912867,-0.0041869134,0.051555634,0.10326785,-0.13667777,9.771006,0
15,990.2502,-5.0180533E-4,-4.109317E-4,9.081344E-5,-10.55195,23.331038,-27.48965,0.0033649653,-0.00436455,0.018410683,0.09132472,-0.13429466,9.766271,0
15,990.2249,2.9708116E-4,-6.7723764E-4,-4.2370782E-5,-11.442518,23.761347,-27.300613,-0.025135085,0.0055038035,0.0373497,0.12956947,-0.1462112,9.778108,0
15,990.258,-2.3561172E-4,1.2171986E-4,9.076108E-5,-11.031065,23.830797,-27.753002,0.008066125,-0.008563578,0.023151398,0.110456616,-0.13667825,9.775742,0
16,990.2605,-3.6883066E-4,2.5488768E-4,-1.7558111E-4,-10.561786,23.16427,-28.24822,-0.011043176,-0.009301901,0.018405914,0.11524275,-0.14382827,9.77811,0
16,990.28076,-5.020498E-4,-1.1418248E-5,-4.4192307E-4,-10.369688,23.238697,-28.128208,0.012696981,-0.0043625683,0.046816826,0.105689466,-0.12714544,9.76864,0
16,990.24316,-5.021719E-4,1.2175954E-4,-9.746072E-4,-10.7494545,22.988342,-27.90107,0.0029481128,-0.0043709576,0.046818733,0.11764532,-0.13429543,9.7686405,0
16,990.24316,-5.021719E-4,1.2175954E-4,-9.746072E-4,-10.7494545,22.988342,-27.90107,0.0028748587,-0.018939108,0.018407822,0.112871885,-0.13191238,9.773376,0
16,990.2409,-9.129506E-4,-2.5549982E-4,3.4611017E-4,-10.512112,22.789211,-28.002975,0.012687787,0.0049106777,0.046812057,0.10570851,-0.14621216,9.771009,0
16,990.2409,-9.129506E-4,-2.5549982E-4,3.4611017E-4,-10.61312,23.431938,-27.717083,-0.0064821467,-0.0046991855,0.061014175,0.120054245,-0.14144579,9.775744,0
16,990.2358,2.8534865E-4,-1.2232203E-4,-5.3416006E-5,-10.990385,23.552818,-27.743004,0.0081662685,0.009518608,0.051538467,0.105721176,-0.14621243,9.763909,0
16,990.23834,-1.1418617E-4,-3.8862802E-4,-7.192319E-4,-10.624615,23.15778,-27.699268,0.008393727,0.0049438924,0.042069435,0.10811743,-0.14144608,9.771011,0
16,990.23834,4.1838447E-4,-5.2177603E-4,-4.5294221E-4,-11.084763,23.833147,-27.667881,0.02271422,-0.009401649,0.03733349,0.09856415,-0.12714651,9.782847,0
16,990.2411,-2.4746635E-4,-2.5545023E-4,-5.3494587E-5,-11.305502,23.942564,-27.717253,-0.0063535944,2.373904E-4,0.032606125,0.110520035,-0.14144635,9.771012,0
16,990.2411,-2.4746635E-4,-2.5545023E-4,-5.3494587E-5,-11.305502,23.942564,-27.717253,0.012472823,-0.00934726,0.065748215,0.10574663,-0.13906327,9.761544,0
16,990.2181,1.872683E-5,2.772014E-4,7.9610734E-5,-10.805759,23.725798,-27.935545,0.007873222,4.7123432E-4,0.051546097,0.10814285,-0.14144665,9.761544,0
16,990.2587,5.5129745E-4,-1.2226237E-4,-8.525209E-4,-10.931143,23.924654,-28.235796,0.012492299,-0.00477989,0.05146885,0.108823836,-0.14146337,9.766341,0
16,990.25885,-9.176821E-4,-9.233531E-4,2.0890994E-4,-11.450426,23.121843,-27.338959,0.007149942,0.014276579,0.051472664,0.11363661,-0.13908097,9.766345,0
16,990.234,-3.861567E-4,9.4103784E-4,-5.905119E-4,-10.830273,23.176012,-27.822613,0.006847903,0.019095317,0.05147457,0.10649988,-0.15814802,9.775817,0
16,990.234,-3.861567E-4,9.4103784E-4,-5.905119E-4,-10.830273,23.176012,-27.822613,0.006561689,-3.8295984E-5,0.06567764,0.104142934,-0.12954944,9.759249,0
16,990.239,1.4615749E-4,9.410894E-4,4.7461543E-4,-10.4150715,23.40634,-27.207212,0.01126872,0.004969761,0.042006493,0.104175925,-0.14861646,9.768722,0
16,990.2264,2.7867957E-4,-9.230185E-4,-7.2407833E-4,-10.476242,23.50724,-27.434643,0.00642737,2.3521483E-4,0.04673767,0.1089887,-0.14146742,9.778192,0
16,990.25885,-2.5426978E-4,1.4229657E-4,-5.8424834E-5,-10.800789,23.256014,-27.369932,-0.008012839,-0.0044655353,0.05147171,0.12097114,-0.13908496,9.761625,0
16,990.24164,2.780443E-4,6.7497994E-4,4.740707E-4,-10.728965,23.165422,-27.683636,0.005992204,0.010017008,0.046740532,0.10666472,-0.1510022,9.768729,0
16,990.239,-6.543794E-4,9.241805E-6,-1.9185519E-4,-10.927151,23.085102,-27.494427,0.0110773,-0.014222652,0.046728134,0.1043078,-0.12717015,9.768733,0
16,990.24164,-1.2206516E-4,2.756092E-4,-1.9199139E-4,-10.781928,24.537962,-27.44785,0.0060816035,-0.004686713,0.027789116,0.10434076,-0.13432083,9.775838,0
16,990.262,1.4393314E-4,5.4197665E-4,2.0734625E-4,-10.656845,23.706972,-27.572468,-0.013316967,-2.6276708E-4,0.027784348,0.10915357,-0.13432166,9.771106,0
16,990.23145,-9.2164834E-4,1.425545E-4,7.4052135E-5,-10.63331,23.886993,-27.509644,0.019765027,0.004535705,0.051455498,0.09723699,-0.14385554,9.761641,0
17,990.262,-1.230186E-4,1.426061E-4,-4.587159E-4,-11.131829,23.473097,-27.79353,0.0148177,-1.9058585E-5,0.041989326,0.10921949,-0.14623967,9.780581,0
17,990.262,2.7613764E-4,6.752895E-4,3.4009563E-4,-10.800651,23.361929,-28.06901,0.01948917,-2.5819242E-4,0.037249565,0.10447264,-0.1343241,9.773482,0
17,990.2368,4.08978E-4,4.0902515E-4,0.0011389072,-10.946118,22.909498,-27.789165,0.009468392,-0.009722769,0.041986465,0.097335905,-0.13909143,9.764016,0
17,990.2446,-3.9028793E-4,9.417085E-4,7.3929713E-4,-10.720812,22.804499,-27.97171,-0.014680222,-0.009817049,0.03725052,0.1164881,-0.1271759,9.76402,0
17,990.237,-2.5744745E-4,-2.5666138E-4,7.337122E-5,-11.091692,23.563408,-27.88198,-0.004877351,-0.009471938,0.051452637,0.10935134,-0.13670975,9.759288,0
17,990.28033,-2.577649E-4,-2.5660975E-4,0.0011384985,-10.681219,23.263102,-28.158615,-0.0048068017,-0.004693523,0.05618286,0.12133381,-0.13909385,9.766393,0
17,990.2855,2.745488E-4,-2.565582E-4,7.309887E-5,-11.042017,23.188349,-27.636738,0.014078826,-0.004891485,0.046710014,0.102247566,-0.14147797,9.761662,0
17,990.2548,-1.2524283E-4,2.761251E-4,-6.0195278E-5,-11.215691,23.65782,-27.560461,0.019247144,0.009315327,0.03249836,0.09511083,-0.13432893,9.7735,0
17,990.2549,7.5976423E-6,-0.0010554027,4.7230034E-4,-11.031065,23.8308,-27.753002,-0.02356875,-0.009734362,0.023023605,0.12143269,-0.136713,9.778238,0
17,990.24713,7.279712E-6,-9.221932E-4,4.7216416E-4,-10.845354,23.267199,-27.74864,-0.009244911,-3.0647218E-4,0.05615902,0.12385559,-0.13671383,9.768772,0
17,990.27014,-6.5882795E-4,5.4259575E-4,-6.060378E-5,-10.953292,23.640184,-27.67685,-0.023465417,0.0047110766,0.013548851,0.109549165,-0.14386445,9.78061,0
17,990.27014,-6.5882795E-4,5.4259575E-4,-6.060378E-5,-10.577005,23.14954,-27.47517,-0.004329905,-0.014088213,0.027750969,0.109582126,-0.13194886,9.77588,0
17,990.24506,5.3895847E-4,-1.2309081E-4,-6.0876133E-5,-10.817255,23.451641,-27.917732,0.01489187,5.7920814E-5,0.04199314,0.10222381,-0.13909408,9.773496,0
17,990.24506,5.3895847E-4,-1.2309081E-4,-6.0876133E-5,-10.817255,23.451641,-27.917732,-0.008881316,6.106496E-5,0.027787209,0.109191716,-0.14385566,9.77111,0
17,990.23285,2.7635208E-4,-2.5685097E-4,-7.25076E-4,-11.043945,23.661085,-28.356956,-0.008963935,0.0051328987,0.032525063,0.11398667,-0.14147279,9.78058,0
17,990.2403,9.742595E-6,1.4267051E-4,-5.9412094E-5,-10.424364,22.871283,-27.86733,-0.009022355,4.194528E-4,0.02305603,0.11161202,-0.1319401,9.768745,0
17,990.2403,9.742595E-6,1.4267051E-4,-5.9412094E-5,-10.424364,22.871283,-27.86733,0.033994667,0.01467596,0.041992188,0.08055854,-0.14624009,9.773481,0
17,990.24536,9.595911E-6,-1.2362149E-4,-5.9475016E-5,-10.591949,23.346643,-28.100275,-0.009546883,2.900511E-4,0.023057938,0.106862724,-0.13909066,9.771115,0
17,990.202,2.9842602E-4,8.800191E-4,5.594087E-4,-10.893644,23.537813,-27.372112,-1.2850761E-4,5.208254E-4,0.03252983,0.10209811,-0.14385757,9.764014,0
17,990.2556,3.1963347E-5,4.805691E-4,-1.06444E-4,-10.671246,23.535784,-28.099123,0.014353022,-0.0043961555,0.03725815,0.102113366,-0.13670808,9.77822,0
17,990.2403,-5.008151E-4,-9.841444E-4,-6.391386E-4,-10.496731,23.330162,-27.652077,-0.008858591,2.516806E-4,0.03251362,0.10690838,-0.13909176,9.764018,0
17,990.21747,-2.3464614E-4,-0.0015167524,-2.3972773E-4,-10.851848,23.735514,-28.236948,4.4014305E-4,0.0049467683,0.027778625,0.10931355,-0.146242,9.771121,0
17,990.2531,-1.0163499E-4,6.1379856E-4,2.6525231E-5,-11.013781,23.478712,-28.504906,0.009966321,-0.0046155006,0.04197979,0.111718655,-0.13909248,9.768756,0
17,990.2531,-1.0163499E-4,6.1379856E-4,2.6525231E-5,-11.013781,23.478712,-28.504906,-0.009231642,4.8458576E-5,0.018306732,0.111733854,-0.14147612,9.764022,0
17,990.2302,-1.0178179E-4,8.1190614E-5,-1.06695574E-4,-11.129328,23.844334,-28.046589,-0.004607357,-0.014521405,0.032506943,0.11891878,-0.13670996,9.778227,0
18,990.2506,-9.0087624E-4,-5.1943476E-5,8.2534703E-4,-10.916496,23.095413,-28.035564,0.009909019,0.004421532,0.05143833,0.106984556,-0.14862674,9.766392,0
18,990.24567,1.6409368E-4,-4.5136965E-4,6.9206324E-4,-10.916199,23.727552,-27.610691,0.014824063,-5.20885E-4,0.04669857,0.10460988,-0.13671067,9.759292,0
18,990.24567,1.6409368E-4,-4.5136965E-4,6.9206324E-4,-10.916199,23.727552,-27.610691,-0.0092858225,0.0044355392,0.027765274,0.10940492,-0.14386097,9.775864,0
18,990.2258,-1.0251591E-4,4.807836E-4,-7.7279995E-4,-10.895029,23.642254,-27.993885,-0.013991572,-0.01447165,0.03249836,0.11419994,-0.13432819,9.771131,0
18,990.23096,-3.6897848E-4,-5.844561E-4,-1.07073225E-4,-10.744591,23.624899,-27.708115,4.971847E-4,-0.009614468,0.023028374,0.12138486,-0.14624494,9.782968,0
18,990.2735,1.6350648E-4,8.135745E-5,2.923378E-4,-11.10968,23.757565,-28.352474,-0.018745571,-0.01406315,0.018296242,0.12140012,-0.1343289,9.773501,0
18,990.24316,0.0012286232,4.808551E-4,2.9227487E-4,-11.152861,23.664307,-28.109413,-0.009276457,-8.945167E-5,0.041963577,0.111855745,-0.14386246,9.7664,0
18,990.24316,0.0012286232,4.808551E-4,2.9227487E-4,-11.152861,23.664307,-28.109413,-0.009276457,-8.945167E-5,0.041963577,0.10948104,-0.14624605,9.77587,0
18,990.23816,-7.688927E-4,2.1456307E-4,6.9168577E-4,-11.165037,23.652525,-27.490974,-0.018826008,-1.16571784E-4,0.027758598,0.12622559,-0.14386317,9.773504,0
18,990.24115,-5.028704E-4,2.1461074E-4,-5.068615E-4,-11.010033,23.63959,-27.437117,-0.018557854,0.01812981,0.027741432,0.13102067,-0.14863011,9.77824,0
18,990.2233,4.2908837E-4,2.1463452E-4,-2.4060858E-4,-10.912068,22.993916,-27.568401,4.054755E-4,0.0040888935,0.03721428,0.11669645,-0.13671407,9.782976,0
18,990.2233,8.284154E-4,7.4729015E-4,2.919603E-4,-11.052236,23.916092,-27.369808,3.188476E-4,0.009387359,0.051424026,0.1143218,-0.15101412,9.766408,0
18,990.23627,0.0012277424,-5.1633768E-5,1.5873942E-4,-11.088243,23.092148,-27.239063,-0.008623369,-4.7126412E-4,0.023059845,0.10662496,-0.1486179,9.775828,0
18,990.24365,-0.0011653558,-4.517154E-4,2.7186383E-5,-10.7119255,23.813763,-28.10912,-0.0036359504,-0.014646754,0.041998863,0.12095803,-0.1295515,9.759257,0
18,990.2513,4.3387164E-4,-3.187737E-4,-1.05400686E-4,-10.86693,23.8267,-28.162975,0.0012254193,0.0044416785,0.03252983,0.11139208,-0.1486176,9.7805605,0
18,990.2641,-3.650149E-4,-4.519416E-4,2.7783448E-5,-11.14539,23.56576,-27.796862,0.010685593,-0.009951726,0.046733856,0.108995855,-0.13431779,9.7687235,0
18,990.2237,7.0030964E-4,6.1331206E-4,8.267573E-4,-11.510074,23.224215,-27.643696,-0.013339326,-0.005202666,0.041999817,0.11854905,-0.1367009,9.763989,0
18,990.2515,-9.8576296E-5,4.8014402E-4,5.6046783E-4,-11.243651,23.57929,-28.090446,-0.003679186,-5.1777065E-4,0.01832676,0.11137301,-0.13908401,9.7805605,0
18,990.2515,-6.3114695E-4,3.4697622E-4,5.60494E-4,-10.923127,23.457811,-27.824795,-0.0038723648,0.0042331666,0.01832962,0.10658687,-0.14623374,9.790028,0
18,990.2515,-6.3114695E-4,3.4697622E-4,5.60494E-4,-10.66141,23.702553,-27.340553,7.623136E-4,-0.0052039027,0.042004585,0.11614013,-0.13908371,9.773457,0
18,990.2415,7.005546E-4,-5.8514916E-4,1.6107259E-4,-10.971417,23.728426,-27.448265,0.019891545,-0.0050720274,0.042007446,0.10418427,-0.13431695,9.768722,0
18,990.25635,-9.8331824E-5,4.8010438E-4,2.7940783E-5,-11.114384,23.64723,-27.421484,7.196143E-4,-0.014470786,0.03254223,0.10895774,-0.1319336,9.775822,0
18,990.24445,8.3383475E-4,-1.8569521E-4,1.6112498E-4,-10.718992,23.438108,-27.624144,0.0053793713,0.004874274,0.06568813,0.11851102,-0.14384982,9.756885,0
18,990.24146,3.012641E-4,6.132425E-4,2.94309E-4,-10.824865,23.444277,-27.531206,7.4442476E-4,-0.0045799613,0.027813911,0.11133495,-0.12954998,9.782924,0
18,990.25964,3.5009354E-5,-3.18873E-4,-1.0513852E-4,-11.068296,23.637518,-27.12008,-0.004009612,0.009993389,0.02781868,0.108938694,-0.14146623,9.766353,0
19,990.25964,3.5009354E-5,-3.18873E-4,-1.0513852E-4,-11.068296,23.637518,-27.12008,0.015225902,-0.00415729,0.046757698,0.10654247,-0.14146605,9.773454,0
19,990.24207,7.0086005E-4,-5.2567055E-5,-1.0511244E-4,-10.8257065,23.18043,-28.05453,8.495003E-4,0.004593432,0.032544136,0.10892603,-0.13669929,9.771085,0
19,990.25214,-3.6428124E-4,-5.2586875E-5,-5.045339E-4,-10.9463625,23.909925,-27.462746,0.034446567,-0.009653494,0.060951233,0.0969702,-0.1462323,9.754514,0
19,990.247,-4.9737806E-4,-5.25968E-5,5.6075584E-4,-10.517763,23.521376,-27.967962,0.0012391061,-0.009652019,0.03254223,0.11369318,-0.12954918,9.773452,0
19,990.247,-2.3100106E-4,-5.852384E-4,-6.3763943E-4,-11.077833,24.102886,-27.453777,-0.008479364,0.004566744,0.02307415,0.11368683,-0.14861524,9.775819,0
19,990.20874,-9.778211E-5,4.8001515E-4,-3.7129736E-4,-10.77269,23.440456,-27.539022,-0.008913659,0.0045966953,0.042016983,0.111290574,-0.15576497,9.763982,0
19,990.2498,2.9197062E-4,0.0011302889,4.0419065E-4,-11.160471,23.656942,-27.722889,-0.008956522,-0.009548202,0.05622387,0.123233765,-0.13431534,9.756879,0
19,990.22687,2.9203162E-4,3.313314E-4,-1.2841492E-4,-11.193977,23.204233,-27.845203,0.001009427,-0.01431942,0.060955048,0.11844754,-0.13431513,9.759246,0
19,990.22687,2.9203162E-4,3.313314E-4,-1.2841492E-4,-11.193977,23.204233,-27.845203,-0.0130610615,1.9711256E-4,0.027814865,0.118441224,-0.14384809,9.785285,0
19,990.25745,1.589964E-4,-4.6763616E-4,-3.9467824E-4,-11.275881,24.12848,-27.96365,0.020331584,3.1873584E-5,0.03728199,0.10170555,-0.12716505,9.778182,0
19,990.24,-2.404162E-4,-7.3396193E-4,4.0429566E-4,-10.685784,23.25868,-27.9267,-0.0078011677,0.0048633516,0.042012215,0.111258835,-0.14623106,9.761612,0
19,990.232,2.9227656E-4,-6.00814E-4,-3.946259E-4,-11.224141,23.386606,-27.697258,-0.0034068078,0.0096592605,0.060910225,0.113862544,-0.14861956,9.768733,0
19,990.23206,1.5865204E-4,-6.8106456E-5,4.6480272E-6,-11.162537,24.02376,-27.744034,0.0013293996,-5.4314733E-5,0.027765274,0.11886945,-0.1367088,9.778222,0
19,990.2626,-5.108673E-4,1.9881487E-4,4.025235E-4,-10.372732,23.23575,-27.973598,-0.01778008,0.01421015,0.032499313,0.12605056,-0.15100873,9.775855,0
19,990.2626,-3.7781935E-4,-2.0064104E-4,-9.2910323E-4,-10.508226,23.056005,-27.634266,0.0014987588,-0.004899889,0.04196453,0.1141125,-0.13909253,9.771123,0
19,990.2451,2.8786034E-4,-6.746531E-5,2.6927117E-4,-10.778777,23.434565,-27.229803,-0.012957916,-0.009392992,0.032499313,0.109344125,-0.14147618,9.761655,0
19,990.25037,6.8722415E-4,3.3202642E-4,-3.9656574E-4,-10.702931,23.716684,-27.873875,-0.008357711,-0.0047160685,0.032499313,0.11174542,-0.14147642,9.759289,0
19,990.2498,-1.1183349E-4,-2.0058748E-4,-6.629287E-4,-11.0676155,23.375143,-27.720707,-0.008277096,-0.004496366,0.013562202,0.11414677,-0.13671017,9.778228,0
19,990.2498,2.1214437E-5,1.9890422E-4,-2.6350204E-4,-10.787229,23.163351,-27.3666,-0.0124981925,0.014021769,0.023015976,0.123717785,-0.15339342,9.780595,0
19,990.24,-9.110013E-4,-0.0011326573,-2.6354924E-4,-10.576164,23.413387,-26.951847,0.006678395,0.01411581,0.041953087,0.116559446,-0.15101036,9.775863,0
19,990.24005,6.867841E-4,-0.0013989554,2.690354E-4,-11.031065,23.830797,-27.753002,0.00757318,0.0046703964,0.027739525,0.109401196,-0.14624411,9.778231,0
19,990.245,4.2035797E-4,-0.0012657795,-3.9680142E-4,-10.747932,22.989817,-27.978374,0.012438074,-1.7736852E-4,0.05140686,0.10224289,-0.13671127,9.759294,0
19,990.24255,-6.4501545E-4,6.58177E-5,-5.300066E-4,-10.729944,22.79566,-27.507881,-0.0017916784,-0.0051473677,0.046668053,0.11898363,-0.14147809,9.773498,0
19,990.25793,-5.119675E-4,-2.0048027E-4,-2.6373778E-4,-11.032588,23.829325,-27.675697,-0.006595038,0.009341702,0.041936874,0.12138492,-0.146245,9.7687645,0
20,990.2477,2.868701E-4,-6.73045E-5,-5.301009E-4,-10.941254,23.546051,-27.59621,0.012523487,0.009294689,0.041934013,0.10466701,-0.1390954,9.7734995,0
20,990.2633,-2.458719E-4,-4.6676048E-4,1.3564166E-4,-10.864023,23.723728,-27.61851,0.016856566,0.004379913,0.03246689,0.099898666,-0.14386222,9.768767,0
20,990.24286,2.866501E-4,0.0012643106,-0.0010628268,-11.099845,23.924334,-27.593906,-0.006759092,-0.019443229,0.037197113,0.11185956,-0.12717962,9.761666,0
20,990.23755,2.0223975E-5,-2.0040879E-4,5.350212E-4,-10.725921,23.168367,-27.838247,0.01245553,-0.02415663,0.032461166,0.109481096,-0.12956312,9.782972,0
20,990.23035,-5.125178E-4,-5.9986475E-4,-2.639737E-4,-10.468633,23.514608,-27.821167,0.007714972,-0.014527023,0.0419302,0.1142723,-0.13909653,9.778239,0
20,990.23035,-5.125178E-4,-5.9986475E-4,-2.639737E-4,-11.055577,23.28101,-27.640068,0.022180557,0.009175047,0.056128502,0.1023342,-0.15816307,9.773505,0
20,990.2382,1.5316201E-4,-3.3353112E-4,2.6861098E-4,-11.007831,23.378687,-28.11505,0.00783807,-0.010084808,0.04665661,0.10712546,-0.13909706,9.752202,0
20,990.2484,8.1873155E-4,-6.717947E-5,-0.0010630628,-11.104273,24.025831,-28.06107,0.012403972,-2.6027858E-4,0.01825428,0.09996718,-0.13909736,9.778242,0
20,990.27875,2.8598978E-4,7.31786E-4,2.1536252E-6,-10.848398,23.26425,-27.59403,-0.0074050203,0.009633958,0.018266678,0.1095382,-0.14624748,9.79008,0
20,990.27875,2.8598978E-4,7.31786E-4,2.1536252E-6,-10.815733,23.453115,-27.995037,0.007217929,0.004966527,0.03720188,0.104769796,-0.14624774,9.773509,0
20,990.2305,4.190377E-4,9.981197E-4,-2.6420943E-4,-10.21759,23.32873,-28.61882,0.012168221,0.004622653,0.05139637,0.109561026,-0.1510146,9.761675,0
20,990.2535,1.5250182E-4,-4.6658184E-4,5.346439E-4,-11.373738,23.66781,-27.459705,0.0030651465,-0.014131427,0.04192543,0.10957241,-0.1367152,9.756941,0
20,990.2713,5.518655E-4,-7.3287974E-4,-3.9750893E-4,-10.859457,23.728148,-27.850426,0.0030439943,0.009393275,0.05609989,0.11697501,-0.14148751,9.766431,0
20,990.2437,-7.7974796E-4,-4.690173E-4,-1.3297104E-4,-10.742525,23.258081,-27.68697,0.002855584,-2.772361E-4,0.027691841,0.11460546,-0.14863783,9.778269,0
20,990.2437,-7.7974796E-4,-4.690173E-4,-1.3297104E-4,-10.742525,23.258081,-27.68697,0.007512301,-0.0049753785,0.0513649,0.10984594,-0.13910517,9.766435,0
20,990.2838,-2.483552E-4,4.6328938E-4,-6.661339E-4,-10.747091,23.253662,-27.455053,0.0121104345,0.014158338,0.046631813,0.11225617,-0.15578863,9.775906,0
20,990.2558,1.7764993E-5,5.964791E-4,3.990459E-4,-10.38295,23.963495,-27.706669,-0.02087684,0.009010941,0.03714943,0.11705625,-0.15102252,9.7664385,0
20,990.2305,-7.8157394E-4,5.9654267E-4,5.320362E-4,-10.773531,23.176609,-28.062344,0.027159505,0.00872767,0.056077957,0.10273713,-0.15102312,9.768808,0
20,990.23364,-5.1545363E-4,-0.0012676368,-2.6699534E-4,-10.84992,23.262777,-27.516726,0.0032445267,-0.005760148,0.032401085,0.112317026,-0.1391072,9.77591,0
20,990.2916,-5.156493E-4,-6.918355E-5,1.3239463E-4,-11.010332,23.00745,-27.861988,-0.01608105,0.0037326217,0.032401085,0.11711714,-0.14149097,9.768811,0
20,990.29926,-1.01392085E-4,5.259968E-4,5.0273875E-4,-11.203109,23.195396,-27.381372,-0.0016943589,-0.015315309,0.037132263,0.10518792,-0.1319583,9.764079,0
20,990.29926,-1.01392085E-4,5.259968E-4,5.0273875E-4,-11.203109,23.195396,-27.381372,-0.006645724,0.008341476,0.03713131,0.109988034,-0.15817487,9.768815,0
20,990.256,2.9769045E-4,0.0013250079,-3.0060706E-5,-10.909567,23.365152,-27.82146,0.026339754,-0.0010508448,0.037135124,0.1004487,-0.13672593,9.773551,0
20,990.27435,-2.3513687E-4,-6.539776E-6,-2.964604E-4,-11.468116,23.94814,-27.384583,-0.012255438,-0.015030965,0.046610832,0.11719829,-0.13434312,9.759351,0
20,990.2208,6.967729E-4,9.255975E-4,-3.0228344E-5,-10.815189,23.084826,-27.896585,0.021371141,-0.005215436,0.05608082,0.105269134,-0.13911018,9.773556,0
21,990.27435,4.3026143E-4,-9.3858177E-4,2.3600369E-4,-11.152455,23.1901,-27.311886,0.021417424,0.0089622885,0.037137985,0.100509584,-0.14387721,9.768823,0
21,990.2768,3.059204E-5,6.593452E-4,0.0011680254,-11.265365,24.032877,-27.805706,-0.0027628466,-0.0055636913,0.027667046,0.11247939,-0.12957802,9.771192,0
21,990.24115,-1.02761594E-4,-2.727286E-4,2.3583599E-4,-11.017506,23.738138,-27.74967,-0.012204729,0.013739511,0.03240204,0.1172795,-0.15341139,9.7688265,0
21,990.2362,3.0200768E-5,-6.3809857E-6,2.3575214E-4,-10.983892,23.084505,-27.254696,-0.0028714612,-3.6336482E-4,0.022935867,0.11251998,-0.1391122,9.77593,0
21,990.2518,-1.03152866E-4,1.2680872E-4,-4.3012144E-4,-11.115768,23.751673,-28.043257,-0.022133157,-5.544871E-4,0.027666092,0.11493021,-0.1343461,9.76883,1
21,990.2518,2.9809496E-5,7.9263025E-4,-3.0731433E-5,-10.829293,23.545774,-27.99837,0.0064391717,0.018462136,0.046604156,0.11256057,-0.15817937,9.773566,1
21,990.2315,2.9613802E-5,-2.7260158E-4,3.6865854E-4,-10.825409,23.812567,-27.629658,0.011297204,0.01827377,0.022925377,0.091071755,-0.14864674,9.768834,1
21,990.26434,-3.700556E-4,6.5953576E-4,5.0173263E-4,-11.015142,24.003458,-27.303654,-0.003086172,-0.010380894,0.0323925,0.11021128,-0.14149746,9.771203,1
21,990.2846,-9.0288295E-4,-6.72012E-4,3.6849087E-4,-11.321264,24.296125,-27.042652,0.011239879,-0.001284644,0.04185295,0.10545176,-0.14626452,9.775939,1
21,990.23895,-0.0010362366,-2.725063E-4,-1.6422471E-4,-10.73864,23.524874,-27.318256,0.01113534,-0.0063115507,0.051317215,0.107861966,-0.13673186,9.771207,1
21,990.2619,-2.3748462E-4,1.2699932E-4,-1.6430864E-4,-10.984436,23.452795,-27.353148,0.015702643,0.002762407,0.041843414,0.103102475,-0.1414989,9.771208,1
21,990.23413,-3.7083816E-4,-1.3928482E-4,2.3508139E-4,-10.406239,22.783041,-28.095915,0.011006191,-0.0020394623,0.046572685,0.10790259,-0.14626595,9.768843,1
21,990.2797,2.970891E-4,-1.4163108E-4,-3.195973E-5,-10.755107,23.720507,-27.866058,0.020683229,0.0028795153,0.027646065,0.10301441,-0.13673022,9.790138,1
21,990.2797,2.970891E-4,-1.4163108E-4,-3.195973E-5,-10.755107,23.720507,-27.866058,0.0116986185,-0.0064157397,0.032377243,0.11019933,-0.13673055,9.771202,1
21,990.26263,9.6273597E-4,-0.0013400293,-3.2020966E-5,-10.820299,23.448698,-27.763123,-0.011464044,0.012970269,0.027635574,0.11499435,-0.14864734,9.775938,1
21,990.26263,9.6273597E-4,-0.0013400293,-3.2020966E-5,-11.085742,23.463385,-27.492125,0.003574498,-0.0014866889,0.037093163,0.10783982,-0.14388117,9.76647,1
21,990.24207,5.629688E-4,-0.0017394557,8.999589E-4,-10.704453,23.715212,-27.796568,0.013772644,-0.024972066,0.046557426,0.10785508,-0.12004879,9.768839,1
21,990.24207,5.629688E-4,-0.0017394557,8.999589E-4,-10.417435,23.14102,-27.653229,0.008152299,0.003191501,0.05602932,0.11742988,-0.13673207,9.759371,1
21,990.24207,5.629688E-4,-0.0017394557,8.999589E-4,-10.417435,23.14102,-27.653229,0.012810878,-0.006213397,0.041828156,0.11505517,-0.13911572,9.780678,1
21,990.27,-1.03114406E-4,-0.001206776,-1.6543036E-4,-11.030521,23.46251,-27.65455,-0.020412691,0.003147468,0.00867939,0.12701994,-0.14864922,9.775945,1
21,990.27,-1.03114406E-4,-0.001206776,-1.6543036E-4,-11.030521,23.46251,-27.65455,0.01737377,-0.0065746307,0.046556473,0.100746244,-0.13434991,9.76411,1
21,990.295,2.9896852E-5,0.0010569327,3.6713856E-4,-11.233274,23.377768,-27.233429,-0.02067922,-0.0018673241,0.022880554,0.12944025,-0.13911685,9.77358,1
21,990.2424,-5.028815E-4,6.5748265E-4,-1.6555609E-4,-10.734074,23.529293,-27.55017,-0.011378586,-0.0019370317,0.037083626,0.117506,-0.15103361,9.768847,1
21,990.2524,2.9456802E-5,9.2384615E-4,5.001079E-4,-10.907205,23.630472,-27.375444,0.0071292743,0.012453049,0.022886276,0.107961625,-0.1486507,9.77595,1
21,990.2828,2.9562612E-4,0.001057028,-1.6574468E-4,-11.197702,23.463663,-27.089966,-0.021865204,0.0076907724,0.022888184,0.11514655,-0.14388457,9.778319,1
22,990.2524,2.9163435E-5,7.9073594E-4,4.9998215E-4,-10.910249,23.627527,-27.220835,0.011149436,-0.011515558,0.05129528,0.10082233,-0.14150164,9.754648,1
22,990.2524,-3.7045707E-4,9.239176E-4,-3.2712473E-5,-10.941935,23.808426,-26.995583,0.0012959614,0.012190551,0.051296234,0.11756688,-0.15818495,9.768853,1
22,990.25476,-1.04287756E-4,7.9078344E-4,-1.6593328E-4,-10.653502,24.342054,-27.302208,6.8315864E-4,-0.0072264373,0.032359123,0.11758208,-0.14150235,9.775956,1
22,990.25476,-9.033822E-4,0.001589755,3.6663562E-4,-10.899593,23.637835,-27.76197,-0.014812909,-0.0123716,0.022895813,0.115207374,-0.13673618,9.77359,1
22,990.2576,-0.0010366868,0.002921358,0.0011655204,-10.878126,24.184679,-27.720291,0.003153354,-0.0030959845,0.013435364,0.09610343,-0.14388642,9.780692,1
22,990.29834,-6.373597E-4,0.002655066,0.0010322996,-11.131967,23.367182,-27.094452,0.012462676,-0.0031378418,0.05604458,0.10328835,-0.14388674,9.747554,1
22,990.27045,-1.0487449E-4,5.245629E-4,-3.3026794E-5,-10.715107,23.704899,-27.255432,-0.0019055232,0.006222531,0.003962517,0.10569343,-0.1534203,9.78543,1
22,990.2655,2.8136536E-5,1.2511289E-4,1.0006825E-4,-10.641762,23.615786,-27.646442,0.0023991615,0.0064445883,0.032375336,0.110488474,-0.14865407,9.773596,1
22,990.2755,2.9430597E-4,0.0010572424,3.663213E-4,-10.311425,23.240768,-28.445244,-0.002383396,0.0068041533,0.03711319,0.108113796,-0.14865443,9.77123,1
22,990.27295,9.59949E-4,-7.997529E-6,-0.0010984789,-10.703612,23.979057,-27.273247,0.0066358373,-0.003246516,0.022907257,0.09856939,-0.1438882,9.778333,1
22,990.2602,-0.0013038829,0.0011904478,-3.327825E-5,-10.743611,23.994661,-27.88387,0.0017673299,0.0061155707,0.022904396,0.1009745,-0.14150539,9.768866,1
22,990.25006,6.933396E-4,-6.737395E-4,6.324486E-4,-10.694778,23.355759,-28.161945,-0.007553473,-0.0126092285,0.02290535,0.09879023,-0.13912714,9.768885,1
22,990.2554,-3.7343265E-4,1.2545308E-4,6.318019E-4,-10.422001,23.136602,-27.421314,-0.008269072,0.006340936,0.037073135,0.11334661,-0.14866552,9.771272,1
22,990.2475,-5.078173E-4,-4.0875506E-4,9.718686E-5,-10.798287,23.627249,-27.622992,-0.012112252,-0.0030906647,0.013388634,0.11576694,-0.13674995,9.778376,1
22,990.2449,4.2399502E-4,-0.0012076551,8.960088E-4,-10.749157,23.620481,-27.4762,-0.002168186,-0.00756903,0.022854805,0.1062378,-0.14151722,9.768909,1
22,990.2576,6.900172E-4,-0.0010744494,2.3009322E-4,-10.637196,23.620203,-27.878357,0.0071795136,0.011532038,0.037056923,0.11343795,-0.14866778,9.776014,1
22,990.2679,1.5709207E-4,5.234935E-4,2.2996738E-4,-11.029543,23.832272,-27.830307,0.012190901,0.0071367323,0.037056923,0.106298685,-0.14628527,9.780751,1
22,990.2426,9.557461E-4,-6.7488034E-4,-0.0011017378,-10.969353,23.361609,-27.42712,-0.0023924708,0.002314493,0.032323837,0.10871905,-0.14628604,9.780753,1
22,990.2908,-2.4296872E-4,5.235888E-4,-4.3607393E-4,-10.586542,23.614908,-27.808868,0.0069624186,0.0023121238,0.060728073,0.113529325,-0.14152017,9.776023,1
22,990.2298,-7.7589444E-4,6.567944E-4,-3.672589E-5,-10.330774,23.959673,-27.714485,-0.0024715662,0.0069600493,0.022845268,0.10639006,-0.14628747,9.778392,1
22,990.2655,5.5539183E-4,-2.752636E-4,0.0014278857,-10.619207,23.426046,-27.407864,-0.011724569,0.0069166273,0.03230858,0.11359024,-0.1462883,9.768926,1
22,990.2655,5.5539183E-4,-2.752636E-4,0.0014278857,-10.708476,23.3425,-27.466202,-0.0064324215,-0.006929606,0.03230667,0.10884094,-0.13675588,9.7736635,1
22,990.2579,0.0010874365,-0.004003591,9.605463E-5,-10.861958,23.35691,-27.597363,0.0013184249,-0.010419458,0.013349533,0.082582414,-0.117690384,9.7973385,1
22,990.2375,0.0022852707,-0.094018266,0.39144698,-10.789837,23.89846,-27.486195,1.3495219,0.3077733,0.06976509,-1.1505766,-0.17012331,9.764201,1
23,990.2375,0.0022852707,-0.094018266,0.39144698,-10.789837,23.89846,-27.486195,-0.5130099,0.10288659,0.055467606,0.6777289,-0.010444403,9.787875,1
23,990.3322,0.008410241,-0.040755037,0.44564214,-10.490889,24.336481,-27.634878,0.5455603,-0.075528845,0.03148651,-0.20172456,-0.09147659,9.787878,1
23,990.3322,0.008410241,-0.040755037,0.44564214,-10.242294,25.411936,-27.428177,-0.47007233,-0.061310843,-0.041205406,0.75187683,-0.08432749,9.81392,1
23,990.43616,0.016532583,-0.088292375,0.3734704,-10.558826,24.693865,-26.952461,-0.19581282,0.12328066,0.14837646,0.465119,-0.21779189,9.778415,1
23,990.571,0.012537258,-0.2759118,0.2520301,-11.000848,25.28099,-27.149654,-0.04100114,0.06730424,-0.05151844,0.5201172,-0.10816178,9.778418,1
23,990.571,0.012537258,-0.2759118,0.2520301,-11.000848,25.28099,-27.149654,-0.24107778,0.12921312,-0.0068616867,1.0315868,-0.23447624,9.780787,1
23,990.5538,0.013335618,-0.64382714,0.15815352,-12.797501,25.494738,-26.4234,0.57519233,-0.15009318,-0.094454765,0.8069664,-0.022365272,9.809197,1
23,990.5538,0.013335618,-0.64382714,0.15815352,-12.797501,25.494738,-26.4234,0.49409652,-0.16776305,-0.03979206,1.366234,-0.0032997727,9.67427,1
23,990.4748,0.018129012,-1.0952325,0.13631551,-14.103161,24.588375,-26.477104,-0.36630988,0.04831244,0.105807304,2.4058714,-0.19396278,9.48963,1
23,990.3519,0.0957595,-1.2696693,0.42686588,-16.879787,25.04297,-24.92107,0.25507545,-9.488836E-4,-0.09667969,2.3198657,-0.14868131,9.506204,1
23,990.3519,0.0957595,-1.2696693,0.42686588,-16.879787,25.04297,-24.92107,0.27468276,-0.19073752,-0.13867378,3.5291862,-0.23209679,9.134555,1
23,990.2426,0.11706448,-1.0365098,0.45256522,-17.741714,25.289434,-24.802673,-0.38766742,0.11822577,0.20148754,3.7825465,-0.21541452,8.949916,1
23,990.33154,-0.0034437499,-1.4381139,-0.01402032,-19.499346,25.117815,-23.290037,-0.13799977,0.06419131,0.15909481,3.4344778,-0.1605615,9.250411,1
23,990.7008,-0.04925037,-0.8423653,-0.12707153,-20.232302,24.800077,-22.927547,0.21107554,0.02301588,-0.20104694,3.678216,-0.11051187,9.0989065,1
23,990.54834,-0.2053019,0.15259112,-0.31694916,-20.637123,24.368223,-22.685926,0.117549896,0.031851046,-0.062999725,3.9721422,-0.12242752,8.968708,1
23,990.4868,0.007888232,-0.7638026,-0.05489248,-22.265648,23.738321,-21.628275,0.12163067,-0.03735719,-0.038104057,4.2397795,-0.091444135,8.805367,1
23,990.43866,0.005758012,-0.670592,0.009822409,-23.608784,23.639105,-20.722637,0.22316885,-0.0129855275,-0.19630718,4.454839,-0.14625874,8.769856,1
23,990.37256,0.0016304306,-0.7949616,0.06721361,-24.523022,23.78347,-19.897346,0.21574116,0.0055262744,-0.22494698,4.7678843,-0.0175609,8.649127,1
23,990.48975,-0.07733193,-1.266607,-0.11521264,-25.861187,23.21446,-18.426096,0.08441019,-0.25732625,-0.08079243,5.4537544,0.113520116,8.147277,1
23,990.41327,0.0321242,-1.587784,-0.051829327,-26.9931,23.891497,-15.981758,0.04977846,0.442994,0.019990921,5.7811394,-0.41795012,7.863209,1
23,990.3339,-0.034188148,-1.1286556,-0.08085762,-28.155632,23.592546,-14.938297,0.04286003,-0.099430114,0.018800259,6.0583363,0.020573854,7.6714625,1
23,990.19214,-0.03698416,-0.5595386,-0.05222854,-28.967041,23.7278,-14.051331,-0.06398296,0.39708564,0.14324236,6.220818,-0.30593452,7.505756,1
23,990.179,-0.01634437,-0.08523002,-0.019205239,-28.899105,23.370417,-14.7337475,0.123316765,-0.21378814,-0.24505329,6.020035,0.051558048,7.84663,1
23,990.2682,0.0048280475,-0.25593856,-0.0037587835,-28.826035,23.069468,-13.726601,-0.09218645,-0.15041739,0.067977905,6.4238963,0.082541406,7.4252653,1
23,990.2248,0.0034967735,-0.7584767,-0.0045576,-29.967644,23.685648,-12.73991,0.10566616,0.20057191,-0.14542961,6.5744286,-0.29878238,7.2855973,1
24,990.15393,0.0054944484,-0.67285615,-0.009750629,-30.045307,22.769918,-12.443409,0.031817913,-0.3279875,-0.06265354,6.8659644,0.24698918,7.1222577,1
24,990.1865,0.03625424,-0.93051684,-0.009484182,-30.842861,23.444649,-11.128239,0.061396122,-0.012598395,-0.03570175,7.1551113,-0.16055062,6.8405576,1
24,990.1356,0.049437176,-1.0034875,0.0048970063,-32.090237,22.960657,-9.675955,0.45558548,-0.28734887,-0.42152452,7.095332,0.049178615,6.6014667,1
24,990.1841,-0.021535696,-1.4833887,-0.052360777,-32.452694,22.77852,-8.377693,0.0028429031,-0.008990683,-0.048388004,7.8863573,0.2827407,5.933913,1
24,990.4234,-0.09450594,-1.0483617,-0.10895276,-33.448864,22.63487,-6.5991116,-0.07461119,0.007039424,-0.07017994,7.9245653,-0.38695976,5.787144,1
24,990.5793,0.06781389,-0.81933016,-0.024796825,-33.277397,22.426306,-5.9974556,0.032265663,0.1936157,0.07546234,8.151573,-0.7516006,5.5953975,1
24,990.56104,-0.04723426,-0.28150526,0.16761653,-34.211964,22.919813,-4.265648,-0.14492607,-0.28832006,-0.12385273,7.94123,0.0015161783,5.8581543,1
24,990.50494,-0.009417101,-0.06592262,0.34884462,-33.86168,23.090166,-4.945469,0.15115166,-0.18432537,-0.34507513,8.280565,-0.120030254,5.5267425,1
24,990.6475,-0.0034246934,0.18228376,0.48919323,-33.68507,23.729988,-5.549012,-0.4636612,0.28783634,0.36134863,8.478894,-0.64911723,5.4344187,1
24,990.95776,-0.056287784,-0.03396485,0.8266157,-33.308292,25.609959,-4.870249,-0.5516863,-0.9806425,-1.4955554,8.54817,-0.008014604,6.6251187,1
24,990.95776,-0.056287784,-0.03396485,0.8266157,-33.308292,25.609959,-4.870249,-0.87021446,-0.6757797,-0.86782026,8.911405,-0.59191704,5.4580846,1
24,990.95776,-0.056287784,-0.03396485,0.8266157,-32.632626,26.29539,-5.0914583,-0.97444344,-0.27583474,0.36251116,9.084011,-0.21298891,5.713792,1
24,990.9607,0.6414602,-0.122115456,0.60983473,-32.817516,26.702536,-6.395524,-0.2964754,-0.65736055,-1.8399067,8.0951605,-0.7420907,7.2785645,1
24,990.5199,0.15768684,0.801736,0.24724114,-32.665142,27.0044,-8.284292,-0.32589102,-0.39232874,-1.1918907,7.961339,-0.71110845,7.205183,1
24,990.5199,0.15768684,0.801736,0.24724114,-32.665142,27.0044,-8.284292,-0.75843096,0.043990552,-0.37674332,8.099969,-1.1710814,6.6701965,1
24,990.3821,0.79910856,0.60945594,0.47267747,-32.252193,26.655024,-10.6370125,0.82302,1.1542679,-0.532104,6.864403,-1.9051316,6.911652,1
24,990.2803,0.8519721,0.62743235,0.56442326,-32.235855,27.14543,-12.284897,-0.15101767,-0.48976102,-1.0909257,7.488181,-0.6157783,7.39693,1
24,990.2702,1.1220163,0.123962194,0.9448554,-31.649315,27.853235,-13.263523,0.72847366,0.75802296,-0.119954586,6.687578,-1.6691878,6.3340573,1
24,990.24963,1.4529135,-0.17724106,1.1852055,-31.073727,27.918592,-14.125889,1.046833,0.36495805,-1.5513844,7.053247,-0.8850895,7.0347505,1
24,990.1577,1.8627735,-0.7132018,1.3471253,-31.098751,28.949354,-15.183142,0.0518713,-0.5231596,0.2623601,7.4260855,-0.6396121,5.7611966,1
24,990.3187,2.1807547,-0.9659355,1.710913,-29.995728,29.45659,-17.23042,1.4135265,0.64630854,-1.2106781,6.7210784,-1.6072235,6.4429526,1
24,989.97437,1.9972627,-0.82066023,1.743936,-28.787212,30.85217,-18.345135,1.4979529,0.40361845,-1.0582862,6.7856197,-1.5619416,6.0405297,1
24,989.799,2.1984644,-1.0282534,1.9765627,-27.089226,31.126165,-20.162506,1.6344571,-0.12143433,-0.0033597946,6.608781,-1.4451612,5.55052,1
24,990.0122,2.3453372,-0.8990902,1.9608501,-26.160313,31.364813,-21.859299,1.5438104,-0.6279993,0.64912367,6.405653,-1.252116,4.449772,1
25,989.9613,2.1245613,-0.885508,1.7110456,-25.46363,31.438734,-23.58765,2.9222355,1.1456344,-1.1334867,5.889448,-2.4842713,5.8345866,1
25,989.9307,2.179289,-0.882179,1.830089,-24.222889,32.285114,-24.829166,1.3409739,-0.32664955,-0.052464485,7.1465507,-1.571476,4.774081,1
25,990.01996,2.467576,-0.9628727,1.878292,-23.36903,30.872938,-26.10986,1.351603,0.10797882,0.13659382,7.2565002,-2.269777,4.231993,1
25,990.2158,2.1973984,-0.5788452,1.7592489,-22.043201,30.90394,-28.08662,0.8915081,0.04014349,-0.6837716,7.459656,-2.5724537,5.069984,1
25,990.3025,1.7764858,-0.20240764,1.7479302,-20.047981,29.876001,-30.02758,0.7319584,-0.115303755,-0.48145008,7.3760233,-2.5557709,4.695967,1
25,990.25397,1.8850094,-0.2326345,1.6155713,-18.373283,28.969542,-32.2342,1.012732,0.7077365,0.6966543,6.907616,-3.3017375,4.355091,1
25,990.0709,1.598986,-0.043150723,1.4826795,-17.658318,29.481432,-33.067184,1.163137,0.0925374,1.1821408,6.7881346,-2.8965805,3.1099443,1
25,990.29486,1.6051112,-0.39814976,1.4892043,-16.527523,28.328722,-34.63669,1.1626201,-0.20999336,2.095703,6.967392,-2.6010544,3.5526128,1
25,990.2846,1.4367994,-0.9361079,1.5051831,-16.018108,27.752508,-35.22036,0.898324,-0.86567616,1.2058125,7.160988,-2.1625314,4.035523,1
25,990.2127,1.2265428,-0.7104051,1.2130344,-15.289197,27.277227,-37.075512,0.84750366,-0.20311618,1.3645737,6.773837,-3.7783947,3.6851783,1
25,990.1595,0.5907136,-0.102272764,0.91755706,-13.641598,26.976393,-37.465767,1.9667845,1.2387428,1.3808999,5.9588947,-4.7769885,3.6615076,1
25,990.30206,0.525333,-0.3338344,1.162967,-13.08536,27.760645,-37.59737,0.3778758,0.9600673,0.68836784,7.3044243,-4.4075804,3.97398,1
25,990.26904,0.01280791,0.11797051,0.9401938,-11.576948,28.751753,-37.96479,0.48059082,3.1007466,-1.6806202,6.099927,-7.598791,6.1944165,1
25,990.2892,-0.59905297,0.9115919,0.904241,-8.851739,30.091475,-37.539314,-4.236597,-0.14923954,-1.6943588,10.714843,-4.6578255,6.8927426,1
25,990.32996,-0.4031778,0.9094614,0.6620267,-5.3349066,31.276789,-36.99584,-3.5534668,1.1170945,-4.7686424,9.785184,-6.261772,9.091875,1
25,990.3398,-0.8556486,1.216923,-0.041713092,-3.999464,32.89529,-36.064583,-5.2467117,-0.715992,-3.579801,11.811835,-3.9190102,8.0976515,1
25,990.54395,-0.5276807,1.139425,-0.3188148,-2.6646185,33.249516,-35.98307,-5.6672816,-1.3984914,-1.2359772,12.225301,-3.4375882,6.4382434,1
25,990.5592,-0.56722873,0.79667664,-1.1220236,-2.8297334,32.883854,-35.39734,-4.446995,-0.120696545,0.49795103,9.909501,-4.769841,5.891421,1
25,990.56396,-1.3504639,1.4985521,-2.0525312,-4.198713,33.97185,-34.249252,-1.0185676,1.1524134,-2.5194688,7.57697,-4.8151236,8.1426325,1
25,990.6324,-0.90145546,1.4664611,-2.0948756,-5.0202026,34.94076,-33.794434,-2.1984487,-0.5606656,0.5563612,8.408195,-3.4614103,5.8108954,1
25,990.4847,-0.73819476,2.6411793,-2.417114,-6.5972557,34.149113,-33.966995,-1.2184606,-0.71002007,0.3273325,7.2390475,-2.746415,6.8855605,1
25,990.4847,-0.73819476,2.6411793,-2.417114,-6.5972557,34.149113,-33.966995,-0.5421829,0.55695796,-0.24983358,5.200446,-3.702109,7.058365,1
25,990.5941,-0.72221565,3.7975225,-2.5956788,-1.3629808,33.783176,-35.599,0.42076778,0.42169476,0.4554901,3.6015859,-3.4590144,7.5436406,1
25,990.54565,-0.4642886,4.3320184,-1.5870073,2.5972338,33.856617,-36.059578,-1.5226996,0.39316297,4.929783,4.7654524,-2.6820652,3.9360223,1
25,990.54565,-0.4642886,4.3320184,-1.5870073,2.5972338,33.856617,-36.059578,0.83266866,0.9806061,0.894825,1.1566851,-3.2183025,8.005242,1
26,990.28815,-0.42700407,3.616161,-0.79178786,10.4887495,33.97552,-35.51195,0.077739716,-0.52691054,0.10398197,1.4028293,-1.9623141,7.2477355,1
26,990.28815,-0.42700407,3.616161,-0.79178786,10.4887495,33.97552,-35.51195,1.4962455,-0.15434575,-3.4306126,-0.69313025,-2.5771997,12.225961,1
26,990.22424,0.0065584756,2.0357096,-0.010150631,15.503118,33.19089,-33.775238,-2.7230792,-1.3468302,-0.3894472,2.2918415,-1.1114832,9.065745,1
26,990.22424,0.0065584756,2.0357096,-0.010150631,15.503118,33.19089,-33.775238,-0.00942266,0.010669231,-4.615834,-1.560696,-2.960907,13.089988,1
26,990.0383,0.30296814,1.8387691,0.14897317,18.860733,32.277958,-33.007465,-0.9849067,0.83610034,1.4803362,-1.548762,-3.2802658,6.705641,1
26,990.34393,0.16421779,3.07048,-0.2859206,22.641453,32.23486,-31.585945,0.1177721,1.3254153,0.6444731,-2.879953,-2.8512754,8.521283,1
26,990.3769,0.68273497,2.7313266,0.009556935,25.918114,31.403677,-30.040642,-2.3352017,-0.022405148,3.1114283,-2.3804789,-1.2282623,7.950786,1
26,990.26996,0.32414076,1.7929627,0.4283387,28.599514,30.173601,-29.150108,2.1763644,1.5334451,-0.9002485,-6.2425766,-2.7583265,10.405574,1
26,990.2113,0.110555574,1.2677878,0.26388875,30.1277,30.391897,-27.627731,-0.7537279,-1.2610537,-3.0791311,-3.3938289,-0.41318032,10.921622,1
26,990.1268,0.68979293,1.1684519,0.3142226,34.080544,28.665594,-25.13345,0.3916297,1.8039207,-2.297223,-6.068145,-3.4852257,11.338249,1
26,990.3255,0.80457526,1.4115982,-0.02746064,35.60091,26.717741,-25.099785,-1.9561496,0.888703,0.36570215,-4.3068027,-1.7144495,9.167522,1
26,990.3332,1.1856735,1.2785734,0.20982687,36.84464,25.142557,-24.352442,-2.0499249,1.4667877,-1.2361908,-4.0271997,-2.3269515,8.175664,1
26,990.37897,0.9021803,0.92384064,-0.05369263,37.81893,24.421614,-24.07547,-1.3887782,0.836504,-1.1224995,-5.303423,-1.5237865,8.0549345,1
26,990.1902,0.8020457,0.9944143,-0.44704112,37.944855,23.854467,-23.676765,-0.89580727,0.5670773,0.39197874,-5.9654417,-0.7682868,7.221678,1
26,990.21576,0.9799449,0.6593889,-0.5162832,38.69286,22.868755,-23.041496,1.624414,1.0386662,0.043503284,-7.3253107,0.15642557,6.89737,1
26,990.5264,0.71083283,1.045547,-0.42333886,39.01825,23.383833,-22.582886,-1.8744664,-2.9688191,1.3698487,-5.06448,2.0010834,5.107764,1
26,990.6461,1.0178951,0.55499303,-0.5880552,38.91346,22.653421,-22.293047,-3.9274335,-0.3840963,3.6201987,-2.1990027,0.94290817,3.0056863,1
26,990.57416,1.0184278,0.026222866,-0.70416886,38.5784,22.497797,-22.386276,-3.5841446,-1.3384473,4.6433754,-3.018755,1.2527347,2.2387114,1
26,990.08014,0.18978621,0.37269983,-1.1080368,37.71278,24.215948,-22.584377,-4.025989,-3.1698506,2.096798,-3.1239262,2.3752594,4.1040654,1
26,990.3092,-0.110484794,-0.16832092,-1.1490494,36.78099,25.292524,-22.503786,1.1300154,-1.9389019,0.55643225,-6.020113,1.853312,6.7293267,1
26,990.2788,-0.2477728,-0.5875018,-1.4047135,34.675777,27.852224,-23.406939,2.0231943,-0.965564,2.0255857,-7.1720457,0.33516374,4.421304,1
26,990.2555,-0.4760069,-1.1622112,-0.938262,33.045357,28.907316,-24.141245,-1.5425124,-0.058874846,1.1538281,-5.1000004,-2.0457315,8.608886,1
26,990.0794,-0.63140213,-2.4615664,-0.55743027,29.53912,30.471216,-24.847223,-0.6263356,-0.9880158,-3.0079098,-4.265925,-0.7444614,8.713042,1
26,989.74866,-0.48146635,-1.9947147,-0.28339115,27.359802,31.329542,-27.333057,-0.4023595,2.1482618,0.9116974,-3.4246793,-3.5948625,4.4828515,1
26,989.83746,-1.1239535,-3.0973954,-0.33825222,23.630466,32.737537,-28.534424,2.6808615,-0.24772382,-4.7758427,-5.654458,-2.9871264,14.728105,1
27,989.7173,-1.1457913,-2.7344067,0.3258064,20.005642,34.664116,-28.627472,-2.9114685,-2.9724338,1.6231246,-0.64283335,-0.8207263,7.2950883,1
27,989.7763,-0.55110794,-2.665165,0.9259492,17.756428,35.140293,-30.079376,1.8505883,-0.0061655045,-5.6105404,-1.0993047,-1.1520019,14.1221,1
27,989.7763,-0.8118312,-2.4048412,0.08492371,15.023805,35.53169,-30.066116,-0.47262225,0.053754807,3.7296047,-2.1389122,-4.5410237,7.849014,1
27,990.12756,-1.215566,-2.0317326,-0.18272376,10.671868,38.146843,-29.779472,0.7499874,1.2568431,-3.7100983,1.5295875,-3.1182065,10.062348,1
27,990.12756,-1.215566,-2.0317326,-0.18272376,10.671868,38.146843,-29.779472,2.8641775,4.034934,-3.071107,-1.1590523,-6.831354,10.978456,1
27,990.517,-0.8556402,-0.9309159,0.025002642,8.614093,39.38013,-28.687714,0.11051494,1.7555151,-1.7555065,-0.25566933,-6.8361206,13.288846,1
27,990.517,-0.8556402,-0.9309159,0.025002642,8.063697,39.602192,-28.53891,1.5070714,3.5514379,-7.933709,-1.3813132,-8.435301,15.246522,1
27,990.6441,-0.4981111,-0.7583432,0.21928006,9.110707,40.68706,-27.30103,2.5814779,5.1631203,-4.0517635,-1.6322528,-8.087342,13.672332,1
27,991.3192,-0.39837584,1.347816,0.39411646,12.282611,40.337727,-26.537617,0.44123983,3.3556225,-10.128728,-2.0576553,-6.840887,18.098999,1
27,991.1308,0.4880566,1.7883024,0.9768155,16.005833,38.503536,-26.85006,-2.1097016,-0.9281051,-1.4770031,-0.16724297,-1.7835708,8.705941,1
27,991.43646,0.9976521,3.665696,0.9051766,21.395485,36.438194,-26.558937,-4.6688967,-0.022588968,7.93542,2.0338569,-1.1639184,-2.4601526,1
27,991.1231,2.0667772,3.6028457,0.75484127,25.996803,33.529774,-26.866848,-8.421406,-5.489359,12.727913,3.3267937,3.7885342,-1.6126943,1
27,990.2998,0.31828025,0.5777636,-0.106823735,28.109383,31.977865,-26.023796,-2.9553804,-0.7172291,2.435214,-1.092135,-0.6252974,5.548093,1
27,990.37616,-0.5065,1.2198513,-0.9807393,28.499146,32.921207,-24.36842,-0.52521944,0.33124614,3.8791223,-2.9729877,-1.9122679,4.1254044,1
27,990.37616,-0.5065,1.2198513,-0.9807393,28.499146,32.921207,-24.36842,1.1283507,1.447053,0.4677267,-5.7404947,-4.7388363,8.469221,1
27,990.30725,-0.25935894,0.9756395,-1.1083046,27.836002,34.512264,-23.589485,-0.9812608,1.8866563,1.0787239,-2.9228,-4.774585,6.4144893,1
27,990.101,-0.40463424,0.1167708,-0.9715514,26.740376,36.225075,-22.67405,-2.0564632,0.3200693,0.48324394,-4.13687,-4.6244383,8.286946,1
27,989.83826,-0.34364793,0.08587816,-0.9764783,25.232155,36.972446,-22.25442,2.3311553,0.809278,-2.9971704,-5.4011283,-3.2540536,11.170198,1
27,989.614,-0.5476458,0.28175348,-1.399388,20.92038,40.098225,-20.233204,1.4801512,-0.34908628,-1.3180952,-4.6103983,-2.3984485,8.971038,1
27,989.4231,-0.53939,0.64673936,-2.2151134,17.582191,42.34512,-19.157417,5.3102436,1.4993534,-3.3664832,-8.162141,-5.4085207,12.251948,1
27,989.45355,-0.13272071,0.015172398,-1.2684897,16.263405,42.269466,-19.48866,-4.25311,-4.7206316,-1.6712747,-0.9494433,-0.6419631,10.665921,1
27,989.5704,1.2799523,-0.64129627,-0.19110885,14.59652,41.34226,-21.641043,-4.0237045,-3.8959386,-1.6010294,-0.62205344,-1.6500894,8.694038,1
27,989.60065,1.8774322,-1.7961752,-0.5461078,11.96692,39.883503,-25.53858,1.1587515,0.87068677,5.0731964,-2.5363913,-3.5733943,4.4022975,1
27,989.5857,0.9762194,-2.455973,-0.13624756,8.9448595,38.951214,-26.865963,-0.46025085,-1.8641372,-0.55016804,-2.667863,-3.2516513,10.190106,1
28,989.54456,0.53173846,-2.9874063,-0.5046955,4.490965,38.680122,-28.319332,5.857901,3.30593,0.29008484,-4.2715135,-5.9256887,7.4512496,1
28,989.7891,1.0886053,-3.8469408,0.7511171,0.6228781,37.74664,-30.901993,-1.8732339,-1.9900632,2.6870704,4.513739,0.29705188,8.310542,1
28,989.7786,1.4630456,-5.619539,1.6977372,-4.231844,36.204144,-31.372375,0.3167708,-1.2019681,-4.186081,1.9756368,-1.8836474,12.360824,1
28,989.9545,0.95078725,-3.8561287,0.4778773,-9.229777,35.580883,-31.489552,1.6569319,-0.770851,1.4930992,3.904261,-1.0185165,6.0261865,1
28,990.22186,2.4715843,-5.0399027,0.46043372,-15.414373,33.214375,-31.475838,2.0683956,2.1265624,0.2148552,3.3426075,-4.4289875,7.5672326,1
28,990.3336,2.6520135,-6.641393,0.517958,-23.478783,31.404272,-29.280396,2.4644818,2.3634422,-3.3660731,8.074587,-2.3245518,10.355795,1
28,990.3642,3.1160693,-7.131415,1.8189113,-28.968044,29.264769,-25.075989,0.47686958,2.6855936,-7.8560977,9.240832,-3.5185738,11.619879,1
28,990.52216,3.7736037,-5.1750584,1.5078543,-33.302628,28.41728,-21.202097,-2.2204838,1.3259957,-2.0964394,11.4036665,-3.115799,2.1297617,1
28,990.65155,3.2838488,-2.7156312,1.2151734,-34.845085,27.341757,-21.055447,-2.4638462,1.0906423,-1.6249979,12.486265,-1.8264446,2.7428646,1
28,990.5832,2.868929,-2.926154,1.0038519,-36.809654,26.18647,-19.915268,-4.104129,0.050745487,6.6989417,14.680169,-1.6524646,-4.7611694,1
28,990.7845,0.14944458,-1.4487666,-0.30682167,-38.013443,25.321531,-17.90852,-2.8813086,1.4952416,0.08856606,10.959065,-2.8202705,-0.8126782,1
28,990.9959,-0.22459581,0.240475,-1.1144245,-38.585335,23.784485,-16.729658,1.0789661,1.041882,1.3423404,9.410381,-0.77541685,0.6384144,1
28,990.9472,0.10590243,0.28415075,-0.5157463,-38.883904,22.451956,-17.606474,-0.0817852,-0.5583454,-3.0923903,10.141665,-0.51563895,2.3570008,1
28,990.8091,0.14531747,0.6062598,-0.44304192,-38.941105,21.293001,-18.915562,-0.94579506,-0.50091445,0.5362535,9.429448,-0.43937334,-1.567823,1
28,991.0133,0.47475046,0.8648525,-0.5116182,-38.93325,20.299938,-19.628508,2.5385604,2.50905,6.9703526,10.545506,-0.48227188,0.868026,1
28,991.1968,-0.13244952,1.3520772,-0.2454353,-38.929928,20.514717,-21.181274,3.793313,1.4062213,2.7618842,5.7561154,-1.661994,-1.1535676,1
28,990.962,0.720161,0.9061313,-0.19829729,-36.802715,18.505222,-24.855782,2.5716286,-0.7373406,4.582717,8.193789,1.3886031,0.5697534,1
28,990.962,0.720161,0.9061313,-0.19829729,-36.802715,18.505222,-24.855782,1.4391842,-1.4356441,4.804931,7.142205,0.671237,-2.08625,1
28,990.70215,1.1705015,0.47962642,0.4524457,-36.054573,17.62543,-24.919586,2.8029618,-0.89335716,1.8757777,6.6689777,0.044435427,-0.30374923,1
28,990.735,0.017487118,0.47509897,0.51716053,-35.119953,18.764484,-25.900103,4.190418,0.7233312,3.8414755,6.45617,-1.3640795,-0.026796272,1
28,990.30945,0.25157902,0.6443427,0.84699285,-34.22892,20.284494,-27.435081,-1.6287947,-2.1968083,-2.3847356,11.893086,0.027757823,4.0897584,1
28,990.1567,0.37048987,-0.72745055,2.0743098,-32.31414,22.129221,-26.298399,-2.0051956,0.16969514,-2.1748228,11.300358,-2.6724958,4.4519377,1
28,990.23303,-0.41913685,0.36298177,1.6213082,-30.29596,24.80881,-26.073328,-2.3895187,0.38105154,0.60095716,10.941839,-3.227799,1.4834626,1
28,990.44934,-0.19423276,0.54500866,1.0065181,-29.174755,26.860373,-27.597897,-1.434473,-0.19338107,-1.5230823,10.112511,-3.1110175,3.4955816,1
28,990.79047,0.16090009,0.19600159,0.82315993,-26.96355,28.351583,-28.17986,-0.8022299,-1.4551105,0.43840528,9.32142,-2.5700126,2.0634212,1
29,990.79047,0.16090009,0.19600159,0.82315993,-26.96355,28.351583,-28.17986,-2.144374,-3.2327437,-1.2051246,10.083766,-1.1877103,4.272018,1
29,990.30646,-0.12831832,-0.3518103,-0.23637761,-27.481422,28.656588,-27.732983,-0.67364407,0.67670774,1.0871146,8.033196,-4.505233,2.1983457,1
29,990.30646,-0.12831832,-0.3518103,-0.23637761,-27.481422,28.656588,-27.732983,-1.9204321,0.23324013,0.5575175,8.8768,-4.5552807,1.9876618,1
29,990.2376,-0.35655075,0.122098766,-0.39683273,-27.353432,27.722631,-27.313133,0.67874527,1.5370669,-1.1979926,9.244811,-4.238304,2.844586,1
29,990.9939,-2.1942853E-4,0.4736356,0.0022418557,-27.637733,26.45537,-26.964218,-0.62198925,0.8403237,0.5876347,9.388172,-3.6019678,2.224376,1
29,991.35315,0.3137673,-0.43476787,0.7776207,-27.707165,28.023535,-27.276234,-0.920558,-1.2106864,-0.25920868,9.431157,-2.1862998,2.0681376,1
29,991.44995,-0.0035477374,-0.29601738,1.0758946,-26.770996,29.584372,-26.511026,-0.45000648,-2.5906038,-0.4674859,9.196914,-1.287803,2.1935964,1
29,991.79395,-0.18624012,-0.17644158,0.85844785,-26.02296,29.810919,-26.94749,0.4483528,-1.7153423,0.15693521,8.565947,-2.3269114,2.00185,1
29,991.2992,-0.21153982,-0.44914913,0.6408679,-25.664745,31.041075,-25.765938,-0.7114954,-0.9996116,0.5172225,9.419109,-3.4994838,1.4644918,1
29,990.7694,-0.02551784,-0.8387693,0.7520549,-26.133728,32.33974,-24.845848,-1.0243378,-1.0131884,-0.56789255,8.898078,-4.123902,1.6017865,1
29,990.1681,0.16982517,-0.7993546,0.724225,-25.39412,32.71538,-23.59608,0.97261333,-0.18086767,-0.89351976,8.042459,-4.440877,1.7177764,1
29,989.6455,-0.20887569,-0.13130125,0.25124815,-25.788532,33.29427,-23.569176,0.22288513,0.24368429,0.68740886,8.783297,-4.841267,0.31875685,1
29,988.9624,0.19019899,-0.25061083,-0.22359292,-25.60434,32.7292,-23.48751,-0.50434875,-1.2817371,-0.5666282,8.36742,-3.9427705,1.8763729,1
29,988.82764,-0.03337289,-0.11678715,-0.24263439,-26.31004,32.332058,-23.817432,0.113248825,-0.31133652,-0.38998795,8.152297,-4.7888336,1.3035069,1
29,988.5062,-0.16706315,-1.4085384E-4,-0.35941374,-26.68774,31.714888,-23.569149,-1.0263071,-1.4615738,0.2805875,9.347215,-3.4970956,0.6099137,1
29,989.37213,-0.18956652,-0.08283198,-0.370732,-27.02987,31.183607,-23.177402,-0.4129591,-1.184849,0.42167848,8.89071,-3.6472416,1.0880855,1
29,989.5964,0.46304086,-0.20387259,-0.24835978,-27.593826,31.498331,-23.031929,-0.542758,-0.17270947,-0.11772418,9.354318,-3.733039,0.14120157,1
29,990.45514,0.5831497,-0.13609524,-0.34090438,-28.130417,30.627306,-23.206215,-0.3280096,-0.26983285,-0.9807112,9.5287485,-3.5709748,1.878725,1
29,989.98846,0.28727302,0.19240533,-0.55715275,-28.70937,29.506563,-24.437138,-0.05263424,-0.070249796,0.7995304,8.7137575,-3.7878523,0.7803402,1
29,989.9299,0.13707118,-0.108797975,-0.6110816,-29.393494,28.549925,-24.352726,1.5311956,0.7937281,-1.3989856,8.276948,-4.142974,2.2646255,1
29,990.2864,-0.30914488,0.2822875,-0.40974838,-29.29607,28.272543,-24.58246,-1.4404936,-0.041111946,1.202041,10.348983,-3.9332457,0.15781462,1
29,990.96136,-0.38278246,0.63449055,-0.03743933,-29.08392,27.785994,-23.970806,-0.39665318,0.71243,-0.51885474,9.013018,-4.5934134,2.0255365,1
29,990.8268,-0.13550809,0.2360819,0.3922614,-28.527542,28.676168,-24.801489,-0.079488754,-0.08857727,-0.08940244,9.247218,-3.1396132,1.4076955,1
29,990.72974,-0.24323276,0.08334972,0.8604448,-27.333843,29.582811,-24.345627,-0.4435072,-1.3229234,-0.17251861,9.483808,-2.5628595,1.6538837,1
30,990.74756,-0.3197985,0.14060763,0.9352795,-26.656216,31.007772,-24.918346,-1.5272036,-3.2849746,0.31881022,8.7429285,-2.422246,0.9176828,1
30,990.8695,0.16729337,-0.48829734,0.88947326,-26.08321,32.22853,-24.077282,1.2332983,-0.7028489,0.50416327,7.7654486,-3.5185537,0.89164275,1
30,990.8695,0.16729337,-0.48829734,0.88947326,-25.417355,33.167492,-23.234035,1.6254091,-1.3680844,-0.33274055,7.036518,-3.292142,1.7272643,1
30,991.13934,0.0696887,-0.40334263,0.7730933,-24.78777,33.862637,-23.756649,-1.768589,-4.2560596,0.09459299,9.636722,-0.97321177,0.8158903,1
30,990.6224,-0.37732244,-0.3173226,0.30890474,-24.916332,33.95263,-23.20321,2.9699492,1.2317886,-1.6322484,5.4758916,-6.878976,0.3045739,1
30,990.71356,0.87502825,0.23248652,-1.4350648,-28.082668,30.724977,-23.681192,-0.37194538,1.701726,-3.3084092,8.214709,-5.7945833,2.7546272,1
30,990.71356,0.87502825,0.23248652,-1.4350648,-28.082668,30.724977,-23.681192,-3.3918886,1.9118729,-1.6055752,12.965824,-6.142542,2.600758,1
30,990.22943,1.1016632,0.16963597,-0.12186108,-27.488712,29.70167,-25.09856,-3.9042215,2.0411549,-1.1341445,11.61552,-6.52625,2.8185399,1
30,990.7234,0.6642394,0.54447556,0.2734849,-26.84478,28.93543,-25.84581,1.2404981,4.0445127,-1.3334991,6.116345,-9.023925,2.5912874,1
30,990.8663,0.14572245,-0.1326326,0.33766705,-26.128971,29.711176,-26.155476,4.010643,4.0661793,-0.17132986,5.784138,-7.067253,1.8077426,1
30,990.7259,-0.16000798,-0.08389683,2.4636664,-21.15889,33.52103,-25.065699,-3.377285,-7.6361747,1.6814643,11.300021,1.4910997,1.3224652,1
30,990.7259,-0.16000798,-0.08389683,2.4636664,-21.15889,33.52103,-25.065699,-0.35584354,-4.4493265,3.276331,8.589863,-2.1600826,-0.4292656,1
30,990.23444,-0.4271227,0.6644508,1.6504713,-19.368134,35.039875,-25.430523,-1.891787,-2.42839,-1.246725,8.444069,-5.1606297,1.1780639,1
30,990.63617,-0.4938346,0.14886321,1.2976029,-15.789643,38.494907,-24.18253,-0.6471195,0.3842554,-1.5746938,6.778297,-7.949065,1.0312964,1
30,990.05286,0.08074198,0.013175241,1.6067957,-13.218215,39.2169,-24.313087,-0.13489485,0.96252155,1.6691238,7.1080933,-7.6082554,1.0336628,1
30,989.9761,0.72496027,0.18561475,1.3394146,-10.720047,38.501358,-25.503004,-0.10686445,0.6528268,-0.3686508,6.350484,-7.6630716,2.5699763,1
30,990.17474,0.97529733,0.0039873137,1.0287571,-9.919697,38.830006,-26.646362,-0.34684277,-0.40797186,0.80149746,6.030227,-7.7536354,1.27985,1
30,990.595,0.8356147,-0.19535013,0.71330595,-9.152608,37.705513,-28.238457,-0.10019779,1.2843127,-1.0613701,5.793617,-9.500579,3.4363704,1
30,990.64343,0.1591724,-0.7817777,0.2844043,-9.774283,37.649868,-27.677494,-0.054703712,2.2425094,-0.32899463,5.8342347,-9.166919,1.2396055,1
30,991.3088,-0.47745562,-1.2338489,0.031404242,-11.551671,38.671368,-26.231628,0.6173477,-1.569963,1.0330956,5.6620574,-4.972347,0.94132864,1
30,991.6626,-0.4154037,-1.4096174,-0.13517621,-12.625319,39.350468,-24.104328,0.11112976,-2.5504875,-0.16153598,6.3574085,-5.2583375,0.8963416,1
30,991.1806,-0.43311316,-0.46739036,-0.05527988,-13.340392,39.94492,-23.644001,-1.0917778,-2.69001,0.8777979,6.36934,-5.453766,-0.24938594,1
30,991.2774,0.08061034,0.18255351,0.27162296,-12.826113,40.00526,-24.034718,0.7065058,-0.023471355,0.31374604,5.284307,-8.299399,1.2466843,1
30,990.57666,0.41297275,0.16471034,0.48347732,-12.121255,40.138546,-24.228115,-0.95309114,-0.5341301,-0.10992658,6.2067914,-7.3270216,0.5317876,1
30,990.7802,0.5322824,0.52237254,0.5806827,-10.56515,39.59477,-25.821804,-0.3247838,0.14682198,0.38603032,5.9892926,-8.146869,1.7722,1
31,990.123,0.7201685,-0.35513833,0.5848107,-9.909181,38.7344,-26.488419,0.2399559,1.0733852,-2.9246516,4.545774,-10.055875,3.9476573,1
31,989.61847,0.44839326,0.9547363,0.34659114,-8.831785,38.21617,-27.54793,-0.43701458,0.98049355,0.56449795,5.4921575,-9.195511,0.8915975,1
31,989.2591,0.17315598,1.2207859,0.41676545,-6.428676,38.04333,-28.062096,-0.69259167,0.48874474,-0.66146135,5.3989334,-8.873768,2.5415359,1
31,988.3467,-0.1480208,0.14580177,0.3115708,-5.0265737,38.30255,-28.06237,-0.6655102,0.510725,-0.067157984,5.255522,-8.616373,2.1675162,1
31,987.74207,-0.42339128,0.4725713,-0.16939564,-4.5766435,38.354927,-27.82683,-0.12778807,-0.7379222,-0.5912893,5.1025505,-7.8251247,2.6149158,1
31,986.54193,-0.561609,0.70107037,-0.64809835,-5.2751136,38.859665,-27.51778,-0.56357336,-1.0284138,1.0429832,5.573343,-7.5653467,1.5473061,1
31,986.6005,-0.61140996,0.93489563,-0.9498342,-5.371151,39.032604,-26.666271,-0.8599348,-1.4105034,0.48755598,5.8935723,-6.7788644,1.2774434,1
31,987.39044,-0.7187351,0.5495365,-1.1020336,-5.754344,39.673813,-25.259026,-0.084174156,-0.40311527,0.44445884,5.7644997,-7.6582937,1.5330995,1
31,988.06793,-0.77399546,-0.2394243,-0.2210606,-6.5788774,40.639774,-24.649601,-0.5288472,0.21020508,-1.1458647,6.084729,-7.939521,1.9757648,1
31,988.68176,-1.0339196,-0.20666745,0.23580433,-7.1123705,41.404255,-24.227203,0.01644659,-0.7098961,0.8484155,5.310383,-7.756007,0.43944883,1
31,989.3036,-0.71300876,0.3936085,-0.22265838,-6.996747,43.091507,-22.1112,0.36146545,-0.02773428,-0.09183657,5.697529,-7.9252195,0.9341924,1
31,989.528,-0.42072695,0.20266,-0.32119513,-7.2357497,43.183247,-21.232912,-0.8556385,0.18542385,1.3781033,6.130084,-7.994334,0.38263273,1
31,989.701,0.07488712,-0.44755027,0.21609719,-7.7248383,43.41032,-21.555754,0.43044615,0.2541275,-0.026297808,4.982913,-7.879936,1.5330915,1
31,989.701,0.07488712,-0.44755027,0.21609719,-7.7248383,43.41032,-21.555754,-0.37223244,-0.008274555,0.046417356,6.1443877,-7.8513365,0.950758,1
31,989.8769,-0.10900382,0.014241442,-0.059140205,-7.581872,43.49152,-21.582535,-0.428802,0.08173466,0.2943418,5.8743105,-8.103963,0.349487,1
31,989.85596,-0.240963,0.054854557,0.13580316,-6.6936445,43.21619,-20.394566,-0.90455914,-0.120848656,-0.52463895,6.0559254,-7.937134,0.96022356,1
31,989.9575,0.11323729,-0.18043557,0.30584595,-6.111265,43.44537,-20.34375,-0.44374847,0.016304016,0.16197026,5.9937706,-8.337524,0.74007213,1
31,990.02136,-0.25694162,-0.107198715,0.7432698,-5.2216234,44.277863,-19.60574,0.055081844,-0.4524269,-0.3483736,5.231374,-8.022931,0.7116641,1
31,990.02136,-0.25694162,-0.107198715,0.7432698,-5.2216234,44.277863,-19.60574,1.1573758,-0.8746481,-0.2611221,4.0794234,-8.075362,0.9128747,1
31,990.1231,0.040133927,-0.017183973,0.84593475,-4.151975,43.64635,-19.579647,-0.46974087,-0.11625481,-0.7466474,5.018162,-8.153998,1.151917,1
31,990.13605,-0.07771067,0.004787061,0.31383568,-3.3463554,44.13735,-19.732521,-0.48287678,0.46918297,-0.16938108,5.3264227,-8.914264,0.37783846,1
31,990.1177,-0.26985613,0.17909272,0.041929502,-3.059445,44.669502,-19.96184,0.045535088,-0.81684446,0.4973891,4.303508,-7.6368256,0.22159973,1
31,990.1024,-0.5287131,0.3531298,0.07934775,-2.5556564,45.245747,-18.687473,-0.25727987,0.7749748,0.1794065,5.3765373,-9.483865,0.2784092,1
31,990.2169,-0.30966792,0.11251335,0.22022898,-2.2341537,45.49403,-18.597572,-0.4502821,-0.28406525,0.6889558,4.549594,-8.051515,0.690299,1
31,990.2345,0.01870022,-0.083495244,0.58228576,-0.31997204,46.07449,-18.310633,0.5823035,-0.687027,0.87293303,3.7823987,-8.075347,0.36125457,1
32,990.4616,-0.11991685,0.21531114,0.9584571,1.0298166,46.231613,-17.604012,0.68357015,-1.0065136,-0.2611587,3.2876525,-8.423305,0.5766666,1
32,991.1645,-0.36719078,0.039009944,1.3025373,3.5753727,46.928562,-16.420383,0.21229291,0.23069096,0.623776,3.7034588,-9.443345,-0.1761071,1
32,991.08777,-0.3907594,-0.14261754,1.6681892,6.617464,46.879585,-16.424389,-1.2970002,-1.6614895,0.26241735,2.936263,-7.991929,-0.19268088,1
32,990.8992,-0.22351266,-0.14394918,1.4420872,8.910977,46.97234,-16.090378,1.1816479,-0.8947449,-0.26786217,1.9061788,-8.885657,0.3730771,1
32,990.61115,0.076758854,-0.11998083,1.3872261,11.184541,46.519733,-15.875351,-0.6928172,0.19180393,-0.7749182,2.0519261,-9.283664,0.5790203,1
32,990.2441,0.4200404,0.5458088,1.011854,13.671216,45.530033,-17.047455,0.12041402,0.34307575,-0.054448545,1.234543,-9.753168,-0.8105308,1
32,989.87714,0.47610024,-4.0509834E-4,0.7765643,15.122149,45.150352,-17.325808,-0.6743084,0.017710686,-1.586112,1.6407894,-9.741251,1.646622,1
32,989.9074,0.044136215,0.14047596,0.9569934,16.81456,43.837902,-17.663773,-0.43753493,-0.6924429,1.1372416,0.7779981,-9.278893,-0.7987016,1
32,989.9328,0.17702821,0.21557699,0.89454246,18.60056,43.613842,-17.848896,0.26211745,0.8018484,-1.4425747,0.39079714,-10.530114,2.1153212,1
32,990.25867,0.6464103,0.38641855,0.8348879,20.533897,41.73691,-18.344925,-0.06631581,0.55239487,0.84391254,0.005986184,-10.522964,0.058218986,1
