Timestamp,P,Gx,Gy,Gz,Mx,My,Mz,LiAx,LiAy,LiAz,Ax,Ay,Az,earthAx,earthAy,earthAz,Value,Type
0,985.909057617188,0.000505216245074,-0.000321186205838,0.000113708723802,-10.8187675476074,21.5927200317383,-33.2521057128906,0.084456890821457,0.095084488391876,0.044052124023438,0.08803511,-0.15862061,9.771206,-0.11948848,-0.042136684,9.772069,0,
0,985.916625976562,-0.000159313611221,-0.000321390689351,-0.000418383220676,-11.1884231567383,21.7209701538086,-33.6645545959473,0.098770961165428,0.085485875606537,0.034599304199219,0.0902943,-0.14908428,9.773561,-0.114002936,-0.031500697,9.774398,0,
0,985.931823730469,0.000241419591475,-0.0007210689364,-1.83695810846984E-05,-11.6349039077759,21.1973342895508,-33.2571754455566,0.074513003230095,0.066431432962418,0.03935432434082,0.09733334,-0.1490811,9.761713,-0.106459334,-0.0373621,9.762685,0,
0,985.943664550781,-2.36369087360799E-05,-0.000188641686691,-0.000284145760816,-10.83664894104,20.6805381774902,-33.3499450683594,0.088628426194191,0.085257776081562,0.04410457611084,0.0924229,-0.15622772,9.761701,-0.11349988,-0.04185109,9.762639,0,
0,985.94091796875,0.00024393881904,0.00167536479421,-0.000150448002387,-11.086573600769,21.3420906066895,-33.4271278381348,0.078753083944321,0.080266058444977,0.02992057800293,0.09468216,-0.15384127,9.768791,-0.10976769,-0.041269198,9.769757,0,
0,985.913024902344,-0.000287433795165,0.000343581137713,-0.000283066125121,-11.1271162033081,21.7259902954102,-34.1362037658691,0.102834492921829,0.09870957583189,0.044130325317383,0.08499181,-0.15860464,9.766411,-0.12025632,-0.040901735,9.767242,0,
0,985.937622070312,-0.000551230565179,-0.000189459475223,-1.56708410941064E-05,-10.7805881500244,20.9435043334961,-32.9890480041504,0.07898373901844,0.079840734601021,0.063081741333008,0.09442079,-0.14906831,9.764032,-0.10770832,-0.03634806,9.764967,0,
0,985.927185058594,0.001047923928127,0.000209809863009,-1.51310232467949E-05,-10.6275119781494,21.4033050537109,-33.6554145812988,0.088151395320892,0.075065582990646,0.034697532653809,0.08951029,-0.15383168,9.766388,-0.113192156,-0.040329948,9.767271,0,
0,985.921752929688,0.000383393780794,0.000742237258237,0.000518040556926,-10.3747882843018,21.7451248168945,-33.406421661377,0.092265665531159,0.093815453350544,0.053659439086914,0.08459985,-0.16097827,9.7569065,-0.11900051,-0.046739772,9.757765,0,
0,985.908813476562,-0.000547452073079,0.001407822361216,0.000651738257147,-10.3541917800903,20.8158569335937,-32.816333770752,0.077799573540688,0.09376721829176,0.039471626281738,0.09163886,-0.15144198,9.7782,-0.10933168,-0.038950115,9.779114,0,
0,985.941833496094,0.000119596777949,-0.000190277292859,0.000652277958579,-10.843578338623,20.4107971191406,-33.5640449523926,0.07751502096653,0.084065355360508,0.020552635192871,0.09867787,-0.14428885,9.780556,-0.10040924,-0.0328162,9.781546,0,
0,985.8857421875,0.000653487804811,0.001274255570024,-0.000146129808854,-10.9671411514282,21.2432632446289,-33.516731262207,0.081857681274414,0.074635274708271,0.044247627258301,0.093767434,-0.15620206,9.771074,-0.109128535,-0.04293655,9.772069,0,
0,985.913146972656,0.001054221531376,-5.75283193029463E-05,0.000786515476648,-11.0569524765015,21.5280075073242,-33.6735229492187,0.086771085858345,0.074540711939335,0.020586967468262,0.088856965,-0.14428248,9.771061,-0.10815466,-0.03020972,9.771886,0,
0,985.907958984375,-9.78278694674373E-06,0.000208583078347,-0.000145050347783,-11.3925580978394,21.7406730651855,-33.8652038574219,0.081595152616501,0.09378581494093,0.044280052185059,0.086603284,-0.16335206,9.76634,-0.11853329,-0.045776606,9.767264,0,
0,985.895263671875,0.00039031036431,0.001540062017739,-0.000677416624967,-10.9610538482666,21.2491569519043,-33.8259506225586,0.070987179875374,0.08400971442461,0.025315284729004,0.0987052,-0.15858923,9.782925,-0.10478506,-0.047497183,9.784032,0,
0,985.884826660156,-0.000155354733579,0.000488294521347,0.000126522965729,-10.6203374862671,20.6726150512695,-33.7677383422852,0.080231100320816,0.097810350358486,0.039532661437988,0.09859604,-0.16335313,9.763977,-0.10604627,-0.051954746,9.765127,0,
0,985.877136230469,-0.000686934567057,0.000488123652758,0.000659605721012,-10.6875953674316,20.7676239013672,-33.6859474182129,0.099236622452736,0.073727712035179,0.025341033935547,0.0793677,-0.14190091,9.77817,-0.11374492,-0.023802102,9.778832,0,
0,985.894409179688,-0.000153250875883,0.000487952929689,0.000127424718812,-10.8365106582642,20.7864532470703,-34.0490226745605,0.079735741019249,0.087567195296288,0.020622253417969,0.08881813,-0.15858121,9.780527,-0.1122455,-0.042111203,9.781481,0,
0,985.904602050781,-1.90407736226916E-05,-0.000311165465973,-0.000138440285809,-11.4578886032104,21.3629531860352,-33.0631904602051,0.084923908114433,0.073336891829968,0.01115894317627,0.09348881,-0.15142868,9.780518,-0.10565644,-0.036350027,9.781499,0,
0,985.878540039063,0.000248327036388,-0.000577652128413,-0.000137989409268,-10.9802951812744,20.8617172241211,-32.7225379943848,0.075108930468559,0.082659408450127,0.049049377441406,0.09337968,-0.14904274,9.766304,-0.10378461,-0.03521855,9.767272,0,
0,985.86083984375,-0.001082200324163,-0.000178349000635,-4.38065035268664E-06,-11.1213035583496,21.5200424194336,-33.0472679138184,0.089690074324608,0.091874785721302,0.020648002624512,0.088490695,-0.16095646,9.77813,-0.11331815,-0.04397744,9.779099,0,
1,985.86572265625,0.000916220829822,-0.000711151631549,0.000262386165559,-10.8902082443237,20.7888031005859,-33.9639015197754,0.08983126282692,0.082180626690388,0.049062728881836,0.07882196,-0.15142061,9.761549,-0.11764357,-0.030678838,9.762284,0,
1,985.88330078125,-1.48328253999352E-05,-4.55327390227467E-05,-3.47895547747612E-06,-11.1326608657837,21.351806640625,-33.7285270690918,0.080344989895821,0.072346732020378,0.044336318969727,0.085882515,-0.15141802,9.7639065,-0.11114952,-0.03370747,9.764768,0,
1,985.875366210938,-0.000679570366628,-0.000711493252311,0.000529603741597,-10.5317497253418,21.0185356140137,-33.1087684631348,0.085142314434052,0.081766873598099,0.034877777099609,0.08338347,-0.14903201,9.775733,-0.11179809,-0.032153144,9.776532,0,
1,985.872802734375,0.000120429089293,8.72836972121149E-05,0.00039689661935,-10.5241394042969,21.0258941650391,-33.4952964782715,0.089506894350052,0.081563718616963,0.034895896911621,0.08805412,-0.15379585,9.768621,-0.109260276,-0.037850976,9.769544,0,
1,985.867492675781,0.000254639191553,0.00035342873889,-2.12632585316896E-06,-10.6640625,20.9476509094238,-33.623119354248,0.070333227515221,0.086164094507694,0.039642333984375,0.09511468,-0.14902665,9.770978,-0.10040693,-0.03717017,9.771992,0,
1,985.862365722656,0.000122533063404,0.000220100017032,-1.67544931173325E-06,-10.4191083908081,20.7558822631836,-34.1115531921387,0.084697276353836,0.085907161235809,0.039651870727539,0.092615604,-0.16094036,9.7757015,-0.108002216,-0.04582846,9.776762,0,
1,985.87255859375,0.000256743165664,-0.000712176319212,0.000131933251396,-10.5862884521484,20.7570343017578,-33.5469703674316,0.075503274798393,0.071657590568066,0.03018856048584,0.09011659,-0.14902134,9.768591,-0.105172195,-0.034105614,9.769518,0,
1,985.866943359375,0.000390953035094,-0.000579189159907,0.000132384244353,-10.7237091064453,21.0500221252441,-33.9278564453125,0.079825267195702,0.07621031999588,0.030206680297852,0.090007424,-0.15855171,9.773315,-0.10929492,-0.04160042,9.774317,0,
1,985.866943359375,0.000390953035094,-0.000579189159907,0.000132384244353,-11.1507863998413,21.4400444030762,-33.4999465942383,0.084452196955681,0.075964942574501,0.039688110351563,0.08989829,-0.14663275,9.770939,-0.10312689,-0.03269431,9.771854,0,
1,985.8642578125,-0.000140626798384,0.000485903437948,0.000132835004479,-10.9802646636963,22.073974609375,-33.7942695617676,0.089187622070313,0.085211008787155,0.049168586730957,0.08500934,-0.15854634,9.766193,-0.112573154,-0.040598348,9.767117,0,
1,985.843566894531,-0.000190858903807,0.000108985113911,-0.001007895334624,-10.8240375518799,21.4303741455078,-34.2425918579102,0.065002664923668,0.075277015566826,0.04444694519043,0.0944598,-0.15139388,9.759083,-0.09974601,-0.03970769,9.760124,0,
1,985.88623046875,7.65089062042534E-05,0.000241972273216,0.000324135064147,-10.6324825286865,21.8730926513672,-34.2210273742676,0.069640010595322,0.055996522307396,0.044460296630859,0.09196076,-0.14900793,9.763807,-0.10163455,-0.03378673,9.76479,0,
1,985.845825195313,-0.000455070810858,-2.45143892243505E-05,0.000590901763644,-11.3749752044678,22.0207252502441,-34.1922416687012,0.083554521203041,0.084170915186405,0.035006523132324,0.089461684,-0.1442387,9.768532,-0.10086964,-0.02918081,9.769442,0,
1,985.845458984375,-5.45450602658093E-05,0.001440052175894,-0.000207594945095,-10.9660234451294,21.7189407348633,-34.3915672302246,0.083458304405212,0.079246781766415,0.044487953186035,0.082182854,-0.15615238,9.768522,-0.112983346,-0.034711704,9.769401,0,
1,985.875671386719,-0.000452966836747,-0.000291171832941,-0.000207144126762,-10.9793395996094,20.8111763000488,-34.7213172912598,0.07893793284893,0.078890196979046,0.025556564331055,0.09402323,-0.1466166,9.777979,-0.09789762,-0.031969264,9.778988,0,
1,985.873168945312,0.000213874795008,-0.0004245005548,-0.00087248289492,-10.9488773345947,21.2609405517578,-34.444393157959,0.078744888305664,0.078718416392803,0.044506072998047,0.08196455,-0.15376379,9.763767,-0.111348175,-0.03326711,9.76463,0,
1,985.88037109375,-0.000184546981473,-0.000158355454914,0.000592705211602,-10.9730911254883,21.3432846069336,-33.9065895080566,0.08349934220314,0.074130989611149,0.035052299499512,0.08185542,-0.14899455,9.768492,-0.10951937,-0.028465807,9.769316,0,
1,985.887756347656,0.000615452707279,-0.000291684118565,6.05243258178234E-05,-10.6975679397583,20.4949417114258,-33.7454414367676,0.078353941440582,0.083588480949402,0.030272483825684,0.089488,-0.15615572,9.773268,-0.10611349,-0.037766293,9.774276,0,
1,985.882019042969,0.000468384241685,0.0003853647504,-7.03501864336431E-05,-10.7196865081787,21.4227294921875,-34.2582244873047,0.068729743361473,0.083326235413551,0.049219131469727,0.0941816,-0.15377034,9.770893,-0.09979057,-0.039639905,9.771968,0,
1,985.87939453125,-0.000598742975853,-0.000280122418189,6.20090868324041E-05,-10.687159538269,21.5056762695312,-33.9601516723633,0.082972019910812,0.073228232562542,0.058699607849121,0.07975596,-0.14423509,9.751947,-0.107944876,-0.02495189,9.75271,0,
1,985.866821289063,6.78779324516654E-05,-0.000413415284129,0.000195523229195,-11.1762466430664,21.7327537536621,-34.2829933166504,0.068818032741547,0.068295195698738,0.044496536254883,0.101178825,-0.14899953,9.763776,-0.09138015,-0.036780864,9.76494,0,
1,985.869201660156,-0.000463922508061,-0.001478813705035,-0.000736226153094,-11.3733463287354,20.9158554077148,-33.8968849182129,0.09279191493988,0.096397824585438,0.053970336914063,0.07719356,-0.16568036,9.759033,-0.1209023,-0.03795591,9.759923,0,
1,985.883850097656,-0.000329933711328,-0.000280527223367,0.000196235720068,-10.6438703536987,20.4925880432129,-33.8305587768555,0.078829362988472,0.086799196898937,0.044502258300781,0.093836665,-0.15852846,9.770863,-0.10240732,-0.041008085,9.771976,0,
1,985.891296386719,0.000469845137559,-0.001212767674588,-0.000336039985996,-10.7771081924438,21.6845092773437,-33.4178657531738,0.074190884828568,0.086468607187271,0.025570869445801,0.0889706,-0.16090961,9.782689,-0.10715844,-0.04232447,9.783738,0,
1,985.89111328125,-6.19553029537201E-05,0.000251834688243,0.000729579885956,-10.8681974411011,20.9673538208008,-33.8237724304199,0.074323922395706,0.081462033092976,0.03504753112793,0.09366417,-0.15375765,9.77558,-0.10027879,-0.036103472,9.776658,0,
2,985.890563964844,0.000205191783607,-0.0013461955823,6.41464139334857E-05,-11.098611831665,21.4362258911133,-33.5077629089355,0.074124932289124,0.081164494156838,0.049258232116699,0.09596783,-0.15613873,9.754267,-0.09868087,-0.039405137,9.755411,0,
2,985.9130859375,0.00020602287259,0.000517880776897,-0.000201813236345,-11.2319030761719,20.9955825805664,-33.846363067627,0.078823804855347,0.057362660765648,0.02559757232666,0.08632201,-0.13468714,9.773197,-0.098059356,-0.014419213,9.774003,0,
2,985.9033203125,-5.94619195908308E-05,-0.000680675613694,0.000198016758077,-10.7167806625366,21.3197593688965,-33.7137565612793,0.064456284046173,0.080956771969795,0.030339241027832,0.10296509,-0.15851782,9.775557,-0.09282517,-0.045440674,9.776838,0,
2,985.9130859375,0.000607158988714,-0.000680810655467,-0.00020110089099,-10.6273736953735,21.509220123291,-34.3544960021973,0.064669623970985,0.081106677651405,0.054018974304199,0.10287887,-0.15613247,9.770813,-0.091672264,-0.0440733,9.772073,0,
2,985.88525390625,-5.7799625210464E-05,0.000118002120871,-0.000733376422431,-10.9033327102661,21.619514465332,-34.2414360046387,0.06922659277916,0.061585783958435,0.030355453491211,0.098012805,-0.1418307,9.763704,-0.08964944,-0.02811648,9.764774,0,
2,985.925231933594,-0.00032328418456,0.00051734095905,0.000199085334316,-10.9163494110107,21.3438873291016,-34.1463241577148,0.083314225077629,0.070665970444679,0.030364990234375,0.08119726,-0.14897843,9.775533,-0.10769233,-0.026189357,9.776377,0,
2,985.882141113281,0.000343336723745,-0.001213847193867,-0.000200032198336,-10.7001762390137,21.2300453186035,-33.8650321960449,0.064255297183991,0.075221665203571,0.020904541015625,0.09545043,-0.1537428,9.782626,-0.09674155,-0.03704472,9.7837515,0,
2,985.914978027344,-0.00032162212301,0.000517071224749,0.000199797825189,-11.0759201049805,21.3524017333984,-33.96826171875,0.083370700478554,0.08014453202486,0.025649070739746,0.08580461,-0.1513574,9.7731495,-0.10463124,-0.02976349,9.774093,0,
2,985.909423828125,-5.44749200344086E-05,0.000383778242394,-0.000465635734145,-10.7645273208618,21.2220840454102,-33.2387733459473,0.06809575855732,0.065294355154038,0.058811187744141,0.10244769,-0.14420547,9.751837,-0.08486452,-0.031815395,9.75302,0,
2,985.88916015625,-0.000319959479384,0.001049433136359,-0.000997911207378,-11.0373039245605,21.4412422180176,-33.9794082641602,0.077793166041374,0.055220238864422,0.054079055786133,0.085632145,-0.14658667,9.761297,-0.1011,-0.025350526,9.7622175,0,
2,985.901428222656,-0.000452286447398,-0.000415439222706,0.000866656075232,-10.8481130599976,21.6186408996582,-34.403865814209,0.053871631622315,0.07401055842638,0.049352645874024,0.109444916,-0.15373437,9.766025,-0.082305714,-0.042918906,9.7674055,0,
2,985.906433105469,-0.000584613298997,-0.001880311523564,-0.000597724982072,-11.1487226486206,21.0732345581055,-33.4788017272949,0.063748523592949,0.054658196866512,0.020947456359863,0.102188975,-0.13704933,9.784954,-0.08184016,-0.024365768,9.786075,0,
2,985.898803710938,-0.000317466096021,-1.62352225743234E-05,0.000467894744361,-10.5270462036133,21.1288681030273,-34.0397605895996,0.063735976815224,0.073212407529354,0.044624328613281,0.09971285,-0.15373011,9.756539,-0.09144362,-0.03634113,9.757765,0,
2,985.90380859375,-0.000849266769364,0.000116787792649,6.87770661897957E-05,-11.2536153793335,21.4491577148438,-33.5616188049316,0.068700715899468,0.068398281931877,0.054099082946777,0.09245691,-0.14896147,9.761267,-0.09584298,-0.028830126,9.762329,0,
2,985.933959960938,0.001015775371343,-0.00068229471799,6.91332970745861E-05,-11.0357828140259,21.4427185058594,-34.056713104248,0.077601730823517,0.063364185392857,0.035184860229492,0.085200965,-0.14657606,9.76836,-0.10036272,-0.024104208,9.769286,0,
2,985.933959960938,0.001015775371343,-0.00068229471799,6.91332970745861E-05,-11.0357828140259,21.4427185058594,-34.056713104248,0.077437296509743,0.068002179265022,0.039926528930664,0.087504625,-0.15134056,9.775454,-0.10058422,-0.028092757,9.776461,0,
2,985.921203613281,0.000217659049667,0.000782307586633,0.000202647468541,-11.0618171691895,20.8914566040039,-33.8664779663086,0.067673817276955,0.082019463181496,0.025732040405274,0.09705591,-0.1561069,9.770719,-0.09294023,-0.038748577,9.77193,0,
2,985.920837402344,0.000351648195647,0.000515856896527,6.9845758844167E-05,-10.8126792907715,21.5986175537109,-33.5613288879395,0.076815262436867,0.062603384256363,0.044665336608887,0.09227258,-0.14419039,9.76125,-0.09162673,-0.025522396,9.762288,0,
2,985.897766113281,-0.000180152477697,0.000116247974802,-0.000462429772597,-10.6654462814331,21.0520935058594,-34.2448959350586,0.072149336338043,0.062367275357246,0.054140090942383,0.09219271,-0.14418842,9.761242,-0.09167576,-0.025081366,9.76228,0,
2,985.905029296875,-0.00058723607799,-0.000809931894764,7.12370383553207E-05,-10.8030052185059,21.2391662597656,-33.9267082214355,0.067217350006104,0.066784948110581,0.044678688049317,0.09450269,-0.15371956,9.775438,-0.09378144,-0.033696264,9.776597,0,
2,985.920227050781,-0.000320150109474,0.000122048601042,-0.001260012388229,-10.9014053344727,21.1467819213867,-33.5212135314941,0.071762502193451,0.075982645153999,0.049424171447754,0.08725309,-0.1632507,9.768329,-0.103952594,-0.03909351,9.769452,0,
2,985.922607421875,0.000213251740206,-0.000144392281072,-0.000593892706092,-10.9715690612793,21.3447647094727,-33.9838905334473,0.071723461151123,0.090243637561798,0.044697761535645,0.08956313,-0.16324873,9.758854,-0.1021079,-0.039105162,9.760018,0,
2,985.912292480469,0.000155147979967,0.000161002390087,0.000297534046695,-10.9945592880249,20.7964477539062,-33.9482650756836,0.071425378322601,0.061571061611176,0.030508041381836,0.09426302,-0.14418061,9.768314,-0.088851005,-0.024794921,9.7694,0,
2,985.914794921875,0.00055539177265,-0.000238596490817,0.000697337905876,-11.1446990966797,21.4459381103516,-33.8091697692871,0.076180264353752,0.065795436501503,0.054184913635254,0.0989629,-0.15371175,9.763573,-0.08856776,-0.034945667,9.764819,0,
3,985.9072265625,-0.000775417429395,-0.000105563580291,0.000564510002732,-10.7556934356689,20.5987854003906,-34.1274795532227,0.066320940852165,0.070415325462818,0.035259246826172,0.09171331,-0.15847631,9.768299,-0.09597168,-0.03816721,9.769469,0,
3,985.881469726563,0.000157458242029,2.74693302344531E-05,0.000165366276633,-10.5035133361816,21.3088912963867,-33.9769401550293,0.060941562056542,0.075173743069172,0.030542373657227,0.0988031,-0.15370782,9.775394,-0.087113604,-0.03677395,9.776645,0,
3,985.924194335938,0.000424544210546,0.001225765794516,-0.000233777507674,-10.4870462417603,21.1132659912109,-33.4291343688965,0.084799095988274,0.065359093248844,0.025816917419434,0.08199391,-0.14417277,9.777754,-0.09779321,-0.021554947,9.778648,0,
3,985.891052246094,-0.00037286337465,0.00016025226796,0.000166356388945,-10.7062635421753,21.2241516113281,-33.5558128356934,0.055740892887116,0.074609026312828,0.025829315185547,0.0986433,-0.15608712,9.78248,-0.08784691,-0.037921935,9.783754,0,
3,985.929016113281,-0.0002389352303,0.000426443119068,0.000166686309967,-10.620475769043,20.5666999816895,-33.0686569213867,0.084154173731804,0.07450794428587,0.058981895446777,0.08661392,-0.14893539,9.7588005,-0.09518495,-0.025746092,9.759823,0,
3,985.86572265625,-0.000504481024109,0.000958949909545,0.001232279930264,-10.4809589385986,21.1191558837891,-33.7383575439453,0.064388573169708,0.083468355238438,0.063730239868164,0.09370372,-0.16323306,9.749325,-0.09350519,-0.0431834,9.750599,0,
3,985.893615722656,-0.000503710936755,0.001491456641816,0.000566820264794,-10.5096006393433,21.3030014038086,-33.6677169799805,0.078367531299591,0.063729554414749,0.030597686767578,0.07928443,-0.15131475,9.768256,-0.10086313,-0.025745988,9.769196,0,
3,985.905883789063,-0.000636098906398,-0.00130498514045,0.000167676480487,-10.8021640777588,21.5030136108398,-33.4033813476562,0.063879832625389,0.072902761399746,0.035340309143067,0.10310355,-0.1560793,9.765881,-0.08130648,-0.0394305,9.767254,0,
3,985.885620117188,-0.0002358549973,0.000559100997634,-0.00049778324319,-11.103720664978,21.8000984191895,-33.3742980957031,0.073549911379814,0.091471567749977,0.059015274047852,0.08629435,-0.17037706,9.751671,-0.10258634,-0.044130564,9.752903,0,
3,985.915649414063,-0.000368242850527,-0.000905761262402,0.000434652407421,-10.8511571884155,21.6156921386719,-34.2492561340332,0.063593730330467,0.076893754303455,0.040090560913086,0.095774055,-0.16560848,9.780069,-0.091450475,-0.044152766,9.781414,0,
3,985.895446777344,0.000564632704481,0.001091482816264,-0.000763439049479,-11.205325126648,21.1785469055176,-33.9381484985352,0.068091049790382,0.081416197121143,0.044835090637207,0.08135474,-0.16560657,9.770594,-0.1047081,-0.035677224,9.771709,0,
3,985.910339355469,-0.000233544851653,-0.00063969544135,3.58386314474046E-05,-11.1030397415161,21.5377235412598,-33.974925994873,0.058912694454193,0.066753335297108,0.040101051330567,0.10278398,-0.15368818,9.765852,-0.07988395,-0.035275325,9.767213,0,
3,985.915344238281,0.00016669894103,-0.000506662530825,-0.000230147212278,-11.2007598876953,21.1829681396484,-34.1700630187988,0.077748119831085,0.075952716171742,0.054318428039551,0.083584875,-0.15845276,9.768211,-0.09918317,-0.029898614,9.769305,0,
3,985.905212402344,-0.000232004909776,-0.000240471636062,0.00030281447107,-10.9091758728027,20.6131973266602,-34.2586402893066,0.077638104557991,0.07581590116024,0.063792228698731,0.08589488,-0.15845083,9.758736,-0.09667941,-0.030961633,9.7598715,0,
3,985.8720703125,-0.000231234938838,-0.00010743868188,-0.000229487253819,-11.1907863616943,21.4556503295898,-34.1105690002441,0.062726676464081,0.075171045958996,0.030666351318359,0.09776449,-0.15844886,9.763464,-0.085437655,-0.03650087,9.764797,0,
3,985.884338378906,-0.00036362267565,0.000957699725404,-0.000761788978707,-10.8264007568359,21.1650543212891,-34.6886100769043,0.071744114160538,0.055732056498528,0.044883728027344,0.08095527,-0.14653058,9.763456,-0.09383584,-0.019029558,9.764421,0,
3,985.897216796875,-0.000362852704711,0.000824416871183,-9.56692383624613E-05,-10.997166633606,21.531551361084,-34.0678634643555,0.057170704007149,0.050714008510113,0.035421371459961,0.09043503,-0.15606172,9.768183,-0.08923564,-0.031594902,9.769389,0,
3,985.897094726563,3.73912043869495E-05,0.000424817961175,-0.000361655198503,-10.7321605682373,20.77880859375,-34.0646553039551,0.080574750900269,0.055279433727264,0.040170669555664,0.07894468,-0.1417733,9.765858,-0.09266398,-0.013420448,9.766758,0,
3,985.90673828125,-9.88546526059508E-05,0.000159003422596,-0.000895610137377,-11.0703754425049,21.7265930175781,-34.3759346008301,0.079134672880173,0.069484747946262,0.040083885192871,0.08421603,-0.15370174,9.775372,-0.092794225,-0.02685368,9.776466,0,
3,985.878784179688,-0.000112673151307,0.001377699547447,-9.19894664548337E-05,-11.2483692169189,21.1912078857422,-34.3941612243652,0.054758310317993,0.059672057628632,0.054295539855957,0.09612876,-0.15131755,9.761164,-0.08082375,-0.028791472,9.762433,0,
3,985.878784179688,0.000553470687009,0.00057869439479,4.13203961215913E-05,-11.1315441131592,21.8274841308594,-34.6033630371094,0.073466166853905,0.064453154802322,0.030632972717285,0.0817526,-0.14893337,9.775365,-0.0921574,-0.020668626,9.776386,0,
3,985.871032714844,0.000553824938834,-8.7152817286551E-05,-9.16857388801873E-05,-11.2323083877563,21.469783782959,-34.6438865661621,0.068375080823898,0.073846206068993,0.049578666687012,0.08410573,-0.1632321,9.763525,-0.096140996,-0.034347266,9.764718,0,
3,985.893432617188,2.15476611629128E-05,0.000578579376452,-0.00049100763863,-10.9869499206543,20.8038139343262,-34.3347969055176,0.063081279397011,0.049670614302158,0.030649185180664,0.093628585,-0.1393985,9.770624,-0.07612909,-0.017846435,9.771754,0,
3,985.891296386719,2.19019129872322E-05,0.000844837748446,-0.000224539951887,-11.0117063522339,21.2544479370117,-33.8954429626465,0.062385231256485,0.073265857994557,0.044865608215332,0.09120193,-0.1560805,9.77062,-0.08500175,-0.03180267,9.771871,0,
3,985.893859863281,-0.000244059716351,0.001244253944606,0.000175085675437,-11.2102966308594,21.6483345031738,-34.5037574768066,0.052189618349075,0.068351201713085,0.054347038269043,0.10072479,-0.15846287,9.761148,-0.07663698,-0.038813516,9.762577,0,
4,985.893859863281,-0.000244059716351,0.001244253944606,0.000175085675437,-10.9012670516968,21.2526931762695,-34.2202949523926,0.056508556008339,0.053814813494682,0.059091567993164,0.09829813,-0.15131216,9.751676,-0.07502448,-0.031417698,9.753007,0,
4,985.880737304688,0.000288926414214,0.000977880670689,0.000175237539224,-10.5379981994629,20.4864196777344,-33.9234962463379,0.055835470557213,0.058437652885914,0.040165901184082,0.09109163,-0.1513112,9.761141,-0.080852285,-0.028326333,9.7623625,0,
4,985.903198242188,0.000156122841872,0.001643612864427,-9.09265945665538E-05,-10.9285259246826,21.3320999145508,-33.5278816223145,0.069868370890617,0.077436871826649,0.030705451965332,0.08388513,-0.16561003,9.76824,-0.09354399,-0.03754346,9.769484,0,
4,985.872680664063,0.000689108739607,0.000178817921551,0.000175541266799,-10.9490156173706,21.1550216674805,-33.7453117370605,0.064739316701889,0.081788927316666,0.049648284912109,0.086238325,-0.16322578,9.761135,-0.0899405,-0.035967782,9.762401,0,
4,985.860046386719,0.00055665941909,0.000578176695853,0.000175844877958,-11.1882848739624,21.8268890380859,-34.3636322021484,0.059141054749489,0.067372396588326,0.040197372436524,0.090981364,-0.15607508,9.754029,-0.08160714,-0.032857537,9.755306,0,
4,985.860046386719,0.00055665941909,0.000578176695853,0.000175844877958,-11.1882848739624,21.8268890380859,-34.3636322021484,0.04482601583004,0.057671919465065,0.025994300842285,0.09811431,-0.14654113,9.7682295,-0.070975415,-0.02648814,9.769528,0,
4,985.860290527344,0.000423855963163,0.000711277127266,-0.000489792961162,-11.1711387634277,21.3688888549805,-34.4164619445801,0.059312641620636,0.066750712692738,0.054398536682129,0.088517934,-0.15845652,9.75639,-0.084119044,-0.033989966,9.757656,0,
4,985.892395019531,-0.000374737312086,-0.001019833609462,-9.01672174222767E-05,-10.78542137146,21.5192108154297,-34.2537422180176,0.06368924677372,0.061564818024635,0.035466194152832,0.090871096,-0.1560724,9.768223,-0.08078647,-0.031790927,9.769506,0,
4,985.892395019531,-0.000108067179099,0.00031168825808,0.000442616408691,-10.9790410995483,21.4433097839355,-34.2964477539063,0.044173985719681,0.061307244002819,0.026004791259766,0.10517377,-0.14892162,9.77532,-0.06445527,-0.03139329,9.776757,0,
4,985.872009277344,-0.001306134276092,0.000178472866537,0.000176452391315,-11.0999956130981,21.5406646728516,-34.1295356750488,0.062936961650848,0.070602677762508,0.044950485229492,0.09079754,-0.16083713,9.768216,-0.08219189,-0.035537392,9.769552,0,
4,985.872131347656,0.00029211526271,0.000711046974175,-0.000222869566642,-10.8666753768921,20.9688262939453,-33.9010772705078,0.048444122076035,0.046500369906426,0.030749320983887,0.09554058,-0.14653657,9.77058,-0.0714248,-0.02425468,9.771854,0,
4,985.897338867188,-0.001005948288366,0.000342582177836,0.00029657111736,-11.1826333999634,21.0947265625,-34.3986473083496,0.062536686658859,0.055487684905529,0.044956207275391,0.0835543,-0.15845205,9.758739,-0.087007284,-0.028958276,9.7599535,0,
4,985.887023925781,-0.000206646509469,7.62087875045836E-05,0.000429880979937,-10.5444917678833,20.9547386169434,-34.411808013916,0.052784249186516,0.064745657145977,0.030755996704102,0.09307715,-0.1560679,9.780043,-0.07662085,-0.032406077,9.781377,0,
4,985.856140136719,6.00238563492894E-05,0.000342467159498,-0.000102598860394,-11.2439413070679,21.089714050293,-33.9269981384277,0.061941906809807,0.064824461936951,0.030767440795899,0.0906505,-0.15130042,9.780039,-0.077010676,-0.025431126,9.781291,0,
4,985.866271972656,0.000593009986915,-0.000190222053789,-0.000235604995396,-11.1561946868896,21.1717834472656,-33.7913551330566,0.042736947536469,0.050069846212864,0.04970645904541,0.10495317,-0.13938315,9.765832,-0.058286242,-0.021564662,9.767193,0,
4,985.873962402344,-0.000605057342909,-0.000190279621165,-0.000235453131609,-11.1430397033691,21.5533294677734,-34.5855522155762,0.076269686222077,0.054602928459644,0.04970645904541,0.07384765,-0.15368192,9.761095,-0.09221012,-0.0207531,9.762127,0,
4,985.858825683594,0.000460560782813,-0.000989284832031,-0.000235301326029,-10.8976802825928,20.8873558044434,-34.2764549255371,0.047239765524864,0.068693839013577,0.035511016845703,0.1000998,-0.16083078,9.763458,-0.071658894,-0.038584903,9.764957,0,
4,985.856140136719,-0.00020487466827,0.001407500589266,0.000297482358292,-10.6208810806274,21.0409049987793,-33.8661842346191,0.052364468574524,0.06376663595438,0.054510116577149,0.087506354,-0.1536652,9.761031,-0.07895579,-0.027623221,9.762276,0,
4,985.888854980469,-0.000337111938279,-0.000723740027752,-0.000761724368203,-10.5792217254639,21.1326904296875,-34.0319442749023,0.057072818279266,0.053762465715408,0.040309906005859,0.089835286,-0.1584303,9.770494,-0.07860724,-0.03268531,9.771823,0,
4,985.883728027344,-0.000335101329256,-0.000191434693988,0.000437558803242,-11.1069250106812,21.2709312438965,-34.3436393737793,0.066715374588966,0.067619726061821,0.049777984619141,0.084994614,-0.15842874,9.772858,-0.08333081,-0.028674096,9.774114,0,
4,985.901306152344,0.000198117399123,0.000207943900023,0.000171494495589,-10.9910793304443,21.5374450683594,-34.3770866394043,0.066269114613533,0.062615111470223,0.030852317810059,0.0849337,-0.16081049,9.768118,-0.083567336,-0.031648815,9.769403,0,
4,985.853393554688,-0.000200769107323,0.000207848555874,3.8588244933635E-05,-10.7538738250732,21.2323951721191,-33.7799110412598,0.047274515032768,0.057700701057911,0.068731307983399,0.09682226,-0.15127595,9.751541,-0.0684393,-0.02867484,9.7529125,0,
4,985.868408203125,0.000998239964247,-0.001256984192878,0.000438313843915,-11.0431480407715,20.4349212646484,-33.9966125488281,0.042480424046517,0.038510419428349,0.021392822265625,0.09437144,-0.14889117,9.779942,-0.07037176,-0.023061246,9.781248,0,
4,985.855224609375,-0.000732226471882,-0.000990763539448,0.000704881269485,-10.8895273208618,20.5264282226562,-34.5645294189453,0.051898673176766,0.0474733710289,0.040335655212402,0.091920555,-0.15127297,9.75153,-0.072739325,-0.024667561,9.752833,0,
4,985.883178710938,-6.58493372611701E-05,0.000740194169339,0.000438817194663,-11.1214647293091,20.9938278198242,-34.171215057373,0.042185351252556,0.061652258038521,0.03560733795166,0.096639454,-0.1584213,9.770462,-0.07175324,-0.03287366,9.771905,0,
5,985.890502929687,0.0002010538592,7.43091222830117E-05,-9.35629359446466E-05,-11.000509262085,20.8964691162109,-34.3381233215332,0.051857590675354,0.05659456551075,0.035608291625977,0.09179872,-0.15365319,9.768089,-0.0737001,-0.026383638,9.769415,0,
5,985.898071289063,0.000201640941668,-0.000591575808357,-9.33113624341786E-05,-11.6578636169434,21.8612823486328,-34.293285369873,0.042327612638474,0.047017820179463,0.045082092285156,0.10129738,-0.15126844,9.760982,-0.064219885,-0.028272003,9.762426,0,
5,985.88037109375,-6.40875077806413E-05,-0.000325355242239,-0.000625691318419,-11.1069250106812,21.2709274291992,-34.3436393737793,0.061401546001434,0.070531882345677,0.040351867675781,0.08211726,-0.16080005,9.765711,-0.085176535,-0.028401718,9.766969,0,
5,985.8955078125,-6.35004253126681E-05,-0.001390714198351,-9.28078661672771E-05,-11.2739677429199,21.3779983520508,-34.4781303405762,0.04255148768425,0.070539437234402,0.040355682373047,0.09639573,-0.16079856,9.77754,-0.07270272,-0.03463562,9.779006,0,
5,985.898193359375,0.000736034533475,7.39279203116894E-05,4.06016479246318E-05,-11.2716045379639,21.6433181762695,-34.032112121582,0.05185130238533,0.051367685198784,0.035630226135254,0.08916509,-0.15603055,9.7728,-0.076627664,-0.027258977,9.774115,0,
5,985.860046386719,0.000603464024607,-0.000192483363207,-0.000225462426897,-11.0669250488281,21.2553253173828,-33.7330131530762,0.056878581643105,0.055779881775379,0.068770408630371,0.09388402,-0.1584123,9.739655,-0.07295211,-0.032211542,9.741068,0,
5,985.877136230469,-0.000461212533992,-0.001657315995544,0.000307420967147,-10.9117841720581,21.3483047485352,-34.3782386779785,0.042847514152527,0.050669513642788,0.035626411437988,0.105772555,-0.14411117,9.765689,-0.05626478,-0.023825407,9.767135,0,
5,985.877136230469,7.20066600479186E-05,-0.00045898987446,0.000174514658283,-10.8309659957886,21.1606369018555,-34.4566955566406,0.057115316390991,0.060002379119396,0.045101165771484,0.09615201,-0.1512595,9.770418,-0.068076134,-0.025283292,9.771793,0,
5,985.877136230469,7.20066600479186E-05,-0.00045898987446,0.000174514658283,-10.9739322662354,21.0794410705566,-34.4299125671387,0.076053410768509,0.073846094310284,0.045105934143067,0.07458198,-0.1750908,9.760943,-0.097718574,-0.036290094,9.762242,0,
5,985.879638671875,-6.05639652349055E-05,-0.000725401099771,4.1608524043113E-05,-11.2844829559326,21.4736061096191,-34.6360740661621,0.038038179278374,0.044993437826634,0.049840927124024,0.10080996,-0.14410673,9.763304,-0.06007635,-0.02100557,9.764682,0,
5,985.889953613281,-0.00032629276393,-0.000326022651279,-9.12978430278599E-05,-11.1618461608887,21.9039421081543,-33.7563438415527,0.051965638995171,0.044554732739925,0.035646438598633,0.08879948,-0.1488717,9.763298,-0.07247568,-0.019269586,9.764549,0,
5,985.864501953125,-0.000458863389213,0.000206513854209,-0.000224204035476,-11.1310014724731,21.4591979980469,-34.5049133300781,0.056619569659233,0.058731876313686,0.049857139587402,0.093518436,-0.16316988,9.756191,-0.07446048,-0.034125715,9.757659,0,
5,985.894592285156,7.43558048270643E-05,7.32604530639946E-05,-0.000357110227924,-11.2670383453369,21.6477394104004,-34.2640266418457,0.051120594143868,0.058627746999264,0.040404319763184,0.09345746,-0.14886875,9.7538185,-0.06729328,-0.021676064,9.755146,0,
5,985.881896972656,-5.76277379877865E-05,0.000605701643508,0.000841814500745,-10.9142847061157,20.9770698547363,-34.125171661377,0.050816372036934,0.05351759493351,0.045148849487305,0.0981763,-0.15125056,9.753813,-0.06389192,-0.025781393,9.755236,0,
5,985.881896972656,-5.76277379877865E-05,0.000605701643508,0.000841814500745,-10.9142847061157,20.9770698547363,-34.125171661377,0.055671587586403,0.024820946156979,0.054618835449219,0.08855584,-0.13933267,9.758542,-0.06697378,-0.010234088,9.759706,0,
5,985.884399414062,-0.000322769104969,-0.00019343663007,0.000309686089167,-10.7094688415527,20.6949882507324,-34.5251541137695,0.055390104651451,0.062540650367737,0.049895286560059,0.09327471,-0.16078062,9.756168,-0.07176732,-0.03193398,9.757623,0,
5,985.884399414062,-0.000322769104969,-0.00019343663007,0.000309686089167,-10.7094688415527,20.6949882507324,-34.5251541137695,0.065108567476273,0.043441079556942,0.030957221984863,0.07887435,-0.14171292,9.770367,-0.07637918,-0.0072473437,9.771412,0,
5,985.914489746094,0.000210449972656,-0.000193532032426,-8.95360135473311E-05,-11.1048603057861,20.9041137695313,-34.3224906921387,0.045719265937805,0.057549275457859,0.064106941223145,0.09315288,-0.15839435,9.758525,-0.07052158,-0.029601753,9.759955,0,
5,985.887023925781,-5.5278476793319E-05,-6.04693195782602E-05,-8.92842654138804E-05,-10.9368391036987,21.1668090820312,-34.3637542724609,0.055535435676575,0.057207874953747,0.030964851379395,0.0936088,-0.15363903,9.770403,-0.068254516,-0.024570152,9.771791,0,
5,985.871826171875,-5.65777882002294E-05,-6.02584914304316E-05,0.000309632741846,-11.03382396698,22.182243347168,-34.4082298278809,0.049251616001129,0.052151046693325,0.04508113861084,0.08692396,-0.1512676,9.763346,-0.07205398,-0.02101615,9.764617,0,
5,985.8916015625,0.000468988611829,-0.000458585273009,0.000439762545284,-11.1611652374268,21.6415710449219,-34.3569679260254,0.058892339468002,0.066368192434311,0.04508113861084,0.086901605,-0.16080017,9.765711,-0.076678984,-0.028330937,9.767079,0,
5,985.868774414062,0.000469203398097,-0.000458620255813,-9.2776957899332E-05,-11.3488349914551,21.4656448364258,-34.0098152160645,0.049406200647354,0.056712850928307,0.049816131591797,0.09882879,-0.15364976,9.768076,-0.06310588,-0.026445553,9.769546,0,
5,985.853454589844,-0.00072900246596,-0.000991286942735,0.000306789181195,-10.7484664916992,21.5006637573242,-33.4885063171387,0.053976967930794,0.046926207840443,0.035615921020508,0.08924684,-0.14649947,9.777542,-0.06774126,-0.017012239,9.778798,0,
5,985.896545410156,0.000187108700629,0.000305088236928,0.000793253071606,-10.3932123184204,21.2012252807617,-33.602710723877,0.058772280812264,0.046376079320908,0.040349006652832,0.09639418,-0.14888217,9.765705,-0.06197822,-0.022688225,9.767092,0,
6,985.889038085938,-0.000478465866763,-0.000627052271739,-0.000671392132062,-10.9845857620239,21.0691299438477,-33.8887748718262,0.053738370537758,0.036659456789494,0.05455493927002,0.089202166,-0.14649834,9.763336,-0.067363895,-0.015525654,9.764598,0,
6,985.881225585938,0.000320697261486,0.000438176328316,-0.000404983817134,-10.8681974411011,20.9673538208008,-33.8237724304199,0.048992872238159,0.06960229575634,0.040348052978516,0.098739445,-0.1703306,9.765701,-0.06936313,-0.04084505,9.767355,0,
6,985.881286621094,-0.00101066660136,-0.000627122179139,0.000527214026079,-10.7803134918213,21.1553421020508,-34.3872032165527,0.058117017149925,0.055142320692539,0.021417617797852,0.08437765,-0.16079684,9.7846365,-0.07739657,-0.026190817,9.785979,0,
6,985.898803710938,0.000321128114592,0.001370211830363,0.000793622224592,-10.9108047485352,21.7180671691895,-34.5539970397949,0.043015539646149,0.064292408525944,0.040365219116211,0.096304834,-0.15602978,9.7633295,-0.063393146,-0.027894199,9.764806,0,
6,985.911437988281,-0.000344446336385,0.000571229320485,0.000394240691094,-10.8414831161499,21.2562446594238,-34.6146354675293,0.043022766709328,0.049903273582459,0.049834251403809,0.10584208,-0.1607958,9.751492,-0.056976244,-0.036129594,9.753159,0,
6,985.863464355469,0.000721032556612,-0.001293016714044,0.00039433297934,-10.8551807403564,21.2429847717285,-33.918888092041,0.057696521282196,0.035224355757237,0.059298515319824,0.091480345,-0.14411236,9.772793,-0.062746525,-0.013931841,9.774072,0,
6,985.868347167969,-0.00034401594894,-0.001159893814474,-0.000138206465635,-10.4150857925415,21.1285934448242,-34.4419212341309,0.047930553555489,0.054078057408333,0.049831390380859,0.09384787,-0.15602817,9.756222,-0.06509211,-0.026817054,9.757667,0,
6,985.9013671875,0.000188831414562,0.001236914191395,-0.000138114264701,-10.9775190353394,21.4447860717773,-34.3737525939941,0.047500923275948,0.053903788328171,0.030899047851563,0.09382555,-0.14887775,9.772791,-0.062001385,-0.019149974,9.77416,0,
6,985.903869628906,-0.000743058801163,-0.000627331959549,-0.000271179887932,-10.8264007568359,21.1650543212891,-34.6886100769043,0.057086512446404,0.058203600347042,0.049834251403809,0.09141332,-0.1536438,9.760952,-0.065971434,-0.022151038,9.7623415,0,
6,985.898803710938,0.000322419975419,0.00083737046225,0.000261544249952,-11.2835350036621,20.6311073303223,-33.7400932312012,0.046768382191658,0.048307567834854,0.035642623901367,0.093780875,-0.14649342,9.770418,-0.06033375,-0.014954716,9.771768,0,
6,985.863342285156,-0.000476312183309,0.00030470371712,-0.000936784839723,-11.1476049423218,21.5489082336426,-34.3536338806152,0.042239099740982,0.02437436580658,0.059311866760254,0.091368645,-0.14172627,9.760947,-0.06007102,-0.010981441,9.762214,0,
6,985.901306152344,0.000189693120774,-0.000494278850965,-0.000270902935881,-10.7461261749268,21.3456802368164,-34.8655128479004,0.041693821549416,0.06215388327837,0.045113563537598,0.09612608,-0.16079195,9.76568,-0.06355758,-0.030449077,9.767225,0,
6,985.896057128906,-0.001008513150737,0.000437791692093,0.000394979055272,-11.0046396255493,21.6301040649414,-34.3804168701172,0.051185369491577,0.047641783952713,0.045114517211914,0.09132391,-0.14410849,9.758577,-0.06023609,-0.01333043,9.759874,0,
6,985.865600585938,0.000589597562794,-0.000494348816574,-4.40242001786828E-06,-10.4898157119751,21.322151184082,-34.6726837158203,0.036709293723106,0.047320112586022,0.035647392272949,0.1032511,-0.15840758,9.7656765,-0.055493347,-0.031393245,9.7673,0,
6,985.88330078125,-0.000874924648087,-0.000228067860007,0.000661479542032,-10.8542013168335,21.6127471923828,-34.0946426391602,0.0415218770504,0.051472641527653,0.049844741821289,0.10322875,-0.15602376,9.770409,-0.05468923,-0.027758181,9.772009,0,
6,985.875915527344,-0.000475235574413,0.000304528919514,-0.000270533841103,-11.4227228164673,21.9230461120605,-33.7172584533691,0.055287450551987,0.041691824793816,0.045119285583496,0.08408719,-0.1488734,9.753836,-0.067747146,-0.013063505,9.755089,0,
6,985.880493164063,0.000457085494418,0.001103441463783,0.000129032356199,-11.1265735626221,21.3577003479004,-34.0377464294434,0.035960644483566,0.041882626712322,0.049860954284668,0.09840423,-0.14887287,9.763302,-0.054920442,-0.0196933,9.764758,0,
6,985.863220214844,0.000324142805766,-0.000627646630164,-0.000137191324029,-10.9724102020264,21.0809173583984,-34.5072174072266,0.054790541529656,0.055909380316734,0.035661697387695,0.08643246,-0.15602215,9.765668,-0.06806412,-0.021768644,9.767035,0,
6,985.863220214844,0.000324142805766,-0.000627646630164,-0.000137191324029,-10.806453704834,21.7104225158691,-34.5696296691895,0.054864048957825,0.041585981845856,0.054600715637207,0.086410046,-0.14172189,9.758564,-0.06195748,-0.008084476,9.759775,0,
6,985.873168945312,0.000324358290527,-9.50497924350202E-05,0.000129216990899,-11.0954303741455,21.5450897216797,-34.3614540100098,0.044997796416283,0.041276156902313,0.059346199035645,0.09826118,-0.1536359,9.756187,-0.055899747,-0.024646297,9.757701,0,
6,985.870361328125,-7.49000464566052E-05,-0.000361400598194,0.000129309191834,-10.6358251571655,21.2380142211914,-34.4912910461426,0.054086208343506,0.036528840661049,0.049886703491211,0.0838964,-0.15363522,9.768023,-0.06863213,-0.017807305,9.769334,0,
6,985.888427734375,0.000455220462754,0.000975500617642,-1.65158417075872E-06,-10.9699096679688,21.4521484375,-34.7602767944336,0.054199129343033,0.055338002741337,0.049884796142578,0.09104073,-0.16316776,9.753817,-0.066362604,-0.029423088,9.755336,0,
6,985.877868652344,0.00032257521525,-0.000489320023917,0.000398042029701,-10.6950674057007,20.8661766052246,-33.9984970092773,0.039362385869026,0.045581519603729,0.030953407287598,0.09818506,-0.14886744,9.772752,-0.053550266,-0.018471628,9.774215,0,
6,985.913330078125,-0.000342970015481,0.000442745920736,0.000531304744072,-11.0763559341431,20.6143493652344,-33.6940574645996,0.044159173965454,0.059717200696468,0.049892425537109,0.09098995,-0.15839995,9.758546,-0.06385502,-0.02447991,9.760016,0,
6,985.900756835938,0.000189906684682,-8.99255974218249E-05,-0.000667011772748,-10.8961582183838,20.8888282775879,-34.3537559509277,0.062962040305138,0.054524458944798,0.040426254272461,0.079015076,-0.15601604,9.777481,-0.073104024,-0.016381994,9.778758,0,
7,985.865173339844,0.000323309097439,4.31927037425339E-05,-1.11729605123401E-06,-10.7541723251343,20.6002578735352,-34.2047843933105,0.043776050209999,0.045070886611939,0.030961036682129,0.09810889,-0.15601541,9.772745,-0.055398956,-0.02651456,9.774291,0,
7,985.885620117188,5.72381541132927E-05,-9.00050508789718E-05,-0.000400486111175,-10.4196519851685,21.1241722106934,-34.2100028991699,0.058004528284073,0.044857554137707,0.026229858398438,0.08374411,-0.15601476,9.775109,-0.068405755,-0.019275919,9.776454,0,
7,985.895568847656,0.000456956448033,-0.00048951851204,-0.000400381337386,-10.886866569519,21.4238815307617,-33.6936416625977,0.033484369516373,0.044534273445606,0.021501541137695,0.098058134,-0.16078074,9.777474,-0.05704516,-0.029743537,9.7790785,0,
7,985.8955078125,-7.54304928705096E-05,-0.000489558267873,0.000664987019263,-10.5635967254639,20.6732139587402,-34.0074653625488,0.037866145372391,0.048898957669735,0.04991340637207,0.095642805,-0.1560135,9.7656355,-0.056548387,-0.024172425,9.767157,0,
7,985.895690917969,0.000724006560631,0.000176151981577,-0.000266908726189,-10.7166423797607,21.4256744384766,-34.4128303527832,0.042339667677879,0.039178028702736,0.054652214050293,0.09561747,-0.15362968,9.765635,-0.054834098,-0.02271974,9.76713,0,
7,985.890441894531,-0.000873644370586,0.000442428165115,-0.000133646128234,-10.8171081542969,21.7001152038574,-34.028491973877,0.046868547797203,0.038877233862877,0.030982971191406,0.081252635,-0.1464792,9.767998,-0.0642497,-0.009889573,9.7692175,0,
7,985.903015136719,0.000990811618976,0.000176072644535,0.000532248523086,-11.1009750366211,21.1709060668945,-33.9537811279297,0.027375862002373,0.043887160718441,0.040462493896484,0.09556669,-0.15124513,9.758528,-0.05355823,-0.019854411,9.760001,0,
7,985.8955078125,5.89506234973669E-05,0.000708664476406,0.000532353355084,-11.1877422332764,21.4585952758789,-34.2651786804199,0.041283130645752,0.043644636869431,0.068874359130859,0.0955413,-0.15362774,9.75379,-0.054066613,-0.022157699,9.755294,0,
7,985.862731933594,-0.000473436317407,-9.03228064998984E-05,0.001065090065822,-11.0382833480835,21.0714797973633,-33.803653717041,0.031508043408394,0.043232262134552,0.04520320892334,0.093126,-0.15124388,9.758523,-0.054810777,-0.018494457,9.759969,0,
7,985.885498046875,0.000325755914673,0.000708585081156,0.000665721017867,-10.8005037307739,21.6103973388672,-34.1797676086426,0.040800407528877,0.038349360227585,0.049942970275879,0.0907107,-0.16315965,9.765622,-0.06156855,-0.02912122,9.76717,0,
7,985.859985351562,0.000725474557839,0.000175913621206,-0.001198385376483,-11.1069259643555,21.2709350585938,-34.3436393737793,0.045364424586296,0.043020874261856,0.045212745666504,0.08829546,-0.15124266,9.758518,-0.058521308,-0.016429871,9.7599,0,
7,985.880432128906,-0.00020638643764,4.27159829996526E-05,0.000133298977744,-11.3089952468872,20.9238166809082,-34.5231437683105,0.030602276325226,0.037697926163673,0.04995059967041,0.09543973,-0.15600856,9.765617,-0.054116532,-0.022790596,9.767152,0,
7,985.882934570313,-0.000601885840297,6.24689855612814E-05,0.000457874906715,-11.0427112579346,21.1729736328125,-34.2708168029785,0.035402223467827,0.056633695960045,0.054684638977051,0.09541437,-0.16077448,9.749044,-0.055715844,-0.027927041,9.750638,0,
7,985.864990234375,-0.000468483311124,-0.000470202561701,-7.46519071981311E-05,-11.0593156814575,21.2626876831055,-34.1195373535156,0.039877578616142,0.042196527123451,0.035751342773438,0.09777886,-0.15362401,9.777449,-0.05018592,-0.022242934,9.778992,0,
7,985.893005371094,0.000463866977952,0.00059502129443,-0.000340863014571,-11.0622224807739,21.3656616210937,-34.664005279541,0.025613144040108,0.041901931166649,0.054689407348633,0.097753525,-0.15362342,9.760876,-0.049959853,-0.02231817,9.762421,0,
7,985.859985351562,0.00059726962354,-0.001136071747169,-7.44422432035208E-05,-11.2959785461426,21.1994476318359,-34.6182594299316,0.04461744427681,0.032523490488529,0.049959182739258,0.08099884,-0.14408971,9.760874,-0.06063532,-0.0057245493,9.762085,0,
7,985.887878417969,0.000331198330969,0.000994415604509,-7.43374694138765E-05,-10.6513433456421,20.5911407470703,-34.1431083679199,0.053898066282272,0.041893817484379,0.040495872497559,0.09053302,-0.15838875,9.758503,-0.058125526,-0.023581266,9.760008,0,
7,985.879577636719,-6.80307857692242E-05,-0.000204045558348,-0.000740022398531,-11.0442333221436,21.1715049743652,-34.1935119628906,0.020266801118851,0.046597719192505,0.045234680175781,0.10723695,-0.1583881,9.760869,-0.043143615,-0.030930132,9.762598,0,
7,985.892944335938,0.001130635268055,-0.00060355901951,-0.000739917391911,-10.9014053344727,21.1467819213867,-33.5212135314941,0.039162576198578,0.037301063537598,0.035774230957031,0.0950591,-0.15123267,9.770317,-0.050606757,-0.019441232,9.7718,0,
7,985.872680664063,0.000465090502985,0.000861138454638,-0.000606654444709,-10.7289791107178,20.8876724243164,-34.918342590332,0.034571528434754,0.032306186854839,0.050017356872559,0.09720835,-0.14646025,9.756092,-0.046090424,-0.016386345,9.757552,0,
7,985.865112304688,0.000732749002054,0.00086307170568,0.00046057839063,-11.1826343536377,21.0947265625,-34.3986434936523,0.029067471623421,0.027663640677929,0.050033569335938,0.09955639,-0.14407595,9.756088,-0.042509153,-0.015178084,9.757557,0,
7,985.870056152344,-6.57953787595034E-05,0.001129321986809,-0.00020503840642,-11.1918716430664,22.1922302246094,-34.3074760437012,0.043176963925362,0.037137262523174,0.021634101867676,0.09234485,-0.14884149,9.779757,-0.050794527,-0.016411826,9.78118,0,
7,985.870056152344,0.000866713467985,-0.00046863858006,-0.000204865587875,-10.6006898880005,20.5858459472656,-34.0736198425293,0.038708627223969,0.061007298529148,0.050042152404785,0.08991316,-0.16552334,9.746611,-0.060520284,-0.030609444,9.748195,0,
7,985.887878417969,0.000600800849497,-0.001001335913315,0.000860570813529,-10.7291164398193,20.7817573547363,-34.2192649841309,0.053032100200653,0.041946366429329,0.059515953063965,0.08509147,-0.15122266,9.753709,-0.058480293,-0.015255526,9.755064,0,
8,985.88720703125,0.000601204112172,-0.000202453578822,6.17959885857999E-05,-10.8825988769531,20.7961654663086,-34.3504257202148,0.043281868100166,0.036959320306778,0.050050735473633,0.08504966,-0.15360494,9.760807,-0.059261113,-0.017436191,9.76219,0,
8,985.85986328125,-0.000330498325638,-6.93611800670624E-05,6.19686325080693E-05,-11.0864353179932,21.4480056762695,-34.1262016296387,0.047626212239266,0.04157967120409,0.050058364868164,0.07783812,-0.15598713,9.758436,-0.06638587,-0.015951246,9.759756,0,
8,985.85986328125,-0.000330498325638,-6.93611800670624E-05,6.19686325080693E-05,-11.0874147415161,21.0782470703125,-33.9504470825195,0.028678074479103,0.046238869428635,0.050059318542481,0.10408521,-0.1583694,9.763166,-0.04404539,-0.03010729,9.764861,0,
8,985.892395019531,-6.37791818007827E-05,0.000463205215055,-0.000736806134228,-10.7812919616699,20.7855758666992,-34.2114448547363,0.043130978941918,0.050887733697891,0.05479621887207,0.080144346,-0.1583684,9.756062,-0.06530727,-0.01947625,9.757439,0,
8,985.872619628906,0.000336097902618,-0.00113475555554,6.23143860138953E-05,-11.1211652755737,21.6259613037109,-33.7463417053223,0.03346349298954,0.045816324651241,0.035861015319824,0.09444189,-0.15836732,9.77026,-0.05241862,-0.025334403,9.771828,0,
8,985.882751464844,-6.25693937763572E-05,0.000329850823618,0.000195818050997,-10.7864007949829,21.1494522094727,-34.0779838562012,0.047764718532562,0.031220950186253,0.031128883361817,0.08484048,-0.1440667,9.763155,-0.05422403,-0.008541986,9.764433,0,
8,985.882751464844,-6.25693937763572E-05,0.000329850823618,0.000195818050997,-10.7864007949829,21.1494522094727,-34.0779838562012,0.038431584835053,0.026396043598652,0.035862922668457,0.094358206,-0.1440657,9.763151,-0.045869447,-0.012511313,9.764555,0,
8,985.89013671875,0.000204149750061,-0.000735478184652,-7.03249243088067E-05,-10.7728414535522,21.0567893981934,-34.074649810791,0.043034166097641,0.040734797716141,0.045337677001953,0.082366884,-0.14644785,9.753679,-0.05726506,-0.010463089,9.754952,0,
8,985.902282714844,0.000337710953318,-0.0004692277289,0.000462479394628,-10.4989471435547,21.3133087158203,-34.2088508605957,0.052077308297157,0.040796302258968,0.045350074768067,0.08471495,-0.14644684,9.765511,-0.05496127,-0.010569558,9.766815,0,
8,985.874877929687,0.000870745978318,-0.000202977331355,-6.99795200489461E-05,-11.0388259887695,21.4397659301758,-33.9021034240723,0.047681018710137,0.049998693168163,0.054815292358399,0.08945292,-0.15836222,9.76314,-0.056407005,-0.022481948,9.764645,0,
8,985.884704589844,-0.000327272340655,0.000329589063767,0.000196509237867,-11.1651887893677,21.2688598632812,-34.0265998840332,0.05247300863266,0.035213619470596,0.050079345703125,0.07507169,-0.15359463,9.763136,-0.06687387,-0.010677576,9.764398,0,
8,985.879638671875,-0.000193711137399,-0.00140152964741,-0.000469107588287,-11.3572854995728,21.1944351196289,-34.1466102600098,0.042781531810761,0.030226774513722,0.054817199707031,0.079809606,-0.14167728,9.753663,-0.056796633,-0.0030567795,9.754853,0,
8,985.8720703125,-0.00032646569889,-0.000469489546958,-0.00046893482795,-11.1220073699951,21.362117767334,-34.2696647644043,0.047311052680016,0.039510257542133,0.054821968078613,0.0821577,-0.15359257,9.753658,-0.059601814,-0.015191853,9.755021,0,
8,985.899719238281,-0.000192904728465,0.000196234614123,-0.000468761951197,-11.0673303604126,21.7295303344727,-34.5305442810059,0.033419758081436,0.043875619769096,0.040613174438477,0.09406543,-0.15597485,9.772593,-0.050760604,-0.020715773,9.774136,0,
8,985.904968261719,-0.000591572024859,-0.001268633641303,-0.000202100607567,-11.3744325637817,21.6524353027344,-34.0937843322754,0.052640840411186,0.038880005478859,0.054816246032715,0.08207402,-0.15120731,9.758387,-0.05893649,-0.0114079565,9.759719,0,
8,985.879577636719,-0.000324853113852,-7.02775432728231E-05,0.000597019912675,-10.9690675735474,21.7159957885742,-34.2369575500488,0.023594245314598,0.038343854248524,0.05008602142334,0.0987615,-0.1559728,9.76075,-0.045301057,-0.02368848,9.762362,0,
8,985.882263183594,-5.81338535994291E-05,6.28149136900902E-05,6.45609688945115E-05,-11.2739677429199,21.3779983520508,-34.4781303405762,0.056771159172058,0.042912222445011,0.026418685913086,0.08199036,-0.15835504,9.76548,-0.061368357,-0.017198384,9.766901,0,
8,985.882446289063,-5.77305909246206E-05,0.000595381192397,-6.84240949340165E-05,-10.57603931427,21.2415504455566,-34.8856315612793,0.032866254448891,0.042712889611721,0.045358657836914,0.09150815,-0.15597077,9.75364,-0.051123492,-0.020725891,9.75516,0,
8,985.877014160156,-0.000190485385247,6.26840046606958E-05,0.000597538426518,-11.4059810638428,21.9392509460449,-34.5676155090332,0.051387801766396,0.047334536910057,0.035900115966797,0.084296584,-0.15835299,9.767839,-0.05846341,-0.01855959,9.769295,0,
8,985.884582519531,-5.69240655750036E-05,0.000328934576828,0.000198237306904,-11.0789632797241,21.3494567871094,-33.8136520385742,0.041800111532211,0.037418894469738,0.040635108947754,0.08726412,-0.1583672,9.772627,-0.05560537,-0.019574955,9.774121,0,
8,985.89697265625,7.2203460149467E-05,-0.001001990749501,0.000462825933937,-11.0183372497559,21.6168479919434,-33.6846733093262,0.045239672064781,0.027616269886494,0.049989700317383,0.0830991,-0.14646585,9.760847,-0.053685464,-0.007519409,9.762149,0,
8,985.89990234375,-6.82681566104293E-05,0.000330775917973,0.000193375628442,-11.052248954773,21.6383438110352,-34.6045150756836,0.030644908547402,0.017940305173397,0.054725646972656,0.095056236,-0.14646606,9.75848,-0.042572573,-0.012779251,9.759941,0,
8,985.870056152344,-0.000334657495841,0.000197629909962,-7.29717430658638E-05,-11.2975006103516,21.1979751586914,-34.540958404541,0.035687029361725,0.03180718421936,0.035778045654297,0.08550426,-0.13693316,9.763216,-0.046919134,0.0014320761,9.764438,0,
8,985.894714355469,-0.000334730953909,-0.001400253502652,-0.000206161115784,-11.3196496963501,20.9135055541992,-33.9820022583008,0.04523366689682,0.041022710502148,0.064179420471191,0.08790177,-0.1559995,9.746646,-0.053471476,-0.016219884,9.748131,0,
8,985.889404296875,-0.00060112006031,-0.000201819988433,-0.000472508429084,-11.1394529342651,21.1879844665527,-34.6417083740234,0.049605399370194,0.036093130707741,0.064182281494141,0.08073968,-0.15361641,9.756115,-0.058173917,-0.011369005,9.757478,0,
9,985.889587402344,-0.00033487775363,0.00099661340937,-0.001271487446502,-10.8439836502075,20.8850059509277,-34.3615760803223,0.044250771403313,0.054878026247025,0.045248031616211,0.083137155,-0.16791628,9.758484,-0.06183613,-0.025473788,9.760053,0,
9,985.879577636719,0.000685377512127,0.000351805152604,0.000524264178239,-11.2825565338135,21.0008697509766,-33.9158515930176,0.039318576455116,0.021339870989323,0.059451103210449,0.0879246,-0.14408375,9.749016,-0.04660171,-0.0057788193,9.750365,0,
9,985.866821289063,-0.000113643356599,-4.76566201541573E-05,0.000257916864939,-10.8681974411011,20.967357635498,-33.8237724304199,0.034465849399567,0.035468563437462,0.054714202880859,0.09988174,-0.1583835,9.75375,-0.04220849,-0.024444044,9.755425,0,
9,985.9072265625,-0.00038003269583,8.551319479011E-05,0.000124727434013,-11.2098913192749,21.174129486084,-33.7062339782715,0.033859506249428,0.035260729491711,0.040515899658203,0.08316004,-0.16076703,9.76322,-0.057802714,-0.018406674,9.764709,0,
9,985.877136230469,1.93676678463817E-05,0.000751314917579,0.000124696060084,-11.1943731307983,21.8209915161133,-34.0544090270996,0.038306787610054,0.049303025007248,0.064188003540039,0.09511715,-0.16076721,9.756119,-0.046426423,-0.024558648,9.757766,0,
9,985.867004394531,1.92944426089525E-05,0.000351852882886,-8.49331263452768E-06,-11.1989393234253,21.8165740966797,-33.8224983215332,0.047691121697426,0.025315418839455,0.049984931945801,0.0831753,-0.15361758,9.75612,-0.05367361,-0.012729958,9.757527,0,
9,985.87939453125,0.000152378925122,-0.000180766946869,0.000257791107288,-11.0503215789795,21.1656112670898,-33.8842887878418,0.033017888665199,0.034484006464481,0.045248985290527,0.0927425,-0.15123446,9.756121,-0.043559697,-0.014846563,9.757625,0,
9,985.884582519531,-0.000779800117016,0.000218718749238,-0.000274872116279,-10.6994953155518,20.9676742553711,-34.4656639099121,0.042285904288292,0.029565073549748,0.035780906677246,0.08797026,-0.14885141,9.765591,-0.04657955,-0.010062814,9.767006,0,
9,985.879638671875,0.000551705947146,0.000884520472027,0.000257728155702,-11.2836427688599,21.7374534606934,-34.1127510070801,0.036806598305702,0.03892070800066,0.059459686279297,0.08558798,-0.1560014,9.758489,-0.051353306,-0.0151477605,9.759964,0,
9,985.8720703125,-0.000779946916737,0.000485058379127,-0.000141777098179,-11.1599416732788,21.0109100341797,-34.8591423034668,0.01749137043953,0.038520492613316,0.049986839294434,0.099934995,-0.15600152,9.753756,-0.037996817,-0.022026807,9.755418,0,
9,985.8720703125,-0.000779946916737,0.000485058379127,-0.000141777098179,-10.9656190872192,21.2447395324707,-33.5940361022949,0.031412236392498,0.009598322212696,0.04998779296875,0.087993145,-0.13931887,9.758491,-0.04065915,-0.0009677708,9.759797,0,
9,985.861694335937,-0.000114230671898,8.55965481605381E-05,0.000390823173802,-11.2288589477539,20.9985275268555,-34.0009727478027,0.016826063394547,0.028726294636726,0.045255661010742,0.10234016,-0.15600197,9.7584915,-0.0354242,-0.022722885,9.760183,0,
9,985.864440917969,0.000551485805772,0.001017714152113,0.000257633801084,-11.4100036621094,21.5665435791016,-34.237247467041,0.025995768606663,0.038312762975693,0.035792350769043,0.097567976,-0.1512356,9.7679615,-0.037140403,-0.016501129,9.769535,0,
9,985.894714355469,0.000285096582957,0.000351936352672,-0.000275029393379,-10.8659944534302,20.7064552307129,-34.5017051696777,0.035301730036736,0.023944452404976,0.049997329711914,0.09040588,-0.15123577,9.76086,-0.042961333,-0.014205918,9.762345,0,
9,985.884582519531,0.000285023008473,8.56324040796608E-05,0.000390728819184,-10.9274091720581,21.8077774047852,-34.4027137756348,0.030163362622261,0.01887184381485,0.054731369018555,0.08802363,-0.14885266,9.756126,-0.043765124,-0.010190368,9.757554,0,
9,985.871826171875,-0.000247682095505,0.000485118041979,-0.00027509231586,-11.1772260665894,21.3629913330078,-34.107234954834,0.03931337594986,0.056807018816471,0.054733276367188,0.095200896,-0.1726857,9.756126,-0.04761647,-0.03495054,9.75794,0,
9,985.882141113281,-0.000247755437158,0.000884603825398,-0.000141965807416,-11.0191783905029,21.3530044555664,-34.2079925537109,0.029648177325726,0.051727160811424,0.049995422363281,0.09281862,-0.16315271,9.760862,-0.045114886,-0.025275841,9.76253,0,
9,985.899719238281,0.000551118748263,-4.74898552056402E-05,-8.83941538631916E-06,-10.9314317703247,21.4350700378418,-34.0723457336426,0.038875669240952,0.027577087283135,0.021588325500488,0.08804643,-0.1560031,9.77033,-0.04606039,-0.015735805,9.7718525,0,
9,985.879638671875,-0.000780533999205,-0.000446951773483,0.000790076795965,-11.0602951049805,20.8929290771484,-33.9437828063965,0.038234233856201,0.027926094830036,0.064208984375,0.08566415,-0.14408691,9.751394,-0.042130135,-0.00538221,9.752743,0,
9,985.884582519531,0.000284656183794,0.001284113270231,0.000257413572399,-10.655909538269,20.5867233276367,-33.9111976623535,0.042306207120419,0.032770000398159,0.064225196838379,0.08321774,-0.14885207,9.7513895,-0.045816932,-0.008986831,9.752769,0,
9,985.872009277344,0.000950759393163,0.000884588574991,-0.000275083875749,-10.5821285247803,21.2356643676758,-34.5764122009277,0.03759553283453,0.02804883569479,0.040553092956543,0.085612714,-0.14170237,9.7584915,-0.040521942,-0.0041668117,9.75981,0,
9,985.872009277344,0.000950759393163,0.000884588574991,-0.000275083875749,-10.5821285247803,21.2356643676758,-34.5764122009277,0.027704067528248,0.037483766674996,0.035820960998535,0.09517735,-0.163152,9.765594,-0.041302536,-0.027174696,9.767295,0,
9,985.887145996094,-0.000114451744594,0.000884579960257,-8.74546822160482E-06,-10.7242527008057,21.4183120727539,-34.026309967041,0.022554650902748,0.042070358991623,0.035821914672852,0.088012725,-0.16076882,9.758492,-0.046036698,-0.022301301,9.760079,0,
9,985.897094726563,0.000284973299131,8.56404367368668E-05,-8.76630656421185E-06,-11.1762475967407,21.7327575683594,-34.2829933166504,0.017738789319992,0.032670326530933,0.068964958190918,0.09757742,-0.14885254,9.753757,-0.03238069,-0.01566945,9.755316,0,
9,985.877136230469,0.000684398342855,-0.000313825497869,0.000390686560422,-10.8319454193115,20.7908706665039,-34.2809371948242,0.041680470108986,0.037330627441406,0.059494018554688,0.08802289,-0.16553561,9.758492,-0.0485805,-0.02581489,9.7601385,0,
10,985.877380371094,0.00028487551026,8.56562692206353E-05,0.000257507665083,-11.1240720748901,21.7289352416992,-34.2908134460449,0.022614896297455,0.032342337071896,0.040553092956543,0.09280774,-0.15838589,9.76086,-0.04087943,-0.021650657,9.762477,0,
10,985.866821289063,0.000284826615825,-0.000979599426501,-0.000275145168416,-10.9996681213379,21.1603164672852,-33.8148002624512,0.022433049976826,0.027236349880695,0.035815238952637,0.09042293,-0.14885293,9.76086,-0.038496286,-0.011595741,9.762333,0,
10,985.872009277344,-0.000381011865102,-0.000180643750355,0.000390623696148,-11.3117408752441,21.5530090332031,-33.943660736084,0.046547800302506,0.031739100813866,0.059481620788574,0.08325827,-0.14885302,9.753759,-0.044949953,-0.007937938,9.755143,0,
10,985.904724121094,-0.000780534581281,-0.001645373180509,-0.000275186961517,-10.9539861679077,21.6248092651367,-34.3109283447266,0.022955097258091,0.03635236620903,0.064208030700684,0.097602785,-0.1631528,9.749026,-0.03852658,-0.027598277,9.750766,0,
10,985.892211914062,0.000417837989517,-0.000180627859663,-8.89203511178494E-06,-10.6287889480591,20.4014053344727,-33.9045333862305,0.036781959235668,0.036137655377388,0.054743766784668,0.092828035,-0.16076972,9.758495,-0.041510142,-0.02274181,9.760146,0,
10,985.859436035156,-0.000248000840656,0.001417275285348,-0.000541544868611,-10.3086700439453,20.7541313171387,-34.4364051818848,0.0266043394804,0.040753699839115,0.040545463562012,0.09761292,-0.16076984,9.767964,-0.036433212,-0.025507048,9.769674,0,
10,985.924865722656,0.000550898024812,0.000618335674517,-8.93394462764263E-06,-10.8490924835205,21.2488746643066,-34.2281112670898,0.030742503702641,0.035768553614616,0.050018310546875,0.085668504,-0.15362014,9.753761,-0.043522693,-0.0137425065,9.7552395,0,
10,985.877014160156,-0.000114940456115,0.001150975353085,0.000257361010881,-10.7879228591919,21.1479797363281,-34.0006828308105,0.025900803506374,0.045022629201412,0.045279502868652,0.092843264,-0.15838678,9.758497,-0.03878721,-0.020968974,9.760124,0,
10,985.877136230469,-0.00051446328871,-0.000313754077069,0.000390497996705,-10.6124296188354,21.3121185302734,-33.7293891906738,0.035417161881924,0.025925740599632,0.050014495849609,0.08328873,-0.15600364,9.763231,-0.04609567,-0.014927015,9.764712,0,
10,985.8720703125,0.000950225163251,-0.001245851744898,0.000124161073472,-10.7823781967163,21.5221557617187,-34.4083518981934,0.021630264818668,0.049731858074665,0.054741859436035,0.095243275,-0.16315357,9.75613,-0.03900297,-0.026355088,9.757845,0,
10,985.861694335937,-0.000248245080002,8.57356644701213E-05,-0.001207439228892,-11.18665599823,20.7220153808594,-34.0682792663574,0.030682913959026,0.025645911693573,0.054744720458984,0.09285849,-0.1464708,9.753763,-0.033522494,-0.009320378,9.755242,0,
10,985.874450683594,-0.000381451915018,-4.74143889732659E-05,0.001056224806234,-11.0407543182373,21.9125022888184,-34.6223258972168,0.03066048771143,0.020608574151993,0.021598815917969,0.09047365,-0.14170434,9.767967,-0.033205073,-0.0044816732,9.769357,0,
10,985.884582519531,1.79728958755732E-05,-0.000180564384209,0.000390414177673,-11.1310014724731,21.4591941833496,-34.5049171447754,0.030682750046253,0.030018948018551,0.064206123352051,0.08808884,-0.1536208,9.756132,-0.040700153,-0.013694331,9.757647,0,
10,985.849487304687,-0.00011523370631,-0.000580030260608,-0.000142238510307,-10.8915929794312,20.8932495117187,-34.5856742858887,0.030602417886257,0.034643121063709,0.045267105102539,0.090483785,-0.1583875,9.765602,-0.040798675,-0.018445775,9.767203,0,
10,985.877014160156,7.52469059079885E-05,0.000291052856483,-0.000210398749914,-11.0542068481445,20.8988189697266,-34.253002166748,0.035419754683971,0.020119071006775,0.049998283386231,0.085709035,-0.14408804,9.756132,-0.038258333,-0.004188776,9.757497,0,
10,985.892883300781,-0.000324275810272,-0.00064104469493,-0.000743051466998,-10.9524641036987,21.6262855529785,-34.3882331848145,0.026014573872089,0.034245602786541,0.054728507995606,0.09049392,-0.1679209,9.760868,-0.04511653,-0.026616767,9.762591,0,
10,985.89990234375,0.000474623055197,-0.00077419471927,5.58753381483257E-05,-11.0065975189209,20.8905792236328,-34.0289039611816,0.011550858616829,0.034250840544701,0.03105640411377,0.0952788,-0.15600462,9.772704,-0.035314336,-0.018152863,9.774334,0,
10,985.879577636719,0.000341416220181,-0.000507870921865,-7.7303615398705E-05,-11.0155916213989,20.9876594543457,-34.2641525268555,0.039853043854237,0.02449169754982,0.049995422363281,0.09050408,-0.1440884,9.756134,-0.03340785,-0.0065793097,9.757559,0,
10,985.884704589844,-0.000457580317743,0.000823716283776,-0.000476798333693,-10.4406833648682,21.3153839111328,-34.5258903503418,0.025281853973866,0.029163718223572,0.040528297424317,0.090619504,-0.14885773,9.770348,-0.035318416,-0.010308117,9.771832,0,
10,985.859252929687,7.44748394936323E-05,0.000424336292781,0.000188744190382,-10.6910448074341,21.238883972168,-34.3288612365723,0.024737633764744,0.029063321650028,0.064182281494141,0.09313148,-0.151244,9.746687,-0.033724476,-0.013877064,9.748238,0,
10,985.859252929687,7.44748394936323E-05,0.000424336292781,0.000188744190382,-10.6791439056396,21.0388336181641,-33.5491523742676,0.02447722107172,0.033433608710766,0.040506362915039,0.08597571,-0.15839417,9.763259,-0.042895786,-0.01684919,9.764813,0,
10,985.884582519531,0.000339104910381,0.000424609868787,0.00058749562595,-10.5973472595215,21.2209320068359,-33.8033638000488,0.019782990217209,0.028523713350296,0.054704666137695,0.09793916,-0.15362798,9.749057,-0.030070893,-0.017795205,9.750697,0,
10,985.874450683594,-6.05032546445727E-05,0.000158315873705,-0.000211509817746,-10.9260244369507,21.7033386230469,-33.7809410095215,0.024691686034203,0.028398811817169,0.049965858459473,0.0860036,-0.15124501,9.760895,-0.03994021,-0.009612203,9.76236,0,
10,985.867004394531,-0.000726427417248,-0.000640610000119,-0.001143672969192,-10.9564867019653,21.2535705566406,-34.0578651428223,0.034719452261925,0.028284266591072,0.049958229064942,0.08601755,-0.15362863,9.765631,-0.041282635,-0.011783317,9.767123,0,
11,985.894409179688,0.000205543707125,-0.001572693698108,-0.000744256714825,-10.7703399658203,21.4280242919922,-34.3277130126953,0.020275391638279,0.01859550178051,0.068893432617188,0.09320122,-0.15362902,9.75853,-0.034798276,-0.014643848,9.760111,0,
11,985.904602050781,0.000205409363844,-0.000640566402581,0.00032094924245,-11.0327386856079,21.4456596374512,-34.2113265991211,0.034310229122639,0.032674551010132,0.045220375061035,0.086045444,-0.15124609,9.756164,-0.03971785,-0.009359941,9.757629,0,
11,985.882141113281,-6.10413262620568E-05,0.000158403126989,0.000187733647181,-10.9163494110107,21.3438873291016,-34.1463203430176,0.025054626166821,0.028016060590744,0.040482521057129,0.0884493,-0.15124638,9.765635,-0.038021058,-0.009959817,9.767127,0,
11,985.887023925781,0.000205140328035,-0.000906838511582,0.000720307754818,-10.6257448196411,20.4043502807617,-34.059139251709,0.029691219329834,0.037198007106781,0.045212745666504,0.09324306,-0.15363003,9.768002,-0.03469376,-0.013677537,9.769584,0,
11,985.885070800781,0.000205005868338,-0.000241027097218,-7.86975142545998E-05,-11.1932878494263,21.0844192504883,-33.8575096130371,0.024980984628201,0.022867649793625,0.049943923950195,0.08369744,-0.15601365,9.758534,-0.0442933,-0.011387229,9.760035,0,
11,985.85986328125,-0.0003277604701,-0.000773636973463,-0.00021191308042,-11.2439413070679,21.089714050293,-33.9269981384277,0.039176523685455,0.017657592892647,0.045204162597656,0.08132148,-0.14648093,9.768005,-0.041689847,-0.0014616102,9.769353,0,
11,985.859680175781,-0.000461187330075,0.000424828147516,-0.00034518627217,-10.6163148880005,21.0453262329102,-34.0981025695801,0.029264785349369,0.026766061782837,0.040468215942383,0.093284905,-0.15124781,9.758537,-0.032509882,-0.011827633,9.760094,0,
11,985.875122070313,-0.0008607954951,0.000424849917181,0.000187387806363,-11.2839403152466,21.1053161621094,-34.5376243591309,0.029164232313633,0.03135858476162,0.049933433532715,0.090908945,-0.15839793,9.753803,-0.03804232,-0.016218573,9.7554245,0,
11,985.86474609375,-6.19824277237058E-05,-0.00064039172139,-0.000212143582758,-11.4184551239014,21.2953338623047,-34.3740425109863,0.029104538261891,0.031108200550079,0.040460586547852,0.086143136,-0.15124847,9.758539,-0.038806092,-0.0073408335,9.760012,0,
11,985.889709472656,-6.21168874204159E-05,0.000158577749971,5.41146728210151E-05,-10.9263229370117,21.0711975097656,-34.205810546875,0.038494847714901,0.031103864312172,0.05940055847168,0.083767205,-0.16078193,9.768009,-0.04505002,-0.015210718,9.769576,0,
11,985.897338867188,-0.000195409171283,0.000291757576633,5.40570472367108E-05,-10.6563148498535,21.0609321594238,-34.7087249755859,0.023830831050873,0.03554280102253,0.045192718505859,0.08856094,-0.16554882,9.753809,-0.042227566,-0.02216056,9.7555,0,
11,985.882263183594,0.000470245839097,0.000158621463925,-7.91585771366954E-05,-11.0577936172485,21.26416015625,-34.1968421936035,0.018676921725273,0.016663774847984,0.054668426513672,0.09813446,-0.14648296,9.749075,-0.025020462,-0.009462684,9.750633,0,
11,985.887573242188,0.000203795614652,2.54852930083871E-05,-0.000478689966258,-10.7818355560303,21.1538696289062,-34.3098983764648,0.032856002449989,0.020864397287369,0.026254653930664,0.086198926,-0.15124984,9.772749,-0.037477516,-0.007749051,9.774223,0,
11,985.902282714844,7.05030979588628E-05,0.000824454938993,5.3884054068476E-05,-11.0622215270996,21.3656616210937,-34.664005279541,0.037171676754952,0.049601003527641,0.045197486877442,0.08621287,-0.16554983,9.763281,-0.043623608,-0.02073434,9.764947,0,
11,985.865112304688,0.000336684519425,-0.00037394487299,-7.93313956819475E-05,-10.8853445053101,21.4253540039063,-33.7709465026855,0.032483778893948,0.030404210090637,0.064132690429688,0.08383691,-0.15363382,9.749079,-0.040230274,-0.009427115,9.750562,0,
11,985.879638671875,-0.000329239410348,-0.000107607163955,-0.000612020900007,-11.0536632537842,20.5305252075195,-34.1545524597168,0.013165935873985,0.025534763932228,0.059396743774414,0.09819031,-0.15840073,9.756182,-0.02981906,-0.019258842,9.757898,0,
11,985.882690429687,0.000469573307782,0.000691362307407,0.000985816819593,-10.6383266448975,20.8667755126953,-34.2382316589355,0.026945203542709,0.039438635110855,0.0499267578125,0.08864465,-0.16555084,9.763285,-0.040485192,-0.021818414,9.764984,0,
11,985.880187988281,-0.000462666503154,0.000291910371743,-0.000745294091757,-11.1135559082031,21.6333274841309,-34.132869720459,0.021934546530247,0.048927754163742,0.05466365814209,0.09104848,-0.1655512,9.746715,-0.0381212,-0.023105145,9.748444,0,
11,985.877380371094,0.000202988740057,0.000291932141408,0.00031991180731,-11.2639942169189,21.6506881713867,-34.4186401367187,0.036188386380673,0.010933384299278,0.064132690429688,0.08628264,-0.14648534,9.7490835,-0.033801373,-0.003878966,9.750506,0,
11,985.849792480469,0.000202854163945,-0.000240677734837,-0.000612251402345,-10.841757774353,21.0444107055664,-33.216480255127,0.017839692533016,0.024725735187531,0.054751396179199,0.09006131,-0.15361054,9.760828,-0.03327903,-0.011548057,9.762388,0,
11,985.877380371094,-0.000856459373608,0.000157830130775,-0.000476543500554,-11.0222225189209,21.3500556945801,-34.0533866882324,0.022541388869286,0.010198473930359,0.054751396179199,0.08525479,-0.1416936,9.760826,-0.031978924,0.001433447,9.762175,0,
11,985.867492675781,0.000212638522498,-0.000242266163696,0.000856679223944,-10.8531150817871,20.8761672973633,-33.8977470397949,0.041206069290638,0.014639377593994,0.050023078918457,0.07566857,-0.14407618,9.765557,-0.041465,0.0041349977,9.766825,0,
11,985.85498046875,-0.00058605230879,0.000822955626063,0.00085678929463,-10.9168930053711,21.7121734619141,-34.2447700500488,0.026588410139084,0.033492863178253,0.035821914672852,0.092371225,-0.15599196,9.770289,-0.03105976,-0.014587089,9.77191,0,
11,985.877624511719,-0.000852111144923,0.001089229830541,0.000191109749721,-10.8572454452515,21.6098022460937,-33.9400367736816,0.021617896854878,0.009399428963661,0.040557861328125,0.08756474,-0.1488414,9.7702875,-0.031886593,-0.005919412,9.771759,0,
11,985.875122070313,-5.29065728187561E-05,-0.00010923325317,-0.000341411912814,-10.3795146942139,21.214485168457,-34.2984580993652,0.040666684508324,0.023321032524109,0.045290946960449,0.0803684,-0.15122409,9.770285,-0.039143715,-0.004541442,9.771706,0,
12,985.865051269531,-0.000452123582363,-0.00077506469097,0.000191329949303,-10.7809944152832,21.4177169799805,-33.7865753173828,0.007508009672165,0.032636046409607,0.064225196838379,0.09707105,-0.16313975,9.744244,-0.029105444,-0.023258999,9.746023,0,
12,985.872619628906,0.000347081106156,-0.000242474663537,-0.001006981357932,-10.4897918701172,21.7424545288086,-32.8496551513672,0.021524325013161,0.018117442727089,0.059494972229004,0.089874655,-0.15360607,9.748974,-0.031264465,-0.011080697,9.750541,0,
12,985.8701171875,-0.000318451784551,0.000689589069225,0.000457866059151,-10.6259899139404,21.4047775268555,-33.732723236084,0.02128978073597,0.022698014974594,0.045292854309082,0.08745813,-0.15837188,9.763176,-0.035436675,-0.013601556,9.764778,0,
12,985.859985351562,-0.000490609498229,-6.05850364081562E-05,-0.000122368102893,-10.9375200271606,21.4291801452637,-33.763126373291,0.026123866438866,0.027522891759873,0.054765701293945,0.08504158,-0.15122147,9.758439,-0.034340955,-0.0066408813,9.759917,0,
12,985.859985351562,-0.000490609498229,-6.05850364081562E-05,-0.000122368102893,-10.4855251312256,21.1147384643555,-33.5064430236816,0.04021168500185,0.022932350635529,0.045303344726563,0.08023512,-0.1559873,9.763171,-0.040751617,-0.008306757,9.764659,0,
12,985.87255859375,0.000841226719785,-0.000726416416001,0.000144057907164,-10.9520587921143,21.1520767211914,-33.5907020568848,0.025257185101509,0.008600294589996,0.054782867431641,0.084988296,-0.14883693,9.760801,-0.03270466,-0.004172042,9.76225,0,
12,985.902770996094,0.000708325707819,0.001004595193081,0.00041048382991,-10.8888235092163,20.6843566894531,-33.3421287536621,0.029766000807285,0.032227769494057,0.045316696166992,0.08018178,-0.15598603,9.758431,-0.0398014,-0.008750692,9.759922,0,
12,985.902526855469,-0.000489838828798,0.000871395459399,-0.000787827651948,-10.9270038604736,21.3335723876953,-33.6051864624023,0.020055569708347,0.032206565141678,0.054789543151856,0.089714766,-0.15598543,9.756062,-0.030705549,-0.014074355,9.757664,0,
12,985.852294921875,0.000575681740884,0.000205564079806,0.000410704058595,-9.99477672576904,20.9950485229492,-33.9599800109863,0.024755276739597,0.017772138118744,0.040589332580567,0.087298155,-0.15360142,9.765528,-0.03198989,-0.009996071,9.767068,0,
12,985.89794921875,-0.00022300920682,-0.000593425298575,-0.000521291396581,-10.8126802444458,21.5986175537109,-33.5613288879395,0.024405129253864,0.027377530932427,0.045330047607422,0.0848816,-0.1512175,9.767893,-0.03280735,-0.0069877952,9.769375,0,
12,985.875183105469,0.000176721892785,0.000604954431765,0.000277766463114,-10.666127204895,21.3144645690918,-33.6442680358887,0.014617666602135,0.022525504231453,0.045334815979004,0.089634776,-0.1559834,9.76079,-0.030520197,-0.013143972,9.762391,0,
12,985.867492675781,0.00057645252673,0.00060491275508,1.15606235340238E-05,-10.7563743591309,20.8611602783203,-33.5268516540527,0.028902746737003,0.012522980570793,0.054801940917969,0.08482832,-0.1464497,9.753685,-0.030154284,-0.002455771,9.755105,0,
12,985.852294921875,-0.000222238071728,-6.09186827205122E-05,0.000277986633591,-10.8301248550415,21.4244842529297,-33.9333686828613,0.004870355129242,0.031625777482987,0.031131744384766,0.10153097,-0.15836538,9.763151,-0.020719916,-0.020214796,9.764922,0,
12,985.892639160156,-0.00035513920011,0.000471671344712,0.00027809679159,-10.9725484848022,20.9749984741211,-33.8081398010254,0.024097591638565,0.02694933116436,0.050073623657227,0.084775,-0.15598144,9.77025,-0.03439875,-0.011170819,9.771795,0,
12,985.877380371094,0.000310907431412,-6.10020942986012E-05,-0.000254424870946,-10.4242172241211,21.1197509765625,-33.9780883789062,0.024215079843998,0.026774451136589,0.045337677001953,0.08235848,-0.16313063,9.767881,-0.039723888,-0.0163109,9.769497,0,
12,985.865112304688,-0.00048752623843,-6.10855058766901E-05,-0.000786836491898,-11.3171482086182,21.284740447998,-34.2350654602051,0.023901112377644,0.026405960321426,0.0548095703125,0.0895015,-0.16074671,9.753675,-0.03222543,-0.016432196,9.755343,0,
12,985.903015136719,0.000844309863169,-6.11271825619042E-05,0.000411695073126,-11.1667108535767,21.2673873901367,-33.9492950439453,0.028544485569,0.007348984479904,0.021673202514649,0.079915226,-0.14882965,9.774978,-0.035109732,-0.0013311505,9.776374,0,
12,985.882690429687,-0.000487012497615,0.000604620785452,0.000278647290543,-11.1968746185303,21.4497604370117,-33.8013496398926,0.028639674186707,0.031197518110275,0.012205123901367,0.0846684,-0.15359558,9.782077,-0.033159196,-0.0076896995,9.78359,0,
12,985.8701171875,4.58761933259666E-05,-0.00099331617821,-0.00038703228347,-10.7357482910156,21.144157409668,-34.0084953308105,0.033052183687687,0.016887828707695,0.035883903503418,0.082924664,-0.1536114,9.772667,-0.03424,-0.00763762,9.774163,0,
12,985.867614746094,-0.000353340699803,-0.000460726150777,-0.000386922154576,-10.7869443893433,21.5177383422852,-34.1764335632324,0.012937851250172,0.006935626268387,0.049954414367676,0.086001694,-0.14409514,9.765629,-0.02731162,-0.00020869076,9.767033,0,
12,985.865051269531,-0.000366284686606,-0.000192309002159,0.000406478095101,-10.9640970230103,21.246208190918,-33.6713447570801,0.02688455581665,0.016175374388695,0.049951553344727,0.08602962,-0.14886244,9.760897,-0.028975166,-0.0041232556,9.762368,0,
12,985.875183105469,-0.000233395549003,0.001538787735626,0.000140046933666,-11.2108707427979,20.8043632507324,-33.5304756164551,0.02653494477272,0.015988871455193,0.045215606689453,0.09083736,-0.14886315,9.763267,-0.024440683,-0.005796358,9.7647915,0,
12,985.880310058594,-0.000100506527815,-0.000325379602145,0.001072037266567,-11.2390766143799,21.7262649536133,-33.7340431213379,0.031397260725498,0.016274601221085,0.04995059967041,0.090865254,-0.14648058,9.758534,-0.023437895,-0.0043898523,9.760027,0,
12,985.882873535156,0.000964487961028,-0.001124283648096,6.65849074721336E-06,-10.6720771789551,21.4144897460937,-34.034122467041,0.022127248346806,0.025769844651222,0.026271820068359,0.083723456,-0.15839751,9.77274,-0.03535501,-0.011888877,9.774311,0,
13,985.860229492188,-0.000234202540014,-0.000857923994772,0.000272859120741,-10.4251956939697,20.7499885559082,-33.8023338317871,0.031718224287033,0.025475144386292,0.059404373168945,0.08375132,-0.14886512,9.751438,-0.030974422,-0.003320977,9.752884,0,
13,985.88037109375,3.18444217555225E-05,-0.000724722456653,-0.00039304594975,-11.088095664978,21.3406181335449,-33.3498191833496,0.012821704149246,0.010978981852532,0.059397697448731,0.09333885,-0.15124913,9.75144,-0.023707237,-0.009086877,9.753027,0,
13,985.880310058594,-0.000367898202967,-0.000591520802118,-0.000126845319755,-10.6048202514648,21.3194808959961,-34.1159172058105,0.026919037103653,0.015431195497513,0.049924850463867,0.08141726,-0.1560164,9.75381,-0.036021937,-0.0083241165,9.755328,0,
13,985.887878417969,-0.000501325295772,0.000473786378279,-0.000126960570924,-10.7664546966553,21.6948165893555,-33.9590034484863,0.017378352582455,0.029784843325615,0.03571891784668,0.09100479,-0.16316687,9.768017,-0.030667689,-0.018770486,9.769737,0,
13,985.865051269531,0.000297353311908,-0.000591433490627,6.08211848884821E-06,-10.8172454833984,21.5941963195801,-33.3294105529785,0.012450933456421,0.02984182536602,0.068859100341797,0.09342259,-0.16555078,9.749081,-0.029469553,-0.02228573,9.750864,0,
13,985.875305175781,0.000430242449511,0.000740189454518,-0.000260348897427,-10.7137365341187,21.3227081298828,-33.8683662414551,0.026228114962578,0.020163685083389,0.045187950134277,0.08628082,-0.14886858,9.770389,-0.02803601,-0.0038752109,9.771862,0,
13,985.890258789063,0.000696289527696,-0.000191872357391,0.000272167468211,-10.8490924835205,21.2488784790039,-34.2281112670898,0.021539501845837,0.024683311581612,0.040446281433106,0.091088474,-0.16555221,9.756187,-0.031209487,-0.020723209,9.757945,0,
13,985.880187988281,-0.00103503279388,-0.000591302523389,5.73624856770039E-06,-10.8219718933105,21.0635566711426,-34.2214469909668,0.026146024465561,0.024410277605057,0.040441513061524,0.08155674,-0.15601982,9.770393,-0.035258744,-0.007409796,9.771914,0,
13,985.872619628906,0.000562593282666,0.001539268065244,-0.000260694825556,-10.7895832061768,21.0405883789062,-33.2242965698242,0.020583763718605,0.029260903596878,0.045182228088379,0.088754356,-0.15602042,9.768029,-0.028126236,-0.011295721,9.769631,0,
13,985.872619628906,-0.000369781337213,0.000474048312753,-0.000260810134932,-10.8331699371338,21.4215393066406,-33.7787590026855,0.020415872335434,0.01953749358654,0.030976295471192,0.084002495,-0.15363784,9.770399,-0.031142678,-0.0067649484,9.771916,0,
13,985.877380371094,0.000295739795547,0.000740407966077,-0.000260925386101,-10.9420862197876,21.4247627258301,-33.5312156677246,0.015083469450474,0.019647151231766,0.064122200012207,0.09358999,-0.15602182,9.749096,-0.023322023,-0.01362744,9.750756,0,
13,985.862487792969,0.00042862870032,-5.84961380809546E-05,5.27518568560481E-06,-11.0262451171875,20.9773483276367,-33.7230186462402,0.024796068668366,0.010026082396507,0.064116477966309,0.08166844,-0.14648946,9.746732,-0.02962359,-8.5771084E-05,9.748131,0,
13,985.877685546875,-0.001036646775901,-5.84088265895844E-05,-0.000128113199025,-10.7267532348633,21.0470733642578,-33.7732467651367,0.024507254362106,0.014338657259941,0.035701751708984,0.08647615,-0.15363993,9.779875,-0.028099302,-0.007852554,9.781421,0,
13,985.877685546875,-0.001036646775901,-5.84088265895844E-05,-0.000128113199025,-10.7267532348633,21.0470733642578,-33.7732467651367,0.020015604794026,0.009550511837006,0.030962944030762,0.084114134,-0.14649077,9.765675,-0.027347267,-0.00016622245,9.7670965,0,
13,985.877685546875,-0.001036646775901,-5.84088265895844E-05,-0.000128113199025,-10.5364761352539,20.4878959655762,-34.000804901123,0.014843121170998,0.028344556689262,0.059368133544922,0.088921785,-0.16079111,9.758575,-0.02929229,-0.014678195,9.760249,0,
13,985.870056152344,-0.000237968110014,-0.001256786519662,0.000138087314554,-11.4531850814819,21.4732894897461,-33.9941825866699,0.033639900386334,0.023399114608765,0.059366226196289,0.084169894,-0.15364201,9.75621,-0.029734675,-0.0065148324,9.757736,0,
13,985.89990234375,-0.000238236912992,0.001406415831298,0.000137972063385,-11.3644590377808,21.9251174926758,-34.034294128418,0.014558464288712,0.013838917016983,0.040425300598145,0.08658773,-0.15125938,9.763315,-0.026526853,-0.005517453,9.764833,0,
13,985.874572753906,0.000400163349696,-0.000496017164551,0.000248844124144,-10.8672189712524,21.3371200561523,-33.9995231628418,0.019375957548618,0.028269812464714,0.040423393249512,0.093785346,-0.15840985,9.765684,-0.02343135,-0.015186727,9.76738,0,
13,985.884704589844,4.20375727117062E-07,3.66583117283881E-05,-0.000150744919665,-10.6655836105347,20.9461784362793,-33.5458183288574,0.033182643353939,0.013874381780624,0.054628372192383,0.08186376,-0.14649422,9.758585,-0.028218027,0.00032564998,9.759988,0,
13,985.864440917969,0.000665941392072,-0.000229613942793,0.000514929473866,-10.5104427337646,21.0391616821289,-34.1910400390625,0.013721816241741,0.009001359343529,0.059362411499024,0.08589259,-0.13932599,9.751415,-0.021021321,0.005067587,9.752765,0,
13,985.86474609375,-0.000399591168389,0.001102009089664,-1.78177142515779E-05,-11.2661962509155,21.9115829467773,-33.7407112121582,0.020178325474262,0.027689456939697,0.054764747619629,0.08509502,-0.16075583,9.751342,-0.031554364,-0.012924343,9.752979,0,
13,985.887145996094,-0.000394286122173,-0.000230431498494,-0.000281859887764,-11.2175006866455,21.1667633056641,-33.3197059631348,0.00551625341177,0.018097534775734,0.054770469665527,0.10179007,-0.15122189,9.746605,-0.011860896,-0.012542576,9.748295,0,
13,985.867492675781,-0.00038485287223,0.000833300699014,-0.000410974957049,-10.8605880737305,20.974723815918,-34.2102966308594,0.015195429325104,0.017954096198082,0.035832405090332,0.08980632,-0.15122105,9.765539,-0.022512294,-0.0069069117,9.767096,0,
13,985.86181640625,1.49508705362678E-05,-0.000631490256637,-1.13596906885505E-05,-10.3503293991089,20.6623458862305,-34.2706489562988,0.014908693730831,0.027268886566162,0.05950927734375,0.09216195,-0.16075332,9.763168,-0.02431754,-0.016356722,9.764883,0,
13,985.882141113281,-0.00011754676234,0.000833139929455,0.000654713017866,-10.6003913879395,21.2179832458496,-33.648754119873,0.034019075334072,0.022378459572792,0.050042152404785,0.075398386,-0.14645286,9.758432,-0.03281912,0.003743276,9.759767,0,
14,985.86474609375,-0.000117216492072,-0.000365335145034,-0.000144093181007,-11.0645627975464,21.5206451416016,-33.2869911193848,0.009663760662079,0.022216111421585,0.059516906738281,0.08731365,-0.16313495,9.760796,-0.029207967,-0.016164243,9.762492,0,
14,985.86181640625,0.000548903131858,0.000167243124451,0.000122364144772,-11.1280956268311,21.3562240600586,-33.9604454040527,0.024036079645157,0.01742035150528,0.035846710205078,0.08727938,-0.15121777,9.765528,-0.023870531,-0.005288884,9.767058,0,
14,985.877014160156,-0.000116556184366,0.001232452923432,-0.000410126289353,-10.6359634399414,21.1320953369141,-33.7922096252441,0.023290798068047,0.012498304247856,0.064264297485352,0.08724511,-0.14883362,9.758423,-0.021958131,-0.0038196146,9.759923,0,
14,985.886840820313,-0.000249384203926,0.001099241198972,-0.00027682678774,-10.3696784973145,21.3812484741211,-33.5398902893066,0.023343220353127,0.017057657241821,0.064262390136719,0.09199065,-0.14644946,9.756052,-0.016522612,-0.0038866997,9.757571,0,
14,985.8642578125,-0.000115895876661,-9.92337008938193E-05,-0.000143527286127,-10.8937959671021,21.1541481018066,-33.9077415466309,0.02328871935606,-0.011356398463249,0.050065994262695,0.08717665,-0.13691555,9.76315,-0.016606852,0.007116303,9.7644825,0,
14,985.891845703125,-0.000248724012636,-9.92871937341988E-05,-0.000276543723885,-10.667649269104,21.3129920959473,-33.5669631958008,0.018765024840832,0.021443337202072,0.054795265197754,0.08714241,-0.165514,9.760779,-0.029334333,-0.018135667,9.76251,0,
14,985.879272460937,-0.000647867447697,-0.001297762384638,-0.00014324428048,-10.9610528945923,21.2491569519043,-33.8259544372559,0.004859380424023,0.021285384893417,0.050056457519531,0.09427786,-0.15836336,9.7584095,-0.020227518,-0.014362499,9.7601185,0,
14,985.8642578125,1.82520598173141E-05,-9.93944122456014E-05,0.000123213045299,-10.9206171035767,21.9716033935547,-33.4895362854004,0.02870187908411,0.021063476800919,0.045321464538574,0.08229411,-0.15836246,9.760775,-0.030594818,-0.009187236,9.762354,0,
14,985.884582519531,-0.00051404919941,-0.000765237782616,-0.000276119215414,-10.9366779327393,21.6930236816406,-33.2398071289062,0.014610350131989,0.025702461600304,0.04058837890625,0.091819465,-0.16312818,9.765505,-0.02439754,-0.017231345,9.767253,0,
14,985.884399414062,0.000285228248686,-0.001031607156619,-0.000675451476127,-10.8482513427734,21.5127220153809,-33.7047843933105,0.029012143611908,0.025879979133606,0.064264297485352,0.07266599,-0.15597756,9.753666,-0.038415268,-0.002646014,9.755108,0,
14,985.886535644531,0.000551874400117,0.000166760699358,-0.00027583638439,-11.1603240966797,21.9054145812988,-33.8336448669434,0.033456668257713,0.006662771105766,0.0311279296875,0.086971164,-0.14406036,9.7726,-0.019957934,0.002028346,9.77403,0,
14,985.894287109375,0.00068536226172,0.000699338910636,-0.000142536940984,-10.8708047866821,21.7024612426758,-33.9433708190918,0.028500750660896,0.016240760684013,0.035869598388672,0.07737732,-0.16074242,9.765495,-0.035776887,-0.00906533,9.767056,0,
14,985.876708984375,-0.000645886757411,0.000299811421428,-0.000142395379953,-10.9993696212769,21.7924537658691,-33.3899307250977,0.018722593784332,0.00142577290535,0.069008827209473,0.091682434,-0.1512085,9.744186,-0.01822437,-0.0068267137,9.745772,0,
14,985.87646484375,-0.000911872717552,-0.000232873891946,0.001056167529896,-11.3525581359863,21.7250709533691,-33.2545776367188,0.032967999577522,0.039486020803452,0.040605545043945,0.074918866,-0.16789056,9.770224,-0.040809937,-0.013219684,9.771859,0,
14,985.886535644531,-0.000245752627961,0.000566020200495,-0.000142112490721,-11.1091279983521,21.5318298339844,-33.6657066345215,0.008724518120289,-0.003614127635956,0.050079345703125,0.08922404,-0.14405693,9.765486,-0.016719976,0.0012084246,9.766943,0,
14,985.888793945312,2.08931742236018E-05,0.000699124473613,-0.000541444867849,-10.455904006958,21.300651550293,-33.7528381347656,0.018034733831883,0.020176962018013,0.050085067749024,0.091579676,-0.1559725,9.763115,-0.019539118,-0.01101172,9.764765,0,
14,985.903930664063,0.000287539209239,3.32812196575105E-05,-0.000541303306818,-11.1030397415161,21.5377235412598,-33.974925994873,0.013274751603603,0.019767329096794,0.040613174438477,0.08437574,-0.15597166,9.758378,-0.025962882,-0.007067248,9.759952,0,
14,985.903930664063,-0.000644236220978,-0.000366246211343,-0.000541161862202,-10.9797220230103,21.7056846618652,-33.6958198547363,0.008576884865761,0.024532809853554,0.045351028442383,0.0939011,-0.15597086,9.763109,-0.017592989,-0.011196703,9.764784,0,
14,985.906555175781,0.000288199516945,-0.000366299820598,0.000124769401737,-10.9037685394287,20.881462097168,-33.9672317504883,0.023049369454384,0.033946141600609,0.035881996154785,0.0866971,-0.16311981,9.763106,-0.02721245,-0.0142740905,9.764804,0,
14,985.878540039063,-0.000110944267362,-0.000233195431065,-0.00014140503481,-10.9685249328613,21.3477058410645,-34.138500213623,0.017395950853825,0.010175719857216,0.050004959106445,0.089980245,-0.15122534,9.767922,-0.018940257,-0.0051035434,9.769487,0,
14,985.899108886719,0.000149047467858,-0.000365326763131,-0.000277273356915,-11.2050275802612,21.8106842041016,-33.5132751464844,0.022064059972763,0.01966704428196,0.045270919799805,0.092372656,-0.16075851,9.765555,-0.02093209,-0.014840454,9.767281,0,
14,985.899108886719,0.000149047467858,-0.000365326763131,-0.000277273356915,-10.7387914657593,21.1412086486816,-33.8538856506348,0.01700209826231,0.000744432210922,0.050010681152344,0.0875954,-0.1393091,9.756086,-0.015395936,0.0059592724,9.75746,0,
14,985.888732910156,0.000280007021502,0.000167661986779,0.000254416227108,-10.7227306365967,21.4197845458984,-34.1036109924316,0.016580067574978,0.005604773759842,0.02634334564209,0.08759794,-0.14645906,9.775024,-0.018290285,-0.0005131811,9.776496,0,
14,985.893798828125,0.000812614220195,0.000966613471974,-0.000544541864656,-10.3003559112549,20.9194259643555,-33.6005325317383,0.011652626097202,0.010050132870674,0.04527759552002,0.08999038,-0.14407577,9.77029,-0.014811188,0.00071296096,9.771755,0,
14,985.871032714844,-0.000252673518844,-9.86459781415761E-05,-0.000411394517869,-10.6009349822998,21.5862731933594,-33.7472038269043,0.026014372706413,0.014878630638123,0.054746627807617,0.08760303,-0.15360893,9.763189,-0.021123864,-0.0070555955,9.764765,0,
15,985.878784179688,-0.000385856023058,0.000833463447634,0.000653858645819,-10.3349494934082,21.203296661377,-33.919750213623,0.007267370820045,0.000750914216042,0.05001163482666,0.087605536,-0.14645912,9.760822,-0.018432911,-0.00021331012,9.762297,0,
15,985.883728027344,0.000546225113794,-0.001563375466503,-1.19415344670415E-05,-11.2572021484375,21.8145065307617,-33.5054588317871,0.021513693034649,0.000656753778458,0.045275688171387,0.080438375,-0.14645924,9.753721,-0.024634143,0.0032581538,9.755121,0,
15,985.891235351563,0.000679358723573,0.000167681660969,-0.000944057595916,-11.1382055282593,20.9776229858398,-33.320858001709,0.012044563889504,0.0196782797575,0.059477806091309,0.085220695,-0.15837564,9.748986,-0.025799401,-0.010032743,9.750606,0,
15,985.871032714844,-0.000652245245874,-0.000498103967402,0.000520669273101,-11.0378475189209,21.8095321655273,-34.0778617858887,0.030936315655708,0.009802550077438,0.054739952087402,0.07088381,-0.14407612,9.758455,-0.03179661,0.009867892,9.75972,0,
15,985.878662109375,-0.000385953811929,-0.000498100067489,-0.000145130907185,-10.875807762146,20.9599914550781,-33.4372482299805,0.016486778855324,0.009948462247849,0.050008773803711,0.09000558,-0.15360923,9.765556,-0.01918873,-0.007255554,9.7671585,0,
15,985.9013671875,4.66246856376529E-05,4.24673780798912E-05,-0.000581708853133,-11.2280178070068,21.2623672485352,-33.4776496887207,0.016442440450192,0.009827226400375,0.045271873474121,0.08761823,-0.1488428,9.772659,-0.018990384,-0.0020393431,9.774168,0,
15,985.911315917969,0.000446073710918,0.000575102982111,0.00048354419414,-10.5280246734619,20.7591018676758,-33.8640022277832,0.016754530370236,0.01934652030468,0.035799980163574,0.087620765,-0.16075917,9.772659,-0.024504237,-0.012731478,9.774335,0,
15,985.903381347656,0.000179733498953,-0.001289104111493,8.40598368085921E-05,-10.7483291625977,21.606575012207,-34.1875801086426,0.016058169305325,0.024096980690956,0.031072616577149,0.07806373,-0.15122618,9.772659,-0.028246177,0.00035445392,9.774101,0,
15,985.89306640625,-8.66312766447663E-05,0.00150722078979,0.000749828643166,-10.8477087020874,21.1444320678711,-33.6063385009766,0.030036509037018,-0.004529058933258,0.045278549194336,0.07806623,-0.13930984,9.777394,-0.022534704,0.010678202,9.778667,0,
15,985.890686035156,-8.665572386235E-05,0.000308803166263,-0.000448603299446,-11.2043466567993,21.5483093261719,-34.1139030456543,0.020349234342575,0.014713421463966,0.050017356872559,0.08284858,-0.15360953,9.763191,-0.024696436,-0.004555762,9.764718,0,
15,985.898315429687,0.000445951591246,-0.000623298517894,8.40179272927344E-05,-10.9656190872192,21.2447357177734,-33.5940361022949,0.025351352989674,0.00492599606514,0.045276641845703,0.080461204,-0.15122636,9.75609,-0.025787152,-0.001220569,9.757562,0,
15,985.877990722656,0.000179611262865,-0.00035697867861,0.000217165448703,-10.9988269805908,21.4241638183594,-33.2914772033691,0.015937194228172,0.023831009864807,0.045271873474121,0.08763343,-0.15360971,9.763192,-0.020549927,-0.006316319,9.764771,0,
15,985.908508300781,-0.000486202770844,-0.000223816750804,-4.91609098389745E-05,-10.5702276229858,21.0356140136719,-33.7966957092285,0.025254845619202,0.014257490634918,0.031070709228516,0.08285618,-0.155993,9.775028,-0.025636466,-0.006373942,9.776589,0,
15,985.885498046875,0.00017956236843,-0.000623286585324,0.000882934196852,-10.7047424316406,21.2256278991699,-33.6331214904785,0.015639238059521,0.000129789113998,0.035807609558106,0.090028405,-0.14407672,9.775028,-0.013937794,0.00095008314,9.776495,0,
15,985.895385742188,0.000312695861794,0.000441980897449,-0.000315497862175,-10.8983612060547,21.1497268676758,-33.6758270263672,0.006068915128708,0.009730473160744,0.050012588500977,0.094810724,-0.1512266,9.763193,-0.0129058175,-0.007736236,9.7648115,0,
15,985.89794921875,4.63556498289108E-05,-0.000356962787919,0.000749755301513,-10.8371925354004,21.048828125,-33.4483947753906,0.010764293372631,0.004601642489433,0.059476852416992,0.087643564,-0.15122665,9.751356,-0.019018155,-0.0044086725,9.752904,0,
15,985.867492675781,-8.68268543854356E-05,-9.06430068425834E-05,0.000749744824134,-10.7677316665649,20.6929168701172,-34.2081184387207,0.020614214241505,0.02345384657383,0.059471130371094,0.08764613,-0.14884342,9.748989,-0.018097937,-0.001929149,9.750502,0,
15,985.885375976562,-0.000619482947513,-0.000756428635214,0.000350260525011,-11.266058921814,22.0175018310547,-34.4397850036621,0.015953980386257,0.013910815119743,0.040531158447266,0.0900386,-0.14646019,9.770294,-0.015040701,-0.0005712509,9.771794,0,
15,985.888000488281,-8.68756324052811E-05,-0.000490108854137,-0.000581855536439,-10.8997459411621,21.2541732788086,-34.2975997924805,0.025446943938732,0.013835951685906,0.04526424407959,0.08007157,-0.14883353,9.763157,-0.024891283,0.0017469078,9.764587,0,
15,985.903076171875,-0.000218097469769,-0.000224107236136,0.000351079856046,-10.4939756393433,20.8435287475586,-33.643238067627,0.026128143072128,0.023125737905502,0.054807662963867,0.08202931,-0.16312255,9.76075,-0.029278126,-0.01201582,9.762407,0,
15,985.895446777344,0.000851385528222,0.00044199480908,-0.000177482725121,-10.8045263290405,21.2376861572266,-33.8493995666504,0.035667166113854,0.008914053440094,0.050078392028809,0.07243931,-0.1512055,9.763113,-0.03253933,0.0030061603,9.764498,0,
15,985.920349121094,-0.000213584280573,-0.000623316387646,8.89588845893741E-05,-10.8717842102051,21.3326988220215,-33.7676124572754,0.016492359340191,0.01356340944767,0.054815292358399,0.08674824,-0.15835448,9.756009,-0.022830809,-0.009852454,9.757648,0,
15,985.89501953125,-8.01330897957087E-05,0.000308741582558,0.000888032373041,-10.7800149917603,21.7874755859375,-33.9623336791992,0.021271608769894,0.008623823523521,0.054817199707031,0.08910769,-0.1535872,9.763107,-0.018401405,-0.006625548,9.764704,0,
15,985.895385742188,-0.00021299731452,-0.000357095734216,0.000355526368367,-10.675121307373,21.4115447998047,-33.8795166015625,0.016508519649506,-0.000737518072128,0.040617942810059,0.089077234,-0.14167012,9.767839,-0.013270674,0.004060626,9.769263,0,
16,985.880187988281,0.000186769873835,4.23304154537618E-05,-4.38215211033821E-05,-10.6118869781494,20.9438285827637,-33.6309394836426,0.026082314550877,0.0038111358881,0.045351982116699,0.0699276,-0.15120246,9.770205,-0.034512885,0.0045660734,9.771564,0,
16,985.872619628906,-0.000611884286627,0.000175440742169,8.94621480256319E-05,-10.5696840286255,20.6673202514648,-33.6982460021973,0.016271352767944,0.017814174294472,0.040619850158692,0.091406286,-0.1559682,9.760733,-0.017090203,-0.009410381,9.762386,0,
16,985.917785644531,-7.89589248597622E-05,0.000175393070094,0.000222745758947,-11.1401329040527,21.4503555297852,-34.0410804748535,0.025382786989212,0.003535360097885,0.050095558166504,0.07464647,-0.14643444,9.755996,-0.027314411,0.0063231587,9.75734,0,
16,985.902282714844,5.4492149502039E-05,0.00017534539802,8.97136051207781E-05,-10.6459360122681,20.8594055175781,-33.8517036437988,0.020529456436634,0.01783213019371,0.040631294250488,0.0817858,-0.15120025,9.765461,-0.023029305,-0.0009185672,9.766946,0,
16,985.902648925781,0.000853733741678,0.000441613665316,8.98393918760121E-05,-10.9640970230103,21.246208190918,-33.6713447570801,0.015718549489975,0.022913157939911,0.050107955932617,0.08414519,-0.15119942,9.763092,-0.020991977,-0.0024945438,9.764601,0,
16,985.89501953125,0.000454553053714,-0.000224223651458,-0.000708982581273,-10.8165655136108,21.3318252563477,-33.9300384521484,0.020351558923721,0.018119171261788,0.05484676361084,0.08411473,-0.15834852,9.755987,-0.023842506,-0.009546682,9.757601,0,
16,985.89501953125,0.000454553053714,-0.000224223651458,-0.000708982581273,-10.0810012817383,20.9144515991211,-34.1729316711426,0.01989595592022,-0.010696306824684,0.045382499694824,0.081694365,-0.13451506,9.763086,-0.015037727,0.01339145,9.764334,0,
16,985.887145996094,5.53730642423034E-05,0.000707834202331,-0.000575698679313,-10.5505790710449,20.948844909668,-34.1025810241699,0.024514973163605,0.01787306368351,0.059590339660645,0.08166391,-0.15358044,9.758348,-0.02340188,-0.0036117435,9.759871,0,
16,985.910034179688,-0.000210649566725,0.000840944529045,-0.000176099129021,-10.905834197998,21.2482833862305,-33.9883766174316,0.019179344177246,0.022731676697731,0.026459693908692,0.08402336,-0.16072954,9.770182,-0.02401442,-0.011358619,9.77183,0,
16,985.917602539062,-0.000210355850868,0.000175107154064,9.03425388969481E-05,-10.4773712158203,20.7538108825684,-33.7945137023926,0.019204065203667,0.008267819881439,0.050131797790527,0.08160305,-0.14881249,9.755976,-0.020734629,0.00027546287,9.75743,0,
16,985.882080078125,-7.69046600908041E-05,0.000840849184897,-4.2689498513937E-05,-10.7077865600586,21.2226867675781,-33.4785118103027,0.014240354299545,0.008344143629074,0.059608459472656,0.08635235,-0.15357824,9.758339,-0.018498518,-0.0061355084,9.759911,0,
16,985.889587402344,0.000456020818092,-0.000357619835995,-0.000175721710548,-10.7101497650147,20.9573669433594,-33.9245262145996,0.01904870569706,0.008077338337898,0.040669441223145,0.081542134,-0.15119423,9.763071,-0.021594645,-0.0016604215,9.764557,0,
16,985.871826171875,-7.63175776228309E-05,0.000707595900167,0.000223877839744,-10.7198238372803,21.3168144226074,-33.5591468811035,0.019062645733357,0.012947991490364,0.035938262939453,0.07912177,-0.15357675,9.765436,-0.024892332,-0.002483815,9.766932,0,
16,985.884582519531,5.71339624002576E-05,-0.000490873120725,-0.000175470195245,-11.1809511184692,21.6224212646484,-33.3520011901855,0.028065256774426,0.008349314332008,0.050151824951172,0.07909131,-0.15595935,9.765434,-0.025594916,-0.0048367083,9.766965,0,
16,985.881713867187,0.000456901267171,0.000707500788849,0.000357287353836,-11.058069229126,21.0523338317871,-32.7986907958984,0.018537238240242,0.017681047320366,0.054886817932129,0.076670974,-0.15357523,9.758329,-0.026513236,-0.0018362701,9.759804,0,
16,985.904602050781,-7.54370121285319E-05,0.000441137060989,-4.20606229454279E-05,-10.868878364563,21.2297286987305,-33.22314453125,0.01847567409277,0.017520427703858,0.064356803894043,0.090979874,-0.16072436,9.7535925,-0.016856859,-0.0146256685,9.755316,0,
16,985.90185546875,-7.51434126868844E-05,-0.000357858109055,-4.19348943978548E-05,-10.9837446212769,21.3329772949219,-33.3654518127441,0.008858025074005,-0.001795306801796,0.035950660705567,0.081389874,-0.14165743,9.763058,-0.016596626,0.0069811046,9.764408,0,
16,985.876708984375,-0.000208008103073,0.000174725952093,-4.18091658502817E-05,-10.7206659317017,21.0529670715332,-34.0824661254883,0.023229822516441,0.01236592233181,0.035951614379883,0.07896951,-0.15357296,9.76779,-0.024076948,-0.0023597926,9.769285,0,
16,985.886535644531,-0.000105089857243,0.000131883018184,-0.000132868706714,-10.9722499847412,21.6071319580078,-33.3832664489746,0.008584059774876,0.016791209578514,0.064358711242676,0.086108774,-0.15595551,9.748849,-0.018268248,-0.007897466,9.750458,0,
16,985.914245605469,-0.000770585611463,0.000930783047806,0.00053304672474,-10.7252311706543,21.0485534667969,-33.8505516052246,0.017108596861363,-0.002068519592285,0.050095558166504,0.08206004,-0.1369073,9.765486,-0.013156269,0.010934681,9.766775,0,
16,985.891662597656,0.001089354162104,-0.00053326098714,0.000398058444262,-10.5635957717896,20.673210144043,-34.0074653625488,0.01732961833477,0.007730945944786,0.04536247253418,0.08206004,-0.15359022,9.765487,-0.020996675,-0.004071012,9.767016,0,
16,985.896789550781,0.000953512615524,-0.000266509421635,-0.000402039324399,-11.0373039245605,21.4412422180176,-33.9794082641602,0.01236704736948,0.003232896327972,0.040634155273438,0.09161964,-0.15597351,9.758385,-0.013520071,-0.010914624,9.760045,0,
16,985.88427734375,0.000154564972036,0.000665596046019,-0.000668355205562,-11.004096031189,21.2618179321289,-34.2819633483887,0.017096132040024,0.026972711086273,0.021696090698242,0.086839855,-0.16074003,9.782057,-0.019943388,-0.0124723315,9.783735,0,
16,985.906616210938,-0.000244908849709,-0.000399667304009,-0.000668355205562,-11.0232019424438,20.9802932739258,-33.877628326416,0.007655836641788,0.002995297312737,0.05483341217041,0.09400955,-0.14405714,9.753651,-0.0059263986,-0.0011783391,9.755165,0,
16,985.899047851563,0.000287722912617,0.000266122398898,-0.000135723443236,-10.5977840423584,20.4828758239746,-33.5291557312012,0.00753229111433,0.022348463535309,0.021698951721192,0.086839855,-0.15597351,9.777323,-0.017788216,-0.008466557,9.778933,0,
17,985.863403320312,0.000687196734361,-0.000399667362217,-0.000402039324399,-10.7667531967163,21.0626831054687,-34.3838729858398,0.00258707255125,0.008027777075768,0.054840087890625,0.096399456,-0.1464404,9.763119,-0.004744418,-0.004653588,9.764691,0,
17,985.883972167969,0.000154564972036,0.000132964458317,0.00039690831909,-11.0918426513672,21.1797409057617,-34.4176139831543,0.021794773638249,0.022150963544846,0.054836273193359,0.086839855,-0.15597351,9.751284,-0.01763871,-0.008668035,9.752898,0,
17,985.919006347656,-0.000244908849709,-0.000133351481054,0.000530066259671,-10.8289012908936,20.7938232421875,-34.4355506896973,0.007532373070717,0.008123457431793,0.050105094909668,0.09400955,-0.1464404,9.758385,-0.006914746,-0.003481418,9.759933,0,
17,985.893981933594,0.000687196734361,-0.000266509363428,-0.000668355205562,-10.905834197998,21.2482795715332,-33.9883804321289,0.007442809641361,0.017299726605415,0.045366287231445,0.09161964,-0.15835677,9.765487,-0.014371954,-0.012790218,9.767181,0,
17,985.888732910156,-0.000644382671453,0.000132964458317,-0.000668355205562,-11.0587730407715,20.894401550293,-34.0210914611816,0.017060518264771,0.012710571289063,0.054837226867676,0.08444995,-0.15359022,9.763119,-0.018794937,-0.005223125,9.764672,0,
17,985.850830078125,0.001086670556106,-1.93482264876366E-07,0.000130592437927,-10.5104417800903,21.0391540527344,-34.1910362243652,0.002573601901531,0.017660573124886,0.031168937683106,0.09400955,-0.16074003,9.772589,-0.01324009,-0.016385213,9.77434,0,
17,985.893432617188,2.14070314541459E-05,0.000266122457106,-2.56550265476108E-06,-10.6324825286865,21.8730926513672,-34.2210273742676,0.012028522789478,0.017341256141663,0.040634155273438,0.086839825,-0.15597351,9.763119,-0.01719515,-0.009049222,9.764732,0,
17,985.880981445312,2.14070314541459E-05,-0.001065457006916,-2.56550265476108E-06,-10.6165599822998,22.0457534790039,-33.7716827392578,0.002857118844986,0.00775708258152,0.05009937286377,0.09400955,-0.15597351,9.756018,-0.010995036,-0.012107864,9.757703,0,
17,985.881042480469,-0.000244908849709,-0.000266509363428,-0.000268881383818,-10.9820852279663,21.4403686523437,-34.1418342590332,0.016865700483322,0.012695714831352,0.045370101928711,0.08922976,-0.1488237,9.772589,-0.012145827,-0.003303945,9.774121,0,
17,985.888427734375,0.000287722912617,0.000399280281272,-0.000268881383818,-10.7122144699097,21.3241767883301,-33.945671081543,0.012151569128037,0.007796809077263,0.054836273193359,0.09161964,-0.14167388,9.753651,-0.006724417,0.0018247962,9.755107,0,
17,985.896240234375,2.14070314541459E-05,-0.00026650930522,0.000130592437927,-11.1030397415161,21.5377197265625,-33.974925994873,-0.001606740057468,-0.001711264252663,0.059566497802734,0.096399456,-0.15120696,9.753651,-0.007291306,-0.008632451,9.755292,0,
17,985.898742675781,0.000154564972036,-0.001331772888079,0.000929540081415,-11.1052417755127,21.7986221313477,-33.2969932556152,0.003035806119442,0.022052124142647,0.040628433227539,0.09161964,-0.15835677,9.767854,-0.0147162955,-0.012551755,9.769548,0,
17,985.873107910156,0.000687196734361,0.000132964341901,0.000130592437927,-10.6891164779663,20.7661514282227,-33.608642578125,0.01294556260109,0.012926772236824,0.031161308288574,0.09161964,-0.15359022,9.765487,-0.013102574,-0.008453414,9.767112,0,
17,985.84521484375,0.002285092137754,-0.001065457006916,0.001462171785533,-10.5601167678833,21.4142112731934,-34.4362831115723,0.003958702087402,0.004259899258614,0.054840087890625,0.09161964,-0.1583568,9.758385,-0.01565212,-0.013646796,9.7600765,0,
17,985.84521484375,0.002285092137754,-0.001065457006916,0.001462171785533,-10.5601167678833,21.4142112731934,-34.4362831115723,0.008757457137108,0.004082918167114,0.059572219848633,0.086839855,-0.1464404,9.760752,-0.01486549,-0.0006093085,9.762226,0,
17,985.84521484375,0.002285092137754,-0.001065457006916,0.001462171785533,-10.7242527008057,21.4183120727539,-34.026309967041,0.023386515676975,-8.73208045959473E-05,0.026436805725098,0.08444995,-0.1488237,9.774956,-0.018634293,-0.0017763227,9.776436,0,
17,985.885681152344,-0.000111750909127,-0.000399667362217,0.008386384695768,-10.6805286407471,21.1432800292969,-34.1709175109863,0.018841087818146,0.010255470871925,0.026446342468262,0.086839855,-0.1488237,9.770221,-0.017112333,-0.0032446235,9.771726,0,
17,985.890747070313,0.003217197488993,-0.001464930828661,0.048333767801523,-11.0632009506226,20.9959030151367,-34.4882545471191,0.000539556145668,0.020549714565277,0.040651321411133,0.10117927,-0.15835677,9.765487,-0.009667305,-0.018813834,9.767272,0,
17,985.890686035156,0.001619302318431,-0.002130720764399,0.000530066259671,-10.7046041488647,21.33154296875,-34.3321952819824,0.010432228446007,0.006402432918549,0.035970687866211,0.09374383,-0.15596698,9.763095,-0.015312413,-0.013643235,9.76477,0,
17,985.890686035156,0.001619302318431,-0.002130720764399,0.000530066259671,-10.7046041488647,21.33154296875,-34.3321952819824,0.024449810385704,0.011246755719185,0.045443534851074,0.07912254,-0.1440437,9.758335,-0.022488961,0.0031839758,9.759693,0,
17,985.865051269531,0.000287722912617,0.000931912160013,-0.000934671086725,-10.6102275848389,21.0512199401855,-34.4073219299316,0.015184037387371,0.001548141241074,0.045440673828125,0.091050506,-0.14404316,9.758333,-0.011995776,-0.0017873049,9.759814,0,
17,985.860229492188,0.000157501432113,0.000532494101208,-0.00013272772776,-11.2721471786499,22.0116119384766,-34.1305656433105,0.002016298472881,-0.002546519041061,0.045439720153809,0.095808744,-0.1416594,9.763065,-0.008005435,-0.001836136,9.764561,0,
17,985.875183105469,0.000690341112204,-0.001997540472075,0.000533151032869,-10.8580865859985,21.3459548950195,-34.4633598327637,0.002479232847691,0.016975373029709,0.031240463256836,0.09578717,-0.15595843,9.7748995,-0.0149900615,-0.014700934,9.776589,0,
17,985.875183105469,0.001622654497623,-0.001997574232519,-0.000931497255806,-10.6373472213745,21.2365341186523,-34.4139862060547,0.017445534467697,0.022415325045586,0.05491828918457,0.0885959,-0.14642484,9.760694,-0.018056566,-0.0032260865,9.762177,0,
18,985.865051269531,0.001489704358391,-0.001598134171218,0.000799645029474,-11.024585723877,21.0847358703613,-34.4994010925293,0.00319566577673,0.013069361448288,0.059656143188477,0.10052389,-0.14880757,9.751223,-0.008537572,-0.011223823,9.752867,0,
18,985.890197753906,0.001356754219159,-0.000932378170546,-0.000531845318619,-10.7357482910156,21.144157409668,-34.0084953308105,0.012628585100174,0.003810212016106,0.069132804870606,0.08377302,-0.14404054,9.746487,-0.021343524,0.0003273636,9.747889,0,
18,985.879760742188,0.00055822217837,-0.000399813754484,9.64675564318895E-07,-10.8936576843262,21.2600631713867,-34.606819152832,0.008465446531773,0.004246413707733,0.035993576049805,0.09809083,-0.1464232,9.765423,-0.01043351,-0.008154541,9.767005,0,
18,985.841979980469,0.001890009385534,-0.003063006326556,-0.000797894026618,-10.8229513168335,20.6937942504883,-34.0456886291504,0.008876971900463,0.013956964015961,0.054931640625,0.09089953,-0.14403947,9.75832,-0.016198732,-0.0027465373,9.759792,0,
18,985.935974121094,0.002023375127465,-0.002130934502929,1.14273279905319E-06,-10.6293315887451,20.7696914672852,-34.0029830932617,0.023544736206532,0.014598309993744,0.045468330383301,0.086098254,-0.14880551,9.763052,-0.023184504,-0.005333632,9.764539,0,
18,986.019165039063,-0.001704839291051,0.00279587530531,-0.000398241973016,-10.6866159439087,21.1373863220215,-33.8616981506348,0.032043404877186,0.036751866340637,0.064398765563965,0.08129683,-0.17025442,9.746479,-0.03527715,-0.021751523,9.748217,0,
18,985.8466796875,-0.004101474769413,0.002529525663704,1.32090644910932E-06,-11.0976324081421,21.8059844970703,-33.683521270752,0.017220072448254,0.007040724158287,0.045452117919922,0.08844495,-0.14880438,9.765415,-0.018425962,-0.0046154708,9.766931,0,
18,985.801086425781,-0.000239686458372,-0.001198930200189,-0.000264905916993,-10.6064786911011,21.2120895385742,-33.3395309448242,0.027172468602657,0.007511094212532,0.069129943847656,0.08603352,-0.14165406,9.755943,-0.017892588,0.0023058206,9.757335,0,
18,985.882141113281,0.003488943912089,-0.001465279841796,-0.000397974916268,-10.4875898361206,21.4815521240234,-33.5275917053223,0.01803707331419,0.003949373960495,0.036003112792969,0.086012006,-0.1511866,9.760675,-0.022971164,-0.0072726756,9.762194,0,
18,986.037170410156,-0.001970323966816,0.000665213505272,0.000534219841938,-10.5513982772827,21.1053009033203,-32.8028793334961,0.017218016088009,0.021078869700432,0.050189971923828,0.0859904,-0.14880277,9.774878,-0.02044757,-0.003296733,9.776366,0,
18,985.841613769531,-0.004899591207504,0.002129917265847,-0.000397796800826,-10.6421880722046,21.0202827453613,-32.7839164733887,0.011956810951233,-0.004274308681488,0.035971641540527,0.095528424,-0.14165251,9.774876,-0.007607879,6.330013E-05,9.776366,0,
18,985.798400878906,-0.002635698067024,0.000665145984385,1.76619505509734E-06,-10.5839252471924,21.0223541259766,-33.1009521484375,0.02120740711689,0.008917391300201,0.054899215698242,0.085947245,-0.15356828,9.760671,-0.020668028,-0.0057526976,9.762234,0,
18,985.844116210938,-0.003034963738173,0.00212984951213,-0.000131302629597,-10.8258352279663,21.2170715332031,-32.7671318054199,0.005836725234985,0.012278199195862,0.054891586303711,0.08114588,-0.15833433,9.753567,-0.025551273,-0.007067919,9.755154,0,
18,985.886901855469,-0.002768440404907,0.002262973692268,-0.000131213513669,-10.7335224151611,21.3035583496094,-32.8633995056152,0.01496297866106,0.011501029133797,0.040683746337891,0.08351427,-0.15833376,9.763034,-0.022671727,-0.0076003224,9.764646,0,
18,985.909729003906,-0.001303495024331,-0.000267060793703,0.000800981069915,-10.6044139862061,20.8452758789062,-33.3183822631836,0.014620736241341,0.020707726478577,0.045418739318848,0.085882604,-0.15595002,9.765399,-0.01905042,-0.006280303,9.767003,0,
18,985.853942871094,0.000294607947581,0.000265537179075,-0.000131035514642,-10.5202541351318,21.2926940917969,-33.1265830993652,0.010008439421654,0.016043558716774,0.054890632629395,0.09303069,-0.15594943,9.763029,-0.012721565,-0.009716734,9.764705,0,
18,985.897338867188,-0.000104658072814,-0.00133239175193,0.000135369424243,-10.4690580368042,20.9191017150879,-32.9586448669434,0.019890978932381,-0.003355219960213,0.035947799682617,0.081059664,-0.15356569,9.767761,-0.022574421,-0.0016879439,9.7692795,0,
18,985.894592285156,-0.000637081917375,-0.000666635809466,2.3006577976048E-06,-10.7569179534912,21.2294502258301,-33.625301361084,0.020169600844383,0.015283599495888,0.031206130981445,0.08103812,-0.15833168,9.767759,-0.024778137,-0.0053274333,9.769345,0,
18,985.87939453125,-0.00103634793777,-8.7980879470706E-07,-0.00013076828327,-10.2541313171387,21.0156288146973,-33.9982032775879,0.019658856093884,0.029305964708328,0.05014705657959,0.08101654,-0.17024757,9.753554,-0.029254122,-0.016662747,9.755318,1,
18,985.88916015625,0.000162281445228,0.001197508070618,-0.000263837224338,-10.2611980438232,20.6399726867676,-33.5132293701172,0.010091111063957,0.014898136258125,0.064351081848145,0.09351629,-0.15834467,9.758339,-0.012848657,-0.011111885,9.760057,1,
18,985.884094238281,-0.000374234979972,-0.00093238853151,0.000666603678837,-10.7524890899658,21.1279525756836,-33.1581382751465,0.008855558931828,0.005073666572571,0.054775238037109,0.08693111,-0.15120913,9.760759,-0.01540219,-0.0014013797,9.762306,1,
18,985.866821289063,0.000417797360569,0.00013399758609,0.000264166097622,-10.6927042007446,21.1314964294434,-33.5524787902832,0.013839952647686,-0.004259824752808,0.05477237701416,0.091735005,-0.14405991,9.758396,-0.008234244,0.0025805682,9.759888,1,
18,985.879028320313,0.000151249114424,-0.000132280576508,0.000130908621941,-10.4308481216431,21.4821472167969,-33.7673187255859,0.008842654526234,0.014700815081596,0.040566444396973,0.09892887,-0.15359361,9.763132,-0.0057194084,-0.009001672,9.764834,1,
18,985.886657714844,0.000284174690023,0.0002672309638,-0.000135506794322,-10.6954498291016,21.760684967041,-32.9730033874512,0.013416945934296,0.01026277244091,0.054775238037109,0.08700341,-0.15597744,9.7584,-0.017558187,-0.0060858577,9.760016,1,
18,985.886657714844,0.000284174690023,0.0002672309638,-0.000135506794322,-10.8734445571899,21.2253112792969,-32.9912300109863,0.017874665558338,-0.008763566613197,0.045306205749512,0.079857826,-0.1440617,9.770239,-0.018416848,0.0075702667,9.771607,1,
19,985.881286621094,0.000150784384459,0.000666742504109,0.000263867230387,-10.5693864822388,21.2994575500488,-33.2733726501465,0.013133533298969,0.010093107819557,0.040567398071289,0.08705163,-0.15597863,9.77024,-0.017200451,-0.0060251653,9.771856,1,
19,985.8583984375,-0.000248921802267,-0.000132167362608,-0.000668337859679,-10.6080017089844,21.2106170654297,-33.2622261047363,0.165977120399475,0.03870140016079,0.045299530029297,-0.030029416,-0.14882942,9.767876,-0.11775189,0.054703087,9.768191,1,
19,985.835998535156,0.00015031977091,0.000267344119493,-0.001467385096475,-10.9696416854858,20.8720245361328,-33.263671875,-0.311147183179855,0.0245720744133,0.035821914672852,0.2233243,-0.16551293,9.777346,0.09864475,-0.0763385,9.780503,1,
19,985.833068847656,-0.002113597933203,0.00213159294799,-0.322777599096298,-10.8576812744141,20.8717498779297,-33.665828704834,0.026961535215378,0.018313601613045,0.021607398986817,0.115802795,-0.23462863,9.7749815,-0.02671753,-0.08779597,9.778052,1,
19,985.843322753906,-0.001448040362448,0.001199525082484,-0.039151281118393,-10.9045867919922,21.0379180908203,-32.6675300598145,-0.161315083503723,0.193895578384399,-0.026351928710938,0.1516754,-0.12738173,9.893344,0.055792607,0.026499107,9.895135,1,
19,985.80517578125,-0.012633538804948,-0.000398332427721,0.011448635719717,-10.9214353561401,22.128059387207,-32.1898307800293,0.031531929969788,-0.212729945778847,-0.122112274169922,0.2066673,-0.12261574,9.88151,0.13489997,0.051445723,9.883376,1,
19,985.795043945313,-0.119426444172859,-0.036217782646418,0.144606471061707,-10.9127397537231,21.3988418579102,-32.379451751709,-0.382679343223572,-0.153373047709465,-0.044792175292969,0.48630995,-0.41814286,9.746581,0.28785524,-0.2493479,9.760233,1,
19,985.82763671875,-0.218762502074242,-0.00465931231156,0.089878469705582,-11.1267108917236,21.251781463623,-33.3386726379395,0.168840393424034,0.634405016899109,-0.030844688415527,0.06332138,-0.83521706,9.848373,-0.21296215,-0.3126412,9.876688,1,
19,985.81005859375,-0.263903260231018,0.01584704965353,0.17390102148056,-10.6179208755493,22.570499420166,-32.570426940918,0.253314077854156,-0.226355195045471,-0.283944129943848,-0.12784666,-0.4634263,9.886251,-0.15356919,0.22146028,9.894265,1,
19,985.84033203125,-0.315302431583405,-0.027162928134203,0.21358197927475,-10.8578720092773,23.5047378540039,-32.5881156921387,-0.511612057685852,0.6483034491539,0.175576210021973,0.44814384,-1.1950935,10.378631,0.13969332,-0.47005755,10.445313,1,
19,985.838012695313,-0.535279810428619,-0.089613929390907,0.032620154321194,-10.4063129425049,22.4522399902344,-32.0572242736816,0.21562272310257,-0.767112970352173,-2.60605430603027,-0.17798638,-0.48964357,12.068815,0.036808014,0.7150528,12.058819,1,
19,985.865295410156,0.104144342243671,0.289486765861511,-0.02543681114912,-10.1434783935547,23.1726608276367,-32.4478187561035,0.557300567626953,0.390254318714142,-0.395782470703125,-0.65116286,-0.8137701,10.120611,-0.52939713,0.17504516,10.158845,1,
