Timestamp,P,Gx,Gy,Gz,Mx,My,Mz,LiAx,LiAy,LiAz,Ax,Ay,Az,Value,Type
0,989.9262,-9.274134E-4,7.3726487E-4,-5.3157564E-4,-6.523123,23.948336,-36.84583,-0.018534131,-0.028663397,0.036727905,0.041571736,-0.1582554,9.77385,0
0,989.9262,-9.274134E-4,7.3726487E-4,-5.3157564E-4,-7.019523,24.800188,-36.357277,0.0049092397,-0.03798479,0.04147148,0.0439274,-0.14633816,9.764378,0
0,989.99677,2.7133798E-4,0.001403001,-5.314343E-4,-6.6657906,24.499277,-36.394173,-0.0379978,-0.037957847,0.022535324,0.055842698,-0.15110388,9.778579,0
0,990.0225,-2.6096386E-4,2.04526E-4,1.3449683E-4,-6.673561,23.965694,-37.1316,-0.0045435987,-0.037508488,0.036750793,0.046248853,-0.15348634,9.773841,0
0,990.0077,6.71472E-4,-6.184349E-5,-5.311514E-4,-6.9338946,23.616512,-36.994064,-0.02795928,-0.022935256,0.017820358,0.055774182,-0.16063535,9.773839,0
0,990.018,-1.2714596E-4,-3.2821292E-4,-0.0010636419,-6.7755485,24.238657,-36.66995,-0.0044660605,-0.027757451,0.050964355,0.039010704,-0.1582512,9.764366,0
0,989.9901,-2.5997375E-4,0.0012696288,-5.3086865E-4,-6.6941876,23.6827,-36.649956,-0.0093163885,-0.041891962,0.041503906,0.04136634,-0.16063365,9.778565,0
0,990.0027,6.6721695E-6,6.037855E-4,2.682205E-4,-6.336433,23.754501,-37.017223,-0.009035993,-0.008427799,0.0509758,0.043721974,-0.16539934,9.764359,0
0,989.99286,2.7331797E-4,-4.6153154E-4,2.0461157E-6,-6.231241,24.010704,-36.509537,-0.023702536,-0.03194949,0.036782265,0.048467517,-0.1558654,9.773826,0
0,990.0454,7.332128E-6,6.036784E-4,6.6797715E-4,-6.7121763,23.876856,-37.120453,-0.01874242,-0.03632526,0.022590637,0.043653548,-0.1415649,9.769088,0
0,990.0027,-1.2549589E-4,-6.21649E-5,2.3288885E-6,-6.782478,23.96892,-36.88405,-0.0186892,-0.026850536,0.0415287,0.050789,-0.1558637,9.769084,0
0,990.01294,2.7430808E-4,2.0409742E-4,2.4703622E-6,-6.865796,23.78535,-36.552532,0.004998546,-0.03155078,0.051002502,0.038805217,-0.15109631,9.769082,0
0,990.018,8.322124E-6,8.698336E-4,-3.9686213E-4,-6.867318,23.783876,-36.475227,-0.023557402,-0.036188662,0.027335167,0.053661287,-0.14872572,9.766761,0
0,990.0003,-1.245059E-4,-1.9548353E-4,-3.9672063E-4,-7.120286,24.442486,-36.3978,-0.034184333,-0.03116244,0.022504807,0.061380982,-0.15112245,9.771546,0
0,990.0054,1.3411493E-4,7.208155E-5,-6.663344E-4,-6.9139485,24.16188,-36.875084,-0.019543204,-0.031050682,0.046177864,0.05661133,-0.15827253,9.778647,0
0,990.0081,-6.6755206E-4,-5.9326674E-4,-1.7101702E-6,-6.7062263,23.77683,-36.73059,-0.01916486,-0.05475934,0.06511402,0.0494518,-0.13444003,9.754977,0
0,990.0207,-5.3449214E-4,-5.9325085E-4,3.9772168E-4,-6.984548,23.621805,-37.063553,-0.019024983,-0.021573752,0.03670311,0.0494619,-0.14874002,9.76208,0
0,990.0383,1.3119978E-4,-6.060313E-5,5.308377E-4,-6.856802,23.68827,-36.317284,-0.023740273,-0.02598457,0.02250576,0.056641817,-0.16065666,9.776284,0
0,990.0208,-1.352139E-4,3.3888654E-4,3.9763784E-4,-6.662341,24.028017,-35.75126,-0.009349074,-0.044881865,0.03671074,0.04470241,-0.13205752,9.78102,0
0,990.01825,-1.353118E-4,-6.057141E-5,5.3075387E-4,-6.626089,23.851536,-36.20842,-4.131347E-6,-0.030663684,0.04144478,0.051882297,-0.15350726,9.771552,0
0,990.0031,-5.348834E-4,4.720763E-4,2.6439602E-4,-7.112814,24.343931,-36.08525,-0.009629484,-0.01640886,0.036706924,0.044722736,-0.15112424,9.764451,0
0,990.0034,2.6386854E-4,-4.5999757E-4,3.974701E-4,-6.5588017,24.96879,-37.361946,-0.004632052,-0.030232236,0.031980515,0.047122806,-0.15112448,9.778655,0
0,990.0034,2.6386854E-4,-4.5999757E-4,3.974701E-4,-6.5588017,24.96879,-37.361946,-0.02793729,-0.034928247,0.036712646,0.051912755,-0.15350798,9.773922,0
0,990.0107,-1.3570307E-4,-0.0012589294,-2.683615E-4,-6.4709477,23.944517,-36.853645,-0.0087545775,-0.02072744,0.027241707,0.05909258,-0.15589151,9.785759,0
1,990.03107,-5.352748E-4,7.266594E-5,-2.0875596E-6,-6.7157626,24.242199,-37.064293,-0.017869469,-0.030412078,0.046175003,0.054322958,-0.1487419,9.781025,0
1,990.0054,-4.0231255E-4,-6.0460246E-5,-1.353294E-4,-6.409778,23.843615,-36.626213,-0.017761678,-0.044446692,0.046177864,0.051943183,-0.14635894,9.762088,0
1,990.0054,-4.0231255E-4,-6.0460246E-5,-1.353294E-4,-6.409778,23.843615,-36.626213,-0.008198455,-0.015882984,0.008300781,0.042393744,-0.15827563,9.778661,0
1,990.0263,2.6337936E-4,2.0587156E-4,1.3094457E-4,-6.912426,24.163351,-36.95239,-0.017351177,-0.053836063,0.041441917,0.047183692,-0.14397618,9.771559,0
1,990.0336,-1.3619225E-4,-8.5937604E-4,-1.3541323E-4,-6.860251,24.159533,-36.960205,-0.007522639,-0.029865757,0.05091095,0.05197367,-0.15589282,9.766826,0
1,990.0285,-1.3629027E-4,-4.598864E-4,1.3086072E-4,-6.1760216,24.009829,-36.67196,-0.0076240674,-0.020540372,0.05090618,0.049593866,-0.15350977,9.764461,0
1,990.0059,-8.021775E-4,4.7223503E-4,-2.339133E-6,-6.726417,24.23189,-36.523155,-0.0076811463,-0.039348528,0.04617691,0.04960406,-0.13921031,9.764461,0
1,990.0004,1.2982992E-4,2.059351E-4,-2.6869695E-4,-6.9531064,24.441332,-36.962387,-0.02174823,-0.043693706,0.01777649,0.047224313,-0.14397714,9.783399,0
1,990.0231,7.65717E-4,-5.458047E-4,-1.5991443E-4,-7.0909634,23.996264,-37.06907,-0.021426197,-0.028875828,0.027253151,0.05201423,-0.15351048,9.773931,0
1,990.01843,8.987769E-4,-5.4578873E-4,7.721492E-4,-6.4164085,24.206015,-36.415443,-0.0070886128,-0.037984744,0.0414629,0.049634516,-0.14397761,9.769198,0
1,989.9859,9.973149E-5,1.20016826E-4,-2.6840367E-5,-7.0578933,23.71092,-36.672546,-0.011775911,-0.018841073,0.05566597,0.054424465,-0.15589425,9.769198,0
1,990.0359,9.9633704E-5,1.200327E-4,-5.595141E-4,-6.769897,23.506495,-36.704964,-0.0017161258,-0.042173058,0.046204567,0.04009521,-0.13444501,9.762097,0
1,989.9936,7.653255E-4,-0.0013446888,-1.6008213E-4,-6.7618504,24.251913,-37.365692,-0.03463615,-0.022660702,0.017803192,0.05444473,-0.15112826,9.773934,0
1,990.0285,7.652276E-4,-9.451991E-4,-2.6966154E-5,-6.9017725,24.173662,-37.493523,-0.005786903,-0.031818748,0.041480064,0.04728505,-0.14636195,9.776303,0
1,990.0308,3.6565645E-4,-2.7939357E-4,7.7193975E-4,-6.6461425,24.412512,-36.700066,-0.015529528,-0.022266611,0.036744118,0.044905305,-0.15351203,9.769202,0
1,990.0333,-5.665461E-4,6.527278E-4,2.3926649E-4,-6.632582,24.319853,-36.69673,0.003633026,-0.01716803,0.05095291,0.04252553,-0.14874569,9.771571,0
1,990.0029,4.9861986E-4,-2.7936196E-4,-5.5972295E-4,-6.858186,23.792711,-36.93906,-0.005706504,-0.030553743,0.06043625,0.049705386,-0.14874592,9.755,0
1,990.0031,0.0015637856,-1.4618813E-4,-4.2660697E-4,-6.9576726,24.436914,-36.73047,-0.024492495,-0.01629524,0.022558212,0.052105427,-0.16304585,9.776307,0
1,990.0057,9.895046E-5,-0.0012114359,1.0598288E-4,-6.849192,23.695635,-36.70381,-0.0052975602,-0.011375427,0.027295113,0.05211559,-0.16542938,9.778674,0
1,990.01825,3.6516844E-4,1.2015949E-4,3.722568E-4,-6.5177155,24.216604,-36.55442,-0.03324392,-0.0108141005,0.017830849,0.061685324,-0.15827978,9.773941,0
1,990.0361,7.645445E-4,-8.1193016E-4,-5.598906E-4,-6.9474545,23.70917,-36.9974,-0.014139194,-0.05348997,0.032039642,0.049745977,-0.12491411,9.773942,0
1,990.0031,4.981309E-4,-2.792826E-4,-1.6045873E-4,-6.7312813,23.595335,-36.71611,-0.00915046,-0.029612094,0.04624176,0.047366202,-0.15113041,9.75974,0
1,990.0208,-4.3407257E-4,-5.4558256E-4,-1.6050064E-4,-6.8170695,24.252787,-37.20327,-0.028326176,-0.024524316,0.022573471,0.05454606,-0.14874747,9.776311,0
1,989.9982,4.979352E-4,6.5285474E-4,-2.937005E-4,-6.727258,23.968042,-37.04648,-0.018597644,-0.02908966,0.041514397,0.05455622,-0.14874771,9.773945,0
1,990.0004,9.836373E-5,-5.4555084E-4,-2.7426518E-5,-7.003354,23.972418,-36.234344,-0.003786929,-0.019397616,0.069919586,0.054566354,-0.16066435,9.757375,0
2,989.99554,9.826594E-5,-5.4553495E-4,-1.6062637E-4,-6.9450912,23.974487,-36.55138,-0.003968835,-0.009668782,0.055719376,0.05218661,-0.16066459,9.764478,0
2,990.0031,2.3132586E-4,-1.2887285E-5,5.0512137E-4,-6.592881,23.67211,-36.51098,-0.017822586,-0.0188981,0.0225811,0.047416955,-0.15113172,9.773948,0
2,990.00824,8.969201E-4,-4.123294E-4,6.381955E-4,-6.6193204,23.595053,-37.11827,-0.003117513,-0.032681316,0.05099392,0.049817026,-0.14398208,9.771582,0
2,990.00824,8.969201E-4,-4.123294E-4,6.381955E-4,-6.6193204,23.595053,-37.11827,-0.02207033,-0.017994046,0.032063484,0.064166546,-0.15828201,9.783418,0
2,990.0056,4.973486E-4,-2.791556E-4,-1.60794E-4,-7.219528,24.086256,-36.515633,0.006657891,-0.032024086,0.055737495,0.04983729,-0.13921604,9.769217,0
2,990.01294,9.777688E-5,-1.4598176E-4,5.049537E-4,-6.938024,24.350145,-37.036358,0.006976817,-0.031474918,0.027338982,0.040287822,-0.14874938,9.776319,0
2,990.01294,8.9652895E-4,2.5352382E-4,3.7171197E-4,-6.8303847,23.34502,-37.53302,0.0021052286,-0.016569376,0.046286583,0.049857587,-0.15828273,9.762116,0
2,990.01294,8.9652895E-4,2.5352382E-4,3.7171197E-4,-6.8303847,23.34502,-37.53302,-0.026500229,-0.02152124,0.013141632,0.04986775,-0.15828308,9.7786875,0
2,990.0132,-4.3514825E-4,-1.27762105E-5,-2.9411959E-4,-6.763373,24.25044,-37.288387,-0.021103386,-0.021617636,0.046277046,0.049877852,-0.13921708,9.776321,0
2,990.0004,-3.0208798E-4,-0.0012111819,3.716282E-4,-7.007783,24.073915,-36.701508,0.01712881,-0.0497514,0.046284676,0.0451082,-0.13206753,9.773955,0
2,990.0359,2.3034809E-4,-4.1220238E-4,-2.942453E-4,-7.14034,25.003458,-36.88944,-0.025521051,-0.03504777,0.055755615,0.05706781,-0.14398411,9.752652,0
2,990.04846,4.965663E-4,-5.4534443E-4,2.3834451E-4,-7.4296136,24.205986,-37.10614,-0.0018263087,-0.0112481415,0.051020622,0.052298248,-0.16543388,9.773957,0
2,990.04846,4.965663E-4,-5.4534443E-4,2.3834451E-4,-7.4296136,24.205986,-37.10614,-0.021097578,-0.015898183,0.036821365,0.04949683,-0.15350738,9.769185,0
2,990.0205,2.3015263E-4,0.0018515143,-2.9432913E-4,-7.134688,24.2713,-36.924454,-0.015373137,-0.025338218,0.046369553,0.053839505,-0.14634684,9.766777,0
2,990.0104,-1.6428775E-4,-2.7982984E-4,-2.9217196E-4,-7.242082,24.275993,-36.75421,-0.0011303052,-0.029857904,0.055844307,0.053815365,-0.1487295,9.776244,0
2,990.0056,1.052774E-4,1.1911653E-4,2.418524E-4,-6.7920146,24.434286,-37.21775,-7.6301023E-4,-0.015326023,0.051115036,0.044231653,-0.15826204,9.769141,0
2,990.0231,2.3866759E-4,-4.1355292E-4,1.0879396E-4,-6.6032596,23.873632,-37.367996,-0.005112581,-0.020232767,0.03217697,0.041817605,-0.14872834,9.771504,0
2,990.0155,7.717641E-4,-1.473125E-4,9.079407E-4,-6.6254086,23.589165,-36.80905,0.0049142316,-0.019689858,0.065327644,0.053743064,-0.15349427,9.764401,0
2,990.0155,7.717641E-4,-1.473125E-4,9.079407E-4,-6.6254086,23.589165,-36.80905,-0.009114824,-0.005197212,0.055861473,0.05849877,-0.15826026,9.7620325,0
2,990.01044,0.0010385446,-1.4230034E-5,-2.9028155E-4,-6.7824774,23.968916,-36.884052,-0.028049484,-0.028228715,0.041675568,0.053694844,-0.1415767,9.76203,0
2,990.01044,0.0010385446,-1.4230034E-5,-2.9028155E-4,-6.825521,23.981577,-37.340065,-0.008738525,-0.032748416,0.03221321,0.04650104,-0.14395937,9.754926,0
2,990.0155,1.3131776E-4,-7.552503E-4,-2.9453973E-4,-6.5451345,23.769787,-36.985954,0.005512912,-0.041941404,0.05115795,0.053646654,-0.13680896,9.776229,0
2,990.0104,7.9733995E-4,8.426073E-4,1.050336E-4,-6.7589445,24.148943,-36.821228,-0.0041907392,-0.018217877,0.022751808,0.04884273,-0.15110806,9.773859,0
2,990.0077,-2.6769133E-4,7.0941163E-4,-1.6118278E-4,-6.879899,24.2463,-36.654316,-0.008855108,-0.013576627,0.032221794,0.053598404,-0.15587401,9.785693,0
3,990.03577,-5.337751E-4,-2.2273172E-4,-4.2739918E-4,-7.032402,24.630472,-36.961235,-0.0040239245,-0.01815249,0.05116272,0.05596423,-0.15587342,9.776223,0
3,990.0204,-9.108335E-7,-3.5592727E-4,9.042799E-4,-6.758402,23.780653,-36.722775,-0.008661486,-0.027535409,0.03223133,0.048770428,-0.14157316,9.769117,0
3,990.0281,5.319532E-4,-8.9649184E-5,0.0011706954,-7.3011866,24.010077,-36.9605,-0.008088812,-0.027700692,0.027493477,0.041576624,-0.14157256,9.764381,0
3,990.0255,-7.9939386E-4,-8.8863476E-4,-5.602582E-4,-7.0418324,23.989498,-36.922276,0.0061683357,0.005892381,0.04643917,0.05828178,-0.16063821,9.78095,0
3,990.0098,5.324178E-4,7.0922304E-4,-5.601588E-4,-6.9413667,23.715063,-37.306618,-0.017398361,-0.022595808,0.03223896,0.053477943,-0.14872119,9.771478,0
3,990.01794,-5.3261337E-4,-7.55552E-4,-5.6005915E-4,-7.185341,24.276594,-36.993946,0.0062750243,-0.017675355,0.051178932,0.048673987,-0.15348718,9.783313,0
3,990.0204,1.3340858E-4,4.4283172E-4,-2.7327915E-5,-6.954628,24.43986,-36.885082,-0.012383286,-0.02719459,0.04171276,0.048649907,-0.15348658,9.76674,0
3,990.01526,-3.9899081E-4,-0.0010219434,3.7224556E-4,-6.8006034,24.057158,-36.655464,0.0065229908,-0.02240996,0.04645157,0.051015705,-0.15586928,9.778573,0
3,989.995,7.1537215E-7,3.0959834E-4,2.3918727E-4,-6.592583,24.304247,-36.086105,-0.0032931156,-0.02699545,0.0133161545,0.041432023,-0.1511021,9.780938,0
3,990.02,4.0042144E-4,0.0011085083,5.056027E-4,-7.09273,24.995218,-36.665344,0.0012107305,-0.013116449,0.046452522,0.050967515,-0.15825137,9.773835,0
3,990.0426,-0.0011972414,7.0899684E-4,-2.9324536E-4,-7.0518055,23.716812,-36.981766,-0.027426139,-0.013090894,0.022784233,0.0581131,-0.15825078,9.76673,0
3,990.00476,-2.6490376E-4,1.7632726E-4,-2.6830065E-5,-6.7788906,23.603575,-36.940212,0.0060216933,-0.027473211,0.046456337,0.041359693,-0.14395049,9.759627,0
3,990.01465,-2.6467128E-4,4.4260547E-4,-1.5988847E-4,-6.7769322,24.3431,-37.29172,-0.022625484,-0.017828122,0.022788048,0.055675,-0.153483,9.7690935,0
3,990.0199,2.1092128E-6,-9.010172E-5,-1.5968917E-4,-6.9268274,23.992163,-37.479042,-0.0033188462,-0.008123592,0.060668945,0.05326101,-0.1439493,9.766725,0
3,990.0199,2.1092128E-6,-9.010172E-5,-1.5968917E-4,-6.9268274,23.992163,-37.479042,-0.008072536,-0.022468641,0.065402985,0.050846934,-0.14871529,9.766723,0
3,990.03265,-6.634481E-4,-9.013947E-5,7.725159E-4,-7.162106,23.82448,-37.355995,0.006855447,-0.017817244,0.046463966,0.048433006,-0.1534813,9.766721,0
3,990.03,-6.632159E-4,-0.0015549145,6.394575E-4,-6.7372313,23.695356,-37.105972,-0.017050397,-0.013298914,0.04646206,0.050798804,-0.15348074,9.759616,0
3,990.0222,-2.635097E-4,1.76101E-4,7.7271496E-4,-6.987156,24.356913,-37.18315,-0.0021168515,-0.008036062,0.013328552,0.048384786,-0.1558634,9.773818,0
3,990.04004,5.359027E-4,4.2867643E-5,7.7291415E-4,-6.8354945,23.708893,-37.399555,-0.016481776,-0.0125015825,0.02754116,0.06270009,-0.15109625,9.783284,0
3,990.04004,5.359027E-4,4.2867643E-5,7.7291415E-4,-6.8354945,23.708893,-37.399555,0.0025870278,-0.007448375,0.04175186,0.048336565,-0.14632908,9.780914,0
3,990.0476,1.36661E-4,7.0861966E-4,-0.0010911974,-6.520079,23.951284,-37.00044,0.012308318,-0.054911762,0.06069374,0.045922577,-0.124879,9.759608,0
3,990.03503,-3.957383E-4,-6.2299747E-4,1.07323605E-4,-6.8411455,24.441053,-37.36454,0.0076181777,-0.0073515326,0.046489716,0.033948958,-0.15347776,9.769074,0
3,990.0299,-2.623482E-4,1.7591244E-4,-1.5889283E-4,-6.8495975,24.169842,-37.50134,-0.016316194,-0.026390359,0.037024498,0.048264265,-0.15109387,9.7548685,0
3,990.0324,-1.2872554E-4,-8.894265E-4,2.407801E-4,-6.4943433,23.870409,-37.615547,-0.015784767,-0.016971782,0.027554512,0.06496948,-0.15347657,9.776172,0
3,990.0324,-1.2872554E-4,-8.894265E-4,2.407801E-4,-6.4943433,23.870409,-37.615547,-0.0058879927,-0.026166558,0.037028313,0.05299586,-0.14870942,9.780904,0
4,989.98914,4.664529E-6,-0.0010226223,2.4087974E-4,-6.175341,23.747458,-37.27259,-0.005570531,-0.026060387,0.041766167,0.050581872,-0.14632553,9.776167,0
4,990.02484,-3.9434468E-4,8.4151357E-4,5.073948E-4,-6.9554696,24.176012,-37.4084,0.018039826,-0.03542839,0.041772842,0.036218345,-0.14632496,9.77143,0
4,990.02484,-3.9434468E-4,8.4151357E-4,5.073948E-4,-6.9554696,24.176012,-37.4084,-0.015428953,-0.021229118,0.022835732,0.057703346,-0.15347418,9.773795,0
4,990.0097,-2.6072212E-4,-4.901413E-4,-5.5766973E-4,-6.9223995,23.890667,-37.01188,-0.0056202747,0.007466048,0.04177761,0.05289945,-0.16300672,9.771426,0
4,990.0097,-2.6072212E-4,-4.901413E-4,-5.5766973E-4,-6.9223995,23.890667,-37.01188,0.0037165955,-0.025669992,0.051252365,0.055265307,-0.1391733,9.766689,0
4,989.99426,6.716158E-4,7.082425E-4,6.408512E-4,-6.7416596,23.796854,-37.57313,-8.20823E-4,-0.020864666,0.046521187,0.045681536,-0.14870587,9.766686,0
4,990.0121,-3.9341534E-4,-4.9021665E-4,-1.5799672E-4,-6.9741387,24.632544,-37.278267,-0.009992056,-0.020349428,0.060733795,0.055217087,-0.14870527,9.7619505,0
4,989.9993,8.052384E-4,-4.902544E-4,3.7473463E-4,-7.0930285,24.363083,-37.090214,-0.019705392,-0.0060325265,0.013391495,0.051225573,-0.15587443,9.773858,0
4,990.02966,4.0599692E-4,1.754976E-4,3.7483417E-4,-7.0848756,24.002157,-37.37829,-0.016632613,-0.0012161136,0.027446747,0.059211254,-0.1535112,9.778667,0
4,990.04486,-2.7135632E-4,3.105328E-4,-4.2906933E-4,-6.6193204,23.595053,-37.11827,-0.016576491,-0.0060638785,0.027443886,0.05683422,-0.1630446,9.766833,0
4,990.0298,-1.1099383E-4,2.571532E-4,6.574588E-4,-7.054414,24.451921,-37.101364,-0.0069716796,-8.6151063E-4,0.027449608,0.044897497,-0.16542819,9.769202,0
4,990.01984,4.215144E-4,-1.4230062E-4,-4.0785776E-4,-6.5845904,23.4171,-37.49813,0.0074465685,-0.019613147,0.07006264,0.042520404,-0.14874557,9.759734,0
4,990.0071,8.208649E-4,-1.422805E-4,5.24195E-4,-6.867723,24.258081,-37.27276,-0.011462059,-0.005401641,0.01798153,0.05209279,-0.1463626,9.773938,0
4,990.01965,2.8810967E-4,-0.001074366,7.9045806E-4,-6.6328807,23.687716,-37.121605,-0.0020086057,-0.019227862,0.03692627,0.04732579,-0.15351275,9.783408,0
4,990.0044,5.543021E-4,6.567072E-4,5.240892E-4,-7.222434,24.189226,-37.0601,-0.011630133,6.0543418E-5,0.022725105,0.049728513,-0.15827966,9.766839,0
4,990.0273,1.5470482E-4,3.9041133E-4,-8.595467E-6,-6.861092,23.895685,-37.483524,0.007541448,-0.018949926,0.04639721,0.042571604,-0.13921371,9.762105,0
4,990.02484,2.1423475E-5,-2.7535832E-4,3.9082547E-4,-7.1651497,23.821531,-37.20138,0.00225221,-0.018834919,0.06060314,0.05453396,-0.1535137,9.766841,0
4,990.0172,2.8761596E-4,0.0015888729,2.5761462E-4,-7.45122,23.553228,-36.44874,-0.016693398,-0.0045203716,0.03692913,0.049766988,-0.16304716,9.764476,0
4,990.00726,-1.119815E-4,-8.0795E-4,6.570355E-4,-6.815005,23.885971,-37.18212,-0.016853653,-0.013688475,0.032201767,0.05455959,-0.14874777,9.77868,0
4,989.99677,5.536849E-4,3.904915E-4,-1.4196499E-4,-6.930851,23.619457,-37.148678,-0.021625452,-0.018158793,0.022735596,0.05696228,-0.14159822,9.771579,0
4,989.99677,-2.4538624E-4,-2.7527817E-4,-5.414917E-4,-6.474833,23.677725,-37.22236,-0.0027072318,-0.013323367,0.027470589,0.047415465,-0.15351495,9.771581,0
4,990.0222,6.865959E-4,7.9000543E-4,-1.4207081E-4,-6.9965863,23.715937,-37.14419,0.0019291975,-0.0086357,0.027468681,0.049818188,-0.15589851,9.76448,0
4,990.0452,2.0682608E-5,5.237096E-4,-2.7528178E-4,-7.1211276,24.178637,-36.921124,-0.0031284802,-0.013281897,0.027470589,0.035491556,-0.15589887,9.766849,0
4,990.00464,2.0435808E-5,3.905917E-4,-1.4222955E-4,-6.442848,24.12896,-37.022736,-0.0224386,-0.013213947,0.02273655,0.054623604,-0.14636603,9.7692175,0
4,990.0174,-1.1284565E-4,-2.7517794E-4,-5.417563E-4,-6.6344028,23.686241,-37.044296,-0.01298495,0.0011911392,0.036940575,0.045076847,-0.15589944,9.76685,0
5,990.0174,-1.1284565E-4,-2.7517794E-4,-5.417563E-4,-6.6344028,23.686241,-37.044296,-0.0032324158,-0.013174787,0.05114174,0.040309846,-0.15113324,9.755015,0
5,990.0121,1.5322355E-4,2.5749387E-4,-6.7502E-4,-6.74234,24.059229,-36.972504,0.020064875,-0.012948871,0.036943436,0.033152938,-0.15113354,9.771587,0
5,990.0121,1.5322355E-4,2.5749387E-4,-6.7502E-4,-6.74234,24.059229,-36.972504,-0.008351911,0.001509577,0.027474403,0.045115232,-0.15590039,9.766854,0
5,990.0095,5.524504E-4,1.2437599E-4,-6.751259E-4,-6.6078253,23.869211,-37.13608,-0.01769105,-0.01730895,0.036945343,0.05468762,-0.14875093,9.766855,0
5,990.02484,-2.466207E-4,-8.0770947E-4,-9.389012E-6,-6.281757,24.121916,-37.2781,-0.022327557,-0.016942888,0.03221512,0.052310526,-0.15590104,9.77159,0
5,990.02484,-2.466207E-4,-8.0770947E-4,-9.389012E-6,-6.281757,24.121916,-37.2781,-0.012867533,-0.021699697,0.07009125,0.059493035,-0.14398494,9.750287,0
5,990.0199,4.189222E-4,2.575941E-4,-0.0012079163,-6.9676456,24.164228,-36.789963,0.0014816001,-0.021523505,0.046420097,0.052336127,-0.16066828,9.766858,0
5,990.0199,4.189222E-4,2.575941E-4,-0.0012079163,-6.9676456,24.164228,-36.789963,-0.02216499,-0.026218176,0.018034935,0.054514587,-0.14636335,9.78341,0
5,990.0325,-2.4285546E-4,3.870132E-4,2.5582605E-4,-6.9796834,24.25836,-36.870598,-0.022622585,-0.031202689,0.008563042,0.061688125,-0.14159694,9.78341,0
5,990.00464,-0.0013081555,0.0013191248,-1.4366349E-4,-6.939003,23.98038,-36.860603,-0.018085673,-0.01195541,0.027503967,0.056912124,-0.141597,9.764472,0
5,990.02765,1.5654514E-4,-1.4560664E-4,-1.4367921E-4,-7.275696,24.929628,-37.249184,-0.017936628,-0.021585032,0.04170513,0.059305847,-0.14398038,9.762107,0
5,990.0098,-5.0928135E-4,2.5387318E-4,-1.0537013E-5,-6.981504,23.624752,-37.218163,0.005945325,-0.016983002,0.06063938,0.04975003,-0.15589693,9.764474,0
5,990.0098,-5.0928135E-4,2.5387318E-4,-1.0537013E-5,-6.981504,23.624752,-37.218163,-0.013108052,-0.016878143,0.027500153,0.059313416,-0.1415973,9.77631,0
5,990.0149,2.3313973E-5,-1.2436765E-5,-1.4371064E-4,-6.9278073,23.622404,-37.303284,0.0015967339,-0.012101963,0.03696537,0.04975766,-0.15589702,9.778678,0
5,990.02246,-1.09880755E-4,-8.1137836E-4,3.8890535E-4,-6.81294,23.519154,-37.16098,-0.012564801,0.0022033453,0.060638428,0.056931138,-0.15828043,9.75974,0
5,990.0225,-3.7623342E-4,-2.7874077E-4,2.557317E-4,-6.9048166,24.170717,-37.338913,-0.012978278,-0.02160883,0.05117035,0.052155167,-0.14874741,9.755006,0
5,990.0019,-5.094279E-4,7.8652875E-4,-8.095476E-4,-7.274311,24.825184,-36.62741,0.015866157,-0.012622103,0.05589485,0.035429657,-0.14874747,9.766843,0
5,990.00726,-2.4314871E-4,-4.1188672E-4,-1.437735E-4,-7.145502,23.734766,-37.50727,-0.017515216,-0.007882193,0.013284683,0.052162766,-0.15113088,9.776311,0
5,990.02295,-5.095014E-4,1.2075092E-4,-1.0631367E-5,-6.6198635,23.963346,-37.21672,-0.008221369,-0.0076378584,0.041695595,0.049776673,-0.14874765,9.747906,0
5,990.0204,2.3093715E-5,0.0010528625,6.5514265E-4,-6.9188123,23.525324,-37.06804,-0.0131512545,-0.0123808235,0.05116558,0.045000672,-0.14159796,9.759742,0
5,990.0077,-3.7641666E-4,1.2076284E-4,2.5565308E-4,-6.673997,23.22764,-36.85739,-0.008291304,-0.012199432,0.055901527,0.056953967,-0.15113118,9.757375,0
5,990.0002,1.561782E-4,1.20768775E-4,-2.7699437E-4,-6.815548,24.254263,-37.28057,-0.008429669,-0.017138556,0.051164627,0.05695775,-0.1558978,9.762111,0
5,989.99756,2.2983702E-5,5.2024855E-4,-5.433259E-4,-6.681171,23.95833,-36.74507,-0.008080509,-0.017095566,0.046429634,0.049791873,-0.14874807,9.755008,0
5,990.0174,-4.1180814E-4,-8.666205E-4,9.988915E-4,-6.992701,23.98273,-36.775482,-0.0083658025,-0.008168563,0.022747993,0.049795687,-0.15351471,9.769212,0
6,990.0077,-9.444769E-4,4.649649E-4,-8.6533534E-4,-7.112134,24.081558,-36.685875,0.0058618225,-0.008097798,0.060624123,0.049799502,-0.16066465,9.762111,0
6,990.0231,-8.1135554E-4,8.644447E-4,-1.9956133E-4,-6.5973096,23.773607,-36.97814,-0.0041148476,-0.01314877,0.041683197,0.04741341,-0.14636508,9.776315,0
6,990.0281,-8.11392E-4,0.0011307666,1.9989681E-4,-6.4543433,23.854803,-37.004925,9.1809407E-4,-0.0036560893,0.051150322,0.056976825,-0.15113172,9.771581,0
6,990.0408,-6.7827106E-4,-8.6659665E-4,3.3303906E-4,-6.6319017,24.057478,-37.297356,-0.004104417,-0.0035974383,0.041683197,0.052200794,-0.16066489,9.769214,0
6,990.03076,3.8695603E-4,9.976205E-4,4.6618123E-4,-6.806554,24.157183,-37.045326,-0.032548107,-0.00841032,0.0038061142,0.06176424,-0.15351519,9.771581,0
6,989.9927,-1.4571252E-4,-2.0079501E-4,-3.3278213E-4,-6.655978,24.245745,-37.458633,0.0056322627,-0.012879685,0.051154137,0.037869036,-0.15113202,9.766847,0
6,990.0307,5.200404E-4,-2.007891E-4,3.3299185E-4,-6.987156,24.356913,-37.18315,0.015048128,-0.012551546,0.055893898,0.033093005,-0.14874879,9.752645,0
6,990.00287,7.8631984E-4,1.9869069E-4,3.3297614E-4,-6.9734583,24.370169,-37.878895,0.005532291,-0.0124231875,0.03222561,0.030706942,-0.15351549,9.757379,0
6,990.0333,3.8680923E-4,3.318546E-4,3.3296042E-4,-7.0632696,24.654917,-38.035686,-0.008529726,-0.0030391812,0.027529716,0.046990246,-0.16065434,9.78101,0
6,990.026,-5.4098107E-4,-0.0011335835,-6.466397E-5,-6.9464755,24.078932,-37.173157,-0.022283074,0.00647147,0.02279377,0.061315715,-0.15827075,9.769173,0
6,990.026,-5.4098107E-4,-0.0011335835,-6.466397E-5,-6.9464755,24.078932,-37.173157,0.016035885,-0.017316833,0.0606699,0.03740272,-0.14158744,9.764437,0
6,990.018,3.912592E-4,-4.6781544E-4,-6.460628E-5,-6.5110846,23.854204,-36.76519,-0.0030264333,-0.0027275085,0.027535439,0.03977868,-0.15350348,9.773904,0
6,989.9954,7.908676E-4,6.479446E-5,3.349252E-4,-6.8662014,24.259558,-37.35006,-0.012593519,-0.0073780715,0.0275383,0.046934426,-0.14635327,9.764434,0
6,990.0081,1.2521236E-4,6.477265E-5,2.018249E-4,-6.7700033,24.612837,-37.07762,-0.017405856,-0.031054512,0.037010193,0.058869958,-0.14396966,9.771535,0
6,990.0081,1.2548151E-4,4.6420275E-4,-1.975336E-4,-7.0613427,24.18218,-37.31546,-0.017311923,-0.021534368,0.018074036,0.051686317,-0.15826902,9.778636,0
6,990.0259,-2.7385785E-4,-3.3476675E-4,-3.3063392E-4,-6.696115,24.155432,-37.37018,-0.003031265,-0.02613166,0.02754879,0.044502646,-0.14158574,9.771532,0
6,990.0383,1.2575078E-4,3.3100112E-4,-3.3057624E-4,-6.8771534,23.617105,-37.233795,0.0017310418,-0.016483605,0.055957794,0.051658392,-0.14158538,9.762063,0
6,990.0383,1.2575078E-4,3.3100112E-4,-3.3057624E-4,-6.8771534,23.617105,-37.233795,-0.026957218,-0.021139473,0.018084526,0.0564242,-0.14635155,9.780999,0
6,990.0411,6.585168E-4,4.6413727E-4,6.89553E-5,-6.8431044,23.701527,-37.01303,0.0062043034,-0.015928984,0.027564049,0.044460773,-0.15826768,9.783364,0
6,990.0385,-6.727936E-4,6.461969E-5,-6.4087304E-5,-7.195314,24.003904,-37.053436,0.0015826039,-0.0065763444,0.027561188,0.037277102,-0.16065058,9.762059,0
6,990.0385,-6.727936E-4,6.461969E-5,-6.4087304E-5,-7.195314,24.003904,-37.053436,0.0063114576,0.002837956,0.055968285,0.046822727,-0.15350041,9.757322,0
6,990.0232,-1.4002691E-4,-6.8560075E-5,6.912835E-5,-6.9525633,24.07304,-36.863937,-0.01703303,-0.006516844,0.022828102,0.049198687,-0.15111676,9.764423,0
6,989.9979,3.927392E-4,-0.0012670032,-3.3028782E-4,-6.9188128,23.525324,-37.06804,-0.021571886,-0.020720601,0.037034035,0.056354403,-0.14634985,9.764422,0
6,990.0259,-6.599934E-6,-4.680776E-4,2.024016E-4,-6.7267156,23.599752,-36.94803,-0.0069559813,-0.0018909872,0.046499252,0.053950578,-0.1654158,9.7620535,0
6,989.9987,-9.3857106E-4,-4.680995E-4,8.68249E-4,-6.7889705,24.437233,-37.37236,0.0070709623,-0.00186041,0.0512352,0.051546693,-0.16064888,9.771522,0
7,990.0133,-1.3948884E-4,8.634581E-4,-5.9643073E-4,-6.659458,23.504744,-37.029816,0.0024942271,-0.0021722168,0.041762352,0.04675293,-0.15111539,9.77152,0
7,989.98615,-6.7198614E-4,-4.681431E-4,6.941665E-5,-6.932373,23.617985,-37.071373,0.003099829,-0.011590123,0.05596733,0.044349074,-0.15111503,9.764417,0
7,989.9987,3.934122E-4,-0.0015334283,3.357902E-4,-6.969871,24.004827,-37.93506,-0.02066657,-0.016364902,0.008623123,0.0538947,-0.15111473,9.783353,0
7,990.0188,-1.3908511E-4,-6.871297E-5,6.021637E-4,-6.979684,24.25836,-36.870598,-0.006117694,-0.025705293,0.03703308,0.05388075,-0.14634785,9.769149,0
7,990.014,1.2736535E-4,-3.3505072E-4,-1.9672627E-4,-7.289149,23.915945,-36.87986,-0.0067291334,-0.011623979,0.041769028,0.041917264,-0.1558806,9.754945,0
7,990.0211,-6.714477E-4,0.0012628228,-6.351058E-5,-7.2874894,24.023336,-37.656242,-0.011376165,-0.016184047,0.046507835,0.05146292,-0.14396384,9.764412,0
7,989.99615,-4.0499738E-4,-2.0193646E-4,6.970501E-5,-7.0508265,24.086576,-37.157524,-0.0068037435,-0.0069104433,0.055974007,0.056228757,-0.16064647,9.759676,0
7,990.0165,1.2776896E-4,9.964632E-4,-1.9655321E-4,-7.3548837,24.012423,-36.875378,0.007014334,-0.026014403,0.037017822,0.04915613,-0.14158264,9.771522,0
7,990.0243,-5.3788617E-4,7.301254E-4,-7.291273E-4,-6.988678,24.35544,-37.10585,0.006797295,-0.016597003,0.041752815,0.046869934,-0.1535016,9.769162,0
7,990.0341,-8.062129E-4,3.3097801E-4,4.6843235E-4,-6.7311435,23.70125,-37.415188,-0.0116369575,-0.0024425387,0.013339996,0.046864867,-0.15111819,9.769163,0
7,990.01624,-1.403743E-4,-0.0011337671,-5.9681025E-4,-7.0789256,23.902132,-36.988434,0.002816476,0.0022723675,0.05594921,0.042080015,-0.15826786,9.769162,0
7,990.0014,-2.7348346E-4,-6.011434E-4,-6.41575E-5,-7.0387883,23.992443,-37.07688,-0.0020423532,-0.0067237616,0.051223755,0.05163452,-0.15111789,9.769162,0
7,989.9987,9.1456145E-4,7.3808176E-4,-3.4264236E-4,-6.867723,24.258081,-37.27276,0.0026612878,0.002704993,0.041755676,0.05401939,-0.16065088,9.780997,0
7,990.0191,2.4882052E-4,3.386E-4,5.6852383E-5,-6.7667146,23.615355,-37.55865,-0.0069683976,-0.0019822717,0.0559597,0.05879408,-0.16065079,9.764426,0
7,990.0091,-2.8376235E-4,2.0543413E-4,-2.0944251E-4,-6.834515,24.078655,-37.575314,0.0023536123,-0.006735623,0.05596161,0.05161935,-0.16065064,9.757324,0
7,989.9913,-1.505555E-4,8.7121595E-4,8.558419E-4,-6.6319017,24.057478,-37.29736,0.0026889816,-0.002300024,0.037017822,0.037274897,-0.15111741,9.773894,0
7,990.0016,-5.4998044E-4,-0.0011261611,-2.0940066E-4,-6.6207047,23.6995,-37.740044,-0.030685168,-0.006995395,0.027549744,0.0635587,-0.148734,9.764425,0
7,990.0194,2.4901598E-4,7.2252406E-5,-7.622171E-5,-6.6413317,23.416502,-37.2584,-0.0067681447,-0.011784539,0.037018776,0.051604092,-0.15588376,9.771526,0
7,989.9888,-4.167247E-4,-3.2722935E-4,-2.0935881E-4,-6.9735956,24.264252,-37.179817,-0.006649267,-0.0021965355,0.041754723,0.05637884,-0.15350035,9.776259,0
7,990.01184,-5.497851E-4,3.3854452E-4,-3.4247478E-4,-6.8285646,23.978628,-37.185455,-0.0065598786,-0.011920273,0.03228283,0.044424266,-0.14158383,9.766791,0
7,990.0015,-9.492099E-4,-8.5988484E-4,1.901779E-4,-6.701523,23.887167,-37.661583,-0.0061208047,-0.007242292,0.04648304,0.051588923,-0.1582666,9.76679,0
7,990.0015,-9.492099E-4,-8.5988484E-4,1.901779E-4,-6.701523,23.887167,-37.661583,-0.010800008,0.011706635,0.027543068,0.04919395,-0.16303304,9.757321,0
7,990.01685,-1.7055296E-5,-8.5989287E-4,-3.4243293E-4,-7.170259,24.185406,-37.067917,-0.02049375,-0.021628663,0.046482086,0.056358546,-0.1439667,9.75732,0
7,990.0015,1.1615154E-4,7.379945E-4,1.9021987E-4,-7.102023,24.460161,-37.325462,-0.0016044453,-0.0070615113,0.06069088,0.058743358,-0.15588298,9.766789,0
8,990.02167,-2.8322462E-4,-6.0968996E-5,-7.605413E-5,-7.2513747,23.740936,-37.41433,-0.01110306,-0.011808515,0.027551651,0.044398904,-0.14634973,9.764421,0
8,990.037,-1.5001766E-4,2.053389E-4,3.2344065E-4,-6.980525,23.994516,-37.39392,-0.0060604177,-0.01663898,0.055955887,0.049173623,-0.15349945,9.757319,0
8,990.037,-1.5001766E-4,2.053389E-4,3.2344065E-4,-6.980525,23.994516,-37.39392,-0.020167131,-0.0024694204,0.027545929,0.061118066,-0.15826592,9.771522,0
8,990.0147,5.158697E-4,0.0010042706,3.2348253E-4,-6.4567065,23.589483,-37.450935,-8.4432587E-4,-0.030623302,0.046491623,0.058723092,-0.13681623,9.776256,0
8,990.0269,1.1644479E-4,-7.267904E-4,-7.417601E-4,-6.8179107,23.98894,-37.726593,-0.010564007,0.0027290583,0.041757584,0.049158454,-0.1630322,9.754951,0
8,990.04474,-2.8298015E-4,-6.100868E-5,1.9036647E-4,-6.7383175,24.431938,-37.30287,-0.0010231175,-0.006670922,0.032292366,0.03720385,-0.15588227,9.757318,0
8,989.98926,6.491742E-4,-7.268063E-4,-4.7540216E-4,-7.211237,23.831247,-37.502785,0.013844378,-0.020557642,0.04650116,0.03958866,-0.14396569,9.759685,0
8,989.98926,6.491742E-4,-7.268063E-4,-4.7540216E-4,-6.8771534,23.617105,-37.233795,0.018020358,-0.011369571,0.060700417,0.037193686,-0.15588197,9.764419,0
8,990.0096,-1.6566468E-5,-1.9418253E-4,-6.0853927E-4,-6.983431,24.097483,-37.938385,0.006947942,-0.016051903,0.036909103,0.043274283,-0.15114737,9.776374,0
8,990.03015,-4.2064092E-4,0.0015376176,5.5278768E-5,-7.1374564,24.480185,-38.168,-0.016747285,-0.020530462,0.032176018,0.048101038,-0.14638194,9.759807,0
8,990.0096,3.7206087E-4,-7.2723435E-4,4.4776476E-4,-6.981068,24.362806,-37.49237,-0.007048022,-0.01098761,0.027436256,0.04575804,-0.14876634,9.764545,0
8,990.02496,2.3845064E-4,-6.137118E-5,-3.5137672E-4,-7.007102,23.81154,-37.30213,-0.011648033,-0.010989666,0.027432442,0.050584733,-0.14161769,9.771651,0
8,990.0045,-2.9463338E-4,-7.2708755E-4,3.1421919E-4,-6.807395,23.893335,-37.56865,-0.007091563,-0.0106227845,0.03690338,0.050631672,-0.15353528,9.766921,0
8,990.00964,9.033358E-4,7.3772325E-4,3.1402532E-4,-6.788428,24.068941,-37.273907,0.0024250224,0.003453523,0.027424812,0.05306852,-0.1583029,9.781129,0
8,990.04785,-4.28696E-4,-1.9430884E-4,5.801474E-4,-6.981068,24.362806,-37.49237,-0.01170833,-0.00578171,0.01795578,0.04833564,-0.15353754,9.766931,0
8,990.0249,2.3664154E-4,-1.9423544E-4,-3.5215204E-4,-7.001014,23.817434,-37.61136,-0.011590477,-0.0102516115,0.032159805,0.053162366,-0.1440056,9.769301,0
8,990.00464,-5.6275836E-4,-7.267938E-4,3.134438E-4,-7.0948486,23.729471,-37.43778,0.021547645,-0.0055229366,0.06056118,0.031700194,-0.15592307,9.759837,0
8,990.007,6.3521083E-4,6.0485903E-4,8.4588176E-4,-6.8526416,24.166895,-37.34673,0.0022369996,-0.005863309,0.04634857,0.053256273,-0.15354094,9.764576,0
8,989.987,-1.641891E-4,6.049325E-4,4.6740257E-5,-7.2193904,24.192173,-37.214706,-0.011776518,-0.024630114,0.041614532,0.050913274,-0.13447592,9.769315,0
8,990.0074,-1.6464137E-4,-9.928894E-4,1.797044E-4,-7.093571,24.73137,-37.188663,-0.0067139715,-0.0052826107,0.013205528,0.05335009,-0.15592656,9.774053,0
8,989.9921,3.6753813E-4,-5.933422E-4,-2.199632E-4,-6.831471,24.081602,-37.729923,-0.011146843,-0.005374044,0.041604996,0.046227276,-0.15592769,9.762221,0
8,990.0079,-1.6554592E-4,-7.264267E-4,-2.2015703E-4,-6.5033374,23.967487,-37.850796,0.0077834576,-0.005387157,0.05106926,0.046274185,-0.16069543,9.769327,0
8,990.0102,-3.284037E-5,-1.9372147E-4,3.1228084E-4,-6.823456,23.61476,-37.318916,0.012747422,-0.0148527175,0.051065445,0.046321124,-0.15593007,9.771699,0
8,990.02014,2.3302335E-4,-1.9364801E-4,5.784029E-4,-7.1987634,24.475168,-37.696358,-0.006197188,0.004255876,0.013185501,0.053537756,-0.16069767,9.793008,0
8,990.0175,9.941314E-5,-4.598905E-4,-4.8705447E-4,-7.2414017,24.013622,-37.354836,-0.006213218,-0.014477044,0.013187408,0.04641497,-0.14639917,9.771707,0
9,989.9926,-5.64491E-4,5.7476907E-5,1.3111843E-4,-6.644238,23.519476,-37.80287,-0.010933239,-1.784116E-4,0.046322823,0.051241726,-0.15831676,9.755141,0
9,990.003,0.001032952,-4.750814E-4,1.3092463E-4,-6.6413326,23.416506,-37.2584,0.008152269,-1.9359589E-4,0.0463171,0.053678572,-0.16070119,9.764614,0
9,990.003,0.001032952,-4.750814E-4,1.3092463E-4,-6.6413326,23.416506,-37.2584,-0.02992564,-0.014695972,0.017903328,0.058505237,-0.14640263,9.771721,0
9,989.9827,-9.6532167E-4,-7.546079E-5,6.631687E-4,-6.8767176,24.355162,-37.508003,-0.015920047,-0.010278195,0.02262783,0.058552176,-0.14640382,9.77646,0
9,989.9827,-9.6532167E-4,-7.546079E-5,6.631687E-4,-6.8767176,24.355162,-37.508003,-0.0017185584,-0.00553225,0.06523609,0.049039483,-0.15355483,9.7740965,0
9,990.02075,-3.4120647E-5,5.7844023E-5,-3.0086667E-6,-6.963921,23.9048,-37.545197,-0.016252026,0.00884378,0.036824226,0.04908642,-0.16308904,9.766999,0
9,989.9858,-4.3404673E-4,-0.0010073461,3.9627132E-4,-6.8644347,23.260603,-37.753788,-0.0012969859,0.008645132,0.06522083,0.056303054,-0.16547349,9.762269,0
9,989.97534,0.0010302383,-3.4148296E-4,3.9607755E-4,-6.606303,23.870686,-37.213387,0.014338803,-0.01961258,0.036938667,0.041335464,-0.14877513,9.776415,0
9,989.97534,0.0010302383,-3.4148296E-4,3.9607755E-4,-6.606303,23.870686,-37.213387,-0.004827615,-0.009660572,0.04641533,0.05261582,-0.15352532,9.76215,0
9,990.001,9.073583E-4,5.4403063E-5,1.3230921E-4,-6.5661664,23.960997,-37.30184,-4.2233616E-5,-0.019295946,0.065351486,0.050218344,-0.1487585,9.773986,0
9,989.97296,-2.877771E-4,-7.928829E-5,-5.3207227E-4,-6.54391,23.13912,-37.488132,0.00959703,-5.9609115E-4,0.046408653,0.040651143,-0.15590817,9.759782,0
9,989.98816,5.113172E-4,1.8700375E-4,5.332542E-4,-7.519968,24.859022,-37.361378,0.0042548366,-0.014750451,0.07008743,0.047813237,-0.15114143,9.75978,0
9,989.98816,5.113172E-4,1.8700375E-4,5.332542E-4,-7.519968,24.859022,-37.361378,-0.0052951947,-0.014740229,0.027480125,0.050195456,-0.15590778,9.77635,0
9,989.9911,3.7830597E-4,5.8645377E-4,6.852788E-7,-6.9027514,23.8039,-37.31777,-0.015221335,-0.014435142,0.03222084,0.059747517,-0.14399126,9.766881,0
9,989.98846,-5.537263E-4,5.8644183E-4,1.3387471E-4,-6.841146,24.441053,-37.36454,-0.005998954,-0.0144030005,0.02275467,0.04540047,-0.14399102,9.776349,0
9,989.98846,-5.537263E-4,5.8644183E-4,1.3387471E-4,-6.8872333,24.45077,-37.665947,-0.010676205,-0.009593368,0.046427727,0.04778278,-0.15114072,9.762145,0
9,989.9858,2.4529482E-4,3.2011402E-4,-6.650415E-4,-6.699159,24.152485,-37.21557,0.0036228076,-0.019137233,0.06536579,0.050165057,-0.15114048,9.750308,0
9,989.99396,2.454415E-4,-3.4569946E-4,1.3396904E-4,-6.74927,23.789492,-37.186607,0.0037245043,-0.0045960397,0.046432495,0.05732712,-0.1535236,9.77398,0
9,989.99396,2.454415E-4,-3.4569946E-4,1.3396904E-4,-6.7978578,23.427967,-37.23495,-9.988062E-4,-0.009149373,0.027499199,0.040590197,-0.14875683,9.773978,0
9,990.01404,5.1183085E-4,-6.1202724E-4,-1.3231544E-4,-6.957971,23.804777,-37.155342,-0.005733151,1.7184019E-4,0.032230377,0.04775232,-0.15828973,9.769244,0
9,989.98596,-8.196751E-4,4.5322435E-4,8.7401713E-7,-6.752612,23.15441,-37.45687,-5.85217E-4,-0.013810903,0.046437263,0.040574998,-0.14875647,9.762141,0
9,990.01416,6.451355E-4,-6.120511E-4,5.3353724E-4,-7.04213,23.357359,-37.347145,0.013318151,-0.018683061,0.055908203,0.047737062,-0.14875627,9.771609,0
9,990.0115,-2.058076E-5,5.3726748E-5,5.335687E-4,-6.8626146,23.894213,-37.40622,-0.0058374964,-0.0043049157,0.055909157,0.05250925,-0.15352264,9.769242,0
9,989.9761,1.1265064E-4,4.5318855E-4,0.0011993898,-7.0693574,24.649023,-37.726467,-0.015661057,0.0051493496,0.036973,0.057281435,-0.15352246,9.76924,0
9,989.9792,1.12723865E-4,8.526505E-4,-5.3163193E-4,-7.118925,23.917738,-37.599056,0.00820563,-0.008989975,0.018037796,0.042934418,-0.1487557,9.771607,0
10,990.04193,-4.1983445E-4,-7.946705E-5,1.0312651E-6,-6.746226,23.792437,-37.341217,-0.0015053675,-0.008779421,0.055919647,0.04053691,-0.15828866,9.769239,0
10,990.027,3.7918665E-4,4.5315287E-4,-5.31569E-4,-6.9450917,23.97449,-36.55138,-0.0015364029,-0.0037373751,0.041721344,0.05247879,-0.15590516,9.7716055,0
10,990.02185,7.787337E-4,5.3667143E-5,-2.652218E-4,-6.7945156,24.063051,-36.96469,-0.015854277,0.005672559,0.008579254,0.062030792,-0.16067159,9.783441,0
10,990.0118,5.124914E-4,3.1997106E-4,6.669153E-4,-7.020364,24.53634,-36.880596,-0.0156875,-0.008272082,0.03225708,0.050073683,-0.15113825,9.781074,0
10,989.9889,-2.0067018E-5,3.1995922E-4,-1.3200089E-4,-7.003515,23.4462,-37.358295,-0.0058507696,-0.022272393,0.022792816,0.04289639,-0.14160493,9.773971,0
10,989.997,3.7948E-4,-0.0010116322,0.001066452,-7.0531898,23.821259,-37.60354,-9.154156E-4,0.01108259,0.036994934,0.04527867,-0.16067103,9.764503,0
10,989.9897,3.7955347E-4,-7.4532814E-4,5.338517E-4,-7.00971,24.546652,-37.42173,0.008646816,-0.0129249245,0.07013416,0.052440763,-0.14875442,9.7574,0
10,990.0147,-1.9846877E-5,7.193972E-4,1.3440935E-4,-6.9138107,24.267797,-37.57416,-9.0356544E-4,-0.01756829,0.046470642,0.049980104,-0.14875269,9.766862,0
10,990.00464,-2.8601434E-4,-7.957453E-5,-5.313167E-4,-6.646846,24.254583,-37.922462,0.0039231293,-0.007961482,0.041736603,0.045190156,-0.15828559,9.773963,0
10,990.0024,-1.908424E-5,-3.4599003E-4,1.5782716E-6,-7.356811,24.485159,-37.5956,0.018203605,-0.0031624585,0.05594349,0.04756993,-0.15351877,9.762126,0
10,989.9847,-1.520466E-4,9.855576E-4,4.011359E-4,-6.9073176,23.799482,-37.085854,-9.75579E-4,-0.012236029,0.055952072,0.047559768,-0.14875194,9.75739,0
10,989.9949,9.133147E-4,-6.123537E-4,2.6801988E-4,-7.0999575,24.093344,-37.304317,0.0037875734,0.001894936,0.06541824,0.05471933,-0.15828475,9.764491,0
10,989.9822,-2.1085085E-4,8.9534104E-4,-3.1361287E-4,-7.0884624,24.3675,-37.322132,-0.0061684363,-0.017410263,0.03227806,0.047539473,-0.14875141,9.776326,0
10,989.975,-0.0014091744,0.0015611149,-4.7255075E-5,-6.65155,24.144245,-36.99147,0.0032160506,-0.003655523,0.0228014,0.04752934,-0.15590099,9.776325,0
10,989.975,-0.0014091744,0.0015611149,-4.7255075E-5,-6.65155,24.144245,-36.99147,0.0128063,-0.0035839677,0.06541157,0.04273939,-0.1511342,9.755019,0
10,989.9848,5.57584E-5,0.0010284514,8.5986656E-5,-6.745247,24.162199,-37.51697,0.0077232905,-0.022351786,0.05121708,0.047509015,-0.13683426,9.757386,0
10,990.01776,1.8901424E-4,-3.0314387E-4,3.5234448E-4,-7.130963,24.01187,-37.679695,-0.0015778542,0.01073125,0.060681343,0.04988879,-0.1654334,9.764486,0
10,990.01746,-3.4351973E-4,-4.3631764E-4,3.5238639E-4,-6.876717,24.355162,-37.508003,-0.020807087,0.005763799,0.032273293,0.05943823,-0.16066661,9.769219,0
10,989.9975,-0.0011423697,0.0010284038,8.611241E-5,-7.1611276,24.194244,-37.531746,-0.006647125,-0.0137132555,0.041736603,0.047478616,-0.15113327,9.764484,0
10,990.0157,5.614967E-5,-8.3582324E-4,6.187861E-4,-6.8801975,23.614164,-37.07919,-0.015827216,-0.027347818,0.03227806,0.05224824,-0.1392166,9.764483,0
10,990.0005,4.5572128E-4,-3.6891535E-5,2.1935417E-4,-6.8224773,23.984526,-37.494675,0.007827725,0.0012501478,0.055952072,0.054628044,-0.153516,9.76685,0
10,990.0005,4.5572128E-4,-3.6891535E-5,2.1935417E-4,-6.8224773,23.984526,-37.494675,-0.016282413,-0.0034977943,0.022812843,0.054617822,-0.14636585,9.766849,0
10,990.008,1.8960098E-4,-1.7008121E-4,-4.463517E-4,-6.7206273,23.605642,-37.257248,-0.0063870847,-0.012614489,0.037023544,0.049827933,-0.1487489,9.766848,0
10,990.0026,8.554886E-4,-8.3588687E-4,-4.683592E-5,-7.0055804,23.813017,-37.37944,-0.020532835,-0.0076001734,0.02755928,0.056987464,-0.14636537,9.762113,0
11,990.0026,8.554886E-4,-8.3588687E-4,-4.683592E-5,-7.0055804,23.813017,-37.37944,-0.0013986938,-0.021829724,0.065434456,0.042637914,-0.14159858,9.759744,0
11,990.0009,-7.4221124E-4,-4.364447E-4,-5.793839E-4,-6.9423456,23.3453,-37.130863,0.008228783,-0.021774739,0.055968285,0.05457729,-0.15113148,9.769213,0
11,990.0009,-7.4221124E-4,-4.364447E-4,-5.793839E-4,-6.9423456,23.3453,-37.130863,-0.00623649,-0.017001927,0.027563095,0.049787343,-0.14874795,9.769212,0
11,990.01624,4.5630801E-4,6.288029E-4,-3.1302613E-4,-7.283061,23.921835,-37.18908,-0.0010087788,-0.0074694157,0.04650116,0.052167058,-0.14636442,9.771577,0
11,990.00085,5.8956386E-4,-8.359503E-4,-4.6668283E-5,-7.1961555,23.74006,-37.57676,-0.020084355,-0.01686272,0.027565956,0.049767047,-0.14636418,9.755006,0
11,989.99036,-4.75602E-4,-3.033344E-4,3.5284742E-4,-6.8605494,23.527395,-37.38507,0.008582998,-0.0025991052,0.03703308,0.04497707,-0.14874724,9.771577,0
11,989.9852,-7.603038E-5,9.6123535E-5,-3.129004E-4,-6.6518483,23.51211,-37.41634,0.0037354901,-0.012277067,0.046503067,0.05213663,-0.15113029,9.778676,0
11,989.99835,-4.754063E-4,6.287395E-4,-7.1233214E-4,-6.9117455,23.90098,-37.553017,-2.6503205E-4,-0.01253362,0.0417614,0.05929622,-0.14159682,9.771573,0
11,990.01385,-4.7530863E-4,-0.0019012772,0.0011519208,-7.024547,23.63741,-37.67418,-0.01059708,0.011374593,0.027450562,0.055662632,-0.1630745,9.776414,0
11,990.0085,-3.4589678E-4,-8.369502E-4,4.8237923E-4,-7.060799,23.81389,-37.21701,-0.01057373,-0.0075790435,0.036917686,0.046138614,-0.15115899,9.774049,0
11,990.0014,1.8102574E-4,-3.0339172E-4,-4.5217312E-4,-6.8610926,23.895685,-37.48353,-0.010938525,0.006633073,0.046383858,0.060513556,-0.15830973,9.757482,0
11,989.99866,-3.5194852E-4,0.0010282435,8.031182E-5,-6.9805245,23.994513,-37.39392,-0.010955673,-0.0073406845,0.046385765,0.055769295,-0.16069385,9.776423,0
11,989.9862,3.1349846E-4,-1.7012248E-4,-0.0011182566,-7.040853,24.35926,-37.09803,-0.0016835593,-0.0023463666,0.05585575,0.05580482,-0.15831146,9.766957,0
11,990.0218,0.0015115773,0.0011615125,-4.5261357E-4,-6.6810327,24.064245,-37.444153,-0.006771896,0.007043615,0.032179832,0.051060557,-0.15831232,9.757491,0
11,990.00397,-2.1981876E-4,3.6262046E-4,-1.864445E-4,-7.0598207,24.183653,-37.39277,-0.0257384,0.016525224,0.03690815,0.058265805,-0.17022955,9.771699,0
11,989.9938,-3.5331884E-4,-3.0311366E-4,-5.8606523E-4,-6.96903,24.268673,-37.41173,0.00249473,-0.007646337,0.027433395,0.04635185,-0.14639765,9.7646,0
11,990.0245,-0.0010194513,4.958897E-4,-5.358024E-5,-6.8460097,23.804497,-37.5575,-0.0020907708,-0.0029291064,0.0653038,0.055947006,-0.1606982,9.755135,0
11,990.0044,4.546976E-5,2.2962934E-4,-5.372701E-5,-6.965581,23.797411,-36.768814,-0.0020685978,-0.0027374923,0.032162666,0.053592622,-0.15593249,9.7740755,0
11,989.98944,3.111003E-4,-3.657525E-5,-3.203366E-4,-6.89017,23.341475,-37.13868,-0.0068558156,-0.0027467906,0.03689289,0.04884839,-0.15355012,9.766976,0
11,989.9819,-2.2187419E-4,9.6638294E-5,7.8990386E-5,-6.738073,23.431513,-37.62929,-0.011787076,0.0020888448,0.04162693,0.051273823,-0.15831754,9.757511,0
11,989.9819,-2.2187419E-4,9.6638294E-5,7.8990386E-5,-6.738073,23.431513,-37.62929,0.0120667,0.0019839406,0.041623116,0.044139683,-0.15593508,9.76225,0
11,989.97217,1.7691476E-4,2.299074E-4,3.4501267E-4,-6.384042,23.76274,-37.24132,0.0025592968,-0.012285724,0.055820465,0.048955023,-0.15116942,9.762253,0
11,990.01013,3.0972998E-4,-3.635281E-5,6.111818E-4,-6.820114,24.249844,-37.04866,0.016757924,-0.017008692,0.04161644,0.04421076,-0.15355358,9.771724,0
11,989.982,-6.22718E-4,3.6317663E-4,3.44719E-4,-6.6242914,24.064844,-37.683884,-0.016892027,-0.016896531,0.017942429,0.053805918,-0.14163801,9.781198,0
11,990.0024,4.422028E-4,-1.6939951E-4,7.825627E-5,-6.831471,24.081602,-37.729927,-0.012105875,0.0024748296,0.036881447,0.051451534,-0.15355536,9.75516,0
12,990.0024,4.422028E-4,-1.6939951E-4,7.825627E-5,-6.831471,24.081602,-37.729927,0.0068238303,0.00712125,0.04634857,0.051487118,-0.16070604,9.769366,0
12,990.00494,3.4950205E-4,0.0016052285,7.966047E-5,-6.63386,23.317953,-36.945847,0.006492961,-0.011607021,0.06528759,0.051522672,-0.14402398,9.748065,0
12,989.95966,3.4915967E-4,-2.589271E-4,-3.1996003E-4,-7.096914,24.096289,-37.458923,-0.012673397,-0.021135703,0.041612625,0.053948075,-0.14402485,9.778842,0
12,990.02045,-5.065676E-5,1.4060238E-4,-5.3791067E-5,-7.0106897,24.176888,-37.24597,-0.01756332,0.007517308,0.027406693,0.061153352,-0.16309193,9.771744,0
12,990.02045,-1.8415708E-4,-3.9197376E-4,4.786939E-4,-7.0506883,24.192492,-37.856598,-0.03174892,-0.011733383,0.060541153,0.061188877,-0.13926002,9.740973,0
12,990.02045,-1.8415708E-4,-3.9197376E-4,4.786939E-4,-7.0506883,24.192492,-37.856598,0.011086207,-0.00233756,0.03213215,0.044495106,-0.15832713,9.769383,0
12,989.96246,-3.1800047E-4,-0.0017234419,-7.200212E-4,-6.752719,24.260752,-37.82953,0.01658858,-0.012057856,0.046323776,0.04453063,-0.15117815,9.767019,0
12,989.96246,-3.1800047E-4,-0.0017234419,-7.200212E-4,-6.752719,24.260752,-37.82953,-0.011893421,-0.007309258,0.027381897,0.052004427,-0.1416525,9.771781,0
12,990.0056,-5.863032E-4,6.7118154E-4,7.195352E-5,-7.0582986,24.185127,-37.470078,-0.022299092,-0.0026450455,0.02259159,0.05710441,-0.1535767,9.7741785,0
12,989.99304,7.893682E-5,5.4810735E-6,-7.2722975E-4,-7.0432167,24.093943,-37.54405,-0.012884118,-0.011906311,0.027324677,0.049991727,-0.14404503,9.776551,0
12,989.99304,7.893682E-5,5.4810735E-6,-7.2722975E-4,-7.0432167,24.093943,-37.54405,-0.008186739,-0.0022984445,0.04626274,0.054828584,-0.14881301,9.757618,0
12,989.9806,6.110186E-4,1.387283E-4,-8.606233E-4,-6.9974275,23.452093,-37.66752,0.0061630122,-0.016241103,0.027321815,0.045325994,-0.1392813,9.778928,0
12,989.99054,4.773112E-4,-2.6065632E-4,2.044047E-4,-7.112837,23.92363,-37.908276,0.0016559213,-0.020925865,0.046254158,0.047772914,-0.14881578,9.767097,0
12,990.00354,6.099194E-4,2.7206464E-4,-8.6109433E-4,-6.653775,23.984842,-38.136566,-0.0026567765,-0.010955051,0.0225811,0.045440078,-0.15120044,9.771836,0
12,990.02356,2.0989591E-4,-0.0014588995,-0.0011276458,-6.731686,24.06954,-37.51364,0.0021167248,-0.01081121,0.027311325,0.038327396,-0.14643529,9.77421,0
12,989.98303,7.618802E-5,-0.0011924942,-7.2840764E-4,-7.2092795,24.570776,-37.854294,0.011550214,0.008220822,0.055713654,0.03599456,-0.16788623,9.755277,0
12,990.00854,7.563819E-5,2.7233246E-4,2.0346217E-4,-6.8250847,24.71963,-37.614273,0.016495977,-0.015627325,0.041502953,0.040831417,-0.14643815,9.786056,0
12,990.00366,6.077201E-4,-3.93368E-4,4.695423E-4,-6.6393743,24.15603,-37.60991,-0.0026815534,0.0034734905,0.036764145,0.048058182,-0.15597263,9.778959,0
12,989.99066,7.453842E-5,-3.9327872E-4,2.029908E-4,-6.92835,23.990694,-37.401733,-0.012203813,-0.0058928877,0.046230316,0.055284917,-0.15120745,9.760028,0
12,989.9788,-5.9169237E-5,-3.9318943E-4,6.959724E-5,-6.7076106,23.881273,-37.352364,-0.0029147752,-0.005940959,0.0462265,0.038612664,-0.16074198,9.752931,0
12,990.00934,-5.9235096E-4,5.390054E-4,2.0251953E-4,-6.8547063,24.533714,-37.367874,0.0017050691,-0.0058532953,0.05568981,0.048229337,-0.14644372,9.762404,0
12,989.9917,-1.9342695E-4,6.722526E-4,6.9125876E-5,-6.5293713,23.416224,-37.660553,-0.002810765,-0.010666549,0.0746212,0.04828638,-0.15121171,9.757675,0
12,989.9966,8.712867E-4,-1.266058E-4,-4.637415E-4,-6.752176,23.892462,-37.73107,-0.0030492172,-0.010274291,0.022542953,0.053123236,-0.14882979,9.778986,0
12,990.0194,2.049471E-4,-3.928322E-4,-1.9766125E-4,-6.76283,23.882149,-37.18994,-0.008014433,-9.470582E-4,0.017801285,0.043620646,-0.15121445,9.77189,0
13,990.0194,-1.9507656E-4,1.3988858E-4,-3.3105494E-4,-7.0761795,23.272943,-37.56791,-0.007990506,0.0037293136,0.041466713,0.043677688,-0.1583657,9.755324,0
13,990.00964,-3.2878458E-4,2.7313584E-4,-3.3129056E-4,-6.820412,23.617704,-37.47353,-0.017003782,-0.0059681833,0.05565834,0.060464025,-0.15360054,9.774267,0
13,990.0018,-5.956496E-4,-0.0010583545,2.0110578E-4,-6.9138103,24.267796,-37.57416,-0.0025751293,-0.025133178,0.046182632,0.04618165,-0.15121871,9.762435,0
13,990.0171,6.959018E-5,-0.0010582652,-7.3123537E-4,-7.02922,24.739332,-37.814922,0.007245019,0.003260687,0.041438103,0.039068997,-0.16075319,9.769544,0
13,989.977,-1.9782547E-4,-1.2598105E-4,2.0039882E-4,-7.151154,24.466928,-37.472256,-0.016631424,-0.0061986893,0.031965256,0.053465456,-0.14883813,9.760079,0
13,990.0152,2.0109864E-4,-5.253656E-4,-5.987844E-4,-7.208874,24.096567,-37.056767,0.012131713,-0.0012662262,0.03196144,0.036793202,-0.15122285,9.769553,0
13,990.0152,2.0109864E-4,-5.253656E-4,-5.987844E-4,-7.208874,24.096567,-37.056767,0.012467589,-0.0062673837,0.04615593,0.036850244,-0.15122429,9.757722,0
13,990.0427,4.6631473E-4,-1.2571324E-4,4.6600774E-4,-6.5501056,24.239576,-37.551567,0.0029521286,-0.006046653,0.050886154,0.05602652,-0.14645913,9.776666,0
13,989.9897,-5.9111E-4,-1.2698577E-4,7.3568313E-4,-6.6122537,23.970713,-37.60325,-0.013877232,-0.001421228,0.022690773,0.06328711,-0.15831909,9.771721,0
13,989.9897,-5.9111E-4,-1.2698577E-4,7.3568313E-4,-6.6122537,23.970713,-37.60325,0.0053240284,-0.01545091,0.07477665,0.05369073,-0.1464018,9.745678,0
13,990.0152,4.8632355E-4,5.4276607E-6,3.4438976E-4,-6.572117,24.061024,-37.6917,0.010097317,-0.0058545023,0.04637432,0.046484232,-0.15355074,9.771713,0
13,990.0204,3.5352033E-4,1.3852803E-4,-5.4932025E-5,-7.2184114,24.561935,-37.390465,0.015095241,0.0035961121,0.046375275,0.034497947,-0.14639995,9.76224,0
13,990.01556,-4.5599023E-5,-3.9416127E-4,-4.5425384E-4,-6.8601136,24.265448,-37.659286,-0.0037531592,0.01335451,0.0037698746,0.044020712,-0.1630821,9.77881,0
13,990.0058,-1.7804776E-4,5.378291E-4,6.1131356E-4,-6.9132676,23.899506,-37.47571,7.895902E-4,0.0035035908,0.02744484,0.048763752,-0.15593132,9.77407,0
13,990.021,-7.103249E-4,-2.6117603E-4,-5.432422E-5,-6.698914,23.15206,-37.541992,0.0011517294,-0.0011168271,0.013245583,0.036777437,-0.14639726,9.766966,0
13,989.9879,-2.728778E-5,9.901487E-5,-3.6941952E-4,-6.9232407,23.626823,-37.535202,0.015125547,-0.015305862,0.055862427,0.031960845,-0.15354624,9.757493,0
13,990.0185,6.388563E-4,7.6474703E-4,3.0206342E-5,-7.152974,23.833317,-37.81982,8.460395E-4,-0.010363683,0.07007027,0.0510433,-0.151162,9.759857,0
13,990.0037,7.7236886E-4,-9.663638E-4,3.0358322E-5,-6.8900323,23.447393,-37.837757,0.0011592843,-0.0053149313,0.046405792,0.048616588,-0.1511612,9.769322,0
13,990.0159,0.0013053553,9.8842196E-5,-3.6896352E-4,-6.652391,23.8804,-37.514793,0.010376282,0.009276122,0.022743225,0.036630273,-0.15831009,9.778789,0
13,990.0159,0.0013053553,9.8842196E-5,-3.6896352E-4,-6.652391,23.8804,-37.514793,0.015110392,-0.028703108,0.055888176,0.0461531,-0.13447633,9.771684,0
13,990.00854,-6.9130457E-4,8.976747E-4,4.302881E-4,-6.4458923,24.126015,-36.868126,3.3707544E-4,-0.024004579,0.036958694,0.043726385,-0.13924205,9.776414,0
13,990.00854,-6.9130457E-4,8.976747E-4,4.302881E-4,-7.118084,24.181583,-37.075737,0.005056672,-0.0284774,0.032232285,0.048469424,-0.1392411,9.788247,0
13,990.00616,0.0010401033,6.313012E-4,1.6412418E-4,-6.5596733,23.492682,-36.813534,0.009463545,-0.018954977,0.036972046,0.038873047,-0.13685694,9.776408,0
13,990.0294,-2.911217E-4,8.975595E-4,4.30592E-4,-6.9186745,23.631239,-37.767117,-0.014237095,0.005035192,0.027506828,0.055565536,-0.153539,9.77167,0
13,990.01636,1.0870685E-4,-3.0091952E-4,-1.01887796E-4,-7.1626496,24.19277,-37.454445,5.7648867E-5,-0.013913393,0.032248497,0.041189373,-0.14162165,9.75983,0
14,990.0093,-2.4096604E-5,-3.0097703E-4,3.1422154E-5,-6.806554,24.157183,-37.04533,0.0046866313,0.005119577,0.06539154,0.041152567,-0.1678369,9.755094,0
14,990.0017,3.7573194E-4,6.31071E-4,1.6473205E-4,-6.8551426,23.79566,-37.09367,0.014308829,-0.004164383,0.055930138,0.04111576,-0.14638641,9.764558,0
14,990.02716,2.429286E-4,2.3153957E-4,4.3119988E-4,-6.8064165,24.263102,-37.744404,-0.0047272034,0.014923677,0.051200867,0.053028464,-0.16783509,9.766921,0
14,990.017,3.7644102E-4,-1.6799182E-4,-2.3443782E-4,-6.530457,24.152805,-37.85746,-0.014339019,7.3979795E-4,0.041736603,0.048211873,-0.15115121,9.762185,0
14,990.0146,5.099537E-4,-3.012073E-4,-3.6744378E-4,-6.8520985,23.798609,-37.24828,0.009439174,0.01046589,0.022806168,0.036225617,-0.16544995,9.769282,0
14,990.01184,-1.5548142E-4,7.6399866E-4,-2.3413391E-4,-6.4839644,23.668886,-36.758522,-2.0244718E-4,-0.008381292,0.05595398,0.033798903,-0.15114942,9.755076,0
14,990.0146,7.769787E-4,-1.681645E-4,-2.3398187E-4,-6.60989,24.236029,-37.15723,0.018926557,-0.0035808831,0.051223755,0.04093179,-0.15591505,9.778745,0
14,990.0324,5.110175E-4,4.9756764E-4,2.988018E-4,-6.6123915,23.864794,-36.904167,-0.0014845915,-0.0036077052,0.046361923,0.05116135,-0.15354821,9.762235,0
14,990.01715,7.77688E-4,-7.009114E-4,2.989538E-4,-7.062865,24.180708,-37.23816,-0.006575428,0.015462622,0.017954826,0.049484193,-0.16071555,9.7812395,0
14,990.02277,-8.3014753E-4,6.3228165E-4,-2.3793807E-4,-6.983026,23.623278,-37.14086,-0.011457149,0.0012716502,0.03689289,0.04950449,-0.15118289,9.76467,0
14,990.0375,-3.4953962E-5,-3.289862E-5,-2.3954693E-4,-6.7597857,23.885096,-37.34455,0.003019698,0.0013404638,0.027422905,0.04474497,-0.15833327,9.769406,0
14,990.0152,-3.514954E-5,6.3292286E-4,-2.3963075E-4,-6.8234563,23.614761,-37.318916,0.02200709,-0.003782943,0.06055641,0.044765234,-0.15833381,9.75994,0
14,990.0453,-5.6797697E-4,-2.99151E-4,9.5870683E-4,-6.9283495,23.990692,-37.401737,-0.0017858855,0.010307312,0.04161358,0.049565345,-0.16071755,9.778879,0
14,990.02545,9.761713E-5,-6.985931E-4,-6.392722E-4,-6.6773086,23.80482,-38.199387,-0.0111234635,0.010523841,0.04161358,0.04958567,-0.16071802,9.764678,0
14,989.9923,7.632113E-4,7.6617603E-4,-1.0672427E-4,-6.8353567,23.81481,-38.098633,0.0027962327,0.0012316257,0.036883354,0.040046364,-0.15595195,9.762313,0
14,990.02026,3.6354162E-4,-3.273983E-5,2.926656E-4,-6.7201915,24.343699,-37.531452,0.012369204,0.0015102178,0.05108738,0.042456567,-0.14880264,9.757581,0
14,990.0049,-3.6127778E-5,7.662396E-4,1.5942383E-4,-6.8702245,23.886847,-37.0197,-0.002388358,0.0060917735,0.060555458,0.049646556,-0.15595302,9.764683,0
14,990.0049,-4.3579718E-4,6.331134E-4,-1.06975844E-4,-6.5606217,24.33518,-37.70951,0.002029378,0.005684212,0.027407646,0.04966685,-0.15833676,9.781255,0
14,990.03546,-8.3546666E-4,8.9946104E-4,-3.7337554E-4,-6.9312563,24.093664,-37.946205,-0.012600828,0.010296494,0.022670746,0.052077055,-0.1607205,9.776523,0
14,990.0129,-1.6987257E-4,7.663348E-4,-2.4030148E-4,-6.7417974,23.690939,-36.874054,0.0060783364,-0.013385147,0.036875725,0.035368025,-0.14403802,9.7599535,0
14,990.0434,-3.032261E-4,8.9952454E-4,6.917203E-4,-6.739297,24.062176,-37.127113,0.010641098,-0.003957629,0.070014,0.04733783,-0.16072151,9.750486,0
14,990.02075,2.292101E-4,3.6692456E-4,6.9163647E-4,-6.9003882,24.06922,-36.87175,0.0057574026,9.7356737E-4,0.036873817,0.047358155,-0.15118894,9.776528,0
14,990.02075,2.292101E-4,3.6692456E-4,6.9163647E-4,-6.9003882,24.06922,-36.87175,-0.0037142783,-0.008570239,0.036872864,0.040208727,-0.15118942,9.774162,0
14,990.01544,2.290144E-4,-4.3199136E-4,-9.063426E-4,-7.029358,24.633417,-37.115845,0.0057250485,-0.013635963,0.046336174,0.047398716,-0.160723,9.774164,0
15,990.0362,-9.697981E-4,3.670198E-4,-5.0703646E-4,-7.230748,24.023933,-37.895973,6.013997E-4,-0.013957381,0.022657394,0.042639256,-0.15357363,9.769432,0
15,990.0366,-3.788821E-5,2.3389362E-4,-1.0764651E-4,-6.885168,24.083948,-37.6448,0.0292653,-0.004681781,0.055791855,0.025930226,-0.1511909,9.769434,0
15,990.0366,-3.788821E-5,2.3389362E-4,-1.0764651E-4,-6.885168,24.083948,-37.6448,-0.008973815,0.004961744,0.036854744,0.04028988,-0.15834126,9.769436,0
15,990.02625,4.94548E-4,-1.6554838E-4,-5.072042E-4,-6.766417,24.247496,-37.13378,0.009707294,-0.0041792393,0.036859512,0.042700082,-0.14880863,9.778907,0
15,990.02625,4.94548E-4,-1.6554838E-4,-5.072042E-4,-6.766417,24.247496,-37.13378,1.6875938E-4,-0.003959924,0.055800438,0.057059765,-0.15119237,9.76944,0
15,990.01654,-1.3159675E-5,-1.4101051E-5,-5.1491713E-4,-6.796581,24.429869,-36.985832,-0.009444494,-0.0036365986,0.041599274,0.042740643,-0.1535761,9.757606,0
15,990.00635,1.1980257E-4,5.1856245E-4,0.0010828944,-6.678968,23.697428,-37.423004,0.004460331,-0.012971431,0.06527424,0.045150876,-0.14642677,9.75524,0
15,990.02893,6.522387E-4,-1.4037547E-5,-3.819269E-4,-6.786225,23.80804,-37.951843,-0.005414393,0.015372336,0.051067352,0.05712068,-0.17026016,9.774179,0
15,990.04675,2.5256936E-4,0.0014507315,-1.1569483E-4,-7.2473516,24.113646,-37.744698,-0.010341056,-0.003821075,0.032107353,0.054941267,-0.14881578,9.776566,0
15,990.01154,-1.4168996E-5,5.186945E-4,5.4991385E-4,-7.011232,24.545177,-37.344425,-0.02021864,0.010398388,0.027370453,0.0573591,-0.15834957,9.769467,0
15,990.03186,-2.7929238E-4,3.8447027E-4,-2.5301237E-4,-6.784841,23.703598,-37.33007,-0.0060908757,0.010621607,0.04157543,0.047827363,-0.16073349,9.760001,0
15,990.0119,-1.464037E-4,0.0010503037,-2.5312768E-4,-6.608368,24.237501,-37.234535,0.013199303,-0.003784299,0.055773735,0.040685594,-0.15358439,9.767105,0
15,990.022,-1.4667262E-4,-2.8123206E-4,1.4623074E-4,-6.967944,23.532091,-37.21483,0.013289511,5.052984E-4,0.041560173,0.045493364,-0.16311821,9.776576,0
15,990.0221,-2.8009972E-4,-2.8118835E-4,6.7874714E-4,-6.5961933,24.249289,-37.852974,-0.0056383386,-0.0042000413,0.032090187,0.05508089,-0.15358582,9.771844,0
15,990.04755,-1.4053105E-5,-0.0012132501,-1.20315846E-4,-7.098979,24.463106,-37.480072,-0.01976617,7.842332E-4,0.027353287,0.04793912,-0.15120313,9.760011,0
15,990.0297,2.519935E-4,-1.478498E-5,1.4588458E-4,-7.006123,24.181307,-37.47789,-0.005298529,-0.0038228482,0.036821365,0.0431872,-0.1535871,9.77185,0
15,990.0272,-1.4774958E-4,-1.4789928E-4,-1.205467E-4,-7.0945506,24.361609,-37.01291,0.004639052,-0.003929749,0.046284676,0.05038488,-0.15358779,9.762383,0
15,990.0222,-1.4860911E-5,-0.0010799611,4.119698E-4,-6.9237833,23.99511,-37.63365,-0.01892402,-0.0038155168,0.008407593,0.045633018,-0.15120524,9.778956,0
15,989.99945,6.5065955E-4,-8.136014E-4,1.455385E-4,-6.880495,22.982025,-37.50406,-0.018811889,0.020217925,0.041547775,0.057610422,-0.16550556,9.774224,0
15,989.9872,7.835486E-4,-6.804E-4,-1.2089274E-4,-6.7251935,23.601225,-37.025333,-0.014233526,-0.0036029816,0.036810875,0.050468624,-0.15120655,9.760024,0
15,990.0227,-1.4909546E-4,-1.4768077E-4,-3.8743942E-4,-6.966965,23.901854,-37.390587,-0.014150161,0.0061913133,0.046281815,0.055276364,-0.15359053,9.762393,0
15,990.0227,-1.4909546E-4,-1.4768077E-4,-3.8743942E-4,-6.966965,23.901854,-37.390587,0.0046805143,-0.007995099,0.06995392,0.05530435,-0.15120795,9.75056,0
15,990.02527,6.493138E-4,5.181963E-4,5.4443546E-4,-6.5794816,23.05323,-37.631596,9.864569E-6,0.0014386475,0.0699482,0.050552428,-0.15120867,9.757665,0
15,990.0126,-8.156928E-4,-0.0012128132,6.7747803E-4,-7.006559,23.443253,-37.203682,-0.004646033,0.010780439,0.027334213,0.05297026,-0.16789225,9.776605,0
15,990.0179,-1.7014478E-5,5.1828375E-4,1.4473093E-4,-6.933459,24.354565,-37.268272,-0.033200517,0.00598228,0.027329445,0.06255782,-0.15835986,9.7671385,0
16,990.0179,-1.7014478E-5,5.1828375E-4,1.4473093E-4,-6.933459,24.354565,-37.268272,3.2774732E-4,0.0012609065,0.036797523,0.05063626,-0.15359399,9.764773,0
16,990.02045,-1.5044169E-4,-6.80094E-4,-2.548583E-4,-6.71522,23.873909,-36.965843,-0.0140683055,-0.008352667,0.022589684,0.053054094,-0.14644486,9.776612,0
16,990.01544,1.1533612E-4,-6.8000663E-4,1.4438477E-4,-6.7795944,23.445642,-38.16261,-0.008781124,0.0011277795,0.041521072,0.06264159,-0.15597862,9.77188,0
16,990.0183,-1.5124903E-4,-9.462787E-4,6.769012E-4,-7.014574,23.910095,-37.61469,-0.0083588585,-0.013041824,0.03678322,0.050720036,-0.13929632,9.764782,0
16,990.0129,2.479554E-4,-4.1360332E-4,1.0996067E-5,-6.9208775,23.892141,-37.089188,-0.013280977,0.0012147278,0.022577286,0.0531379,-0.15121344,9.767151,0
16,989.99316,-2.8494562E-4,-4.1355967E-4,1.4403867E-4,-7.3955646,24.290405,-36.885376,-0.031659096,-0.008056432,0.022574425,0.06989509,-0.14406428,9.776622,0
16,990.0157,5.137328E-4,-0.0010793057,-5.218664E-4,-7.263413,23.83507,-37.49497,0.0067761727,-0.02241312,0.06518078,0.048413903,-0.144065,9.757688,0
16,990.0361,1.1398978E-4,-2.8031433E-4,2.7696585E-4,-6.9950643,23.71741,-37.221497,-0.0026969686,0.015752584,0.041505814,0.05800146,-0.16551512,9.783729,0
16,990.0183,-9.5077895E-4,2.522372E-4,-2.5545395E-4,-7.119606,24.18011,-36.99843,-0.007423196,0.0011152476,0.027310371,0.0506984,-0.15597874,9.776616,0
16,990.011,-1.4956114E-4,-2.8126343E-4,6.7505107E-4,-7.1171045,24.551348,-37.251488,-0.017357226,-0.0035873652,0.01784134,0.050719947,-0.14167967,9.767148,0
16,990.0085,-9.487166E-4,5.177181E-4,-1.239857E-4,-6.9283495,23.99069,-37.401737,0.0113215335,-0.008674204,0.036771774,0.041181922,-0.15359652,9.764784,0
16,990.0136,-8.1576646E-4,-1.4803794E-4,5.4171495E-4,-6.773644,23.345621,-37.77275,0.0018840022,-0.009084821,0.060435295,0.05315301,-0.15121385,9.762418,0
16,990.0136,-8.1576646E-4,-1.4803794E-4,5.4171495E-4,-6.773644,23.345621,-37.77275,-0.02680675,3.889501E-4,0.0320282,0.06273419,-0.14644775,9.767154,0
16,989.9936,-2.835504E-4,5.178192E-4,-0.0010563586,-6.9428887,23.713589,-37.229313,-0.022029322,2.6865304E-4,0.027287483,0.062755704,-0.15598142,9.778992,0
16,989.9936,-2.835504E-4,5.178192E-4,-0.0010563586,-6.9790025,23.995985,-37.471222,-0.0077821165,-0.01889883,0.027284622,0.043658078,-0.14406553,9.776628,0
16,990.0136,-9.495479E-4,-5.4741063E-4,-2.5749987E-4,-7.128898,23.645056,-37.658546,-0.007596761,-0.009044841,0.032021523,0.055629134,-0.14406607,9.7718935,0
16,990.01624,3.8182357E-4,3.8472877E-4,8.076745E-4,-6.6915493,24.159853,-37.602097,0.016470376,-0.004366815,0.05095482,0.04609111,-0.16074958,9.762427,0
16,990.01904,3.8161577E-4,-0.0012131329,4.0811163E-4,-6.6543493,23.140873,-37.16328,0.011875968,0.004813418,0.050945282,0.05328238,-0.15360028,9.779,0
16,990.01636,-5.1358226E-4,7.564974E-4,-2.0861783E-4,-7.032157,23.630045,-37.28765,0.002599094,-0.009547919,0.017799377,0.043744296,-0.14883426,9.776635,0
16,990.0113,-2.4747415E-4,-0.0015071539,-2.0870694E-4,-6.8319073,23.34355,-37.455715,0.012281414,-0.009572074,0.055672646,0.04615578,-0.15836784,9.760067,0
16,990.01135,-9.134718E-4,-4.4185654E-4,7.2330947E-4,-7.0365853,23.731543,-37.754814,0.0028549097,-0.0052217543,0.041459084,0.04139757,-0.15836844,9.771905,0
16,990.0015,-3.810478E-4,-3.0866495E-4,-7.572721E-5,-6.8726945,24.727873,-37.83837,-0.0064616203,-0.0051632524,0.055660248,0.06531817,-0.15598562,9.767173,0
16,989.9888,-1.14939845E-4,-5.7494704E-4,4.5681547E-4,-7.0693574,24.649023,-37.726467,0.0032628067,-3.1153858E-4,0.0509243,0.051000297,-0.15121964,9.76244,0
16,990.0266,9.5011585E-4,-4.2281543E-5,5.725259E-5,-7.201945,24.366304,-36.842667,-0.006491691,-0.01918517,0.027254105,0.053411722,-0.141687,9.779012,0
16,990.01434,-1.1535545E-4,-1.7540582E-4,1.9032147E-4,-6.6479626,23.778898,-37.04763,-0.011182383,-0.00445576,0.031993866,0.046263576,-0.14645416,9.762443,0
17,990.01434,1.7594575E-5,9.094383E-5,-7.418732E-4,-7.128898,23.645056,-37.658546,0.0027378574,-0.013960555,0.05093193,0.051064968,-0.15122119,9.762445,0
17,990.01184,5.500186E-4,3.5729338E-4,4.5645918E-4,-6.985634,24.358385,-37.260452,-0.0019309707,-0.0044124722,0.03672695,0.039137065,-0.15122172,9.764814,0
17,990.00183,4.166528E-4,-1.7530457E-4,-2.0941958E-4,-6.7301645,24.071014,-37.590942,0.016789626,5.4197013E-4,0.046196938,0.046328247,-0.15360555,9.767184,0
17,990.0274,2.8328705E-4,8.899927E-4,-3.4266658E-4,-6.7712812,23.61094,-37.326736,-0.0021493286,-0.013464227,0.031995773,0.043959945,-0.14168969,9.77192,0
17,990.02496,4.162372E-4,-1.7523704E-4,4.5619198E-4,-7.0894413,23.997736,-37.14637,-0.006978497,-0.013162851,0.041467667,0.051151246,-0.14884004,9.757719,0
17,989.98444,1.6555568E-5,-4.4151928E-4,1.8978701E-4,-6.9262843,23.623875,-37.380592,0.0023761056,0.001199618,0.050935745,0.051172793,-0.15360716,9.764823,0
17,990.0074,2.8266365E-4,9.114632E-5,8.554877E-4,-6.8435097,24.175734,-37.810562,-0.0023480356,0.0011974722,0.03199768,0.044024616,-0.14407456,9.760091,0
17,989.997,8.150877E-4,6.2381173E-4,4.559248E-4,-6.833972,23.710367,-37.47686,0.006621003,-0.017804429,0.031998634,0.04154533,-0.1393058,9.774285,0
17,990.0026,-7.784899E-4,3.555278E-4,4.5435183E-4,-6.873131,23.989819,-37.564163,-0.002942305,-0.008685693,0.036746025,0.03905934,-0.14168671,9.774276,0
17,990.00256,-9.117701E-4,8.923173E-5,-2.1149023E-4,-6.9357147,22.9829,-37.341633,-0.007936232,0.02453284,0.03201008,0.04624176,-0.17266965,9.767176,0
17,990.0099,5.52845E-4,4.887254E-4,-3.4470056E-4,-6.972372,23.633589,-37.681995,0.015788615,-0.017914087,0.041484833,0.034304917,-0.15122041,9.769545,0
17,990.0099,5.52845E-4,4.887254E-4,-3.4470056E-4,-6.972372,23.633589,-37.681995,-0.007979143,-0.013107225,0.027280807,0.048657,-0.1488375,9.767179,0
17,989.99786,-1.1318903E-4,-3.1018257E-4,7.204582E-4,-7.114061,24.554295,-37.406097,-0.012766454,0.015208736,0.036743164,0.058229268,-0.15837091,9.7742815,0
17,989.995,-2.464691E-4,2.2246904E-4,1.8777413E-4,-6.834515,24.078657,-37.575314,-0.0033156723,-0.008319497,0.032013893,0.046292484,-0.14883807,9.7719145,0
17,990.0106,1.528825E-4,3.5564677E-4,-3.4491E-4,-6.487712,23.508009,-37.826317,0.0014106482,-0.008280143,0.027277946,0.04630515,-0.14883843,9.771916,0
17,990.02075,1.5276026E-4,7.5514044E-4,-3.449625E-4,-6.5736384,24.05955,-37.614395,0.010506112,-0.0035040677,0.06989002,0.039148152,-0.15360525,9.748245,0
17,989.9979,-1.1367774E-4,2.225285E-4,-3.4501476E-4,-6.658777,23.242369,-37.63044,0.0010693967,-0.008350164,0.046214104,0.04872039,-0.15122232,9.776653,0
17,989.9979,-1.1367774E-4,2.225285E-4,-3.4501476E-4,-6.658777,23.242369,-37.63044,-0.013386641,-0.017936066,0.050948143,0.041563362,-0.13930622,9.760083,0
17,990.0235,-3.802381E-4,-5.7637936E-4,3.206702E-4,-6.7556553,23.15146,-37.302258,-0.017905023,9.050667E-4,0.017799377,0.04874575,-0.14645633,9.779023,0
17,990.0259,-9.129922E-4,2.2258806E-4,-7.8855985E-5,-6.787342,23.332361,-37.07701,0.0010802485,-0.018080309,0.022535324,0.041588724,-0.14169016,9.767188,0
17,990.0259,-9.129922E-4,2.2258806E-4,-7.8855985E-5,-7.0040584,23.81449,-37.45674,7.8522414E-4,-0.022622138,0.032009125,0.05116102,-0.14407372,9.771922,0
17,990.01117,2.8530712E-4,3.5576583E-4,5.8688136E-4,-6.904816,24.170717,-37.338913,-0.003512919,-0.0038469732,0.055671692,0.055953503,-0.15122387,9.774291,0
17,989.98065,2.8518488E-4,-9.757937E-4,-3.4527658E-4,-6.9112024,23.53269,-37.454563,-0.01332204,0.00548698,0.04146576,0.058356047,-0.15360752,9.76719,0
17,989.98846,-5.138849E-4,0.0010215952,-3.4532897E-4,-7.0000353,24.187199,-37.787113,-0.017914947,7.8751147E-4,0.017792702,0.05119905,-0.15360776,9.776662,0
18,990.01117,-1.1453328E-4,-3.099644E-4,5.4092496E-5,-6.931691,23.355608,-37.671997,-0.008210029,-0.008627847,0.041464806,0.053601623,-0.15360808,9.755357,0
18,990.0136,-5.1412935E-4,8.9529276E-5,-7.91178E-5,-6.821934,23.616234,-37.396225,-0.003561642,9.843409E-4,0.04146576,0.060783982,-0.15122512,9.767194,0
18,989.9808,4.178541E-4,2.2270707E-4,3.2030363E-4,-7.010551,24.282804,-37.945053,0.0061931536,-0.00819087,0.0509367,0.051237077,-0.14884213,9.757728,0
18,990.0088,0.0012166796,-5.762208E-4,-0.001277644,-6.7278013,24.336332,-37.144928,0.001295384,0.0011410564,0.031996727,0.05363965,-0.15360907,9.767197,0
18,989.99603,-1.1502199E-4,-1.7672713E-4,-7.450646E-4,-6.5730953,23.69126,-37.515945,-0.01759404,-0.0033213198,0.00832653,0.058432132,-0.14884278,9.776667,0
18,990.0062,1.8013714E-5,2.227666E-4,-4.7880123E-4,-6.98259,24.361332,-37.41507,-0.012616489,-0.007963747,0.041466713,0.053665012,-0.14169323,9.7577305,0
18,989.9912,2.8420734E-4,-8.424771E-4,-2.1253762E-4,-6.7456827,23.424149,-37.242767,0.011533789,-0.017705262,0.050930023,0.044118077,-0.14407685,9.7695675,0
18,990.00397,-2.663629E-4,-5.8595353E-4,-4.99936E-5,-6.481464,24.040121,-37.01159,-0.0076070167,0.0013782978,0.05092907,0.060860097,-0.15122697,9.769568,0
18,990.0166,-3.996431E-4,7.9856014E-5,-1.8320393E-4,-6.4878497,23.402092,-37.12724,-0.003016431,-0.01294744,0.022483826,0.05408603,-0.14170355,9.786176,0
18,990.0141,3.9781886E-4,-4.5253453E-4,-3.1699854E-4,-6.9784603,23.627699,-37.372772,-0.017792173,0.001038909,0.008275032,0.056503862,-0.14408752,9.7719755,0
18,990.00397,-0.001066701,7.4469025E-4,6.1150175E-4,-6.8751955,24.356634,-37.58531,-0.008322213,0.0014396459,0.04615593,0.05175197,-0.15838793,9.769609,0
18,990.0193,-4.0118064E-4,6.11576E-4,-3.207192E-4,-6.946476,24.078934,-37.173157,-0.0034570545,0.0061820745,0.046152115,0.054169774,-0.15838858,9.769612,0
18,989.99677,7.9697167E-4,-5.4170006E-5,-7.203084E-4,-7.2635508,23.72915,-36.79589,0.0063179694,0.006052375,0.0414114,0.058977544,-0.15838924,9.779084,0
18,990.012,1.3091281E-4,-3.2044217E-4,-1.87792E-4,-6.9610147,23.801828,-37.000732,-0.017422765,0.015539393,0.06034565,0.06856507,-0.15362337,9.762515,0
18,990.0044,-2.51428E-6,-3.203985E-4,-8.5369707E-4,-6.6784253,23.329138,-37.324554,-0.017383046,-0.0032613724,0.022471428,0.05425358,-0.15362409,9.774354,0
18,989.99164,-2.7835486E-6,7.911909E-5,-7.206545E-4,-7.1756663,23.91714,-37.35932,0.0016557574,-0.013241619,0.04139805,0.04472193,-0.14885825,9.767256,0
18,990.00214,-4.027959E-4,7.920646E-5,-1.8825353E-4,-6.8978868,24.440454,-37.124813,-0.0032947995,-0.013329551,0.05086422,0.056699365,-0.1512421,9.769626,0
18,989.99164,3.9588247E-4,7.9250145E-5,3.4426284E-4,-6.652391,23.8804,-37.514793,-0.0032957122,-0.008666366,0.055595398,0.059117198,-0.15362611,9.764894,0
18,989.99164,3.9588247E-4,7.9250145E-5,3.4426284E-4,-6.652391,23.8804,-37.514793,-0.00328964,-0.008590952,0.03665638,0.061535,-0.15601012,9.776732,0
18,989.98694,-2.7044554E-4,6.119693E-4,-5.880735E-4,-6.729621,23.702723,-37.492496,-0.0032512955,0.010329112,0.027181625,0.05439326,-0.15601084,9.762532,0
18,990.0123,-1.3755675E-4,7.938127E-5,3.4391673E-4,-6.9618025,25.170547,-36.77276,0.0014220476,0.01018326,0.055583954,0.0496414,-0.17031118,9.753064,0
18,989.992,-1.3782602E-4,-5.8636465E-4,-4.551463E-4,-7.094413,24.467527,-37.71199,0.011039238,-0.018448532,0.046111107,0.049669325,-0.15124556,9.767271,0
18,990.0073,1.2822059E-4,-4.5316308E-4,-3.2210373E-4,-7.2595277,24.10186,-37.12626,0.0015967563,3.055036E-4,0.055571556,0.05208713,-0.15362957,9.776742,0
18,990.0097,-4.0468032E-4,-4.5311937E-4,-5.590325E-5,-6.833674,24.342503,-37.05199,-0.0125416815,0.0049738884,0.027160645,0.0568949,-0.15363029,9.769643,0
18,989.99725,-4.049496E-4,-3.1991772E-4,3.4345518E-4,-6.7863626,23.702126,-37.25276,0.0020190477,-0.009188592,0.046095848,0.042583406,-0.15839753,9.755443,0
19,990.0079,5.268867E-4,-7.1934785E-4,-3.224499E-4,-6.8725877,23.621529,-37.465714,0.0021343455,-0.008692667,0.046100616,0.04261133,-0.1512483,9.76018,0
19,990.00037,6.597754E-4,-7.193041E-4,7.690862E-5,-6.2636304,24.033674,-37.506683,0.016532395,-0.004040912,0.050828934,0.042639256,-0.14648244,9.767283,0
19,989.99976,1.268746E-4,7.454769E-4,-4.558385E-4,-6.6262493,23.325315,-37.33237,0.0116199255,-0.003916502,0.05556488,0.045057118,-0.1512497,9.764918,0
19,989.99976,1.268746E-4,7.454769E-4,-4.558385E-4,-6.6262493,23.325315,-37.33237,-0.002663765,-0.003961757,0.041358948,0.04986483,-0.15601698,9.764922,0
19,990.0079,3.9265206E-4,4.7924844E-4,7.656243E-5,-6.922262,23.996586,-37.71096,-0.0025716536,9.469539E-4,0.031887054,0.04033315,-0.15363434,9.76019,0
19,990.0002,-1.4024909E-4,-0.001251761,7.6447E-5,-6.985634,24.358385,-37.26046,0.016685609,-0.008559331,0.060292244,0.0379712,-0.15840158,9.750723,0
19,990.0029,1.2579752E-4,-5.3295902E-5,-9.889319E-4,-6.8757386,24.724924,-37.68376,0.01208692,9.769946E-4,0.055553436,0.045168817,-0.15363571,9.769664,0
19,990.018,1.2552826E-4,-7.1904185E-4,7.42006E-4,-6.7235336,23.708614,-37.801712,0.007288974,9.5555186E-4,0.046066284,0.047664583,-0.15840489,9.769673,0
19,990.018,1.2552826E-4,-7.1904185E-4,7.42006E-4,-6.963921,23.9048,-37.545197,-0.0025072992,-0.018145666,0.03186226,0.038215518,-0.14172468,9.767316,0
19,990.0131,1.269141E-4,2.1164454E-4,-4.596245E-4,-7.0437593,24.462233,-37.642498,0.0073182657,-0.01832676,0.01764965,0.043029547,-0.14887533,9.772054,0
19,990.0055,-9.390501E-4,-4.5403148E-4,2.058649E-4,-7.0021005,24.554016,-37.808258,0.011882417,0.01015687,0.05078602,0.03350416,-0.15602598,9.772058,0
19,989.9852,-4.0674803E-4,-1.8766205E-4,-6.0592312E-5,-7.005282,24.445154,-36.954567,0.021232966,-0.0091305375,0.05551529,0.043097973,-0.15602681,9.757857,0
19,989.9802,-2.739199E-4,7.870741E-5,-1.9389164E-4,-6.797422,24.166021,-37.509155,-0.012297053,0.0050290674,0.041306496,0.057471603,-0.16079423,9.776798,0
19,990.0082,2.5838194E-4,8.7770855E-4,-6.0875027E-5,-7.2925982,24.387205,-37.52278,0.0014256611,-0.0044049323,0.027104378,0.045556366,-0.14649537,9.764964,0
19,990.0286,-2.7457974E-4,3.4513036E-4,-1.9417441E-4,-6.8447328,24.806396,-37.30838,0.006253846,-0.0042528063,0.041306496,0.040810764,-0.14649627,9.760234,0
19,989.9878,-1.417515E-4,6.1149977E-4,-4.606315E-4,-6.816932,24.358706,-37.902348,-0.01770933,-0.004314095,0.06970978,0.057574272,-0.15603021,9.753135,0
19,990.01373,-8.923482E-6,7.8921556E-5,-8.602468E-4,-6.9035926,23.540054,-37.841087,0.020657897,-0.008997545,0.060237885,0.045659006,-0.15841433,9.757873,0
19,990.0259,5.233784E-4,-5.418282E-5,-7.2723016E-4,-6.8831034,23.717133,-37.623653,-0.0031558573,-0.004226014,0.046031,0.0576427,-0.14411548,9.7697115,0
19,990.0138,-4.090569E-4,-4.5360313E-4,7.157613E-5,-6.71522,23.873909,-36.965843,-0.0078206435,0.009838045,0.06969738,0.06006685,-0.15364942,9.764981,0
19,990.0188,-4.093867E-4,-1.8723364E-4,7.143474E-5,-6.6379895,24.051584,-36.98814,-0.008204497,-0.008716464,0.036561012,0.05293137,-0.14650041,9.764983,0
19,989.9783,6.220442E-4,4.2790093E-4,2.566083E-4,-6.600759,24.24487,-37.62106,0.010970697,-0.01821813,0.064964294,0.048185766,-0.1369681,9.760253,0
19,990.0138,-4.4075277E-5,6.9427036E-4,-2.761648E-4,-6.9554696,24.176012,-37.4084,0.0015078001,0.019518808,0.050750732,0.055389702,-0.16556838,9.772092,0
19,989.9963,-3.1072085E-4,-7.704135E-4,-2.7630624E-4,-6.65155,24.144247,-36.99147,0.0059047267,2.8316677E-4,0.050746918,0.045864344,-0.15365282,9.757892,0
19,990.01636,-3.1105065E-4,1.6174572E-4,-1.4328962E-4,-6.855142,23.79566,-37.09367,0.020164616,-0.004295692,0.046013832,0.045898527,-0.15127036,9.779199,0
19,989.9937,-1.7822263E-4,4.281152E-4,-1.0273012E-5,-6.798401,23.796259,-37.333397,0.005828213,-0.0041835904,0.03654194,0.04593277,-0.14650461,9.765,0
20,989.9813,2.205917E-4,5.613801E-4,6.55234E-4,-6.5134478,23.588884,-37.211205,-0.008743938,-0.0040356815,0.050745964,0.06269628,-0.15365532,9.765002,0
20,990.02167,-4.605422E-5,-1.0435599E-4,-8.096449E-4,-6.875196,24.356636,-37.58531,-0.0036775097,-0.013658926,0.05547428,0.060340583,-0.14888957,9.755537,0
20,989.98096,2.1993197E-4,-2.3746044E-4,-1.4399638E-4,-6.802286,23.529467,-37.702114,-0.01317995,-0.004003495,0.031801224,0.06754452,-0.14889047,9.776845,0
20,989.98096,2.1993197E-4,-2.3746044E-4,-1.4399638E-4,-6.802286,23.529467,-37.702114,0.0013433136,0.0055799633,0.074409485,0.055629194,-0.15365785,9.748441,0
20,990.01215,8.6114305E-5,0.001094226,-4.1059492E-4,-6.53266,24.413706,-37.179527,-0.01336341,-0.018143624,0.03653145,0.055663466,-0.13935897,9.76975,0
20,990.0373,8.578462E-5,2.95332E-4,7.8768516E-4,-6.5009737,24.232807,-37.404778,0.005767945,-0.013179511,0.046001434,0.050917864,-0.1536595,9.772119,0
20,990.00964,2.1861264E-4,-1.0408829E-4,-1.4456181E-4,-7.1917276,23.638565,-37.109596,-0.0038248748,-0.0084917545,0.06493282,0.06051171,-0.14651048,9.767388,0
20,990.0195,-1.8021229E-4,-1.0419365E-4,3.883481E-4,-6.7597857,23.885096,-37.34455,-0.0125174895,-0.0036519468,0.031867027,0.05494553,-0.15364102,9.774419,0
20,990.0045,-3.8482394E-5,2.9253788E-4,2.5510776E-4,-6.6007586,24.244867,-37.62106,-0.026690677,7.9859793E-4,0.027126312,0.062116504,-0.15125784,9.767317,0
20,990.01746,-3.0481038E-4,-7.7272364E-4,5.214184E-4,-6.475375,24.046015,-37.32081,-0.012019832,-0.008573025,0.036595345,0.06450766,-0.14172474,9.76495,0
20,990.0325,-1.7166443E-4,-7.7272154E-4,9.20887E-4,-6.6626086,24.60814,-37.247864,0.011848409,-0.008532912,0.046066284,0.03821999,-0.15364113,9.760215,0
20,990.02747,0.0010267445,2.6227994E-5,6.545658E-4,-6.7226925,23.972462,-37.278393,0.021620791,-0.008398294,0.060269356,0.043001056,-0.14649135,9.764949,0
20,989.9971,9.4626535E-5,8.2517765E-4,1.2192881E-4,-6.65155,24.144247,-36.99147,-0.0026615225,0.0013080537,0.031868935,0.05017203,-0.14887467,9.776785,0
20,990.025,-1.7170122E-4,-1.0692602E-4,-1.4439231E-4,-6.9791408,23.89007,-36.77215,-0.007408563,-0.008130595,0.027134895,0.057343006,-0.14410812,9.767317,0
20,990.0152,-9.706612E-4,0.0013578134,3.8823424E-4,-6.714103,24.349588,-37.840675,0.0015842803,-0.022429094,0.036605835,0.04539478,-0.14172485,9.757848,0
20,990.00507,4.940637E-4,1.5939385E-4,-1.4440279E-4,-6.8707666,24.255136,-37.11815,0.00649368,0.0011798292,0.046071053,0.05495566,-0.15364131,9.769685,0
20,990.00507,4.940637E-4,1.5939385E-4,-1.4440279E-4,-6.8409014,23.44063,-37.690964,0.011122204,0.005908236,0.05080509,0.052567005,-0.1584079,9.781521,0
20,990.0278,-1.7173789E-4,-1.0692002E-4,-4.107239E-4,-6.4306726,24.140745,-37.641174,-0.0035384037,0.0012496561,0.01766777,0.05017841,-0.15125808,9.772052,0
20,990.01764,9.456565E-5,8.251875E-4,-1.1255383E-5,-7.15754,23.828897,-37.587906,0.005838886,-0.0034382492,0.060278893,0.05256957,-0.15602463,9.762583,0
20,990.02795,9.455308E-5,5.5887364E-4,-1.1260563E-5,-6.6101885,23.603891,-37.5821,0.005584784,0.0064229667,0.031879425,0.047791064,-0.15840802,9.764951,0
20,990.0101,4.9401494E-4,2.9255974E-4,6.5452384E-4,-6.9249005,23.519432,-36.75882,0.00580607,-0.012513176,0.05555153,0.0430125,-0.15602475,9.764951,0
20,989.9901,6.271609E-4,2.9256172E-4,1.2188687E-4,-6.7402754,23.692411,-36.95136,8.651018E-4,0.006523758,0.05081749,0.059743106,-0.15602475,9.769685,0
20,990.00287,9.451641E-5,2.925637E-4,6.5451337E-4,-6.814026,24.255735,-37.35788,-0.013133779,-0.0029709786,0.03188038,0.054964542,-0.14410836,9.774419,0
20,990.0231,6.271362E-4,-0.0011721717,1.2187642E-4,-6.617661,23.702444,-37.894653,-0.01799722,-0.002617821,0.0271492,0.054965824,-0.15364161,9.767319,0
21,990.0155,4.939663E-4,5.5888353E-4,1.21871126E-4,-6.993542,23.718884,-37.298798,0.0059730075,0.0072140694,0.03188896,0.045407504,-0.15364161,9.764951,0
21,989.98804,-1.7183615E-4,-6.395359E-4,5.213397E-4,-7.062321,23.812418,-37.13971,0.0016075224,-0.002401054,0.0318861,0.043018878,-0.15125832,9.762584,0
21,990.0252,7.6025724E-4,-7.7269186E-4,-1.129735E-5,-6.7733455,23.977755,-37.347878,0.016285982,0.00722903,0.031885147,0.0430201,-0.15602487,9.783889,0
21,990.01324,7.6024537E-4,-0.0010390058,1.2185541E-4,-6.5861125,23.415628,-37.420822,0.016338848,0.0072250366,0.041353226,0.035851687,-0.15840825,9.779155,0
21,990.0131,-5.713465E-4,-1.06898195E-4,-1.1307828E-5,-6.709132,23.8798,-37.27506,-0.016903404,0.007530153,0.036622047,0.050192356,-0.16317484,9.760217,0
21,990.0157,7.602206E-4,-3.732121E-4,2.5500287E-4,-7.2004232,24.36778,-36.919975,0.011474244,-0.0024852008,0.036616325,0.045413792,-0.15125844,9.772054,0
21,990.00323,-0.0012371605,2.9257959E-4,1.21839694E-4,-6.812504,24.257206,-37.435184,0.016403928,-0.0120880455,0.0697546,0.040635318,-0.14410865,9.762585,0
21,990.0182,2.2756457E-4,-3.7320814E-4,1.218344E-4,-6.7332087,24.068068,-37.436333,0.0024511814,0.006816268,0.046078682,0.05258608,-0.16555825,9.772054,0
21,990.0438,-4.3823782E-4,-3.732061E-4,-4.1080266E-4,-6.7744317,24.714338,-37.544785,-0.0072170645,-0.0024204403,0.0223732,0.052972853,-0.14173493,9.77209,0
21,989.9985,2.8918564E-4,-7.963137E-4,-4.100136E-4,-6.501815,23.968958,-37.9281,-0.0028137192,-0.006732434,0.031850815,0.043429732,-0.1488851,9.764989,0
21,990.01855,5.535536E-4,2.9501389E-6,1.2178335E-4,-6.7623935,24.620203,-37.464146,0.0068252087,0.0028481781,0.046052933,0.038666397,-0.1536521,9.757889,0
21,990.0311,8.1955164E-4,-5.2962994E-4,-1.4466874E-4,-6.8536196,23.79713,-37.170975,0.021263842,-0.0016445369,0.046053886,0.033903062,-0.15365252,9.769727,0
21,990.01886,2.0445063E-5,-9.29078E-4,-5.442107E-4,-6.966529,24.63991,-37.664795,-0.0021194108,-0.011134967,0.05078411,0.050648898,-0.14650306,9.774463,0
21,990.01886,2.0445063E-5,-9.29078E-4,-5.442107E-4,-6.966529,24.63991,-37.664795,0.012069453,-0.010942832,0.050786972,0.04827547,-0.14888677,9.774465,0
21,990.0292,-0.0011782944,8.020268E-4,-4.1118904E-4,-6.997129,24.084229,-37.242645,-0.021680959,-0.006404549,0.036580086,0.06502128,-0.14650387,9.772098,0
21,990.0292,-0.0011782944,8.020268E-4,-4.1118904E-4,-6.997129,24.084229,-37.242645,-0.0074901804,0.0029625744,0.036577225,0.05069837,-0.1417377,9.7720995,0
21,990.00885,1.9809318E-5,-7.9581694E-4,5.2078033E-4,-6.751197,24.262224,-37.90683,0.016574178,0.012650028,0.064982414,0.04115525,-0.14888796,9.760265,0
21,990.0341,2.8596618E-4,0.0013347361,-4.1139335E-4,-7.1005006,24.461634,-37.402763,0.016214494,0.0077361614,0.046043396,0.045951545,-0.16080478,9.757899,0
21,990.0165,-5.1314034E-4,-2.6313344E-4,-1.1987664E-5,-7.0714226,25.01584,-37.747616,-0.0027715787,0.017031431,0.03183365,0.048357964,-0.1584219,9.762635,0
21,990.0165,-5.1314034E-4,-2.6313344E-4,-1.1987664E-5,-7.0714226,25.01584,-37.747616,0.00215156,-0.0020278096,0.05077076,0.048374444,-0.13935605,9.767371,0
21,990.02435,-5.132995E-4,-7.957394E-4,2.5426009E-4,-7.012754,24.543707,-37.26712,0.0024400912,-0.0018900186,0.022362709,0.048390925,-0.15603945,9.772107,0
21,990.03937,4.1848837E-4,4.0273368E-4,-5.448237E-4,-7.070337,24.27926,-37.550713,0.03550838,-0.0062505454,0.046042442,0.03406799,-0.15365654,9.77921,0
21,990.0165,2.851714E-4,6.6907535E-4,2.5405575E-4,-6.7422023,24.165146,-37.671585,0.006720323,-0.006410718,0.055506706,0.053203702,-0.15365696,9.767375,0
21,990.00885,6.8448635E-4,8.0225914E-4,3.8714558E-4,-6.664865,23.236479,-37.321224,0.0062800013,0.0032384992,0.046040535,0.041270673,-0.15127409,9.750807,0
21,990.00885,6.8448635E-4,8.0225914E-4,3.8714558E-4,-6.664865,23.236479,-37.321224,0.015733164,0.0031248927,0.050771713,0.046067,-0.16080758,9.776847,0
22,990.0345,5.510106E-4,-1.2979483E-4,-1.4562241E-4,-7.1286,24.27719,-37.233673,0.020604376,0.012756139,0.036566734,0.038913727,-0.16795787,9.776849,0
22,990.0345,5.510106E-4,-1.2979483E-4,-1.4562241E-4,-7.1231923,24.545456,-36.94227,0.001077462,-0.01601258,0.03183174,0.055659592,-0.14650872,9.786319,0
22,990.0219,-2.480961E-4,6.6917855E-4,5.200992E-4,-6.9454966,24.448698,-37.348907,-0.008091688,0.0028035939,0.031824112,0.055676043,-0.1512757,9.76975,0
22,990.03705,-5.1457086E-4,2.6973055E-4,-4.1207456E-4,-6.9749804,24.368696,-37.801594,0.006492052,-0.016177848,0.022353172,0.04852286,-0.13935968,9.77212,0
22,990.03705,1.7901737E-5,-0.001194981,-4.1214272E-4,-7.0064216,23.54917,-37.902763,-0.002819568,-0.011198297,0.031824112,0.041369617,-0.14412668,9.7626505,0
22,990.0397,-2.4857293E-4,-0.0011949552,-4.1221082E-4,-6.7290783,23.334433,-37.394043,0.011308547,-0.006575063,0.036553383,0.043776035,-0.15127692,9.776856,0
22,990.0397,1.507421E-4,1.3664998E-4,5.198267E-4,-6.708291,24.143648,-36.75174,0.01627158,-0.0018608123,0.05548954,0.048572302,-0.15366057,9.774491,0
22,990.0222,1.7425016E-5,5.361496E-4,-5.4550497E-4,-7.0953918,24.097761,-37.536232,0.001874283,-0.0067409426,0.036530495,0.048683614,-0.15604663,9.776868,0
22,990.01465,1.5042405E-4,-7.9540396E-4,-1.2941309E-5,-6.671496,23.598879,-37.110455,-0.007853791,0.0076910406,0.031796455,0.044020772,-0.15843275,9.765043,0
22,990.0452,-1.14716095E-4,4.011644E-4,-1.7282437E-5,-6.6664944,24.34135,-37.616577,0.00636648,-0.0018809438,0.022324562,0.03448525,-0.15128353,9.767412,0
22,990.04,-9.138958E-4,-1.3142971E-4,6.4840785E-4,-7.2253404,24.292196,-37.60457,0.015785288,-0.011425689,0.060198784,0.039289117,-0.14651754,9.760312,0
22,990.00726,8.169253E-4,-2.6454998E-4,3.8199252E-4,-6.991584,24.458408,-37.650314,0.0152658,-0.01140815,0.05072975,0.04648292,-0.14175159,9.776886,0
22,990.0124,1.774545E-5,5.344353E-4,-1.5073881E-4,-7.210259,24.201012,-37.67854,-0.009042274,0.012392029,0.03179264,0.053676695,-0.15843514,9.779255,0
22,990.03015,-3.819604E-4,0.0018660525,-4.1715428E-4,-6.975118,24.262781,-37.102516,-0.00903352,0.0025789738,0.027050018,0.04892099,-0.14890262,9.772155,0
22,990.0376,-9.148242E-4,-6.6391076E-4,5.148519E-4,-7.0177555,23.80123,-36.761,-0.009525724,-0.016180456,0.04125786,0.041775346,-0.14651993,9.76269,0
22,990.0376,5.496809E-4,6.6770636E-4,2.4843658E-4,-6.632445,24.425768,-37.395813,0.014030471,-0.006710857,0.060194016,0.039409548,-0.14652053,9.7650585,0
22,990.00464,-3.8265667E-4,0.0013335337,-1.7978746E-5,-6.798944,24.164549,-37.431854,0.009318072,-0.016174376,0.036520958,0.046603322,-0.14175454,9.7816305,0
22,990.0174,4.1605884E-4,1.9919826E-6,2.482377E-4,-7.1020226,24.460161,-37.325462,-0.004754983,0.021969885,0.027048111,0.053797066,-0.16082135,9.774531,0
22,990.0302,4.158267E-4,-2.6428618E-4,5.144541E-4,-6.9766397,24.261307,-37.025208,-0.013824455,0.0076821744,0.022309303,0.056211114,-0.16082191,9.774533,0
22,990.0177,1.4904668E-4,-3.973688E-4,2.4793914E-4,-6.837559,24.075708,-37.4207,-0.004250396,-0.020705536,0.064920425,0.056235194,-0.14413956,9.748496,0
22,989.9926,1.01691214E-4,1.6474818E-4,-1.8456331E-4,-7.187704,24.01127,-37.43996,0.010078944,0.0031227618,0.050714493,0.044309735,-0.1608231,9.767437,0
22,990.02527,7.672489E-4,8.305756E-4,-5.1504845E-5,-7.0667496,23.913916,-37.606873,0.0048675053,-0.006244719,0.055451393,0.053893447,-0.15844041,9.769806,0
22,990.02527,7.672489E-4,8.305756E-4,-5.1504845E-5,-7.0667496,23.913916,-37.606873,-0.018836677,-0.01093483,0.04124832,0.068256974,-0.1489079,9.769808,0
22,990.02783,-4.3163693E-4,8.3065097E-4,-4.511775E-4,-7.081832,24.005104,-37.532898,-0.023926392,-0.0063728243,0.012836456,0.058721423,-0.13699207,9.774545,0
23,990.02783,-4.3163693E-4,8.3065097E-4,-4.511775E-4,-7.081832,24.005104,-37.532898,-0.0095802285,0.0030359924,0.050706863,0.06113541,-0.15129235,9.762712,0
23,989.9953,1.0053055E-4,3.177869E-5,8.1255304E-5,-6.94191,24.083353,-37.405067,-8.2518905E-5,0.0029729456,0.06964111,0.058769584,-0.15367624,9.760345,0
23,990.0282,3.6661432E-4,2.9813225E-4,8.115565E-5,-7.1270776,24.278662,-37.310978,-0.0049479827,-0.0064478815,0.045968056,0.068353236,-0.14891025,9.762715,0
23,990.01544,7.658561E-4,3.185404E-5,3.4737206E-4,-7.0692506,23.54268,-37.35381,-0.024058335,-0.0013711601,0.050704956,0.07554707,-0.14176103,9.757983,0
23,990.0285,-1.6648149E-4,1.6504967E-4,-5.2201154E-5,-7.308659,24.10863,-37.27305,-0.0046699233,-0.0012631565,0.036499977,0.046892315,-0.15844455,9.757985,0
23,990.03107,2.327602E-4,1.650873E-4,-4.5177437E-4,-7.112432,23.449425,-37.11075,-0.009842437,-0.005920276,0.031767845,0.05169618,-0.14891204,9.760356,0
23,990.01556,4.9884396E-4,5.645989E-4,2.139158E-4,-6.986613,23.988623,-37.0847,0.0045305938,-0.010457575,0.055440903,0.061279893,-0.14652935,9.769826,0
23,990.01843,-3.4020064E-5,3.2004755E-5,-5.2499527E-5,-7.2012644,24.103931,-37.443295,-0.009691611,-0.0012917519,0.050697327,0.06608379,-0.14891323,9.767461,0
23,990.01843,-5.639376E-4,4.3103797E-4,8.182158E-5,-7.1478653,23.469446,-37.953285,-0.009277154,0.008279949,0.03657055,0.055720747,-0.14889348,9.767387,0
23,990.0136,-2.6409063E-5,2.9708512E-4,4.8339396E-4,-6.910522,23.270315,-38.05519,-0.028120182,0.008322284,0.041305542,0.07005128,-0.16080964,9.75555,0
23,990.0136,-2.6409063E-5,2.9708512E-4,4.8339396E-4,-6.910522,23.270315,-38.05519,3.9903075E-4,0.008185655,0.05077362,0.043753505,-0.14889312,9.750815,0
23,990.0133,-2.925538E-4,1.638994E-4,6.166253E-4,-6.818049,23.883024,-37.02751,0.010070771,0.008070037,0.04130459,0.046134472,-0.15842602,9.772119,0
23,990.02136,7.727954E-4,-0.0011676939,-9.812332E-4,-6.9729147,24.001879,-37.78045,8.913949E-4,-0.0012031496,0.04130745,0.050905406,-0.15127593,9.776853,0
23,990.02136,7.727954E-4,-0.0011676939,-9.812332E-4,-7.183819,24.278063,-37.07125,-0.008750983,-0.0011013597,0.04604435,0.06523594,-0.15604225,9.767383,0
23,990.0188,-2.6066802E-5,4.301875E-4,8.406691E-5,-7.0055804,23.813017,-37.37944,0.010140672,0.01312314,0.060248375,0.050887644,-0.15127546,9.760282,0
23,990.001,1.07176704E-4,1.638577E-4,-1.822123E-4,-7.097051,23.99037,-36.75985,-0.008691393,-0.020183146,0.046045303,0.05565858,-0.13697553,9.765014,0
23,990.00354,-2.922113E-4,3.06859E-5,-1.8217557E-4,-7.083897,24.371922,-37.554043,-0.008617286,0.0034206063,0.022370338,0.05325979,-0.15604165,9.769748,0
23,990.02637,-2.5809873E-5,-6.3511776E-4,3.5049283E-4,-6.821934,23.616232,-37.396225,-0.004003715,0.0033955276,0.050777435,0.058030725,-0.160808,9.772115,0
23,990.00867,1.07433516E-4,2.9697397E-4,-4.8944203E-5,-6.899708,23.806849,-37.472374,-0.004223183,0.013039589,0.0271101,0.048462212,-0.15842447,9.769746,0
23,990.02893,2.4067725E-4,9.627497E-4,-4.890762E-5,-6.7687798,23.982172,-37.579796,-0.018687084,-0.010626495,0.031847954,0.055623055,-0.13935798,9.767379,0
23,990.0038,-1.5871112E-4,-1.0252769E-4,6.169188E-4,-7.0774035,23.903605,-37.065735,6.679855E-4,-0.010329217,0.031852722,0.053224266,-0.15365744,9.769744,0
23,990.009,1.07690445E-4,2.9693224E-4,-7.1462383E-4,-7.0007157,24.449572,-37.186485,-0.00378282,-8.4513426E-4,0.060258865,0.06038505,-0.14889064,9.753173,0
23,989.9938,7.7356584E-4,-3.6887126E-4,-4.879755E-5,-6.562824,24.596079,-37.03158,9.4812736E-4,0.013272673,0.046052933,0.060376227,-0.15365708,9.774478,0
23,990.0093,-1.5845419E-4,-1.02569364E-4,3.5071291E-4,-7.1670775,24.294268,-37.921604,-0.008656092,-0.0011265129,0.022379875,0.050807714,-0.14889029,9.769742,0
23,989.9991,-4.246846E-4,2.9689056E-4,-1.8188209E-4,-6.820955,23.985994,-37.57198,-0.013683435,-0.010376528,0.036589622,0.04362911,-0.14650676,9.765008,0
24,990.0042,3.7434872E-4,3.056077E-5,8.447049E-5,-7.09387,24.099234,-37.613533,0.009919148,0.0036395937,0.0460577,0.036450565,-0.14888981,9.762638,0
24,990.017,-2.9135542E-4,9.6265244E-4,2.1766507E-4,-6.852641,24.166895,-37.34673,-0.0044711344,-9.6932054E-4,0.069732666,0.057950795,-0.15365613,9.762639,0
24,990.0123,3.7451996E-4,-1.0262495E-4,3.508597E-4,-6.78302,24.337208,-36.982506,-0.009347558,-0.010602593,0.031856537,0.06033179,-0.14888933,9.776841,0
24,990.0144,-2.9118417E-4,5.6315085E-4,8.8352815E-4,-6.656521,24.614035,-37.557083,-0.0140883885,0.008297071,0.0460577,0.055543125,-0.1512725,9.767371,0
24,990.0144,-1.5794057E-4,4.29979E-4,-4.8540678E-5,-6.378497,24.136923,-37.648994,-0.004517149,0.00821197,0.06972885,0.055534244,-0.16080537,9.762636,0
24,990.00714,-5.573289E-4,-2.3582457E-4,2.1781179E-4,-6.5827703,24.05071,-37.150562,-0.01438646,-0.010596305,0.03659439,0.05791527,-0.14650545,9.762635,0
24,989.9843,5.080203E-4,0.0010957409,3.5100646E-4,-6.762692,23.988066,-37.889015,-0.024286855,0.008276612,0.027126312,0.05790639,-0.15603834,9.762634,0
24,989.9971,3.750336E-4,0.001228871,3.5107977E-4,-7.0441957,23.724178,-37.36829,-0.015966296,0.008212745,0.04127693,0.05819586,-0.15366217,9.767395,0
24,989.9868,-8.2574354E-4,8.2883483E-4,8.1083126E-5,-6.7362523,24.06512,-37.281723,-0.011228912,0.003239438,0.031804085,0.053723633,-0.15843627,9.76979,0
24,990.0046,-3.001554E-4,-2.2739646E-4,6.559241E-5,-6.7051096,24.252512,-37.605427,-0.006682299,-0.006036654,0.0318079,0.051348984,-0.14175364,9.765058,0
24,990.01733,9.917174E-5,5.7157496E-4,-6.7628425E-5,-6.837016,23.707418,-37.32225,-0.0020934828,-0.010853171,0.06494713,0.046584368,-0.1489039,9.750855,0
24,990.0278,9.902494E-5,-4.9366464E-4,6.546665E-5,-7.130963,24.011871,-37.679695,-0.0016597584,0.012731135,0.0649395,0.05376929,-0.15605411,9.760325,0
24,990.00745,-5.669113E-4,-2.2732498E-4,-6.0038595E-4,-6.993542,23.718884,-37.298805,-0.0062572993,0.0078112334,0.04126358,0.056174397,-0.15843776,9.77453,0
24,990.00745,-1.6758443E-4,-6.26775E-4,-2.0097505E-4,-6.771824,23.97923,-37.42519,-0.025007192,-0.0064384937,0.0033845901,0.07052904,-0.1417552,9.788735,0
24,990.0126,-4.3404687E-4,-7.599091E-4,3.3159388E-4,-6.6605434,24.241323,-37.22672,-0.010763958,0.0030579716,0.031790733,0.046645224,-0.15605524,9.767432,0
24,990.0126,-4.3404687E-4,-7.599091E-4,3.3159388E-4,-6.6605434,24.241323,-37.22672,-0.020334434,0.0030926764,0.05072689,0.06099987,-0.15367231,9.755597,0
24,990.02246,9.8291406E-5,3.908619E-5,-2.0116364E-4,-6.937344,24.087772,-37.636986,-0.010366272,0.007927552,0.04125595,0.06818482,-0.14652285,9.781637,0
24,990.02246,9.8291406E-5,3.908619E-5,-2.0116364E-4,-6.937344,24.087772,-37.636986,-0.0150687285,-0.0110103935,0.031787872,0.06103033,-0.14890653,9.77217,0
24,990.0278,2.3115586E-4,-9.402414E-5,-6.8131456E-5,-6.6204066,24.331636,-37.31517,-0.024515755,0.008001089,0.04598713,0.07060516,-0.15605673,9.760335,0
24,990.0302,-3.53067E-5,1.723156E-4,1.9812153E-4,-6.9835687,23.991566,-37.23931,-7.111281E-4,0.008213699,0.045989037,0.04672134,-0.16797349,9.762704,0
24,990.01294,3.6402032E-4,3.918146E-5,-6.825721E-5,-7.3222194,24.201288,-37.27638,-5.2215904E-4,0.003264472,0.055452347,0.058686137,-0.15367422,9.753236,0
24,990.01294,3.6402032E-4,3.918146E-5,-6.825721E-5,-6.7009797,23.518877,-37.563133,0.009338811,-0.0016838461,0.055446625,0.051531613,-0.15367457,9.765075,0
24,990.0155,-8.345477E-4,-4.934265E-4,1.9799577E-4,-6.773208,24.083673,-38.04696,0.0043687373,0.00790599,0.027042389,0.049156904,-0.15844148,9.779279,0
24,990.0232,7.632009E-4,-9.3928866E-5,1.9793294E-4,-6.7060885,23.882748,-37.42967,-0.0149245,-0.0063499957,0.022306442,0.05156207,-0.151292,9.767444,0
25,990.0155,-3.0220943E-4,5.718846E-4,5.973439E-4,-6.608124,23.237076,-37.560955,-0.024495091,-0.015825048,0.036509514,0.0611369,-0.14890912,9.767446,0
25,990.05365,-3.0235623E-4,1.7243464E-4,3.309651E-4,-6.7000003,23.88864,-37.73889,-6.592274E-4,-0.010919422,0.050712585,0.0515925,-0.14414293,9.7698145,0
25,990.01294,2.3012896E-4,4.3877432E-4,-3.3488747E-4,-6.743587,24.26959,-38.293354,0.0038056523,0.0077259094,0.041238785,0.053997606,-0.158443,9.762713,0
25,989.9901,-3.63336E-5,4.3879813E-4,-6.863446E-5,-7.234335,24.389277,-37.839813,-0.010183182,0.012272984,0.036496162,0.05879265,-0.16082665,9.769817,0
25,990.01294,-4.3595422E-4,-4.932836E-4,-6.869735E-5,-6.3689604,23.671555,-37.315292,-0.029270511,0.0028529316,0.027029037,0.06836748,-0.14891061,9.767451,0
25,990.0257,-1.6978502E-4,3.9371975E-5,-6.0139206E-4,-6.56921,23.958052,-37.147232,-0.0055846646,0.007822648,0.03650093,0.054043233,-0.16082737,9.772187,0
25,989.998,-1.699317E-4,3.0571164E-4,-3.35139E-4,-6.7935367,24.432814,-37.14044,-0.010139443,0.007791117,0.03649807,0.049278677,-0.15606123,9.762719,0
25,989.9979,0.0010283429,-3.6005423E-4,4.637458E-4,-6.869788,24.6249,-37.293903,0.004390061,-0.0015938729,0.045967102,0.05646366,-0.15129504,9.774556,0
25,990.03613,-4.3654095E-4,-2.2687248E-4,-3.3526478E-4,-6.9630795,24.168646,-37.021877,-0.0100841485,0.0077974796,0.017561913,0.056415677,-0.1560604,9.786389,0
25,989.99286,7.6180906E-4,-9.370295E-5,6.4178515E-5,-7.204308,24.100985,-37.28868,-0.019496955,0.002813086,0.003353119,0.051648557,-0.1512942,9.776921,0
25,990.01324,-0.001632588,4.3826856E-4,6.239835E-5,-6.8285646,23.978632,-37.185455,-0.0052642263,-0.0067941397,0.055430412,0.05405116,-0.1536777,9.762719,0
25,990.01324,4.9781695E-4,-3.6065927E-4,5.9497776E-4,-6.8258195,23.349442,-37.76494,-5.9500337E-4,-0.011377946,0.045965195,0.05167392,-0.14652821,9.769821,0
25,990.00323,-3.012529E-4,4.3830814E-4,-6.03496E-4,-6.9358215,24.089243,-37.714294,0.00906435,0.022162959,0.045965195,0.061246276,-0.1751279,9.765088,0
25,990.0158,0.0011633621,4.3832805E-4,-7.367064E-4,-6.4948864,24.238699,-37.713997,0.0045244955,0.007938549,0.03649521,0.046919554,-0.1608285,9.767457,0
25,990.0514,-7.0109393E-4,-8.9321163E-4,6.213627E-5,-6.7341876,23.698303,-37.26058,-0.009483334,-0.0016738772,0.0317564,0.0493221,-0.14891246,9.757989,0
25,989.99585,0.0010298372,-9.424409E-5,-2.0423197E-4,-7.1048217,23.456787,-37.49727,-0.014075652,-0.0062104613,0.03175831,0.058894396,-0.14652947,9.757991,0
25,989.99585,0.0010298372,-9.424409E-5,-2.0423197E-4,-7.1048217,23.456787,-37.49727,-0.014255658,0.008006528,0.031757355,0.056517184,-0.16082945,9.760359,0
25,990.0463,7.6327694E-4,-9.4204435E-5,-8.701264E-4,-7.1119957,24.187475,-37.384956,0.009661004,-0.011008143,0.036489487,0.049360156,-0.15367997,9.769829,0
25,990.02856,3.636809E-4,-6.2681636E-4,-7.123113E-5,-7.0502834,23.718287,-37.059074,-0.0046275333,-0.005946532,0.031759262,0.054152608,-0.14414707,9.774564,0
25,990.0088,-5.6854694E-4,9.7109884E-4,3.281903E-4,-6.456271,24.32754,-37.725143,-0.014621232,0.0034837276,0.031759262,0.051775455,-0.14891401,9.757995,0
25,989.99615,-4.355119E-4,0.0012374346,-2.0449402E-4,-7.037947,24.256292,-36.553562,-0.010117136,-0.010759577,0.045963287,0.05178815,-0.1489143,9.765098,0
25,990.0113,9.699774E-5,4.385068E-4,-4.708623E-4,-6.954384,23.439432,-37.211502,-5.0000846E-4,0.003329277,0.060160637,0.054190725,-0.15844771,9.75563,0
25,990.0063,-3.6282436E-5,-9.410515E-5,1.9487503E-4,-7.2944183,23.753595,-37.870346,-5.762875E-4,0.0031721443,0.04121971,0.058983207,-0.15844807,9.7698345,0
25,990.0063,-3.6282436E-5,-9.410515E-5,1.9487503E-4,-7.2944183,23.753595,-37.870346,-0.0050354265,0.008063108,0.03648472,0.06138578,-0.15606508,9.769835,0
25,990.00903,2.1306424E-4,-6.285055E-4,1.1460489E-4,-6.5487213,24.13513,-36.929794,-0.009364568,0.008247852,0.022280693,0.051838845,-0.16083193,9.762735,0
26,990.01385,-5.860056E-4,4.367778E-4,2.4771047E-4,-6.9009314,24.43751,-36.9702,-0.0051018186,0.0029881448,0.05068016,0.047071755,-0.15129912,9.762736,0
26,990.01385,-5.860056E-4,4.367778E-4,2.4771047E-4,-6.9009314,24.43751,-36.9702,-0.009975877,0.012313753,0.031741142,0.044694543,-0.15606597,9.765104,0
26,989.9988,-4.529698E-4,9.694294E-4,5.1397394E-4,-6.927509,24.254541,-36.878418,-0.0100306645,-0.006634131,0.031742096,0.056656748,-0.14653322,9.77694,0
26,990.00385,-5.3740936E-5,-7.615841E-4,3.8071105E-4,-6.455728,23.959248,-37.626694,-0.00511365,-0.001726523,0.017537117,0.059059322,-0.14415023,9.784044,0
26,989.99646,7.929477E-5,9.694891E-4,-8.177628E-4,-6.9132676,23.899508,-37.475708,-0.0054086894,-0.01581198,0.031744003,0.04712248,-0.13938394,9.77221,0
26,989.99646,7.929477E-5,9.694891E-4,-8.177628E-4,-6.854025,24.27134,-37.968502,-0.019675836,0.003302589,0.050681114,0.06625438,-0.15845057,9.760375,0
26,990.0065,3.4548854E-4,-2.289126E-4,-4.1834122E-4,-7.4928484,24.673704,-37.354713,-0.005344022,-0.0065912157,0.06487751,0.061487257,-0.15606758,9.765111,0
26,989.99365,-3.204234E-4,5.700548E-4,3.8055395E-4,-6.6871214,24.058355,-37.134933,0.0039267316,-0.01623033,0.04593849,0.049550414,-0.1393849,9.765111,0
26,990.01917,-1.873877E-4,5.700747E-4,-1.5213017E-4,-6.6945934,24.156904,-37.447483,-0.020818159,0.016935304,0.02221775,0.06438464,-0.1584633,9.781728,0
26,990.0218,-5.859066E-4,3.6842794E-5,1.0978145E-4,-7.260912,24.206305,-37.748028,-0.0062675774,0.002669111,0.05062294,0.0620265,-0.15131423,9.760426,0
26,990.002,-1.88976E-4,7.030452E-4,-6.90256E-4,-7.105067,24.457216,-37.170853,0.0033517033,0.0126250535,0.055358887,0.05249864,-0.16799799,9.755694,0
26,990.0065,7.428234E-4,3.7305326E-5,7.7435013E-4,-7.503364,24.769308,-37.512657,-0.0063189566,-0.0018932223,0.01747799,0.047750533,-0.13701612,9.774635,0
26,990.00903,-1.8958765E-4,3.7354992E-5,5.0790317E-4,-6.8170695,24.25279,-37.20327,-0.011218753,0.0216268,0.055345535,0.06212169,-0.16084966,9.765168,0
26,990.00226,-4.5620924E-4,4.3687847E-4,-2.4859619E-5,-6.885604,23.345896,-37.37059,-0.010821432,0.0029556155,0.0269413,0.052593827,-0.15370062,9.765171,0
26,990.0199,2.092743E-4,-0.0010278092,6.4079894E-4,-6.99615,24.453993,-37.418396,-0.011126637,0.003362149,0.03168106,0.05023563,-0.15131816,9.767541,0
26,990.0071,0.0010079157,-9.5653995E-5,1.0803601E-4,-6.748833,24.527544,-37.460815,0.012719441,-0.0061356425,0.050614357,0.04787749,-0.15131888,9.769912,0
26,990.0222,-5.7653466E-5,8.365012E-4,3.7422086E-4,-6.8354945,23.708893,-37.399555,-0.0012724884,-0.011131614,0.050606728,0.062248647,-0.15131971,9.77465,0
26,990.01483,6.0783076E-4,-4.9502857E-4,1.0777393E-4,-6.6684523,23.60182,-37.26506,0.0037740245,-0.006339833,0.036397934,0.04794097,-0.14417061,9.779387,0
26,990.0397,-4.5773905E-4,-2.2866295E-4,2.408007E-4,-6.5957875,23.775082,-37.055443,-0.020520538,-0.0018693954,0.02218914,0.062312126,-0.1537045,9.767553,0
26,990.0124,-4.580451E-4,-9.545536E-5,1.075117E-4,-6.9730525,23.895964,-37.081367,-0.010286916,-0.006916955,0.031648636,0.055174112,-0.151322,9.767556,0
26,990.01215,-0.0013904567,1.7091015E-4,3.736965E-4,-7.0587344,23.447073,-37.19587,-0.010054659,-0.016570285,0.069517136,0.052815974,-0.14178964,9.760457,0
26,990.00214,-3.2549858E-4,-0.0019595674,5.067233E-4,-7.1973796,24.370726,-37.07458,-0.029218443,0.002423361,0.031641006,0.062407315,-0.15370688,9.772296,0
26,990.0046,7.3669304E-5,1.7100945E-4,5.065923E-4,-6.971531,23.897436,-37.158672,-0.0054885633,0.011643618,0.04109955,0.052879393,-0.165624,9.772299,0
26,990.0174,-5.9273274E-4,7.0374063E-4,-4.257755E-4,-6.646984,24.148664,-37.223385,-0.034190983,-0.002482459,0.03636551,0.072030365,-0.14655858,9.762834,1
27,990.0174,-5.9273274E-4,7.0374063E-4,-4.257755E-4,-6.646984,24.148664,-37.223385,-0.014890201,-0.002489984,0.07897186,0.057722688,-0.14655936,9.751,1
27,990.01013,7.2751485E-5,-3.6147333E-4,-1.5959077E-4,-6.7008185,24.045095,-36.439186,-0.009865142,-0.007018447,0.041096687,0.057754397,-0.14656013,9.758105,1
27,989.9794,7.382357E-4,-4.9458165E-4,9.055417E-4,-6.9561505,24.438387,-36.807777,-0.010134954,0.002869755,0.017427444,0.05539626,-0.1584773,9.779412,1
27,990.00244,-3.276397E-4,5.7078124E-4,3.7264777E-4,-6.788864,23.330889,-36.999702,-0.015139177,0.017115757,0.031627655,0.060207784,-0.16086134,9.77468,1
27,990.0079,7.152866E-5,3.0451498E-4,2.3935878E-4,-7.3435493,23.760363,-38.017136,-0.015098501,-0.0017813593,0.026892662,0.055459738,-0.15609562,9.76995,1
27,990.0079,7.152866E-5,3.0451498E-4,2.3935878E-4,-7.3435493,23.760363,-38.017136,-0.005493611,0.0030682683,0.045829773,0.057881355,-0.15132979,9.777054,1
27,990.02026,-1.9539945E-4,7.0408813E-4,-2.935352E-4,-6.8917994,24.446348,-37.43403,-0.010567404,0.003083393,0.050559998,0.060303003,-0.15609717,9.772323,1
27,990.02527,-1.957055E-4,8.372957E-4,-4.2682418E-4,-7.041534,24.621634,-36.4974,0.008253112,-0.0018593073,0.055291176,0.060334742,-0.15133137,9.760489,1
27,990.0053,3.3662078E-4,3.8397768E-5,1.05676445E-4,-7.095529,23.991844,-36.83715,-0.004442811,0.017075837,0.036467552,0.047751516,-0.16561553,9.767533,1
27,990.0053,3.3662078E-4,3.8397768E-5,1.05676445E-4,-7.095529,23.991844,-36.83715,0.014850952,-0.0066966563,0.03646946,0.04229814,-0.14176616,9.77694,1
27,990.00775,-8.5087033E-4,-2.2945006E-4,-6.8596436E-4,-6.254637,23.936596,-37.271435,-0.0039390177,-0.016297981,0.0459404,0.049446225,-0.13938233,9.762734,1
27,990.0104,-8.5066253E-4,-9.6325886E-5,-2.0085601E-5,-6.962399,23.906275,-37.622505,0.01518248,-0.0025316775,0.045933723,0.039865077,-0.15129822,9.776936,1
27,990.0104,-6.505822E-4,-4.897272E-4,-7.685106E-4,-7.071996,24.17187,-36.77433,6.906949E-4,-0.0033206493,0.0364542,0.058962762,-0.15368095,9.774567,1
27,989.9646,-0.0082403775,0.0017739241,6.963158E-4,-6.8024235,23.423548,-37.003033,0.02486172,9.761751E-5,0.03162384,0.039821953,-0.15129718,9.76983,1
27,989.9646,-0.0082403775,0.0017739241,6.963158E-4,-6.724352,23.865072,-36.502007,-0.10012705,0.12555541,-0.38559818,-0.18007058,0.23479447,10.018385,1
27,989.89124,-0.0929284,0.06489072,-0.2586952,-7.0981374,24.726954,-36.95675,0.18598466,0.3378486,-0.07374287,-0.06298691,-0.60411906,9.805335,1
27,989.89124,-0.0929284,0.06489072,-0.2586952,-6.975118,24.262781,-37.102516,-0.041268725,-0.037211806,0.01550293,0.19749081,-0.10601327,9.703544,1
27,989.9572,-0.07934609,0.12734176,-0.13685557,-6.9607162,24.433966,-36.57586,-0.1674298,-0.053771287,0.5711527,0.030176163,-0.30859146,9.320054,1
27,989.9875,-0.119293265,0.040789068,-0.1079602,-7.160967,24.720465,-36.4078,-0.011313453,-0.038278073,0.039034843,0.21417707,-0.48972002,10.259831,1
27,989.9853,-0.40025634,-0.25508788,-0.0027653468,-6.889436,24.711666,-36.988014,-0.17943904,-0.28518173,-0.40871048,0.09705025,-0.4325209,10.108329,1
27,989.9777,-0.38054872,0.0019068796,0.07073793,-7.3895607,25.822943,-35.74422,-0.0466215,0.039772272,0.15381908,0.116147935,-0.5850502,9.660926,1
27,990.0002,-0.7019918,-0.015403688,0.17460121,-6.9557986,26.703085,-35.63161,-0.3235978,0.5652411,0.24373055,0.20694268,-1.5407443,9.490485,1
27,990.0002,-0.65924793,-0.02778741,0.32613507,-6.916831,29.056623,-34.4666,-0.4904648,-0.21403575,-0.060100555,0.30251718,-1.1713357,9.734304,1
27,989.9803,-0.49160182,-0.02339323,0.29217985,-6.6686735,29.394026,-33.98569,-0.008254729,-0.4511758,-0.107769966,0.22123897,-1.0283384,9.781646,1
27,990.02094,-0.5199643,-0.041103266,0.29004937,-6.5570955,30.28826,-33.36235,0.71793896,0.22498429,0.13406181,-0.35952875,-2.1937609,9.575698,1
28,990.02094,-0.6196994,-0.046829093,0.2652821,-6.119746,30.803053,-33.305897,0.2589664,-0.16697645,0.14564514,-0.4694858,-1.9601994,9.492845,1
28,990.0437,-0.6376755,-0.020597015,0.1048269,-6.524951,31.265715,-32.03878,-0.1889717,0.2063067,-0.19408607,0.26419252,-2.4702203,9.578061,1
28,990.01843,-0.54979104,0.03772613,-0.15030363,-6.639657,31.895178,-31.05714,0.027712543,-0.06862545,0.09463596,0.06341922,-2.482136,9.466802,1
28,990.0108,-0.6974629,-0.004884445,-0.0046287556,-7.202335,33.2118,-30.662556,0.19950013,-0.2942202,0.07727051,-0.07999642,-2.6584983,9.301095,1
28,989.9929,-0.7378096,-0.0070150057,0.022801867,-6.4246535,34.04457,-29.522388,0.1036772,0.16421008,0.23874664,-0.063288674,-3.1875856,9.135388,1
28,990.0055,-0.64300096,0.033864446,-0.12393808,-6.801078,34.429302,-29.024986,-0.20310643,0.0062019825,0.020299911,0.18523955,-3.2447834,9.130652,1
28,989.9931,-0.52968335,-0.020064551,-0.24830751,-6.7830896,34.23514,-28.554493,-0.382837,-0.033998013,-0.19370747,0.5078548,-3.4378285,9.4952,1
28,989.9778,-0.7299525,0.03492961,0.23865125,-6.447131,36.287174,-27.18665,-0.08882068,0.04080963,0.5316706,0.18041667,-3.7953198,8.465465,1
28,990.001,-0.3408679,-0.17705737,0.42626947,-6.3721037,36.725754,-26.531013,0.21870053,-0.0028631687,0.027576447,-0.04097417,-3.8453903,8.967391,1
28,990.0438,-0.26111165,-0.13045122,0.30456087,-6.351178,37.64089,-26.587788,0.22333786,-0.11633563,-0.5266228,-0.23932207,-3.8811398,9.215949,1
28,990.0235,-0.5780277,-0.01313904,0.028391248,-6.4855323,38.35712,-25.30026,0.016615845,0.027205944,0.33930492,0.052259922,-4.1456833,8.89401,1
28,990.0134,-0.60772204,0.001774672,4.2802587E-4,-5.7498083,38.46597,-24.419205,0.040544726,0.028642178,0.16798782,0.035544574,-4.434061,8.43004,1
28,990.0134,-0.60772204,0.001774672,4.2802587E-4,-5.7498083,38.46597,-24.419205,-0.088439554,0.011086464,-0.26056767,0.19568193,-4.5937405,8.725942,1
28,990.0414,-0.3744296,-0.06586952,0.13864586,-6.2924333,39.221615,-23.532976,0.19504967,-0.017454624,0.6321554,0.0021138787,-4.6723895,8.063127,1
28,990.0719,0.15460676,-0.06453791,0.116008945,-6.2455044,39.47575,-22.708252,0.2664731,-0.77445436,-0.23984909,-0.16516536,-4.07657,8.683335,1
28,990.09467,0.4515488,-0.20821531,0.39670584,-5.8003006,38.997486,-23.364746,-0.3274431,0.44160557,0.28326035,0.22201273,-4.39593,8.569711,1
28,990.0341,0.5837745,-0.33378324,0.42280474,-5.295993,38.785137,-23.814953,0.30048746,-0.7307322,-0.7831402,0.0021556914,-4.1194696,9.123637,1
28,990.0567,0.4626007,0.103906944,0.16434512,-4.9143224,38.142452,-25.144896,0.21128514,0.21672606,0.4373436,0.188582,-3.8382435,8.534205,1
28,990.0567,0.4626007,0.103906944,0.16434512,-4.9143224,38.142452,-25.144896,-0.13379022,0.73011875,0.11105251,0.24356371,-4.2481675,9.44558,1
28,990.0617,0.630779,-0.40102795,-0.1871919,-5.4714026,37.09435,-25.536613,0.725837,1.5241876,-3.9886246,-0.49729198,-5.3826084,13.538474,1
28,990.227,1.6435782,0.67675245,0.6012361,-5.802657,35.152653,-27.83545,1.1956737,-1.7132562,-0.63420486,-1.2166384,-2.3320122,10.4114,1
28,990.09515,1.3496983,0.4899319,0.31321546,-4.8149886,33.39252,-30.502121,0.24503155,-0.11895847,0.47120667,-0.29890215,-2.1627998,10.484784,1
28,990.0871,0.79909015,0.7828795,0.18724798,-4.084695,32.8128,-31.735497,0.942453,0.28922582,-1.0181313,-1.1759822,-2.1032183,9.447951,1
28,990.0871,0.79909015,0.7828795,0.18724798,-3.4853287,32.057755,-32.861458,0.46868753,0.64563537,-1.0762501,-1.1664088,-2.501226,11.623411,1
28,990.0768,1.2001616,0.20177819,0.6771359,-1.8354197,30.389677,-33.556984,0.43421364,0.2377702,-0.015784264,-1.2237524,-1.597964,9.689408,1
29,990.0768,1.2001616,0.20177819,0.6771359,-1.0572715,28.80129,-34.89269,-0.08501583,0.05718279,-0.42844868,-0.93695015,-1.2571555,9.836177,1
29,989.94794,0.6772502,0.34492302,0.6580943,-0.96914244,27.988848,-35.78254,0.5507238,0.48083502,-0.2752247,-1.1066192,-1.1284589,10.491892,1
29,989.96497,0.7772517,-0.22379455,0.61721474,-0.8630247,26.982252,-36.2019,0.41684085,0.363905,0.24182987,-1.4627007,-0.742368,9.36984,1
29,989.9706,0.9552837,-0.32286403,0.57646835,-1.116888,25.744452,-37.399086,-0.54388857,0.6956632,-0.5120106,-0.08371335,-0.78050077,10.409043,1
29,989.9298,0.5471545,-0.34150612,0.72640413,-1.1261806,25.209394,-38.059204,0.6436105,0.60475934,-0.68734455,-0.95362365,-0.3395947,10.127347,1
29,989.9149,0.6181275,0.06768825,0.74717665,-0.1009922,23.482725,-38.039165,0.46198922,0.88461304,-1.1462431,-0.8388944,-0.13701633,10.449288,1
29,989.9222,0.8895033,-0.10914547,0.47553447,-0.14267349,22.970636,-39.696434,0.44407886,-0.34061188,2.5938568,-0.924917,1.1904694,7.5257936,1
29,989.9574,0.835441,0.09099091,0.44530755,-1.1445751,21.506285,-40.457153,-0.09036234,0.4225589,0.52406883,0.121874064,0.96405756,8.503449,1
29,989.9141,0.89829147,-1.7328733,0.23531744,-4.0148144,20.452188,-40.87699,0.05337125,1.0334252,1.0067759,0.2533326,-0.06075245,9.055009,1
29,989.9451,-0.026623745,-0.91421837,0.25342688,-4.647847,20.228308,-40.9973,-0.54502946,-0.68482757,2.024077,1.0133353,1.0379386,8.127068,1
29,989.93994,-0.7198441,-0.16081066,0.7825964,-4.7621174,21.595829,-40.289864,1.330893,2.5383606,-2.7693033,0.56643766,-1.0092981,11.377238,1
29,990.01843,0.031166535,-2.018364,0.5327921,-7.789265,21.447706,-39.66076,0.93508446,1.2103765,-0.03768444,1.1949958,0.30388814,8.742543,1
29,990.0367,0.6709903,-1.0987753,0.6944457,-9.4742565,21.029043,-39.761528,-0.42511296,-0.4397365,1.9529152,2.719767,1.8673184,7.8027644,1
29,990.0158,0.21585633,-0.826334,0.9445163,-10.25232,21.090782,-39.876198,1.171399,1.2955092,-0.91216946,2.0482187,-0.010705322,9.329612,1
29,989.9776,0.2845657,-1.772288,0.58432406,-12.707902,20.635305,-39.779083,0.6094718,0.9422598,-1.0223064,2.6839466,0.025043488,10.413792,1
29,989.935,0.14128761,-1.4176884,0.8422509,-14.324795,20.385479,-39.438328,0.11753321,-0.2658702,1.9307208,3.8860807,1.1642503,7.1872954,1
29,989.99536,0.62132186,-1.075073,1.0827342,-15.064924,20.79843,-38.963516,0.7131071,0.2882712,1.4630809,3.6232061,0.31103623,7.450056,1
29,989.89685,0.6271807,-1.640861,1.0358624,-16.689724,19.909101,-38.661102,0.8305912,1.2943038,0.34567022,4.93071,0.38014573,7.587375,1
29,989.8716,0.61546284,-1.3224809,1.4134951,-20.14183,21.41675,-36.831646,0.48958302,0.2884851,0.6811671,5.6715994,1.028397,7.097366,1
29,989.8716,0.61546284,-1.3224809,1.4134951,-20.14183,21.41675,-36.831646,0.81892204,0.98970866,1.0897408,5.602313,-0.16085953,6.6097236,1
29,989.9298,0.3370292,-1.0247396,1.3466495,-21.09827,21.837622,-35.939045,-0.7756047,-0.5609014,0.3525443,7.055393,0.6971202,6.903259,1
29,989.99084,0.4478164,-0.7871858,1.0361252,-21.435102,22.680952,-35.62855,-0.21014404,0.188396,0.5528426,7.0243444,0.6160883,6.5907903,1
29,989.9604,0.06831608,-0.34363672,0.6743349,-21.216427,22.93835,-35.600327,-0.5076761,-0.2635052,-0.53961563,7.2824745,0.24906293,7.402742,1
29,989.9931,-0.016905202,0.117622435,0.5508974,-20.98183,23.36841,-35.122753,0.31064796,0.5162572,-0.023542404,6.634831,-0.1036627,7.303322,1
29,989.98566,0.13023412,-0.048159167,0.55742204,-20.75663,24.369755,-35.67795,-0.7508917,-0.47957703,0.12094593,7.246666,0.039333507,7.1068454,1
30,989.968,0.3323677,-0.17865393,0.5205372,-20.002537,23.389938,-35.3519,-0.15883207,-0.26497927,0.4580269,7.3088236,0.49215585,6.5552897,1
30,989.996,0.13502742,0.15623833,0.3875124,-19.729187,24.01475,-35.58455,0.3813634,0.3182699,0.29846668,6.355273,-0.48498878,6.7707067,1
30,989.9527,0.19454883,-0.0036843237,0.52999127,-19.114141,24.43279,-35.934746,0.26188564,-0.41310486,1.0368261,6.6086226,0.14419624,6.245189,1
30,989.9498,0.20879655,-0.321266,0.4740649,-18.789051,24.31573,-35.901,1.0077991,-0.03301871,0.6541319,6.073305,-0.13464785,6.091323,1
30,989.9472,-0.07336533,-0.40009543,0.60655695,-18.994272,25.072012,-36.298553,1.3957214,0.7505969,-0.16338778,5.607294,-1.1141758,6.9080095,1
30,989.9472,-0.07336533,-0.40009543,0.60655695,-18.994272,25.072012,-36.298553,1.0976968,0.42811435,-0.028519154,6.0876846,-0.999779,6.5860715,1
30,989.94476,0.23422912,-0.5111491,1.0455784,-18.598423,26.021246,-34.952393,1.075037,0.45064962,0.95385647,6.099654,-1.3453548,5.7480845,1
30,989.9579,0.12810205,-0.60475916,1.1827309,-18.186129,26.354548,-34.881462,0.6505027,0.06468177,0.70343876,6.620673,-1.5026517,5.5965853,1
30,989.968,0.050470777,-0.8452424,1.213091,-18.253769,27.34406,-33.77417,0.72777605,-0.075173855,0.19409227,6.7832065,-1.5717673,5.878284,1
30,989.968,0.050470777,-0.8452424,1.213091,-17.80449,28.871069,-34.009743,0.5613251,0.06914544,0.4491043,6.816685,-2.1866536,5.6226277,1
30,990.0007,-0.023565235,-0.45588848,1.1675509,-16.917889,29.70062,-33.117126,0.59022856,-0.20569015,0.3081746,6.943371,-2.315351,5.5445123,1
30,989.99554,-0.21011971,-0.40715262,1.3220141,-15.955584,30.706373,-32.169495,0.23931646,0.108391285,-0.20131779,7.067665,-3.0803838,5.6652417,1
30,989.98065,-0.3310273,-0.64111114,1.3803371,-15.246108,32.476643,-31.843521,-0.731133,0.04591489,-0.44633484,7.896982,-3.4211934,5.859354,1
30,989.9931,-0.24700484,-0.48624837,1.2783382,-14.045616,33.547108,-30.47448,-1.6094575,-0.53902197,-0.26641035,8.726297,-3.4259603,5.7149568,1
30,989.96027,-0.14940026,-0.46800572,1.0951127,-13.357609,34.770542,-30.190178,-1.4671674,-0.06736326,-0.5530801,8.91034,-3.769153,5.56109,1
30,989.95496,-0.13342151,-0.44243932,0.8192094,-12.792812,34.71967,-29.812328,-1.3347244,-0.2161274,-0.43052673,8.602063,-4.126645,5.572928,1
30,989.95996,-0.09453958,-0.2550861,0.43811122,-12.576883,35.60626,-29.20462,-1.0943542,-0.26896048,-0.35785484,8.054891,-4.2529616,5.3551555,1
30,989.968,-0.14913453,-0.089038126,0.35169166,-11.880615,35.362423,-28.83574,-0.033614635,0.997797,-0.7675719,7.3165336,-5.220576,5.5374417,1
30,989.9625,-0.10159631,-0.12206184,0.31906518,-11.8320265,35.72394,-28.7874,-0.019079208,0.45030975,-0.036895752,7.1014705,-5.351657,5.2699504,1
30,989.95734,-0.09587148,-0.0906364,0.4379748,-10.957766,36.015484,-28.400288,-0.32151365,0.2770934,0.38284636,7.278351,-4.9441166,4.360947,1
30,989.9833,-0.035551198,-0.15708217,0.62759155,-10.573571,36.164345,-28.160263,-0.27590418,0.72087526,-0.056143284,7.134985,-5.759199,5.1302905,1
30,989.95013,0.4932187,-0.45042908,0.5737956,-9.198343,35.608456,-28.493622,-0.12647009,1.005146,-0.43144846,7.0107374,-5.9522448,5.246286,1
30,989.9395,0.5765753,-0.24283582,1.0206736,-8.432478,35.114628,-29.583542,-0.87562275,1.2506294,-1.2887855,7.221077,-6.3025875,6.309162,1
30,989.97015,0.7700535,-0.0092767235,1.2527678,-6.3529377,35.060326,-30.208748,-1.527576,-1.1115441,1.6338129,7.3573294,-4.7034082,5.127931,1
31,989.96796,1.1917645,0.7630394,1.2185462,-4.3819304,34.114735,-31.611908,-3.106245,-0.8796587,3.0340624,9.742479,-4.6652765,2.4103851,1
31,989.9476,0.8241148,-2.1445975,0.10481284,-8.1101265,32.047245,-32.995003,-1.2199688,0.9383421,1.2301953,8.554727,-5.656721,3.1016107,1
31,989.95044,-0.74342066,-0.2629424,-0.12102315,-8.485548,33.22204,-30.850334,0.6816678,0.7828455,-0.008298397,6.3703833,-6.2501583,4.768124,1
31,989.9681,-0.60613513,1.1963354,0.2656674,-6.6650634,33.820454,-31.088898,0.21862984,0.17434597,-0.59520245,6.0095367,-5.5685415,5.707906,1
31,989.9552,-0.01624572,-0.04562859,0.26074046,-5.9556413,33.958164,-31.514214,0.4944191,0.5032196,-2.1888208,6.155348,-5.8068695,6.96726,1
31,989.97845,0.07749721,0.2378647,0.14156397,-5.964093,33.686954,-31.651009,-1.0956607,-0.25936794,1.9762304,7.398125,-5.0918875,3.5419207,1
31,989.9606,-0.52957016,0.22215211,-0.07468465,-5.6553082,34.291744,-31.041122,-0.49340343,0.40235853,-1.7161212,7.087466,-5.957018,5.8759847,1
31,989.9606,-0.52957016,0.22215211,-0.07468465,-5.6553082,34.291744,-31.041122,0.0713954,-0.7569256,-1.5168624,5.9905286,-4.786829,6.4654207,1
31,989.9731,-0.19933867,0.94679767,-0.099052675,-4.552262,35.219288,-31.265373,0.05777216,-0.3083439,0.1439085,5.8877907,-4.922676,5.3575726,1
31,990.0693,0.39427882,1.1490647,-0.034204982,-1.0034137,33.69663,-32.723934,0.25065088,-0.521811,-1.250792,5.2855635,-4.8249626,6.640599,1
31,990.0414,1.1025457,0.35104918,4.1596842E-4,-0.48250198,33.39457,-33.325424,0.34070492,-1.8438661,2.7866037,5.233013,-3.6118746,5.0167003,1
31,989.996,0.26751193,0.09445388,0.1538138,-0.52598095,32.669174,-33.507225,-0.043148518,-1.203002,0.6420851,5.4433527,-3.1733518,4.510122,1
31,990.0565,-0.16285476,0.21855713,0.24436109,-0.040097237,31.912931,-34.153725,-0.023473263,0.017127514,-0.26471758,5.161372,-5.1395574,6.680849,1
31,990.0565,-0.16285476,0.21855713,0.24436109,-0.040097237,31.912931,-34.153725,-0.039648533,-0.3136611,0.058780193,5.1685696,-4.958429,6.7826414,1
31,990.0133,0.16218323,-0.284114,0.077247635,1.2335787,32.36806,-34.29964,-0.46836615,-0.2271204,0.60438347,5.663307,-4.903614,6.3541803,1
31,989.98285,0.23901509,-0.76414835,0.13490492,0.6317954,31.225225,-34.37099,-0.16435814,-0.4741006,-0.19824362,5.813899,-4.724869,6.162439,1
31,989.98285,0.23901509,-0.76414835,0.13490492,0.6317954,31.225225,-34.37099,0.19924927,-0.15770054,-0.035551548,5.4793406,-5.0108633,5.9659643,1
31,989.9604,-0.05153476,-0.19622986,0.21280263,-0.87933064,32.075573,-34.495827,-0.11227894,0.68509865,-0.5062165,5.686187,-5.7568026,6.3966966,1
31,989.9604,-0.05153476,-0.19622986,0.21280263,-0.765007,32.34061,-34.451965,0.33141136,-0.8398695,0.4748721,5.363534,-4.5508637,5.954028,1
31,989.95483,0.121047124,-0.27106613,0.17299235,-1.48633,32.40295,-34.806366,-0.42654943,0.5673504,-0.325531,5.8414974,-5.25393,6.278333,1
31,989.9727,0.25473785,-0.56015205,0.055014484,-1.8760691,31.879911,-34.638718,0.45355034,0.20866251,-0.12007475,5.482996,-5.37786,6.290168,1
31,989.9731,0.06112636,0.025876045,0.14676037,-1.4013824,31.48165,-34.84253,-0.52187204,0.22406292,0.2057333,5.9872484,-5.4874907,5.935086,1
31,990.01843,0.12917022,-0.017133998,0.101220414,-1.713892,31.13629,-34.69718,0.059351444,0.29647923,-0.48596,5.860567,-5.406459,6.775441,1
31,989.9879,0.024508245,-0.3984984,0.0812468,-1.8743029,30.88096,-35.042446,-0.15754366,0.1681552,0.07157278,6.006335,-5.239629,5.975325,1
31,989.9981,-0.026491089,-0.42699423,-0.04685107,-3.4452143,31.727766,-34.77294,0.11278963,0.83017826,-0.36738634,5.7912273,-5.964145,6.1647,1
