Timestamp,P,Gx,Gy,Gz,Mx,My,Mz,LiAx,LiAy,LiAz,Ax,Ay,Az,earthAx,earthAy,earthAz,Value,Type
0,985.5523681640625,-4.619860555976629E-4,-0.0022729234769940376,-2.9479461954906583E-4,-2.0012664794921875,21.632949829101562,-36.76876449584961,0.004771225154399872,0.013625562191009521,0.07629203796386719,0.050575137,-0.15641166,9.762963,-0.19298145,-3.7555475,9.011165,0
0,985.5732421875,3.3660727785900235E-4,0.005450294818729162,-4.281044821254909E-4,-5.795526504516602,22.189010620117188,-36.37058639526367,0.40468111634254456,0.6281486749649048,0.02539825439453125,0.062489092,-0.13496126,9.760593,-0.51245844,-0.5452285,9.733007,0
0,985.5732421875,0.005739946849644184,0.004363001324236393,-2.0854338072240353E-4,-5.830257415771484,22.366966247558594,-35.990726470947266,0.4091259837150574,0.6415479183197021,-0.0029401779174804688,0.06006369,-0.15164335,9.781895,-0.5084137,-0.5702764,9.753376,0
0,985.4319458007812,5.471298354677856E-4,-2.975821844302118E-4,-4.747124621644616E-4,-5.421849250793457,22.433475494384766,-36.288509368896484,0.4226323962211609,0.6264824271202087,0.035017967224121094,0.052858472,-0.14687593,9.753485,-0.5090137,-0.5656103,9.72501,0
0,985.4721069335938,0.0010801040334627032,-8.302695350721478E-4,-7.509184069931507E-5,-5.3339643478393555,22.6214599609375,-36.8519401550293,0.39817094802856445,0.6445902585983276,0.016160011291503906,0.07194209,-0.15402485,9.770052,-0.50896966,-0.5597782,9.742198,0
0,985.4976196289062,6.80972880218178E-4,-1.6453544958494604E-4,-0.0010070506250485778,-6.240998268127441,23.247398376464844,-37.21070098876953,0.41214579343795776,0.6484369039535522,0.020963668823242188,0.05756712,-0.15402405,9.772416,-0.51828116,-0.56061906,9.743934,0
0,985.4853515625,9.476311970502138E-4,-5.640648887492716E-4,-2.0795618183910847E-4,-5.965177536010742,23.03118896484375,-36.62467956542969,0.42093923687934875,0.6424762606620789,0.016330718994140625,0.06231141,-0.15878971,9.767679,-0.5120621,-0.56586385,9.739316,0
0,985.5054321289062,-7.830794202163815E-4,-5.641205352731049E-4,-0.001406230847351253,-5.77503776550293,22.36609649658203,-36.15315628051758,0.43435847759246826,0.641030490398407,0.030655860900878906,0.055106193,-0.14925571,9.770042,-0.52307,-0.54796237,9.74193,0
0,985.5156860351562,2.825265401042998E-4,5.010874010622501E-4,3.2496912172064185E-4,-6.039799690246582,22.118408203125,-36.482784271240234,0.40957093238830566,0.6206815242767334,0.01656341552734375,0.06702018,-0.13972177,9.762938,-0.5077079,-0.5397508,9.736009,0
0,985.4976196289062,-3.8292049430310726E-4,9.005055762827396E-4,5.880009848624468E-5,-6.090996742248535,22.491989135742188,-36.650726318359375,0.4136328101158142,0.638349711894989,0.016672134399414062,0.066984594,-0.1564038,9.7582,-0.50132674,-0.56203794,9.730581,0
0,985.507080078125,1.6895763110369444E-5,-4.31129417847842E-4,3.252627211622894E-4,-5.739328384399414,22.557899475097656,-36.70877456665039,0.42728498578071594,0.6561306118965149,0.016773223876953125,0.05499953,-0.16593607,9.7724,-0.5136431,-0.5697263,9.743816,0
0,985.504638671875,-5.153933889232576E-4,-6.975008873268962E-4,-3.4038012381643057E-4,-5.728675842285156,22.568214416503906,-37.249908447265625,0.407128244638443,0.6360273957252502,0.031083106994628906,0.057353914,-0.1540188,9.758194,-0.5155417,-0.5494254,9.730453,0
0,985.4873657226562,1.758092548698187E-5,1.0139112418983132E-4,-2.0707538351416588E-4,-6.011700630187988,22.30284881591797,-36.651878356933594,0.41124916076660156,0.6206038594245911,0.031174659729003906,0.06448808,-0.14925133,9.762924,-0.51158077,-0.5409853,9.735849,0
0,985.5018920898438,0.0010831869440153241,5.008094594813883E-4,-7.377064321190119E-5,-6.262604713439941,22.594642639160156,-36.55330276489258,0.39622294902801514,0.6334802508354187,0.026548385620117188,0.06684244,-0.15163375,9.762921,-0.49529535,-0.55479646,9.735963,0
0,985.4972534179688,1.8265913240611553E-5,-2.9819385963492095E-4,-3.3993960823863745E-4,-5.7073445320129395,23.009132385253906,-36.509151458740234,0.4095277488231659,0.6181330680847168,0.0029802322387695312,0.054857373,-0.15163286,9.7676525,-0.5056826,-0.55264926,9.740223,0
0,985.4764404296875,5.51240227650851E-4,-1.6509153647348285E-4,-2.0663498435169458E-4,-5.659054279327393,22.738525390625,-36.88568115234375,0.40401700139045715,0.6218165755271912,0.007808685302734375,0.059601694,-0.151632,9.777118,-0.5045464,-0.54923904,9.749991,0
0,985.476318359375,4.1842478094622493E-4,5.006425199098885E-4,-2.0648830104619265E-4,-5.781668663024902,22.72848892211914,-35.942386627197266,0.4077390730381012,0.6206181049346924,0.036327362060546875,0.069188714,-0.14209963,9.765285,-0.4972537,-0.5347875,9.739226,0
0,985.5243530273438,2.8560939244925976E-4,7.669028709642589E-4,1.931323786266148E-4,-6.0674638748168945,22.672016143798828,-36.5879020690918,0.40170180797576904,0.6099991202354431,0.0316925048828125,0.062050283,-0.14210041,9.755819,-0.5007422,-0.533876,9.729557,0
0,985.5135498046875,2.8280590777285397E-4,-2.911098999902606E-5,3.2795045990496874E-4,-6.016810417175293,22.66672134399414,-36.51841354370117,0.4154377281665802,0.6133862137794495,0.031792640686035156,0.050070345,-0.14448296,9.758183,-0.51308733,-0.5321534,9.731344,0
0,985.4886474609375,1.4994133380241692E-4,-2.915864752139896E-5,-2.045556902885437E-4,-5.998385429382324,23.210617065429688,-36.32212448120117,0.40461456775665283,0.6119019985198975,0.031928062438964844,0.05720955,-0.13733228,9.762915,-0.50158346,-0.52721715,9.736894,0
0,985.4961547851562,-6.487129721790552E-4,-1.6236421652138233E-4,1.95043976418674E-4,-5.973085403442383,22.391685485839844,-36.66302490234375,0.3992767035961151,0.6104069352149963,0.00362396240234375,0.06912869,-0.15163125,9.76528,-0.49371865,-0.5400969,9.739251,0
0,985.4784545898438,-2.4894587113521993E-4,2.3706204956397414E-4,-6.037779385223985E-4,-6.359344482421875,22.609649658203125,-36.924198150634766,0.39824792742729187,0.6137920022010803,0.03214836120605469,0.06192857,-0.14686398,9.765276,-0.50580835,-0.52623725,9.739264,0
0,985.478271484375,1.508212590124458E-4,-4.287753254175186E-4,3.2845325767993927E-4,-5.830662727355957,22.841171264648438,-36.78825759887695,0.41204798221588135,0.6123062968254089,0.04171943664550781,0.05233848,-0.15162976,9.760538,-0.50320864,-0.53885317,9.7339735,0
0,985.4805908203125,2.842726244125515E-4,-2.9349102987907827E-5,-7.089483551681042E-5,-5.783351421356201,22.20079803466797,-36.98903274536133,0.4060768187046051,0.6156179308891296,0.0134429931640625,0.049918175,-0.15401222,9.760536,-0.5057193,-0.5384735,9.733888,0
0,985.4756469726562,-5.143816815689206E-4,3.700770903378725E-4,-0.0010028746910393238,-5.84520149230957,22.564071655273438,-36.6158332824707,0.395577609539032,0.6188098192214966,0.0040950775146484375,0.052277625,-0.14924498,9.770002,-0.50244886,-0.5326453,9.74381,0
1,985.4908447265625,2.8485918301157653E-4,-4.289182252250612E-4,1.956725027412176E-4,-6.017352104187012,23.035011291503906,-36.61686325073242,0.4089047908782959,0.6177030801773071,0.027872085571289062,0.04985732,-0.15639402,9.76053,-0.5063405,-0.5360869,9.734019,0
1,985.483154296875,8.177843410521746E-4,6.362977437674999E-4,-7.051764987409115E-5,-5.642587661743164,22.542892456054688,-36.3378791809082,0.40311989188194275,0.6021275520324707,0.03271675109863281,0.059386462,-0.14686014,9.769997,-0.488891,-0.5329507,9.74448,0
1,985.4903564453125,1.9130035070702434E-5,-2.9585548327304423E-4,1.959239598363638E-4,-5.800636291503906,22.55288314819336,-36.23712921142578,0.3973502218723297,0.6099957823753357,0.03758049011230469,0.05218637,-0.16115911,9.755791,-0.49987108,-0.54053396,9.729445,0
1,985.51611328125,2.8573928284458816E-4,2.367286360822618E-4,-7.360558956861496E-4,-5.889766693115234,22.57525634765625,-36.994544982910156,0.41058236360549927,0.6132822036743164,0.009298324584960938,0.04498619,-0.15400852,9.772358,-0.5063352,-0.5306541,9.746115,0
1,985.5056762695312,-6.46072905510664E-4,-5.622665630653501E-4,-3.3645634539425373E-4,-6.012786388397217,23.0394287109375,-36.84878158569336,0.3955862820148468,0.606665849685669,0.014153480529785156,0.059295177,-0.14447464,9.760519,-0.49014533,-0.52051204,9.735551,0
1,985.5051879882812,-3.794636868406087E-4,-2.9599835397675633E-4,5.957749672234058E-4,-6.19741153717041,22.86644744873047,-36.6562385559082,0.40895044803619385,0.6099461317062378,0.028474807739257812,0.044925332,-0.15162374,9.767618,-0.50937194,-0.5194523,9.74177,0
1,985.5205688476562,-5.123283481225371E-4,3.697437350638211E-4,-3.362050047144294E-4,-5.8273210525512695,23.47625732421875,-36.51799774169922,0.3841162621974945,0.5937495827674866,0.019141197204589844,0.06401411,-0.1468565,9.767616,-0.47905123,-0.5253136,9.743027,0
1,985.469482421875,-5.120352143421769E-4,9.023279417306185E-4,-6.976339500397444E-5,-5.693241596221924,22.548187255859375,-36.40736770629883,0.39687302708625793,0.606427013874054,0.033496856689453125,0.044864446,-0.15877207,9.75341,-0.49792224,-0.5314232,9.727585,0
1,985.5205688476562,4.0841716690920293E-4,5.773028242401779E-4,3.527471562847495E-4,-5.749845504760742,22.653507232666016,-36.86671447753906,0.39099419116973877,0.6047728061676025,0.014689445495605469,0.061563373,-0.1516215,9.769978,-0.48021305,-0.52594745,9.745359,0
1,985.4771728515625,1.4239459414966404E-4,1.7778138862922788E-4,4.860307089984417E-4,-5.58530330657959,22.175193786621094,-36.479164123535156,0.3851045072078705,0.5937604904174805,0.014813423156738281,0.061532915,-0.14447097,9.758139,-0.4758359,-0.5183379,9.734004,0
1,985.5076293945312,-5.231017712503672E-4,-7.543718675151467E-4,-3.1279120594263077E-4,-5.3952717781066895,22.61644744873047,-36.38029479980469,0.3986620604991913,0.6019125580787659,0.01491546630859375,0.05672264,-0.1563866,9.772339,-0.47682366,-0.5334847,9.747529,0
1,985.4769897460938,0.0014745607040822506,3.1084404326975346E-4,-4.634959623217583E-5,-5.6705498695373535,22.464366912841797,-36.86787033081055,0.3879115581512451,0.5720961093902588,0.048171043395996094,0.05908212,-0.13255303,9.753398,-0.4847301,-0.49315155,9.729938,0
1,985.4647827148438,4.095904587302357E-4,7.10270251147449E-4,-1.793819246813655E-4,-5.834983825683594,21.836326599121094,-36.88276290893555,0.390921950340271,0.5836389660835266,0.019975662231445312,0.054271877,-0.14923526,9.762865,-0.48576683,-0.51138854,9.738648,0
1,985.4647827148438,4.095904587302357E-4,7.10270251147449E-4,-1.793819246813655E-4,-5.834983825683594,21.836326599121094,-36.88276290893555,0.4001743793487549,0.5875666737556458,0.010560035705566406,0.03990203,-0.14685129,9.774698,-0.50116694,-0.50466937,9.749976,0
1,985.4896850585938,-9.216954931616783E-4,-2.2188288858160377E-4,8.705980144441128E-5,-6.046293258666992,22.58672332763672,-36.97109603881836,0.4035254418849945,0.5998384356498718,0.015455245971679688,0.04465142,-0.151617,9.767593,-0.4994039,-0.50407225,9.743067,0
1,985.48779296875,1.070337020792067E-5,5.770170828327537E-4,8.718552999198437E-5,-6.068739891052246,21.67011260986328,-36.83701705932617,0.37855127453804016,0.5792567729949951,0.04398155212402344,0.0661301,-0.14208318,9.7581215,-0.4663597,-0.5049553,9.735145,0
1,985.4667358398438,-9.211087599396706E-4,1.7749564722180367E-4,-4.5846798457205296E-5,-5.834548473358154,22.574382781982422,-37.1569709777832,0.3866795599460602,0.5966584086418152,0.020453453063964844,0.06340718,-0.15875797,9.769928,-0.46680942,-0.52349544,9.746216,0
1,985.4822387695312,1.4444804401136935E-4,5.769219133071601E-4,8.743698708713055E-5,-5.5731282234191895,22.18698501586914,-37.097599029541016,0.3817250728607178,0.5805097222328186,0.04903697967529297,0.060666233,-0.15874936,9.760426,-0.47077584,-0.5184449,9.736755,0
1,985.4920043945312,1.4024783740751445E-4,5.165718903299421E-5,9.551376570016146E-5,-5.698648929595947,22.279922485351562,-36.69877624511719,0.38003966212272644,0.5931874513626099,0.025519371032714844,0.058221728,-0.16113128,9.767523,-0.47372276,-0.51773554,9.743788,0
1,985.4918212890625,-3.890219668392092E-4,0.001116375089623034,2.3011257871985435E-4,-5.919794082641602,22.863544464111328,-37.54567337036133,0.38355007767677307,0.596211314201355,0.030394554138183594,0.043827772,-0.15398012,9.762784,-0.4829635,-0.50835115,9.738887,0
1,985.4766845703125,2.772939915303141E-4,3.1734182266518474E-4,3.634961321949959E-4,-5.749845504760742,22.65350341796875,-36.86671447753906,0.38270267844200134,0.5897429585456848,0.02577972412109375,0.06050247,-0.1492122,9.76988,-0.47089565,-0.49965644,9.747055,0
1,985.47900390625,-5.211277166381478E-4,5.094062362331897E-5,4.968794528394938E-4,-6.0047712326049805,22.572586059570312,-36.43777847290039,0.37637558579444885,0.5691694021224976,0.03065776824951172,0.058057994,-0.14206107,9.772242,-0.47132152,-0.4901063,9.749765,0
1,985.5000610351562,9.441357105970383E-4,7.166449795477092E-4,-3.0184269417077303E-4,-6.166268825531006,23.05384063720703,-36.97993850708008,0.3895071744918823,0.5629830956459045,0.04498291015625,0.038884223,-0.13729315,9.7533,-0.48356596,-0.4834019,9.73035,0
1,985.5026245117188,2.788720594253391E-4,7.165594724938273E-4,-1.6845937352627516E-4,-5.907893180847168,22.663497924804688,-36.76596450805664,0.38369235396385193,0.5613012909889221,0.035640716552734375,0.048389256,-0.13729183,9.746193,-0.46709865,-0.48858458,9.723816,0
1,985.4793701171875,9.451877558603883E-4,-3.487893845885992E-4,2.3123982828110456E-4,-5.725332736968994,23.203292846679688,-36.97964859008789,0.3730405569076538,0.5735004544258118,0.021581649780273438,0.053114474,-0.14920683,9.765125,-0.4715549,-0.49266118,9.742571,0
2,985.4894409179688,-9.184972150251269E-4,1.8375694344285876E-4,9.830738417804241E-5,-5.982080459594727,22.488765716552734,-36.89827346801758,0.38153842091560364,0.5570513010025024,0.021728515625,0.050669968,-0.14205573,9.7698555,-0.47375345,-0.48119232,9.747658,0
2,985.46142578125,-0.0011842873645946383,-2.1580221073236316E-4,7.64322467148304E-4,-6.074392318725586,22.40227508544922,-36.802005767822266,0.36631518602371216,0.5647358894348145,0.03132438659667969,0.067344725,-0.14443763,9.762749,-0.44897726,-0.49142718,9.741334,0
2,985.5047607421875,-7.842873455956578E-4,-3.490455565042794E-4,6.313900230452418E-4,-5.6503586769104,22.009307861328125,-37.0753059387207,0.36980482935905457,0.5680162906646729,0.045654296875,0.05295074,-0.15396936,9.762743,-0.46576312,-0.49472177,9.740429,0
2,985.4515380859375,0.0012136077275499701,5.82974636927247E-4,8.979313424788415E-4,-5.969605445861816,23.13268280029297,-37.09184265136719,0.3824196755886078,0.5613189339637756,0.017412185668945312,0.04572642,-0.15158479,9.765106,-0.47416303,-0.48606136,9.742756,0
2,985.4918212890625,-1.1691954568959773E-4,4.496458568610251E-4,-1.6688136383891106E-4,-6.253472328186035,22.603477478027344,-37.01713180541992,0.357403427362442,0.5737724900245667,0.022278785705566406,0.062401235,-0.16111653,9.767468,-0.46222988,-0.49315593,9.745585,0
2,985.5177001953125,-5.158674903213978E-4,4.4956046622246504E-4,4.991337773390114E-4,-6.136242866516113,22.765548706054688,-36.42880630493164,0.379900187253952,0.5716938376426697,0.031905174255371094,0.043227434,-0.1539654,9.762728,-0.47550148,-0.48268464,9.740499,0
2,985.487060546875,-5.1534129306674E-4,-3.4947250969707966E-4,2.3304339265450835E-4,-5.448830604553223,22.724712371826172,-36.99425506591797,0.36923256516456604,0.5603376030921936,0.027301788330078125,0.052732438,-0.14919747,9.769825,-0.450547,-0.49129444,9.7483425,0
2,985.4844970703125,-1.1534159420989454E-4,7.157055661082268E-4,2.3326871450990438E-4,-5.961452484130859,22.77176284790039,-37.37991714477539,0.35367146134376526,0.5394610166549683,0.04163932800292969,0.059847593,-0.13489653,9.750883,-0.44808978,-0.46737272,9.730482,0
2,985.4766845703125,5.509741604328156E-4,-2.164853794965893E-4,-1.659794943407178E-4,-5.853217124938965,23.03091049194336,-37.02684020996094,0.35679084062576294,0.579990565776825,0.027616500854492188,0.06457278,-0.16349448,9.767448,-0.44543016,-0.49781168,9.746163,0
2,985.4969482421875,1.5202639042399824E-4,4.492189036682248E-4,1.00561766885221E-4,-6.330404281616211,23.057937622070312,-36.56996536254883,0.36092251539230347,0.569451630115509,0.022954940795898438,0.05734855,-0.1444269,9.76981,-0.45703822,-0.46746254,9.74915,0
2,985.4892578125,-2.4692146689631045E-4,-6.161299534142017E-4,3.6710314452648163E-4,-6.518479347229004,23.356220245361328,-37.02034378051758,0.3790324032306671,0.5344546437263489,0.03254127502441406,0.04773432,-0.13489248,9.765071,-0.46503815,-0.45270455,9.744531,0
2,985.4612426757812,4.193944332655519E-4,4.957431519869715E-5,-1.6530323773622513E-4,-6.042269706726074,22.959426879882812,-37.301456451416016,0.35881489515304565,0.5565447807312012,0.056339263916015625,0.054849446,-0.15157406,9.750862,-0.45159388,-0.47580793,9.730106,0
2,985.479248046875,5.530781345441937E-4,1.8264692334923893E-4,-2.982357982546091E-4,-5.920772552490234,22.49378204345703,-37.36992263793945,0.3577153980731964,0.5499051809310913,0.03753089904785156,0.054794908,-0.14918949,9.762693,-0.44967902,-0.47284037,9.742159,0
2,985.4847412109375,-5.116591928526759E-4,-7.495441823266447E-4,7.672532228752971E-4,-6.52402400970459,22.982036590576172,-36.612674713134766,0.3614909052848816,0.5526250600814819,0.02346038818359375,0.05235043,-0.15395464,9.762689,-0.46186373,-0.46523595,9.74201,0
2,985.46435546875,2.1498563000932336E-5,-2.1699773787986487E-4,9.006366017274559E-4,-6.586172103881836,22.713172912597656,-36.66434860229492,0.35566022992134094,0.5509336590766907,0.014110565185546875,0.05468574,-0.14680351,9.772153,-0.45936924,-0.45539808,9.75198,0
2,985.4844970703125,-1.1113335494883358E-4,-4.83399024233222E-4,-4.3071736581623554E-4,-6.343283653259277,22.888221740722656,-37.17392349243164,0.3546432554721832,0.5491176247596741,0.033172607421875,0.054631144,-0.15395196,9.767412,-0.4537618,-0.46607262,9.747097,0
2,985.4744262695312,4.2202448821626604E-4,5.817791097797453E-4,-3.101804759353399E-5,-6.213878154754639,23.06208038330078,-37.204036712646484,0.3518444299697876,0.5330747365951538,0.03791999816894531,0.055953354,-0.13968481,9.760432,-0.4447809,-0.45344535,9.740905,0
2,985.4718627929688,-5.227260990068316E-4,0.0012496216222643852,-3.6437297239899635E-5,-5.460624694824219,21.81841278076172,-37.401309967041016,0.3409629762172699,0.5451744794845581,0.019125938415527344,0.06312305,-0.15398441,9.772268,-0.4290651,-0.47668964,9.752621,0
2,985.4947509765625,-3.8956812932156026E-4,-8.195765258278698E-5,-3.6437297239899635E-5,-6.0242815017700195,22.765274047851562,-36.83096694946289,0.3493523597717285,0.529037356376648,0.014513969421386719,0.055953354,-0.13968481,9.765166,-0.43997365,-0.45191926,9.745939,0
2,985.46923828125,-6.558840395882726E-4,-0.0014135371893644333,2.298785257153213E-4,-6.023303031921387,23.135040283203125,-37.0067253112793,0.3580309748649597,0.5270078182220459,0.02409839630126953,0.053563446,-0.1468346,9.772268,-0.44140947,-0.4581779,9.752789,0
2,985.4951171875,-2.5641018874011934E-4,5.838319775648415E-4,-1.6959523782134056E-4,-5.9992265701293945,22.94676971435547,-36.8454475402832,0.37110990285873413,0.5394431352615356,0.0147552490234375,0.044003844,-0.14683463,9.777002,-0.44989297,-0.45456776,9.757266,0
2,985.4898071289062,1.8691699369810522E-4,-5.427697324194014E-4,-4.740493022836745E-4,-5.636905670166016,23.022987365722656,-37.44462966918945,0.346139520406723,0.5186969637870789,0.038537025451660156,0.07029277,-0.14683463,9.748596,-0.41406286,-0.46364182,9.730119,0
2,985.4920043945312,0.001252180547453463,1.2301994138397276E-4,3.248983412049711E-4,-6.069527626037598,23.038833618164062,-36.609046936035156,0.3443387448787689,0.502791166305542,0.04340839385986328,0.05834326,-0.13730146,9.760432,-0.43282124,-0.44174713,9.741962,0
2,985.4920043945312,0.001252180547453463,1.2301994138397276E-4,3.248983412049711E-4,-6.199476718902588,23.23326873779297,-36.67738723754883,0.3431175947189331,0.5245700478553772,0.02933502197265625,0.05834326,-0.13968478,9.767534,-0.43071365,-0.44380033,9.749111,0
3,985.5302734375,-7.451885612681508E-4,0.0011882833205163479,-3.4089136170223355E-4,-6.1012139320373535,23.21973419189453,-36.3838005065918,0.3421560823917389,0.5323834419250488,0.015236854553222656,0.053563446,-0.14921789,9.765166,-0.43587294,-0.4506219,9.746311,0
3,985.4741821289062,-2.1255682804621756E-4,-9.422435541637242E-4,-8.735228911973536E-4,-5.740009784698486,22.820274353027344,-36.10814666748047,0.3408167064189911,0.5255001783370972,0.034310340881347656,0.05834326,-0.1468346,9.767534,-0.43067658,-0.44594958,9.74912,0
3,985.5026245117188,3.2007493427954614E-4,1.2301997048780322E-4,-6.072070100344718E-4,-6.043387413024902,22.483749389648438,-36.4266242980957,0.34436535835266113,0.5185746550559998,0.03917694091796875,0.06073314,-0.13968478,9.760432,-0.42307448,-0.43920553,9.742554,0
3,985.4794921875,-4.788727092090994E-4,3.8933585165068507E-4,5.8582460042089224E-5,-5.806586742401123,22.652908325195312,-36.62697982788086,0.3379652500152588,0.5157784819602966,0.025144577026367188,0.065512955,-0.14683463,9.765167,-0.41560978,-0.44805735,9.747351,0
3,985.4794921875,-4.788727092090994E-4,3.8933585165068507E-4,5.8582460042089224E-5,-5.806586742401123,22.652908325195312,-36.62697982788086,0.33253228664398193,0.5244926810264587,0.03467082977294922,0.06790286,-0.15875097,9.75333,-0.4146708,-0.45742,9.735301,0
3,985.4725341796875,1.8691699369810522E-4,-9.422435541637242E-4,5.912142223678529E-4,-5.942485332489014,22.947368621826172,-37.08517837524414,0.33559471368789673,0.503225564956665,0.03955650329589844,0.05834326,-0.14206807,9.748596,-0.41446507,-0.4413982,9.730987,0
3,985.4955444335938,-7.939888746477664E-5,0.0011882834369316697,4.58056281786412E-4,-5.625846862792969,22.559097290039062,-37.188236236572266,0.3345833718776703,0.5249522924423218,0.03967571258544922,0.06073314,-0.14921789,9.7628,-0.420241,-0.44023895,9.745143,0
3,985.5049438476562,-4.788727092090994E-4,1.2301997048780322E-4,7.243721629492939E-4,-6.17069673538208,23.15533447265625,-37.44710159301758,0.3427967429161072,0.494586706161499,0.05399894714355469,0.053563446,-0.14206804,9.746229,-0.42920703,-0.4242555,9.728712,0
3,985.4672241210938,-7.939888746477664E-5,-2.7645385125651956E-4,-7.45754805393517E-5,-6.459672451019287,22.98999786376953,-37.23892593383789,0.3082044720649719,0.5211763381958008,0.020977020263671875,0.06790286,-0.16113426,9.762799,-0.40993637,-0.45221478,9.745271,0
3,985.4822387695312,3.2007493427954614E-4,-1.0137999197468162E-5,-6.072072428651154E-4,-5.86264705657959,22.389934539794922,-36.98788070678711,0.3359003961086273,0.5051871538162231,0.011610031127929688,0.04878363,-0.15398444,9.769901,-0.42927828,-0.43769023,9.751985,0
3,985.4827880859375,3.2007493427954614E-4,-4.096117918379605E-4,4.58056281786412E-4,-6.047815322875977,22.585247039794922,-36.89379119873047,0.32980582118034363,0.5176649689674377,0.04960346221923828,0.05834326,-0.15636767,9.746229,-0.409228,-0.4474737,9.728781,0
3,985.4955444335938,1.8691699369810522E-4,2.5617791106924415E-4,5.8582460042089224E-5,-5.561633110046387,22.461143493652344,-37.115413665771484,0.3098050653934479,0.49206942319869995,0.026029586791992188,0.06790286,-0.13968481,9.767534,-0.3972709,-0.43127352,9.751156,0
3,985.4873657226562,-7.939888746477664E-5,-0.0013417174341157079,-2.0773342112079263E-4,-5.648400783538818,22.74883270263672,-37.426815032958984,0.32323169708251953,0.4993634819984436,0.04034996032714844,0.06073314,-0.15160115,9.75333,-0.40791398,-0.43610883,9.736403,0
3,985.4826049804688,-3.457147686276585E-4,-4.096118500456214E-4,3.248983412049711E-4,-5.771856307983398,22.474952697753906,-37.00684356689453,0.3269406259059906,0.5021054148674011,0.04519939422607422,0.055953354,-0.15160112,9.75333,-0.4161233,-0.4287432,9.736355,0
3,985.47509765625,-3.457147686276585E-4,1.230199122801423E-4,4.58056281786412E-4,-6.119501113891602,22.781753540039062,-37.2791633605957,0.3163053095340729,0.5048593282699585,0.02164173126220703,0.06790286,-0.14683463,9.767534,-0.399776,-0.42773628,9.751314,0
3,985.4680786132812,-3.457147686276585E-4,-0.0012085593771189451,-7.45754805393517E-5,-5.948573112487793,22.94147491455078,-36.77595901489258,0.3344929814338684,0.5027186274528503,0.03595733642578125,0.055953324,-0.15875097,9.755697,-0.412369,-0.4345094,9.738743,0
3,985.4955444335938,-8.783465018495917E-4,-5.427697906270623E-4,-7.45754805393517E-5,-5.934332847595215,22.586444854736328,-37.37324905395508,0.3091215193271637,0.4958728551864624,0.036087989807128906,0.077462435,-0.14921786,9.769901,-0.38983238,-0.4263655,9.754254,0
3,985.4730224609375,3.2007493427954614E-4,-2.7645390946418047E-4,1.9174040062353015E-4,-5.8509063720703125,21.663665771484375,-37.33211135864258,0.3178049921989441,0.4798710346221924,0.04091644287109375,0.06073314,-0.13968481,9.769901,-0.40359637,-0.41205242,9.754049,0
3,985.5062255859375,5.863908445462584E-4,-9.422435541637242E-4,-4.740493022836745E-4,-5.764246940612793,22.482315063476562,-37.393367767333984,0.3216027021408081,0.4876853823661804,0.012607574462890625,0.055953354,-0.14445134,9.777002,-0.40413338,-0.4185019,9.760908,0
3,985.493408203125,1.8691699369810522E-4,-1.0137970093637705E-5,4.58056281786412E-4,-6.130995750427246,22.507591247558594,-37.261348724365234,0.3201233148574829,0.4906803369522095,0.036398887634277344,0.055953354,-0.14921786,9.755697,-0.40863004,-0.41497752,9.739602,0
3,985.4884033203125,-3.457147686276585E-4,3.89335909858346E-4,-0.0010066807735711336,-5.47236442565918,22.54468536376953,-37.05707550048828,0.3285062909126282,0.49824947118759155,0.03651237487792969,0.04878363,-0.15398444,9.760432,-0.40411112,-0.42751607,9.744027,0
3,985.4986572265625,7.195487851276994E-4,-1.4329598343465477E-4,5.8582460042089224E-5,-5.741693019866943,22.292579650878906,-37.154788970947266,0.32737624645233154,0.472653329372406,0.060288429260253906,0.051173538,-0.14683463,9.760432,-0.404526,-0.41415876,9.744489,0
3,985.4833374023438,1.8691699369810522E-4,-4.096118500456214E-4,5.912142223678529E-4,-5.586145401000977,21.91135025024414,-37.00248336791992,0.3308273255825043,0.4995034337043762,0.036726951599121094,0.046393722,-0.16351755,9.762799,-0.40941066,-0.42953056,9.74623,0
3,985.4584350585938,-6.120306206867099E-4,5.224936758168042E-4,4.58056281786412E-4,-5.771313667297363,22.106666564941406,-36.90839385986328,0.3056240975856781,0.4922611713409424,0.05106353759765625,0.06312305,-0.15636767,9.741495,-0.39185858,-0.42012608,9.726002,0
3,985.4937133789062,-6.120306206867099E-4,-8.090856135822833E-4,-4.740493022836745E-4,-6.450136184692383,22.524635314941406,-36.90523147583008,0.31413599848747253,0.48553234338760376,0.04643535614013672,0.06073314,-0.1563677,9.750963,-0.4033673,-0.40844533,9.7354965,0
4,985.5040283203125,-3.457147686276585E-4,-2.7645390946418047E-4,-6.072070100344718E-4,-6.124364852905273,22.14519500732422,-37.47211837768555,0.3176040053367615,0.4740460515022278,0.022878646850585938,0.046393752,-0.14206807,9.765167,-0.4091092,-0.39464873,9.749755,0
4,985.4736938476562,7.195487851276994E-4,7.888096151873469E-4,-7.45754805393517E-5,-5.664897918701172,21.73220443725586,-36.90288162231445,0.3208632469177246,0.46276700496673584,0.051400184631347656,0.053563446,-0.14921789,9.772268,-0.39613393,-0.4076106,9.757012,0
4,985.476318359375,-7.939888746477664E-5,-1.0137970093637705E-5,-3.4089136170223355E-4,-5.821966648101807,22.111957550048828,-36.97788619995117,0.3007758557796478,0.48460185527801514,0.037299156188964844,0.06312305,-0.16351755,9.760432,-0.389069,-0.41992524,9.745207,0
4,985.4788818359375,1.8691699369810522E-4,-8.090855553746223E-4,-7.45754805393517E-5,-6.060939788818359,23.41596221923828,-37.171329498291016,0.3184654414653778,0.4731305241584778,0.03741741180419922,0.051173538,-0.14921786,9.762799,-0.3963125,-0.40223652,9.747733,0
4,985.4866943359375,-7.939888746477664E-5,6.556517910212278E-4,5.8582460042089224E-5,-5.967540740966797,22.765869140625,-37.07069778442383,0.30764520168304443,0.46647506952285767,0.028057098388671875,0.053563446,-0.15160115,9.765167,-0.39357978,-0.40283602,9.750239,0
4,985.5096435546875,3.2007493427954614E-4,3.8933585165068507E-4,5.8582460042089224E-5,-5.6510396003723145,22.27167510986328,-36.474674224853516,0.30134275555610657,0.47899413108825684,0.0234375,0.06073314,-0.15160115,9.767534,-0.38167354,-0.40577877,9.753004,0
4,985.4976196289062,1.8691699369810522E-4,-1.0137999197468162E-5,5.8582460042089224E-5,-5.771313667297363,22.10666275024414,-36.908390045166016,0.31933334469795227,0.4532591700553894,0.028275489807128906,0.046393722,-0.14683463,9.767534,-0.3957131,-0.39459142,9.75275,0
4,985.4995727539062,-7.939888746477664E-5,-0.0014748753746971488,-4.740493022836745E-4,-5.474322319030762,21.805156707763672,-36.705562591552734,0.2994822561740875,0.46088647842407227,0.04256725311279297,0.065512955,-0.158751,9.75333,-0.37356952,-0.4113764,9.739002,0
4,985.4772338867188,3.2007493427954614E-4,-0.001341717317700386,5.912142223678529E-4,-6.0803422927856445,22.502300262451172,-37.19186019897461,0.30334845185279846,0.44959455728530884,0.03792285919189453,0.05408126,-0.14208077,9.760479,-0.38832042,-0.3842811,9.746364,0
4,985.489990234375,1.831847766879946E-4,2.567836781963706E-4,-6.088067893870175E-4,-6.313120365142822,22.705856323242188,-37.321868896484375,0.3250390887260437,0.4526231288909912,0.028456687927246094,0.054617673,-0.14924373,9.760529,-0.39071935,-0.38690615,9.746324,0
4,985.469482421875,6.44083775114268E-5,-9.263055399060249E-4,3.5975687205791473E-4,-6.030912399291992,23.127670288085938,-36.62019729614258,0.2903596758842468,0.47926175594329834,0.04749774932861328,0.06898183,-0.15877743,9.758164,-0.3716608,-0.40237114,9.744316,0
4,985.47509765625,3.304858400952071E-4,0.0010711022187024355,3.596546594053507E-4,-5.761340141296387,22.379348754882812,-36.84890365600586,0.3078814744949341,0.4630643129348755,0.04761219024658203,0.052277207,-0.1540115,9.753432,-0.38636285,-0.39155585,9.739266,0
4,985.47509765625,3.304858400952071E-4,0.0010711022187024355,3.596546594053507E-4,-5.829033374786377,21.736305236816406,-36.49290466308594,0.2924826741218567,0.4465097188949585,0.04771900177001953,0.05708173,-0.14447905,9.755801,-0.37698144,-0.38266692,9.742238,0
4,985.4905395507812,-4.687000473495573E-4,5.877416697330773E-6,-1.7307919915765524E-4,-5.993138313293457,22.952659606933594,-37.154666900634766,0.30104342103004456,0.4541683793067932,0.033606529235839844,0.059496403,-0.1516294,9.772374,-0.3776537,-0.3866443,9.758776,0
4,985.4772338867188,6.369329639710486E-5,-5.267156520858407E-4,-1.731814118102193E-4,-6.079501152038574,22.76614761352539,-36.66853713989258,0.2803696393966675,0.45729708671569824,0.043178558349609375,0.07147062,-0.15163006,9.753439,-0.3613362,-0.3891042,9.740416,0
4,985.4873657226562,1.9661287660710514E-4,5.954803782515228E-6,-5.727573297917843E-4,-6.107026100158691,23.425674438476562,-37.47273254394531,0.3028361201286316,0.4360067844390869,0.03382587432861328,0.059545815,-0.14448078,9.760544,-0.37017724,-0.3780711,9.747444,0
4,985.4728393554688,-6.025731563568115E-4,6.717831129208207E-4,9.293010225519538E-5,-5.91925048828125,22.495254516601562,-37.44722366333008,0.2546595335006714,0.4385870695114136,0.029169082641601562,0.09063929,-0.16116442,9.76528,-0.3424523,-0.39826232,9.752897,0
4,985.4951171875,-6.028114585205913E-4,-0.0013255473459139466,-1.7348781693726778E-4,-6.011264324188232,23.04090118408203,-36.926082611083984,0.2915060222148895,0.4459168314933777,0.052954673767089844,0.05720538,-0.14686532,9.755813,-0.37093937,-0.3751871,9.742811,0
4,985.5238037109375,-0.001002523466013372,-6.597188767045736E-4,-8.393797324970365E-4,-6.0203962326049805,23.032062530517578,-36.46225357055664,0.28084462881088257,0.4439438581466675,0.04831504821777344,0.07156956,-0.15401573,9.7463455,-0.35271057,-0.38644618,9.733774,0
4,985.5181884765625,-2.0381438662298024E-4,4.0558341424912214E-4,9.262369712814689E-5,-5.814601898193359,23.1197509765625,-37.037986755371094,0.2942466139793396,0.43269920349121094,0.03892803192138672,0.054864943,-0.13733341,9.758184,-0.3741076,-0.3567992,9.745604,0
4,985.4805297851562,4.6173695591278374E-4,-0.0014585891040042043,-7.064261008054018E-4,-6.307168960571289,22.60582733154297,-36.93201446533203,0.28844866156578064,0.43542367219924927,0.02008342742919922,0.062059373,-0.14210062,9.770023,-0.36740848,-0.36116022,9.757661,0
4,985.4908447265625,-3.3744893153198063E-4,1.393448910675943E-4,9.241944644600153E-5,-6.2800493240356445,22.420509338378906,-36.925350189208984,0.28734979033470154,0.4334743022918701,0.024910926818847656,0.057304323,-0.14210121,9.779493,-0.3626292,-0.36715156,9.767071,0
4,985.4883422851562,6.178647163324058E-5,-0.0010590378660708666,3.5863317316398025E-4,-5.5666351318359375,21.718666076660156,-36.609291076660156,0.27658402919769287,0.4367101192474365,0.04866790771484375,0.062108904,-0.15163489,9.755824,-0.35814118,-0.37478065,9.743422,0
4,985.4909057617188,1.9470593542791903E-4,1.3942227815277874E-4,9.221513755619526E-5,-5.7432146072387695,22.291107177734375,-37.077484130859375,0.27517247200012207,0.430175244808197,0.044030189514160156,0.06452346,-0.15401877,9.755827,-0.35853252,-0.37229216,9.743557,0
5,985.4783325195312,7.270993664860725E-4,4.057768965139985E-4,4.91586746647954E-4,-6.047814846038818,22.585250854492188,-36.89379119873047,0.2739274799823761,0.4425565004348755,0.02518939971923828,0.062158316,-0.1564026,9.774765,-0.36363882,-0.3698812,9.762444,0
5,985.5015869140625,-7.20866082701832E-5,-2.599741565063596E-4,3.5832670982927084E-4,-6.254994869232178,22.602008819580078,-36.9398307800293,0.29190945625305176,0.42639392614364624,0.044216156005859375,0.062183052,-0.14210363,9.760566,-0.35886595,-0.35379392,9.748781,0
5,985.4909057617188,-3.386408498045057E-4,-1.2677752238232642E-4,2.2506655659526587E-4,-6.32515811920166,22.79998779296875,-37.40250778198242,0.27649691700935364,0.4483567476272583,0.049037933349609375,0.06937748,-0.15878718,9.753466,-0.35241362,-0.3709557,9.741577,0
5,985.4909057617188,4.600684333126992E-4,-6.593706202693284E-4,-7.071411237120628E-4,-6.226895332336426,22.786449432373047,-37.10892105102539,0.28020355105400085,0.4178149104118347,0.04912757873535156,0.052672863,-0.14687134,9.758203,-0.3601392,-0.35937142,9.746179,0
5,985.4716796875,1.9351413357071579E-4,-2.5985806132666767E-4,-1.7461157403886318E-4,-5.894876003265381,22.939125061035156,-36.861080169677734,0.28404396772384644,0.42548948526382446,0.016068458557128906,0.06225723,-0.14210548,9.784245,-0.3533929,-0.35165453,9.772766,0
5,985.4918212890625,-0.0010053839068859816,-1.2662276276387274E-4,-4.165794234722853E-5,-5.989689826965332,22.481399536132812,-36.511749267578125,0.27319949865341187,0.4234607219696045,0.03510284423828125,0.06706178,-0.1564057,9.762941,-0.3482691,-0.36522445,9.751375,0
5,985.4918212890625,-0.0010053839068859816,-1.2662276276387274E-4,-4.165794234722853E-5,-5.989689826965332,22.481399536132812,-36.511749267578125,0.26683664321899414,0.4119580388069153,0.039943695068359375,0.06469664,-0.14448996,9.767678,-0.34884834,-0.34924224,9.756481,0
5,985.4867553710938,1.925607502926141E-4,4.060863866470754E-4,-3.081780159845948E-4,-6.137626647949219,22.8699951171875,-37.05057907104492,0.2609398066997528,0.410133421421051,0.035294532775878906,0.06233138,-0.14449055,9.762945,-0.34807366,-0.34858117,9.751779,0
5,985.4702758789062,-2.0715143182314932E-4,2.7296715416014194E-4,7.569832960143685E-4,-6.2862443923950195,23.520957946777344,-36.98878479003906,0.27894142270088196,0.4221969246864319,0.05432891845703125,0.06474605,-0.15164097,9.753479,-0.3455922,-0.3535946,9.742333,0
5,985.4600219726562,-0.0010063373483717442,-1.2646795948967338E-4,6.237231427803636E-4,-5.924359321594238,22.859130859375,-37.31376266479492,0.26453015208244324,0.41550928354263306,0.021413803100585938,0.07769972,-0.14207383,9.769922,-0.32659778,-0.3486771,9.759578,0
5,985.4880981445312,4.654755466617644E-4,8.07200965937227E-4,-1.6879977192729712E-4,-6.330405235290527,23.057941436767578,-36.56996536254883,0.3490453064441681,0.4045185446739197,0.03571128845214844,-0.058556378,-0.12539013,9.760452,-0.459727,-0.29743406,9.746064,0
5,985.4896850585938,8.685769280418754E-4,-0.0010575992055237293,-0.0014988243347033858,-5.957024574279785,22.670265197753906,-36.912757873535156,0.4576602876186371,0.34085482358932495,0.04053974151611328,0.12065458,-0.11108972,9.7651825,-0.27620846,-0.3228135,9.757316,0
5,985.4577026367188,-0.002992697525769472,-0.0018565964419394732,-0.005493431817740202,-6.6036176681518555,22.539043426513672,-37.0363883972168,-0.006024658679962158,0.6039119958877563,0.021709442138671875,0.13974205,-0.29221803,9.791219,-0.30660486,-0.4926892,9.779371,0
5,985.4976806640625,-6.291677709668875E-5,0.0028038821183145046,0.002629334107041359,-5.90362548828125,22.035781860351562,-37.42274856567383,0.19325575232505798,0.30271172523498535,0.03598976135253906,0.04650417,-0.09202187,9.772278,-0.34369272,-0.28445598,9.762633,0
5,985.4957275390625,0.0030000214464962482,-0.0015903798630461097,0.001963675022125244,-5.3879594802856445,21.991668701171875,-37.19169235229492,0.37836870551109314,0.3450644016265869,0.08812904357910156,-0.018054903,-0.08963786,9.739135,-0.39815965,-0.27668327,9.727489,0
5,985.4633178710938,-5.94937417190522E-4,-6.583237554877996E-4,-0.0016314584063366055,-6.0764570236206055,22.769092559814453,-36.823150634765625,0.23406633734703064,0.49022144079208374,0.0645589828491211,0.10379839,-0.23263372,9.732031,-0.31207088,-0.42950678,9.720877,0
5,985.4631958007812,-1.9515783060342073E-4,-2.5889964308589697E-4,-9.655373869463801E-4,-6.002132892608643,23.04973602294922,-37.38991165161133,0.19493132829666138,0.37865394353866577,0.05517387390136719,0.04640901,-0.11585234,9.755699,-0.3426669,-0.3043741,9.745727,0
5,985.470458984375,-0.0015264317626133561,0.0013389461673796177,-5.659327143803239E-4,-6.103875637054443,22.32227325439453,-37.25468826293945,0.2634837329387665,0.4512253701686859,0.03643989562988281,0.09178543,-0.16351713,9.772266,-0.3094265,-0.35511675,9.762711,0
5,985.4863891601562,-9.93494177237153E-4,0.002004686277359724,4.994618939235806E-4,-5.850471019744873,22.401721954345703,-37.606319427490234,0.2106781005859375,0.39347538352012634,0.026994705200195312,0.09414363,-0.1492167,9.7746315,-0.29867855,-0.34347054,9.765622,0
5,985.4940795898438,4.7154875937849283E-4,-5.253643612377346E-4,6.327508017420769E-4,-6.153550148010254,22.69733428955078,-37.49992752075195,0.34806814789772034,0.38750433921813965,0.017600059509277344,0.020024955,-0.12061657,9.762793,-0.36697552,-0.29607528,9.752166,0
5,985.4688110351562,0.001537117874249816,-0.0011912037152796984,-1.6606587450951338E-4,-6.09444522857666,22.96324920654297,-37.293643951416016,0.3043220043182373,0.4096226990222931,0.0697488784790039,0.05823165,-0.15636499,9.741485,-0.3336248,-0.33836773,9.731318,0
5,985.4872436523438,-6.04711240157485E-5,-5.254636635072529E-4,-0.0013643562560901046,-5.586688041687012,22.279640197753906,-37.10093307495117,0.26482149958610535,0.4171728193759918,0.0319671630859375,0.058199942,-0.15874751,9.765154,-0.32831973,-0.3443088,9.755023,0
5,985.4872436523438,-5.927974125370383E-4,0.0012055400293320417,-5.652777617797256E-4,-5.634840965270996,22.656173706054688,-37.42348098754883,0.26788708567619324,0.38174012303352356,0.05101585388183594,0.058168232,-0.15874667,9.762783,-0.32579762,-0.34292156,9.752783,0
5,985.471923828125,-8.588075870648026E-4,1.4022685354575515E-4,3.6695896415039897E-4,-6.0161285400390625,22.404346466064453,-37.119041442871094,0.2478606402873993,0.3842965066432953,0.02743053436279297,0.0868153,-0.15636267,9.772249,-0.30250654,-0.3385674,9.763335,0
5,985.471923828125,-8.588075870648026E-4,1.4022685354575515E-4,3.6695896415039897E-4,-6.398205280303955,23.521240234375,-36.58662796020508,0.26531925797462463,0.3872476816177368,0.05120372772216797,0.055714905,-0.14921202,9.758043,-0.33121943,-0.32126838,9.748428,0
6,985.48779296875,4.73382999189198E-4,0.0010722330771386623,-8.312006248161197E-4,-5.551660060882568,22.73382568359375,-37.05592727661133,0.27351900935173035,0.36197516322135925,0.056018829345703125,0.034174025,-0.1420614,9.753305,-0.34278622,-0.31539685,9.743272,0
6,985.48779296875,4.73382999189198E-4,0.0010722330771386623,-8.312006248161197E-4,-5.834249496459961,23.206520080566406,-36.73209762573242,0.23419839143753052,0.37916886806488037,0.04663276672363281,0.079550505,-0.15874358,9.753304,-0.29653227,-0.34184057,9.744418,0
6,985.4954223632812,-5.8942881878465414E-5,-1.262379955733195E-4,-6.979114841669798E-4,-5.440678596496582,22.363784790039062,-37.28232192993164,0.22831571102142334,0.39602434635162354,0.04672431945800781,0.06278944,-0.1372933,9.769871,-0.3120496,-0.31227618,9.761059,0
6,985.4747314453125,-7.244270527735353E-4,1.400283072143793E-4,-5.646225763484836E-4,-5.746120452880859,22.39407730102539,-37.621952056884766,0.293992280960083,0.3470444679260254,0.03732872009277344,0.05080819,-0.12537615,9.760399,-0.32811338,-0.28773844,9.751575,0
6,985.4880981445312,7.406160002574325E-4,6.820759153924882E-6,-6.976495496928692E-4,-6.480299949645996,22.70700454711914,-36.75728225708008,0.2454410195350647,0.40236175060272217,0.05633831024169922,0.07467556,-0.17304088,9.74856,-0.30859146,-0.34236813,9.739481,0
6,985.48291015625,-5.8025470934808254E-5,-9.253344032913446E-4,2.3458711802959442E-4,-5.996618747711182,22.21166229248047,-36.72584915161133,0.2586223781108856,0.3862383961677551,0.056420326232910156,0.045964986,-0.14920737,9.755659,-0.3264734,-0.31593293,9.7463255,0
6,985.4629516601562,2.0859588403254747E-4,2.730373525992036E-4,-5.642295582219958E-4,-5.888650894165039,23.05093765258789,-37.86937713623047,0.2571013867855072,0.37482959032058716,0.023374557495117188,0.045933247,-0.15397309,9.774593,-0.33455455,-0.3106283,9.765248,0
6,985.4732666015625,-4.568881122395396E-4,4.0614570025354624E-4,-5.640984745696187E-4,-6.510326385498047,22.995296478271484,-37.308414459228516,0.2274012267589569,0.3584848642349243,0.04712867736816406,0.069800586,-0.13967277,9.760387,-0.30506694,-0.30107474,9.752222,0
6,985.4814453125,-9.892141679301858E-4,-1.2653572775889188E-4,6.344540161080658E-4,-6.407497406005859,22.986175537109375,-37.24674606323242,0.259656697511673,0.34759169816970825,0.05666923522949219,0.04662001,-0.13254045,9.746249,-0.3197728,-0.29271775,9.737617,0
6,985.4654541015625,6.089865928515792E-4,6.723623955622315E-4,7.677428657189012E-4,-5.953980445861816,22.67321014404297,-37.06736373901367,0.27103474736213684,0.37915870547294617,0.032944679260253906,0.07128322,-0.1444756,9.762891,-0.29689512,-0.30803758,9.754843,0
6,985.45068359375,4.74326778203249E-4,-1.263414742425084E-4,1.0130956070497632E-4,-6.004496097564697,22.784423828125,-37.835933685302734,0.2696986496448517,0.39134788513183594,0.01882648468017578,0.052193135,-0.1635425,9.777097,-0.31911594,-0.32038724,9.768145,0
6,985.4814453125,-4.6782908611930907E-4,9.380585397593677E-4,2.270392724312842E-4,-5.917185306549072,22.128440856933594,-37.42607879638672,0.22128960490226746,0.36571401357650757,0.04255390167236328,0.06895164,-0.15401007,9.765263,-0.29932967,-0.31276113,9.757122,0
6,985.4794921875,-6.012681405991316E-4,-6.597911124117672E-4,8.92708427272737E-4,-6.006155967712402,22.677032470703125,-37.05955123901367,0.22497987747192383,0.33998680114746094,0.052093505859375,0.057031333,-0.14209442,9.758163,-0.30551448,-0.29837203,9.750016,0
6,985.4693603515625,-3.3523348974995315E-4,-5.265874788165092E-4,8.925879374146461E-4,-5.723023414611816,21.83605194091797,-37.2849235534668,0.23778706789016724,0.3481825590133667,0.0569000244140625,0.064230144,-0.15639482,9.743963,-0.30315077,-0.30865914,9.735823,0
6,985.4721069335938,7.297487463802099E-4,2.7240579947829247E-4,4.929935093969107E-4,-6.241977691650391,22.877635955810547,-37.03494644165039,0.23670068383216858,0.3750143051147461,0.038028717041015625,0.059479535,-0.15639563,9.770004,-0.30957583,-0.30421656,9.761793,0
6,985.4872436523438,-3.3579589216969907E-4,8.050830801948905E-4,6.260310183279216E-4,-6.359344959259033,22.609649658203125,-36.9241943359375,0.2353217899799347,0.35906603932380676,0.023899078369140625,0.052339017,-0.14209665,9.760538,-0.31050012,-0.28825665,9.752512,0
6,985.44677734375,8.623442845419049E-4,-3.9329269202426076E-4,3.595945308916271E-4,-6.261082649230957,22.596115112304688,-36.630611419677734,0.23931461572647095,0.3479456901550293,0.06182861328125,0.052368164,-0.14924724,9.748706,-0.30908534,-0.2952242,9.740615,0
6,985.4679565429688,-4.697975527960807E-4,-0.001192149007692933,-1.7327821115031838E-4,-6.143576622009277,22.970016479492188,-37.44043731689453,0.2291666567325592,0.35554763674736023,0.03820991516113281,0.061957,-0.14924796,9.762912,-0.2980817,-0.2968653,9.755183,0
6,985.4755859375,9.94658563286066E-4,-6.594715523533523E-4,3.5923306131735444E-4,-5.73516845703125,23.036521911621094,-37.738216400146484,0.21387284994125366,0.35412293672561646,0.07140636444091797,0.06915587,-0.14924867,9.736875,-0.2838128,-0.30173928,9.72945,0
6,985.460693359375,-2.0404407405294478E-4,2.7267966652289033E-4,2.2595463087782264E-4,-6.094583034515381,22.85733413696289,-36.594566345214844,0.22685617208480835,0.33347010612487793,0.033598899841308594,0.06440526,-0.13733299,9.7676525,-0.29073513,-0.28314418,9.760397,0
6,985.4708251953125,-2.0432544988580048E-4,5.390411824919283E-4,3.5899196518585086E-4,-6.35880184173584,22.24135971069336,-36.82574462890625,0.23515796661376953,0.35556918382644653,0.04787254333496094,0.054874837,-0.15163334,9.760552,-0.3059712,-0.2886709,9.752816,0
6,985.5015869140625,1.9486728706397116E-4,4.0592887671664357E-4,-3.0691822757944465E-4,-6.079799175262451,22.134010314941406,-37.09341049194336,0.21962636709213257,0.3444826304912567,0.04793548583984375,0.06685352,-0.15401734,9.760555,-0.2902068,-0.29555756,9.753207,0
6,985.4683227539062,5.940598202869296E-4,-1.2665717804338783E-4,-1.7388089327141643E-4,-5.911777973175049,22.396705627441406,-37.134674072265625,0.22794324159622192,0.3428467810153961,0.052734375,0.05493319,-0.14686824,9.760558,-0.2961898,-0.28741133,9.753089,0
6,985.496826171875,6.11468858551234E-5,6.723361439071596E-4,9.231449803337455E-5,-6.230917930603027,22.413742065429688,-36.7785530090332,0.22185203433036804,0.3268236517906189,0.033865928649902344,0.066911876,-0.14210238,9.755826,-0.28562388,-0.27980742,9.748897,0
6,985.47119140625,-6.049241637811065E-4,-1.2656586477532983E-4,-3.072798135690391E-4,-5.881614685058594,22.214332580566406,-37.28261947631836,0.20644572377204895,0.3535704016685486,0.04340076446533203,0.08128044,-0.1635526,9.760563,-0.27101097,-0.3059528,9.753712,0
7,985.4766845703125,6.0584425227716565E-5,2.729535917751491E-4,9.207351831719279E-5,-5.518452167510986,22.554397583007812,-37.35847854614258,0.21495375037193298,0.36146342754364014,0.04819297790527344,0.062190413,-0.15163691,9.767668,-0.28095382,-0.2941344,9.760572,0
7,985.4767456054688,-2.0601271535269916E-4,-1.2647456605918705E-4,-1.7436285270377994E-4,-5.49589729309082,22.364662170410156,-37.11989974975586,0.24217820167541504,0.3261503577232361,0.04353523254394531,0.05027008,-0.14687105,9.765303,-0.29026896,-0.28520614,9.758056,0
7,985.4342041015625,-2.0629391656257212E-4,-2.595868718344718E-4,2.2499036276713014E-4,-5.986943244934082,21.852210998535156,-37.09122848510742,0.20317894220352173,0.34348711371421814,0.03885173797607422,0.076588154,-0.15163834,9.7629385,-0.27154148,-0.2865,9.756434,0
7,985.4569091796875,-2.0657511777244508E-4,-7.921729702502489E-4,9.171193232759833E-5,-5.935311317443848,22.2166748046875,-37.1974983215332,0.20229259133338928,0.3369850516319275,0.029438018798828125,0.06944764,-0.13972266,9.770042,-0.27352583,-0.2734034,9.763633,0
7,985.4855346679688,-7.394881686195731E-4,4.062941879965365E-4,-1.7472455510869622E-4,-6.2634453773498535,22.330795288085938,-37.07662582397461,0.22972360253334045,0.3210292458534241,0.04843902587890625,0.06230712,-0.13495685,9.755842,-0.2809647,-0.2620901,9.749407,0
7,985.48291015625,1.9233618513680995E-4,6.726557039655745E-4,6.241025985218585E-4,-6.592123031616211,22.813201904296875,-37.054203033447266,0.2091277539730072,0.33373361825942993,0.029570579528808594,0.064726174,-0.15164046,9.767681,-0.28344145,-0.27521664,9.761082,0
7,985.4496459960938,-3.405767201911658E-4,5.395433981902897E-4,8.902979316189885E-4,-6.049880027770996,22.952064514160156,-36.91493606567383,0.23654767870903015,0.32723268866539,0.043837547302246094,0.050415963,-0.14925791,9.767683,-0.28905642,-0.27485088,9.760807,0
7,985.4676513671875,5.86158421356231E-5,2.7327321004122496E-4,3.5754567943513393E-4,-6.427580833435059,22.33489227294922,-36.66665267944336,0.1918219029903412,0.3198702931404114,0.03919410705566406,0.076734066,-0.14687534,9.762951,-0.2669717,-0.27064246,9.756953,0
7,985.4605712890625,-7.482329965569079E-5,1.4016094792168587E-4,-1.7520663095638156E-4,-5.781691551208496,22.308181762695312,-37.76541519165039,0.19119825959205627,0.32376083731651306,0.04869365692138672,0.069482565,-0.1492566,9.762945,-0.26563156,-0.2774783,9.756774,0
7,985.4556884765625,-6.066748173907399E-4,0.0012052977690473199,-4.171422915533185E-5,-6.358366012573242,22.979408264160156,-37.09994888305664,0.23768258094787598,0.3457690477371216,0.05825614929199219,0.052664816,-0.14448784,9.760569,-0.28423345,-0.2626027,9.754108,0
7,985.456298828125,-6.04002270847559E-4,4.041805805172771E-4,-3.0905590392649174E-4,-6.033574104309082,22.230209350585938,-37.491085052490234,0.21266642212867737,0.3440473973751068,0.058315277099609375,0.06463465,-0.1707045,9.746368,-0.27446833,-0.2910875,9.739864,0
7,985.456298828125,-6.04002270847559E-4,4.041805805172771E-4,-3.0905590392649174E-4,-5.6614179611206055,22.473201751708984,-37.33169937133789,0.20676732063293457,0.3185008764266968,0.058373451232910156,0.055095375,-0.14687224,9.753471,-0.2790358,-0.26279613,9.747199,0
7,985.4716186523438,3.2790753175504506E-4,4.738554707728326E-6,-4.422977799549699E-4,-6.165183067321777,22.3172607421875,-36.78303909301758,0.1966472864151001,0.3076048791408539,0.05841064453125,0.06706518,-0.15163924,9.748739,-0.27227333,-0.26391354,9.742772,0
7,985.4716186523438,2.6311958208680153E-4,-7.558101206086576E-4,5.402724491432309E-4,-6.65883731842041,22.5399169921875,-36.873966217041016,0.18631532788276672,0.3107021450996399,0.039520263671875,0.06947541,-0.14687313,9.762944,-0.25962034,-0.26710218,9.757189,0
7,985.4619140625,-3.3921096473932266E-6,-0.0010220941621810198,-6.582329515367746E-4,-5.885200500488281,22.579673767089844,-37.22645950317383,0.2140401005744934,0.323488712310791,0.03957080841064453,0.06710583,-0.15164019,9.765312,-0.2583917,-0.27325705,9.759477,0
7,985.47216796875,-1.3674574438482523E-4,4.32011584052816E-5,-3.9200100582093E-4,-5.558588981628418,22.46408462524414,-37.270023345947266,0.2125648558139801,0.32675158977508545,0.049102783203125,0.05995643,-0.15640731,9.753479,-0.2671756,-0.27239853,9.747454,0
7,985.4564819335938,3.9569020736962557E-4,4.42706688772887E-4,-3.920849412679672E-4,-5.816421985626221,22.486141204833984,-37.38555145263672,0.20200461149215698,0.320267915725708,0.07282829284667969,0.059976757,-0.15640779,9.748747,-0.26895773,-0.26765642,9.742799,0
7,985.4727172851562,-1.3713748194277287E-4,7.090544677339494E-4,-3.921687602996826E-4,-6.233526229858398,23.148849487304688,-36.89815139770508,0.19584167003631592,0.31400781869888306,0.04448127746582031,0.067166746,-0.15402497,9.765318,-0.2611641,-0.2650237,9.759674,0
7,985.4572143554688,1.2898276327177882E-4,-8.986145257949829E-5,-2.590946387499571E-4,-6.312140941619873,23.07561492919922,-37.497623443603516,0.19978520274162292,0.30269336700439453,0.01612567901611328,0.05762747,-0.14687563,9.774788,-0.26575714,-0.25686127,9.769073,0
7,985.5009155273438,-4.0384475141763687E-4,4.4280203292146325E-4,-3.9233651477843523E-4,-5.968382358551025,22.50202178955078,-37.59402084350586,0.1987033188343048,0.30130141973495483,0.03511238098144531,0.060037673,-0.14925946,9.758221,-0.25872117,-0.26176086,9.7526045,0
7,985.4451293945312,-2.7088267961516976E-4,-3.5611377097666264E-4,-2.592625096440315E-4,-5.573127746582031,22.186981201171875,-37.09760284423828,0.2167094349861145,0.3142169415950775,0.05410003662109375,0.060057968,-0.15402652,9.758222,-0.26106653,-0.26258263,9.752596,0
7,985.4784545898438,7.941850926727057E-4,5.760235944762826E-4,-6.588202668353915E-4,-5.87620735168457,22.48259735107422,-36.991214752197266,0.19668254256248474,0.3222014904022217,0.030475616455078125,0.06485811,-0.16832669,9.77006,-0.2606017,-0.2743792,9.764396,0
7,985.4716186523438,7.937934715300798E-4,7.09245097823441E-4,-3.926721401512623E-4,-6.2624664306640625,22.700557708740234,-37.25238037109375,0.18513482809066772,0.2917270064353943,0.040022850036621094,0.07204813,-0.14449437,9.75349,-0.24825475,-0.24978033,9.7484665,0
7,985.4716186523438,7.937934715300798E-4,7.09245097823441E-4,-3.926721401512623E-4,-6.2624664306640625,22.700557708740234,-37.25238037109375,0.19921445846557617,0.2906665503978729,0.04951286315917969,0.057729006,-0.13257845,9.760595,-0.2576023,-0.23462963,9.7554455,0
8,985.4490966796875,2.60966073255986E-4,7.092768209986389E-4,-3.9275619201362133E-4,-6.1657257080078125,22.685550689697266,-36.88148880004883,0.21261852979660034,0.2893662452697754,0.04008769989013672,0.050579607,-0.14211212,9.758229,-0.2659288,-0.24071953,9.752801,0
8,985.4642944335938,-5.381775554269552E-4,-0.0010217445669695735,4.061076033394784E-4,-6.0692830085754395,22.038406372070312,-36.93546676635742,0.18811312317848206,0.30709177255630493,0.0685281753540039,0.057769656,-0.15641229,9.741661,-0.2622295,-0.2533701,9.736262,0
8,985.4417114257812,7.93206156231463E-4,-2.2276512754615396E-4,6.5498752519488335E-6,-6.401547431945801,22.886154174804688,-36.85689163208008,0.201202392578125,0.300823450088501,0.059113502502441406,0.043450564,-0.15164621,9.751131,-0.27362007,-0.24465236,9.745498,0
8,985.4620971679688,-5.9372978284955025E-6,-4.890492418780923E-4,-1.266920007765293E-4,-6.407497406005859,22.986175537109375,-37.24674606323242,0.19563016295433044,0.28982847929000854,0.04495048522949219,0.05303049,-0.14211361,9.765337,-0.2635534,-0.23409015,9.760151,0
8,985.4724731445312,7.928145350888371E-4,-3.558595199137926E-4,1.3954006135463715E-4,-6.6026387214660645,22.90880584716797,-37.2121467590332,0.2035652995109558,0.2742946743965149,0.026070594787597656,0.05066088,-0.14211406,9.758237,-0.2603034,-0.23657578,9.753063,0
8,985.4749145507812,2.5979126803576946E-4,-4.889538395218551E-4,-2.6010163128376007E-4,-6.266053199768066,23.065902709960938,-37.196224212646484,0.19804111123085022,0.3110041618347168,0.04504680633544922,0.057850897,-0.15641429,9.762973,-0.2556395,-0.2508191,9.757827,0
8,985.4909057617188,1.2643751688301563E-4,4.3709660531021655E-5,1.3928825501352549E-4,-6.218443870544434,23.057659149169922,-36.97212219238281,0.20139726996421814,0.2809910178184509,0.05930519104003906,0.053091407,-0.13734858,9.748772,-0.25372776,-0.23032025,9.74386,0
8,985.470458984375,1.2624170631170273E-4,0.0011090049520134926,-3.934273263439536E-4,-5.962974548339844,22.77029037475586,-37.3026123046875,0.20950767397880554,0.2888942360877991,0.04516029357910156,0.057891518,-0.15879856,9.765345,-0.25043976,-0.25316766,9.760314,0
8,985.4656982421875,-7.111928425729275E-6,5.764050292782485E-4,1.3912050053477287E-4,-6.084067344665527,22.761730194091797,-36.436622619628906,0.18469828367233276,0.306205153465271,0.04520606994628906,0.053132057,-0.1611823,9.7535095,-0.25560305,-0.25128078,9.748399,0
8,985.4791259765625,2.5900796754285693E-4,1.769630325725302E-4,-6.599111948162317E-4,-6.128632545471191,22.772918701171875,-36.81533432006836,0.19788603484630585,0.2955695390701294,0.050011634826660156,0.052896023,-0.14926018,9.7463875,-0.25184265,-0.23838037,9.741505,0
8,985.4810791015625,-2.6873755268752575E-4,5.729909753426909E-4,-6.61082100123167E-4,-5.95756721496582,23.038555145263672,-37.01120376586914,0.191989004611969,0.28440701961517334,0.04059410095214844,0.04812634,-0.14687715,9.762959,-0.25281674,-0.2361802,9.758051,0
8,985.453857421875,-2.685341169126332E-4,1.7348412075079978E-4,8.037423831410706E-4,-6.336354732513428,23.157958984375,-36.95981979370117,0.19099213182926178,0.27829205989837646,0.059574127197265625,0.055306256,-0.14687736,9.75349,-0.24769528,-0.2329318,9.748826,0
8,985.4845581054688,6.634736200794578E-4,4.0342070860788226E-5,-3.9472104981541634E-4,-5.977513790130615,22.493186950683594,-37.13018798828125,0.18505635857582092,0.28169283270835876,0.03121471405029297,0.05292642,-0.15402742,9.767694,-0.24853836,-0.24054283,9.762926,0
8,985.481689453125,-4.0188769344240427E-4,7.061477517709136E-4,-5.279206670820713E-4,-5.921208381652832,21.75572967529297,-37.0957145690918,0.18833138048648834,0.2656199336051941,0.05021190643310547,0.04576689,-0.14211126,9.751125,-0.25178793,-0.22461015,9.74643,0
8,985.4747924804688,-2.5115441530942917E-6,8.393214084208012E-4,4.0414283284917474E-4,-6.545354843139648,22.541114807128906,-37.35342788696289,0.17785881459712982,0.2975752055644989,0.045517921447753906,0.06250635,-0.15641119,9.75586,-0.24191332,-0.2367092,9.751443,0
8,985.487548828125,-4.020831547677517E-4,-2.259261964354664E-4,8.035748032853007E-4,-6.220807075500488,22.792343139648438,-37.41814041137695,0.19602879881858826,0.30067068338394165,0.05503273010253906,0.045787156,-0.15879472,9.746392,-0.25349227,-0.23757192,9.7416,0
8,985.4721069335938,-2.6902317767962813E-4,-4.922262160107493E-4,2.709010150283575E-4,-6.3527140617370605,22.24725341796875,-37.13496780395508,0.18566857278347015,0.2753441333770752,0.06453895568847656,0.060136735,-0.14926185,9.751127,-0.23898178,-0.2275685,9.746872,0
8,985.4679565429688,-2.8049107640981674E-6,-2.258944441564381E-4,2.7085922192782164E-4,-6.401547431945801,22.886154174804688,-36.85689163208008,0.1610308289527893,0.2786531150341034,0.0645751953125,0.06731656,-0.14926217,9.741659,-0.22985196,-0.22879653,9.7376375,0
8,985.5029907226562,-2.6921858079731464E-4,1.7359523917548358E-4,4.0397525299340487E-4,-6.271598815917969,22.69171905517578,-36.788551330566406,0.2074153572320938,0.27715811133384705,0.05515861511230469,0.033868104,-0.13972928,9.751129,-0.2581171,-0.21159004,9.746476,0
8,985.478271484375,6.627891561947763E-4,0.0011057168012484908,4.459405317902565E-6,-5.690059661865234,22.65704345703125,-37.26105880737305,0.18699343502521515,0.2758805453777313,0.04100227355957031,0.060167134,-0.1421128,9.760599,-0.22645207,-0.22446308,9.756611,0
8,985.45068359375,-1.3625627616420388E-4,8.394167525693774E-4,1.375754363834858E-4,-5.715115070343018,22.475547790527344,-37.246578216552734,0.19519709050655365,0.28307950496673584,0.06473541259765625,0.036278307,-0.15402944,9.748764,-0.25122464,-0.22920507,9.744116,0
8,985.47314453125,-4.0266988798975945E-4,-0.001291094464249909,4.038495244458318E-4,-6.145779609680176,23.230918884277344,-36.762508392333984,0.1900148093700409,0.2679717242717743,0.05528450012207031,0.06018743,-0.15879627,9.765335,-0.23103598,-0.23480283,9.761255,0
8,985.4640502929688,-1.3645179569721222E-4,1.7365874373354018E-4,-6.614560261368752E-4,-5.866532325744629,22.123146057128906,-37.356590270996094,0.15559378266334534,0.2809399366378784,0.04585456848144531,0.06975722,-0.15402992,9.7535,-0.21871014,-0.2314692,9.749767,0
8,985.4808349609375,-1.3654970098286867E-4,8.394643664360046E-4,-9.278138168156147E-4,-6.064143180847168,22.886795043945312,-38.14066696166992,0.20693619549274445,0.2459152489900589,0.04590320587158203,0.03152892,-0.13258065,9.753501,-0.24999706,-0.20079735,9.749182,0
8,985.473388671875,-0.001068752957507968,1.7369052511639893E-4,-1.289078500121832E-4,-5.524539470672607,22.548507690429688,-37.049259185791016,0.16761286556720734,0.28237006068229675,0.045948028564453125,0.062607795,-0.15879692,9.753502,-0.22401604,-0.23159844,9.749672,0
9,985.473388671875,-0.001068752957507968,1.7369052511639893E-4,-1.289078500121832E-4,-5.920910835266113,22.387863159179688,-36.670841217041016,0.17643292248249054,0.2524372339248657,0.04598045349121094,0.053058326,-0.14688082,9.762972,-0.23186736,-0.2148354,9.759104,0
9,985.4819946289062,8.652417454868555E-5,-3.3271958818659186E-4,6.47806329652667E-4,-6.243499279022217,22.876163482666016,-36.957645416259766,0.16577227413654327,0.2747594714164734,0.0270843505859375,0.057848275,-0.1564141,9.772442,-0.22739352,-0.22484158,9.768631,0
9,985.4819946289062,-7.125212578102946E-4,3.330859763082117E-4,2.482906566001475E-4,-6.093902587890625,22.59496307373047,-37.195194244384766,0.18347838521003723,0.2307504564523697,0.036597251892089844,0.026789695,-0.12781514,9.772444,-0.24645588,-0.193578,9.768291,0
9,985.4744262695312,7.521182997152209E-4,8.657336002215743E-4,9.140383917838335E-4,-5.482635498046875,21.639862060546875,-37.541439056396484,0.05917617678642273,0.32005882263183594,0.07448768615722656,0.10088679,-0.17786427,9.744038,-0.18535276,-0.25474137,9.741089,0
9,985.4996337890625,3.525466891005635E-4,-0.0016642514383420348,-1.512671005912125E-4,-5.8972392082214355,22.673809051513672,-37.30709457397461,0.23919859528541565,0.23744270205497742,0.022461891174316406,0.022030205,-0.14211531,9.767711,-0.25600415,-0.19878408,9.763391,0
9,985.4850463867188,-3.133408026769757E-4,0.001265239086933434,-0.0010834145359694958,-6.106919288635254,22.31932830810547,-37.10007858276367,0.17595414817333221,0.25954586267471313,0.04617881774902344,0.06266862,-0.1468821,9.765345,-0.21446894,-0.21265899,9.76198,0
9,985.4667358398438,-5.797544727101922E-4,6.683359970338643E-5,0.0010470706038177013,-6.104961395263672,23.058856964111328,-37.45158767700195,0.1704479455947876,0.24868284165859222,0.04620838165283203,0.053119242,-0.15403219,9.753509,-0.22323066,-0.217213,9.749895,0
9,985.485595703125,-0.0012456419644877315,5.9948128182441E-4,-2.8455053688958287E-4,-5.937238693237305,22.689414978027344,-37.917720794677734,0.15981242060661316,0.23793980479240417,0.046245574951171875,0.050739408,-0.13973276,9.755877,-0.22091089,-0.20218286,9.752412,0
9,985.4676513671875,0.0010179452365264297,6.686538108624518E-5,-1.514347386546433E-4,-5.968083381652832,23.134159088134766,-37.16914749145508,0.1924954354763031,0.2603452205657959,0.05574607849121094,0.043753445,-0.15165363,9.758261,-0.23244868,-0.20764033,9.754558,0
9,985.4577026367188,3.520578029565513E-4,-6.627672701142728E-5,2.479972317814827E-4,-6.171133041381836,22.417282104492188,-37.17289352416992,0.1628168672323227,0.24937547743320465,0.0699462890625,0.067846656,-0.14927508,9.751177,-0.20623487,-0.21059301,9.748101,0
9,985.4705200195312,-1.8192018615081906E-4,-0.001264479593373835,-8.178431889973581E-4,-6.05612850189209,22.419952392578125,-37.72966384887695,0.15262576937675476,0.25277990102767944,0.055767059326171875,0.055921257,-0.13735928,9.763016,-0.21462584,-0.19518462,9.759831,0
9,985.4961547851562,-4.479530907701701E-4,-3.3388176234439015E-4,-1.552304020151496E-4,-5.957322597503662,22.038127899169922,-37.337623596191406,0.1612318456172943,0.2703562080860138,0.06527137756347656,0.060725212,-0.17310907,9.755916,-0.21552801,-0.23072384,9.752531,0
9,985.4713745117188,-1.8186963279731572E-4,4.651035997085273E-4,-1.5533005353063345E-4,-5.9027838706970215,22.29962158203125,-36.8994255065918,0.14592306315898895,0.23097380995750427,0.060568809509277344,0.055969507,-0.13974379,9.751184,-0.21017665,-0.19760744,9.748079,0
9,985.4768676757812,-3.154924197588116E-4,5.983369774185121E-4,-9.544770000502467E-4,-6.35880184173584,22.24135971069336,-36.82574462890625,0.13493181765079498,0.25750166177749634,0.041678428649902344,0.060773373,-0.16596042,9.763022,-0.21552832,-0.21676004,9.759837,0
9,985.4768676757812,-3.154924197588116E-4,5.983369774185121E-4,-9.544770000502467E-4,-6.35880184173584,22.24135971069336,-36.82574462890625,0.1488247811794281,0.2566506564617157,0.041695594787597656,0.067967236,-0.15166135,9.765391,-0.20151341,-0.20690353,9.762535,0
9,985.480224609375,2.1690697758458555E-4,-2.0057286019437015E-4,-5.55102713406086E-4,-6.092380523681641,22.596435546875,-37.27250289916992,0.15761463344097137,0.24570968747138977,0.05592823028564453,0.056041837,-0.14927866,9.75119,-0.21073884,-0.20116724,9.748141,0
9,985.4677124023438,4.8275801236741245E-4,-6.733945338055491E-5,1.1048780288547277E-4,-5.879794120788574,22.847938537597656,-36.935054779052734,0.15204419195652008,0.24466310441493988,0.037014007568359375,0.06562555,-0.14927925,9.763029,-0.19907649,-0.2040897,9.760229,0
9,985.462646484375,-3.164221125189215E-4,-5.999335553497076E-4,-1.559276133775711E-4,-6.0552873611450195,22.683799743652344,-37.20634078979492,0.14192235469818115,0.2243887186050415,0.04177093505859375,0.060869873,-0.13974674,9.767765,-0.20267126,-0.19098829,9.764985,0
9,985.47509765625,7.486090762540698E-4,-7.330537191592157E-4,6.429204368032515E-4,-6.280592918395996,22.788795471191406,-37.023799896240234,0.15561243891716003,0.2232392132282257,0.041792869567871094,0.058504075,-0.15166374,9.760666,-0.20830646,-0.19929652,9.757762,0
9,985.462646484375,8.258686284534633E-5,-8.661739411763847E-4,2.4334690533578396E-4,-5.927701473236084,22.224044799804688,-37.584022521972656,0.1839631348848343,0.2506612539291382,0.04654216766357422,0.048968554,-0.14928104,9.755934,-0.21447039,-0.19578774,9.752876,0
9,985.4583129882812,8.235449786297977E-5,-8.661361644044518E-4,-2.306862734258175E-5,-6.108984470367432,22.686145782470703,-37.121219635009766,0.14997440576553345,0.235212504863739,0.04182720184326172,0.07528162,-0.15166493,9.763037,-0.18952069,-0.20222875,9.7605715,0
9,985.4758911132812,6.147538078948855E-4,-2.0030877203680575E-4,-1.563261030241847E-4,-5.6402482986450195,22.387908935546875,-37.71488952636719,0.14441044628620148,0.24358472228050232,0.05605506896972656,0.070525885,-0.15643205,9.7464695,-0.19028388,-0.20809716,9.743902,0
9,985.466064453125,-5.126823089085519E-5,-2.002710389206186E-4,-2.8958357870578766E-4,-5.6695709228515625,22.834129333496094,-37.04362487792969,0.15318113565444946,0.2086702287197113,0.0655527114868164,0.056210637,-0.13736643,9.75594,-0.1991457,-0.1855396,9.753272,0
9,985.4564819335938,-7.172905607149005E-4,-2.0023332035634667E-4,-2.896832302212715E-4,-5.781828880310059,22.202266693115234,-37.06633377075195,0.1428617537021637,0.24058018624782562,0.06084442138671875,0.082523674,-0.1588165,9.751207,-0.17889193,-0.20878108,9.748976,0
10,985.4613647460938,-8.506806334480643E-4,1.9927823450416327E-4,-2.897829981520772E-4,-6.293609619140625,22.513168334960938,-36.928680419921875,0.13242360949516296,0.24380311369895935,0.022996902465820312,0.06820834,-0.14690073,9.779617,-0.19337085,-0.18925034,9.777216,0
10,985.4717407226562,-7.177552906796336E-4,5.987898330204189E-4,-1.567245926707983E-4,-6.04325008392334,22.58966827392578,-37.12570571899414,0.19807736575603485,0.21842053532600403,0.04197406768798828,0.037163764,-0.14690132,9.763048,-0.21959089,-0.18316227,9.7600355,0
10,985.4671020507812,-3.1851374660618603E-4,-6.696220953017473E-5,5.089655751362443E-4,-5.626282215118408,21.821041107177734,-36.91402816772461,0.12575384974479675,0.2506110966205597,0.056197166442871094,0.092155606,-0.16835143,9.758316,-0.16766891,-0.21701843,9.756349,0
10,985.4550170898438,8.072753553278744E-5,1.9939144840463996E-4,-4.2323966044932604E-4,-6.183171272277832,22.511417388916016,-37.25353240966797,0.14414024353027344,0.23959538340568542,0.051486968994140625,0.0515514,-0.14928578,9.758319,-0.2053842,-0.18501684,9.755681,0
10,985.4647216796875,-7.184523856267333E-4,3.32586991135031E-4,2.4245050735771656E-4,-5.934333324432373,22.586444854736328,-37.37324905395508,0.1623118817806244,0.21421656012535095,0.03257942199707031,0.05396542,-0.15405293,9.779626,-0.20127739,-0.19120337,9.777048,0
10,985.470458984375,-1.8605325021781027E-4,-7.326386985369027E-4,-6.897547282278538E-4,-6.061375141143799,22.67790985107422,-36.89712142944336,0.15195110440254211,0.22278478741645813,0.03733634948730469,0.058769315,-0.14213715,9.760691,-0.19349015,-0.17883728,9.758346,0
10,985.4678344726562,-5.312749999575317E-5,3.3266248647123575E-4,9.080409072339535E-4,-6.201297760009766,22.59966278076172,-37.02495193481445,0.136910080909729,0.2406013309955597,0.0515594482421875,0.07313284,-0.15643741,9.763061,-0.18309182,-0.19373822,9.76095,0
10,985.4347534179688,8.787454571574926E-4,-4.6624732203781605E-4,-2.4164211936295033E-5,-6.640275001525879,23.189727783203125,-37.37675476074219,0.15060174465179443,0.22512683272361755,0.05631542205810547,0.05403775,-0.14452158,9.765429,-0.20018381,-0.17439346,9.763038,0
10,985.4452514648438,-5.862242542207241E-4,-4.6620966168120503E-4,3.752099582925439E-4,-6.077299118041992,22.5052490234375,-37.34646987915039,0.164033904671669,0.21447747945785522,0.03740215301513672,0.046892107,-0.14928873,9.763065,-0.20423386,-0.1797226,9.7605295,0
10,985.4735107421875,8.782807271927595E-4,-1.9985594553872943E-4,3.7511042319238186E-4,-5.966019153594971,22.76734161376953,-37.14799880981445,0.12834873795509338,0.21351562440395355,0.03251934051513672,0.07740259,-0.1541002,9.75613,-0.17352916,-0.19160312,9.75423,0
10,985.4786376953125,-7.247128523886204E-4,-0.0011358088813722134,4.955350304953754E-4,-5.614351272583008,22.833251953125,-37.206050872802734,0.14231806993484497,0.2169257551431656,0.06093120574951172,0.05837977,-0.14456947,9.751404,-0.1866295,-0.17969722,9.749209,0
10,985.4566650390625,2.0220634178258479E-4,-2.0286135259084404E-4,-4.387930384837091E-4,-6.026102066040039,22.13166046142578,-37.178531646728516,0.1701684594154358,0.21564170718193054,0.046744346618652344,0.044136763,-0.13980527,9.765616,-0.20176645,-0.16769156,9.763191,0
10,985.4566650390625,2.0220634178258479E-4,-2.0286135259084404E-4,-4.387930384837091E-4,-5.993980407714844,22.68881607055664,-37.6779899597168,0.14561380445957184,0.20958587527275085,0.060957908630371094,0.06335235,-0.14934076,9.746688,-0.1826997,-0.18129113,9.74464,0
10,985.4464721679688,-4.645124136004597E-4,-7.353423279710114E-4,-1.7287553055211902E-4,-5.786938190460205,22.566139221191406,-36.9328727722168,0.12561540305614471,0.213413804769516,0.03730010986328125,0.07539824,-0.14934315,9.7609005,-0.16961908,-0.18378386,9.7591305,0
10,985.4491577148438,2.0034846966154873E-4,-7.351915119215846E-4,-4.39589552115649E-4,-5.736965179443359,22.823219299316406,-36.26275634765625,0.12956899404525757,0.2121991217136383,0.051517486572265625,0.06354511,-0.14696224,9.75144,-0.1784563,-0.17897865,9.74948,0
10,985.447021484375,1.3902757200412452E-4,6.286751595325768E-4,-5.223311018198729E-4,-5.566880226135254,22.719097137451172,-36.28287124633789,0.14293549954891205,0.22050973773002625,0.037331581115722656,0.06364149,-0.15173115,9.770387,-0.17958659,-0.18176866,9.768431,0
10,985.4345092773438,-2.6137506938539445E-4,3.6251003621146083E-4,1.4306051889434457E-4,-5.724789619445801,22.835006713867188,-36.881195068359375,0.1422719657421112,0.21897029876708984,0.06101799011230469,0.06134796,-0.15411676,9.756191,-0.1807378,-0.18261889,9.754218,0
10,985.4819946289062,-6.617777980864048E-4,-5.694447318091989E-4,2.758203772827983E-4,-5.623620986938477,22.71849822998047,-36.04314041137695,0.136778324842453,0.21299174427986145,0.0515594482421875,0.059054434,-0.15173586,9.763303,-0.18266276,-0.17787503,9.761331,0
10,985.427490234375,-2.632329997140914E-4,9.649577259551734E-5,6.74896058626473E-4,-5.634435653686523,22.181968688964844,-36.625953674316406,0.1453632116317749,0.20249319076538086,0.046840667724609375,0.05198109,-0.1398219,9.763311,-0.1875687,-0.16214888,9.761304,0
10,985.437255859375,4.016279417555779E-4,4.961203667335212E-4,4.08182037062943E-4,-6.063440322875977,23.044723510742188,-36.918270111083984,0.14437782764434814,0.20157767832279205,0.032652854919433594,0.06402695,-0.15174063,9.765687,-0.17562234,-0.17759866,9.763882,0
10,985.4530639648438,1.2251839507371187E-6,-3.0267646070569754E-4,-9.237953927367926E-4,-5.673593521118164,22.46141815185547,-36.7132568359375,0.12889817357063293,0.23392602801322937,0.046875,0.06412336,-0.17319252,9.77043,-0.17816932,-0.19852184,9.768535,0
10,985.4786987304688,2.9630609788000584E-7,3.632640582509339E-4,-2.5840383023023605E-4,-5.440976619720459,21.731651306152344,-37.70719528198242,0.12819823622703552,0.20822912454605103,0.05162239074707031,0.07616922,-0.14697881,9.772806,-0.16052946,-0.17321838,9.771355,0
10,985.4457397460938,-4.001063934992999E-4,4.965728730894625E-4,-0.0011909076711162925,-5.726312160491943,22.83353042602539,-36.803890228271484,0.14658582210540771,0.19756245613098145,0.07530403137207031,0.052366585,-0.14698108,9.74441,-0.18059842,-0.16905938,9.742518,0
10,985.436279296875,-6.673510652035475E-4,9.724967821966857E-5,1.402737107127905E-4,-5.403584957122803,22.451148986816406,-37.21616744995117,0.13174264132976532,0.20586633682250977,0.03743457794189453,0.06919223,-0.14936672,9.770457,-0.16812359,-0.1701962,9.768916,0
10,985.4611206054688,-2.4902692530304193E-6,-5.683891358785331E-4,-3.927559591829777E-4,-5.901124000549316,22.407012939453125,-37.67580795288086,0.11641088128089905,0.19034048914909363,0.046919822692871094,0.06928864,-0.13983603,9.765732,-0.16263202,-0.16200353,9.76428,0
11,985.4568481445312,-6.692088209092617E-4,-4.350804374553263E-4,6.721094250679016E-4,-5.589594841003418,22.382614135742188,-37.64540481567383,0.15860098600387573,0.20826058089733124,0.03746223449707031,0.05026579,-0.14937146,9.765739,-0.1817559,-0.16694203,9.763894,0
11,985.4513549804688,-4.348141374066472E-6,4.97175904456526E-4,-0.0010593418264761567,-5.5291056632995605,22.544086456298828,-36.817344665527344,0.11939460039138794,0.21212702989578247,0.05641365051269531,0.06948137,-0.15652366,9.75628,-0.16471383,-0.1758002,9.75481,0
11,985.4564819335938,1.2788097956217825E-4,2.310107956873253E-4,6.713132024742663E-4,-5.734763145446777,22.56231689453125,-36.94068908691406,0.123618945479393,0.18739141523838043,0.03748035430908203,0.057628214,-0.13984312,9.7586565,-0.17505784,-0.15287596,9.757062,0
11,985.4521484375,7.927416590973735E-4,-3.014701069332659E-4,2.714413567446172E-4,-6.252631187438965,22.867324829101562,-36.493812561035156,0.1183016300201416,0.19586281478405,0.051690101623535156,0.06728423,-0.15652843,9.761032,-0.16939586,-0.16997372,9.759569,0
11,985.4395751953125,-1.4029265730641782E-4,-7.007931126281619E-4,-2.615886041894555E-4,-6.322113990783691,22.80292510986328,-37.5571174621582,0.12707288563251495,0.19453538954257965,0.04223155975341797,0.06260079,-0.14938094,9.763409,-0.16847152,-0.16378802,9.761926,0
11,985.4431762695312,-0.001074256026186049,-1.6785979096312076E-4,4.0340505074709654E-4,-5.983463764190674,22.59320831298828,-37.52004623413086,0.12645040452480316,0.18373267352581024,0.04697418212890625,0.06508708,-0.14938332,9.758682,-0.16613193,-0.16222674,9.75728,0
11,985.4823608398438,-1.4307929086498916E-4,-0.0014992884825915098,5.361647927202284E-4,-5.575491428375244,21.921661376953125,-37.54362106323242,0.11651788651943207,0.19677060842514038,0.028038978576660156,0.06518343,-0.14700241,9.775262,-0.16355552,-0.16054718,9.773898,0
11,985.4552612304688,-5.434820195659995E-4,2.319156046723947E-4,-1.3002287596464157E-4,-5.809492588043213,22.755878448486328,-37.171451568603516,0.13005214929580688,0.19070357084274292,0.04225349426269531,0.05333036,-0.14938809,9.770536,-0.17499347,-0.15876701,9.768966,0
11,985.4754638671875,3.876947157550603E-4,-4.337233258411288E-4,-3.9673701394349337E-4,-6.304806709289551,22.87114715576172,-36.48599624633789,0.12126947939395905,0.18949255347251892,0.047165870666503906,0.06445414,-0.1493678,9.763359,-0.16640343,-0.15725732,9.762031,0
11,985.4632568359375,3.8898756611160934E-4,-3.445940092206001E-5,-1.298669958487153E-4,-5.774219512939453,22.209632873535156,-37.45286178588867,0.13515879213809967,0.193839430809021,0.04717540740966797,0.056402653,-0.14934619,9.756177,-0.17061758,-0.1575115,9.754718,0
11,985.4459838867188,-2.5387114146724343E-4,8.585731848143041E-5,-2.6577559765428305E-4,-5.579621315002441,22.655296325683594,-37.58591079711914,0.14857548475265503,0.168982595205307,0.03299140930175781,0.04447472,-0.13743033,9.760913,-0.17685793,-0.14464578,9.759308,0
11,985.463623046875,4.1171052725985646E-4,4.85364900669083E-4,-9.316543582826853E-4,-5.785959243774414,22.935901641845703,-37.10862731933594,0.1329534500837326,0.18159306049346924,0.04722309112548828,0.056445837,-0.14696394,9.756181,-0.16710114,-0.1544627,9.754797,0
11,985.4530029296875,-3.87445033993572E-4,-4.723314486909658E-5,3.6205165088176727E-7,-6.301219940185547,22.50580596923828,-36.54215621948242,0.12795594334602356,0.18590417504310608,0.05669689178466797,0.0612472,-0.15888087,9.75855,-0.1684078,-0.16190478,9.757239,0
11,985.4642944335938,1.449787523597479E-4,8.595859981141984E-5,-2.660430036485195E-4,-6.151485443115234,22.33051300048828,-37.478782653808594,0.12700606882572174,0.19898086786270142,0.047247886657714844,0.049319267,-0.15649809,9.76092,-0.17747957,-0.15666424,9.759428,0
11,985.4463500976562,-2.547030453570187E-4,8.599236025474966E-5,-1.329741207882762E-4,-5.914279460906982,22.025474548339844,-36.881614685058594,0.14098282158374786,0.174104705452919,0.047257423400878906,0.046950936,-0.14934881,9.768023,-0.1767139,-0.14935164,9.766539,0
11,985.4312744140625,4.10878739785403E-4,-0.0011123953154310584,2.66410643234849E-4,-5.83248233795166,22.207561492919922,-37.135826110839844,0.12597770988941193,0.19231605529785156,0.05200386047363281,0.0613119,-0.15173264,9.751453,-0.1613154,-0.15516122,9.750258,0
11,985.4642944335938,2.7751276502385736E-4,-3.1341396970674396E-4,-2.66310409642756E-4,-5.870119094848633,22.48849105834961,-37.30043411254883,0.1350467950105667,0.18664436042308807,0.056748390197753906,0.054163784,-0.14696659,9.758557,-0.1665223,-0.14833045,9.757266,0
11,985.472412109375,-1.2216897448524833E-4,0.0012845151359215379,-2.663995837792754E-4,-6.305648326873779,22.607303619384766,-37.00931930541992,0.11457991600036621,0.1902492344379425,0.052041053771972656,0.05418539,-0.16365002,9.760927,-0.171556,-0.16078942,9.759618,0
11,985.4822387695312,1.078099012374878E-5,-4.465043602976948E-4,-1.7264392226934433E-7,-5.604133129119873,22.105510711669922,-37.47298049926758,0.12833264470100403,0.17506800591945648,0.052051544189453125,0.06137666,-0.13981785,9.751461,-0.15442802,-0.14255752,9.750392,0
11,985.4442138671875,1.057301415130496E-5,8.616113336756825E-5,-1.334197586402297E-4,-5.4401350021362305,21.99549102783203,-37.183876037597656,0.1180824339389801,0.17866744101047516,0.028394699096679688,0.066178024,-0.14458491,9.763298,-0.14925805,-0.1480912,9.762331,0
11,985.4400634765625,-3.891087253578007E-4,-7.127528078854084E-4,-3.5099219530820847E-7,-5.720223426818848,22.83942413330078,-37.11310958862305,0.1226377785205841,0.1777569204568863,0.05680561065673828,0.05664003,-0.14935203,9.753832,-0.15964974,-0.14923884,9.752691,0
11,985.46044921875,4.096308839507401E-4,-1.8008719780482352E-4,2.6587583124637604E-4,-5.668729782104492,23.097972869873047,-36.520301818847656,0.11745104193687439,0.16277346014976501,0.0520782470703125,0.061441362,-0.1398194,9.760935,-0.15198393,-0.14095995,9.75993,0
11,985.4396362304688,0.0012083705514669418,-7.12685170583427E-4,-5.292240530252457E-7,-5.323310852050781,22.63177490234375,-37.3930778503418,0.1120806485414505,0.17161452770233154,0.05682373046875,0.04951346,-0.1493531,9.751469,-0.16315693,-0.14901492,9.750235,0
11,985.4755249023438,1.4289910905063152E-4,0.001284717582166195,-4.0009221993386745E-4,-5.8806352615356445,22.58409881591797,-37.4583740234375,0.12492094933986664,0.16582795977592468,0.033181190490722656,0.05670473,-0.14220376,9.772775,-0.15682907,-0.13899091,9.7717285,0
11,985.4608154296875,-2.5678268866613507E-4,7.521196966990829E-4,-7.074559107422829E-7,-5.608401298522949,22.733230590820312,-36.816192626953125,0.1334632933139801,0.1744047999382019,0.04266834259033203,0.047166705,-0.14697085,9.753839,-0.16624093,-0.14014263,9.752638,0
12,985.4608154296875,-2.5678268866613507E-4,7.521196966990829E-4,-7.074559107422829E-7,-5.883136749267578,22.212860107421875,-37.20531463623047,0.1285584568977356,0.17334437370300293,0.05687427520751953,0.056747884,-0.1445881,9.753841,-0.15464598,-0.14053416,9.75284,0
12,985.4585571289062,-5.233064875937998E-4,-7.125838892534375E-4,-7.96513631939888E-7,-5.712071418762207,22.478496551513672,-37.40118408203125,0.1132756769657135,0.19125708937644958,0.05689239501953125,0.063939154,-0.16365482,9.760944,-0.15240967,-0.15820584,9.760054,0
12,985.4585571289062,1.4227518113330007E-4,6.190291605889797E-4,-2.67201685346663E-4,-5.902784824371338,22.29962921142578,-36.8994255065918,0.14583821594715118,0.18533489108085632,0.042705535888671875,0.044841528,-0.15412225,9.770414,-0.1659006,-0.14593647,9.769234,0
12,985.4559936523438,-0.0010005880612879992,-3.8571705226786435E-4,2.214473206549883E-4,-5.580600261688232,22.285533905029297,-37.410152435302734,0.13555781543254852,0.179835706949234,0.052186012268066406,0.0520328,-0.14458968,9.756214,-0.15643613,-0.13683505,9.755211,0
12,985.4437255859375,4.639413673430681E-4,6.795802619308233E-4,-3.112733829766512E-4,-5.707643508911133,22.376998901367188,-36.934024810791016,0.12495076656341553,0.1740206778049469,0.05220508575439453,0.052054405,-0.14935674,9.763319,-0.15666392,-0.14034906,9.762335,0
12,985.4744262695312,1.9741745200008154E-4,4.132981412112713E-4,-4.50467923656106E-5,-5.740170478820801,22.29405975341797,-37.23209762573242,0.12377582490444183,0.18730652332305908,0.061695098876953125,0.049686074,-0.16604017,9.751484,-0.16356222,-0.15280405,9.750455,0
12,985.4822387695312,-7.348959916271269E-4,9.459636639803648E-4,4.874958540312946E-4,-6.128089904785156,22.404624938964844,-36.716880798339844,0.12317593395709991,0.16712841391563416,0.05697059631347656,0.054487437,-0.1541244,9.758588,-0.15686643,-0.13976154,9.757696,0
12,985.4622192382812,1.9700161647051573E-4,4.133657203055918E-4,-1.7838296480476856E-4,-6.30219841003418,22.13603973388672,-36.366397857666016,0.10856957733631134,0.16159969568252563,0.06170940399169922,0.05689892,-0.14697503,9.749121,-0.14855471,-0.13681522,9.748303,0
12,985.4473266601562,4.6310946345329285E-4,-9.181799832731485E-4,-4.4478802010416985E-4,-5.78237247467041,22.570556640625,-37.1647834777832,0.10314145684242249,0.1747020184993744,0.05698585510253906,0.060857385,-0.1493382,9.75378,-0.14464615,-0.1387338,9.753055,0
12,985.4496459960938,-2.028882154263556E-4,1.4711728726979345E-4,-3.117193700745702E-4,-5.843542098999023,22.671463012695312,-37.39221954345703,0.11406929790973663,0.17397823929786682,0.042944908142089844,0.0480361,-0.15408333,9.760801,-0.15963978,-0.13786194,9.759857,0
12,985.4703369140625,-1.9704719306901097E-4,-6.496107671409845E-4,-3.050478408113122E-4,-6.021535873413086,22.136077880859375,-37.41044616699219,0.12328098714351654,0.15404358506202698,0.04769325256347656,0.04799038,-0.14216585,9.756063,-0.15723379,-0.12425839,9.755158,0
12,985.4598999023438,3.4392642555758357E-4,-6.509650265797973E-4,9.800086263567209E-5,-6.395459175109863,22.892044067382812,-37.16611099243164,0.12237881124019623,0.17220889031887054,0.04298114776611328,0.050334603,-0.15646441,9.774997,-0.15724587,-0.13844213,9.774133,0
12,985.465576171875,2.112087677232921E-4,1.47911167005077E-4,3.6450556945055723E-4,-6.233824729919434,22.516708374023438,-37.323020935058594,0.10279768705368042,0.1712357997894287,0.052463531494140625,0.059848547,-0.15407993,9.756055,-0.14860584,-0.13524964,9.755385,0
12,985.4526977539062,3.448069910518825E-4,-3.8479213253594935E-4,-5.674113053828478E-4,-6.57497501373291,22.355194091796875,-37.10702896118164,0.12145745754241943,0.16071878373622894,0.03827381134033203,0.04785335,-0.15407892,9.763153,-0.1565549,-0.13493906,9.762299,0
12,985.4583129882812,-7.200164254754782E-4,-7.843374041840434E-4,-3.009068313986063E-4,-5.95732307434082,22.038131713867188,-37.33762741088867,0.12104099988937378,0.16478097438812256,0.02881908416748047,0.05258751,-0.13739474,9.765515,-0.14673877,-0.12015754,9.764782,0
12,985.44873046875,4.788455553352833E-4,5.471705226227641E-4,6.313875783234835E-4,-5.953980445861816,22.67321014404297,-37.06736373901367,0.12986856698989868,0.16884104907512665,0.057244300842285156,0.040592313,-0.15169336,9.756042,-0.16320927,-0.12759614,9.755106,0
12,985.4337768554688,-4.52379637863487E-4,2.8071171254850924E-4,-5.666564684361219E-4,-6.005069732666016,21.940452575683594,-36.86265182495117,0.12444055080413818,0.15808260440826416,0.06673049926757812,0.042936534,-0.15169223,9.751303,-0.15858816,-0.12879871,9.750437,0
12,985.4513549804688,-1.8562335753813386E-4,1.4324381481856108E-5,7.65111530199647E-4,-5.889767169952393,22.57525634765625,-36.994544982910156,0.11881744861602783,0.16185124218463898,0.04781341552734375,0.042890847,-0.15645765,9.756033,-0.15724953,-0.13442513,9.755187,0
12,985.4266967773438,-7.17814895324409E-4,1.4741081395186484E-4,8.984581800177693E-4,-6.218337059020996,21.951316833496094,-36.59946823120117,0.10885527729988098,0.15609842538833618,0.052559852600097656,0.057184577,-0.1445402,9.75603,-0.1425392,-0.12227377,9.755461,0
12,985.4420776367188,-1.8474285025149584E-4,2.8049733373336494E-4,6.32330949883908E-4,-5.812834739685059,22.12079620361328,-37.44171142578125,0.13657797873020172,0.16002710163593292,0.047847747802734375,0.04518941,-0.15168883,9.760759,-0.1523496,-0.12866493,9.760006,0
12,985.4468994140625,6.146449595689774E-4,4.1358379530720413E-4,3.6620371975004673E-4,-5.720521926879883,22.207286834716797,-37.53798294067383,0.10243289172649384,0.15457352995872498,0.02892780303955078,0.05948311,-0.15168776,9.772591,-0.13714099,-0.1320345,9.772095,0
12,985.4571533203125,0.0010145592968910933,-3.854353853967041E-4,-4.3255509808659554E-4,-6.22841739654541,22.784976959228516,-37.0316162109375,0.1114281564950943,0.14912882447242737,0.05734825134277344,0.054657638,-0.14692004,9.763119,-0.14188416,-0.12355433,9.762564,0
12,985.4395141601562,2.1605176152661443E-4,9.460726287215948E-4,-3.2892683520913124E-5,-5.639949321746826,23.020042419433594,-37.29001998901367,0.11060261726379395,0.1579727977514267,0.038430213928222656,0.05461198,-0.14930226,9.760747,-0.13806441,-0.12912822,9.76021,0
12,985.4301147460938,3.496499266475439E-4,5.465273279696703E-4,8.99401493370533E-4,-6.104557037353516,22.584651947021484,-36.654056549072266,0.10988767445087433,0.16658563911914825,0.04791545867919922,0.0569562,-0.15168436,9.756008,-0.13839272,-0.12793936,9.755535,0
13,985.4476928710938,-1.8254161113873124E-4,2.8013999690301716E-4,-1.6567332204431295E-4,-5.8235955238342285,23.216827392578125,-37.27323532104492,0.09007027745246887,0.1420881748199463,0.043198585510253906,0.06169033,-0.14215018,9.758371,-0.12853199,-0.121655144,9.757996,0
13,985.4403686523438,2.1737255156040192E-4,-1.1940534750465304E-4,-5.649583181366324E-4,-5.99770450592041,22.9482421875,-36.922752380371094,0.09459181129932404,0.15097063779830933,0.04320716857910156,0.056864828,-0.14929886,9.770204,-0.13582164,-0.12562066,9.769758,0
13,985.4429321289062,3.509707166813314E-4,-1.1947679740842432E-4,3.6733585875481367E-4,-6.3767900466918945,22.435516357421875,-37.29623794555664,0.11312347650527954,0.15955157577991486,0.062160491943359375,0.052039385,-0.14929776,9.755997,-0.14201218,-0.12085214,9.755495,0
13,985.4557495117188,-4.806293873116374E-5,-1.1954826186411083E-4,-4.3142319191247225E-4,-6.047815322875977,22.585247039794922,-36.8937873840332,0.1077459305524826,0.1489148885011673,0.057440757751464844,0.051993698,-0.14929663,9.74889,-0.13924915,-0.12205149,9.748413,0
13,985.4454345703125,-0.0013792021200060844,8.124858140945435E-4,-6.975503638386726E-4,-6.397119522094727,22.784652709960938,-36.38972473144531,0.10687419772148132,0.14308863878250122,0.05272483825683594,0.044778287,-0.13499583,9.753621,-0.14321133,-0.103782766,9.753057,0
13,985.4556884765625,2.1913339151069522E-4,-1.1969120532739908E-4,6.342176930047572E-4,-6.161159992218018,22.689971923828125,-37.1134033203125,0.1017293930053711,0.15662334859371185,0.04800224304199219,0.061461985,-0.14452781,9.763084,-0.127891,-0.11764488,9.762802,0
13,985.4531860351562,-4.674232332035899E-5,-6.523943739011884E-4,-3.1383358873426914E-5,-5.745821952819824,23.026214599609375,-37.19708251953125,0.10626533627510071,0.1560085564851761,0.062213897705078125,0.04707685,-0.14452668,9.758347,-0.13900311,-0.116584465,9.757844,0
13,985.43603515625,4.863297217525542E-4,-2.529920602682978E-4,-3.119464963674545E-5,-5.689516544342041,22.28875732421875,-37.1626091003418,0.11045759916305542,0.12186317890882492,0.043290138244628906,0.05181098,-0.1445256,9.770178,-0.13434307,-0.11631286,9.769769,0
13,985.4715576171875,3.536120639182627E-4,4.127261636313051E-4,-3.100594040006399E-5,-5.789844512939453,22.669113159179688,-37.47733688354492,0.08602869510650635,0.14016224443912506,0.04803943634033203,0.061324954,-0.14452447,9.758338,-0.12421164,-0.117800914,9.758099,0
13,985.461669921875,-1.7857947386801243E-4,-5.194509867578745E-4,1.023407094180584E-4,-6.050178050994873,22.319923400878906,-37.339805603027344,0.08729653060436249,0.14881783723831177,0.04303550720214844,0.06677163,-0.15413256,9.760985,-0.12226208,-0.1257796,9.760856,0
13,985.4795532226562,-8.690284448675811E-4,5.426131538115442E-4,4.8176932614296675E-4,-5.9213151931762695,22.862075805664062,-37.4683723449707,0.0960412472486496,0.15751102566719055,0.028837203979492188,0.062069118,-0.1565177,9.77046,-0.12667803,-0.12625225,9.770273,0
13,985.4613647460938,6.233173189684749E-5,4.0957628516480327E-4,-5.838137585669756E-4,-6.18828010559082,22.875289916992188,-37.12006759643555,0.10465729236602783,0.12822332978248596,0.024106979370117188,0.059756517,-0.13745345,9.777571,-0.12351343,-0.10667281,9.777359,0
13,985.447021484375,1.947444397956133E-4,8.091710624285042E-4,2.148146741092205E-4,-6.176241874694824,22.781158447265625,-37.039432525634766,0.09457027912139893,0.13188989460468292,0.06671714782714844,0.059833884,-0.1469884,9.761006,-0.12314129,-0.116793774,9.760822,0
13,985.447021484375,1.947444397956133E-4,8.091710624285042E-4,2.148146741092205E-4,-5.929468154907227,23.222999572753906,-37.1802978515625,0.08427365124225616,0.1501389592885971,0.05251598358154297,0.06947076,-0.1517569,9.751545,-0.11388077,-0.12297246,9.751533,0
13,985.4415283203125,-4.7179043758660555E-4,-2.55971506703645E-4,-5.844522966071963E-4,-5.912864685058594,23.133285522460938,-37.33157730102539,0.08388502895832062,0.16361255943775177,0.03830909729003906,0.06954813,-0.16367514,9.763389,-0.11679055,-0.13328385,9.763401,0
13,985.44970703125,4.5956973917782307E-4,1.4362337242346257E-4,3.473337274044752E-4,-5.888245582580566,22.576732635498047,-37.07184982299805,0.0926084816455841,0.143750861287117,0.047783851623535156,0.057675958,-0.14937742,9.756293,-0.12287885,-0.11731352,9.756127,0
13,985.4346313476562,-4.732810193672776E-4,1.058638736139983E-5,2.13856459595263E-4,-5.730740547180176,22.935028076171875,-37.27105712890625,0.09171608090400696,0.1240752562880516,0.07145977020263672,0.06492296,-0.14461274,9.751566,-0.11482125,-0.11279814,9.751526,0
13,985.4423828125,3.125954535789788E-4,5.8498524595052E-4,-5.973981460556388E-4,-5.876070022583008,22.588516235351562,-37.69029235839844,0.1006694883108139,0.13780809938907623,0.05252265930175781,0.06022048,-0.15176447,9.763409,-0.1206224,-0.11814727,9.763313,0
13,985.4525756835938,4.4500810327008367E-4,5.851062014698982E-4,-6.508571095764637E-5,-5.933491230010986,22.85028839111328,-36.84992599487305,0.09572288393974304,0.13739967346191406,0.052516937255859375,0.05790794,-0.15176637,9.753947,-0.123984605,-0.11577149,9.753825,0
13,985.4398193359375,0.0011100524570792913,-7.463521906174719E-4,6.775290239602327E-5,-6.240455627441406,22.879108428955078,-37.11225128173828,0.07620058953762054,0.14586687088012695,0.02884197235107422,0.07232463,-0.14938499,9.763424,-0.107981965,-0.11687252,9.763537,0
13,985.4532470703125,4.4043699745088816E-5,-6.130732363089919E-4,4.6690728049725294E-4,-6.028709888458252,22.86676788330078,-37.29813003540039,0.09515523910522461,0.13084709644317627,0.03830432891845703,0.058062553,-0.14462037,9.770533,-0.12098086,-0.10778351,9.7704315,0
13,985.4635009765625,-8.888070588000119E-4,-0.0012787419836968184,2.0027195569127798E-4,-6.079501152038574,22.766151428222656,-36.66853713989258,0.09973226487636566,0.1445925533771515,0.06670570373535156,0.055750012,-0.15177207,9.751601,-0.12556249,-0.11247009,9.751486,0
13,985.4437866210938,8.415007614530623E-4,-3.465153858996928E-4,6.679468788206577E-5,-6.19923210144043,22.23284149169922,-37.00380325317383,0.0800417810678482,0.13416215777397156,0.06197071075439453,0.07016671,-0.15177394,9.753975,-0.10848542,-0.11756262,9.754096,0
13,985.4434814453125,-2.2450805408880115E-4,-3.463943721726537E-4,1.9963312661275268E-4,-5.712912559509277,22.214645385742188,-37.92450714111328,0.08950947225093842,0.13820722699165344,0.07616615295410156,0.060684443,-0.1470093,9.746881,-0.11768289,-0.108712494,9.746861,0
13,985.4337158203125,4.106253618374467E-5,-3.4627338754944503E-4,-5.996340187266469E-4,-6.121022701263428,22.78028106689453,-37.20185852050781,0.0889146476984024,0.11862177401781082,0.04302501678466797,0.058371842,-0.13271154,9.758724,-0.11606095,-0.093865134,9.75866,0
14,985.4312133789062,8.392648887820542E-4,-7.456262828782201E-4,8.64784000441432E-4,-5.9995245933532715,22.31462860107422,-37.27031326293945,0.09344621002674103,0.13212886452674866,0.05248737335205078,0.053669333,-0.14939637,9.753998,-0.1255254,-0.10667344,9.753898,0
14,985.4110107421875,-3.5990180913358927E-4,-6.123473285697401E-4,-6.764102727174759E-5,-6.308011054992676,22.34197998046875,-37.4553337097168,0.08328238129615784,0.12653478980064392,0.033550262451171875,0.0633063,-0.14463176,9.768207,-0.113949805,-0.1043174,9.768263,0
14,985.44189453125,-6.269630393944681E-4,-6.12226314842701E-4,-6.796035449951887E-5,-6.283637046813965,22.785850524902344,-36.86919021606445,0.08742272853851318,0.14447006583213806,0.07142448425292969,0.056213915,-0.15416674,9.749277,-0.12139966,-0.11170612,9.749262,0
14,985.4036254882812,3.0439719557762146E-4,7.194740464910865E-4,3.311939653940499E-4,-6.112029075622559,22.683204650878906,-36.966609954833984,0.08670628070831299,0.11028829962015152,0.03355121612548828,0.065850854,-0.1351024,9.765854,-0.107792646,-0.09376993,9.765966,0
14,985.4325561523438,-2.297250903211534E-4,-2.1238949557300657E-4,-6.015503313392401E-4,-6.072977066040039,23.510093688964844,-37.2519645690918,0.08631156384944916,0.1286066174507141,0.03828144073486328,0.061148375,-0.14225413,9.768229,-0.1117648,-0.10101576,9.768295,0
14,985.432373046875,-3.636284382082522E-4,7.198370294645429E-4,8.628675132058561E-4,-5.742778301239014,23.029159545898438,-37.351688385009766,0.09023573994636536,0.14699102938175201,0.05722236633300781,0.061225742,-0.14940585,9.761133,-0.11135574,-0.108541936,9.76123,0
14,985.4353637695312,4.345737979747355E-4,4.53642220236361E-4,-6.955757271498442E-5,-6.10692024230957,22.319332122802734,-37.100074768066406,0.10375010967254639,0.14643588662147522,0.052491188049316406,0.046963662,-0.16132416,9.761141,-0.12964803,-0.1137483,9.761064,0
14,985.4328002929688,7.001443882472813E-4,3.206052351742983E-4,-6.98768999427557E-5,-6.48472785949707,22.808502197265625,-37.22444534301758,0.07000085711479187,0.13134221732616425,0.06195354461669922,0.05899048,-0.15894274,9.746945,-0.11800159,-0.11247517,9.747057,0
14,985.4248046875,-2.3270660312846303E-4,-8.7769515812397E-4,6.296136416494846E-5,-6.182191848754883,22.881179809570312,-37.42928695678711,0.07423935830593109,0.12593045830726624,0.043015480041503906,0.063233525,-0.15654634,9.761099,-0.11140035,-0.11212696,9.761279,0
14,985.4435424804688,-4.953508614562452E-4,-2.12501545320265E-4,1.976930070668459E-4,-6.048656463623047,22.32140350341797,-37.417110443115234,0.07536047697067261,0.12489534914493561,0.047855377197265625,0.06743944,-0.1469992,9.751577,-0.10463151,-0.102934554,9.751815,0
14,985.4384765625,4.932167939841747E-5,-3.5387574462220073E-4,5.964352749288082E-5,-6.252493381500244,22.97323989868164,-37.19288635253906,0.0796499252319336,0.12901993095874786,0.05259227752685547,0.06507748,-0.1565329,9.761049,-0.108962625,-0.11084225,9.761284,0
14,985.4330444335938,3.153686411678791E-4,-2.2067419195082039E-4,5.9528276324272156E-5,-6.106483459472656,23.05738067626953,-37.3742790222168,0.07921411097049713,0.13795316219329834,0.043125152587890625,0.05315587,-0.15891685,9.768154,-0.11990748,-0.11057717,9.768231,0
14,985.4432373046875,1.819415483623743E-4,4.568538861349225E-5,-7.374514825642109E-5,-5.81848669052124,22.85295867919922,-37.40669631958008,0.07871367037296295,0.108535036444664,0.03839397430419922,0.062743425,-0.14223464,9.756319,-0.10490697,-0.09703937,9.756511,0
14,985.4334716796875,-4.841173067688942E-4,-3.5374474828131497E-4,5.919294198974967E-4,-5.877729415893555,22.481124877929688,-36.91390609741211,0.07837463915348053,0.13613930344581604,0.043128013610839844,0.06277132,-0.16130154,9.765791,-0.10953177,-0.1139582,9.766047,0
14,985.4800415039062,-0.0010170181049034,5.784044624306262E-4,4.586561117321253E-4,-6.000748634338379,22.945297241210938,-36.76813888549805,0.07284951210021973,0.11617134511470795,0.047867774963378906,0.06518912,-0.14461936,9.761059,-0.10241647,-0.09753545,9.761323,0
14,985.4136352539062,-2.183393808081746E-4,-8.734151197131723E-5,-2.0724907517433167E-4,-5.619758605957031,22.564987182617188,-37.49745559692383,0.07724373042583466,0.12513692677021027,0.038399696350097656,0.060437202,-0.1422366,9.770531,-0.10494624,-0.094918385,9.77073,0
14,985.4672241210938,4.471813444979489E-4,-3.536136937327683E-4,4.584254929795861E-4,-5.909277439117432,22.76793670654297,-37.387733459472656,0.08653798699378967,0.11953715234994888,0.06207084655761719,0.06524491,-0.14462067,9.75633,-0.101180434,-0.096588284,9.756617,0
14,985.4392700195312,-2.188774524256587E-4,7.116935448721051E-4,4.5831030001863837E-4,-5.556087970733643,22.835323333740234,-37.52308654785156,0.0714477151632309,0.12354276329278946,0.057342529296875,0.0628829,-0.15653773,9.751598,-0.10362905,-0.108703285,9.751901,0
14,985.4420166015625,-3.523045452311635E-4,3.1226332066580653E-4,4.581949324347079E-4,-5.962974548339844,22.77029037475586,-37.3026123046875,0.08510415256023407,0.12304804474115372,0.038410186767578125,0.05813104,-0.14462204,9.753967,-0.10668747,-0.093794465,9.754178,0
14,985.4449462890625,8.458479424007237E-4,-4.86640608869493E-4,7.243955042213202E-4,-5.6819071769714355,22.296123504638672,-37.549129486083984,0.09894861280918121,0.10360982269048691,0.06208515167236328,0.048599333,-0.13747282,9.746868,-0.113048226,-0.08523129,9.74693,0
14,985.4395141601562,1.7978937830775976E-4,4.603475099429488E-5,-7.466739043593407E-5,-6.004633903503418,22.678504943847656,-37.1368522644043,0.08398573100566864,0.12208332121372223,0.05261993408203125,0.053407073,-0.14224006,9.761074,-0.10983397,-0.0893202,9.761229,0
14,985.4501342773438,4.636240191757679E-5,5.787102272734046E-4,4.5784912072122097E-4,-5.687016010284424,22.659996032714844,-37.41566848754883,0.06915906071662903,0.13551518321037292,0.05735492706298828,0.07016426,-0.16130699,9.761078,-0.09592285,-0.11234403,9.761545,0
14,985.4552612304688,-8.706469088792801E-5,3.1243800185620785E-4,-7.48978927731514E-5,-6.088495254516602,22.86322784423828,-36.90378952026367,0.07778491079807281,0.12999358773231506,0.052628517150878906,0.05824268,-0.1517746,9.751611,-0.10533854,-0.098772086,9.751897,0
14,985.4581909179688,-7.531236624345183E-4,0.0012445873580873013,-3.4132925793528557E-4,-5.966019153594971,22.76734161376953,-37.14799880981445,0.07241998612880707,0.10535694658756256,0.028960227966308594,0.07022011,-0.13985892,9.768184,-0.090987965,-0.08862645,9.768613,0
15,985.4581909179688,-7.531236624345183E-4,0.0012445873580873013,-3.4132925793528557E-4,-6.142192363739014,22.86557388305664,-36.818668365478516,0.06267654895782471,0.12373128533363342,0.038425445556640625,0.072637916,-0.15177591,9.76582,-0.09020379,-0.10101641,9.766331,0
15,985.4404296875,-2.2076041204854846E-4,-4.8642230103723705E-4,-7.512862794101238E-5,-5.805905342102051,22.390533447265625,-37.22761154174805,0.0812268853187561,0.12323395907878876,0.05736827850341797,0.06310624,-0.14939333,9.763454,-0.09945308,-0.094919614,9.763834,0
15,985.4404296875,4.447601968422532E-4,-2.2006274957675487E-4,5.905458237975836E-4,-6.011020183563232,22.040477752685547,-37.25250244140625,0.08113735914230347,0.10353074967861176,0.05736351013183594,0.058354348,-0.14939405,9.751621,-0.10333645,-0.093645625,9.751943,0
15,985.4585571289062,4.501722287386656E-5,1.794547715689987E-4,3.2411469146609306E-4,-6.166268348693848,23.05384063720703,-36.979942321777344,0.08060015738010406,0.12661351263523102,0.0478973388671875,0.055992365,-0.15177806,9.758725,-0.10775536,-0.092308,9.759033,0
15,985.461669921875,4.4748070649802685E-5,-4.862913046963513E-4,5.768344271928072E-5,-6.632259845733643,22.72289276123047,-36.96575164794922,0.07035960257053375,0.10722194612026215,0.03843212127685547,0.05602026,-0.14701207,9.763463,-0.1041816,-0.089493655,9.763762,0
15,985.4491577148438,3.1079509062692523E-4,4.458579933270812E-4,3.238840727135539E-4,-6.1491217613220215,22.59583282470703,-37.03276443481445,0.083454430103302,0.11156909167766571,0.038445472717285156,0.056048185,-0.14224626,9.770567,-0.10249066,-0.08388986,9.770865,0
15,985.43896484375,6.957086734473705E-4,9.148475364781916E-4,-1.969262957572937E-4,-6.4257612228393555,22.968502044677734,-36.319087982177734,0.0830463171005249,0.09661513566970825,0.04318046569824219,0.05607605,-0.13748042,9.775303,-0.099535815,-0.08030012,9.775594,0
15,985.4696044921875,-1.0350815136916935E-4,5.154174868948758E-4,-6.388360634446144E-5,-5.948030471801758,22.57318878173828,-36.67750930786133,0.0733209103345871,0.11501848697662354,0.05264568328857422,0.053714067,-0.1493975,9.765837,-0.10347481,-0.09164395,9.76615,0
15,985.4065551757812,-2.3693518596701324E-4,5.154611426405609E-4,-8.629465010017157E-4,-5.821531295776367,22.85000991821289,-37.2520866394043,0.08254130184650421,0.1141810268163681,0.05264568328857422,0.058521807,-0.14701487,9.7516365,-0.097070545,-0.09032765,9.752019,0
15,985.444091796875,2.954275405500084E-4,-8.160746656358242E-4,2.0220165606588125E-4,-5.656010627746582,22.741470336914062,-37.0402946472168,0.08197017014026642,0.10411765426397324,0.043198585510253906,0.05357954,-0.14701085,9.756355,-0.10237069,-0.08740234,9.756681,0
15,985.4447631835938,-5.037890514358878E-4,-1.502412633271888E-4,2.020864048972726E-4,-5.928382873535156,22.486419677734375,-36.983394622802734,0.07161037623882294,0.11339159309864044,0.04794120788574219,0.055989742,-0.1493947,9.763459,-0.1002743,-0.08971247,9.763835,0
15,985.4657592773438,-2.3397878976538777E-4,1.1257400910835713E-4,2.002875553444028E-4,-5.947892665863037,22.67910385131836,-37.376583099365234,0.06643602252006531,0.12183456122875214,0.03373527526855469,0.06317973,-0.15177847,9.761093,-0.09277293,-0.09366291,9.761587,0
15,985.4657592773438,-2.3397878976538777E-4,1.1257400910835713E-4,2.002875553444028E-4,-5.947892665863037,22.67910385131836,-37.376583099365234,0.07087820768356323,0.10248367488384247,0.05267333984375,0.06081015,-0.14939566,9.761097,-0.09341848,-0.09092362,9.7615595,0
15,985.4631958007812,1.6529939603060484E-4,-2.8686801670119166E-4,4.665195301640779E-4,-5.704599380493164,22.37994384765625,-37.0886344909668,0.07052241265773773,0.10176804661750793,0.04794025421142578,0.060830414,-0.14462961,9.765833,-0.09093137,-0.08664507,9.766287,0
15,985.4483032226562,-1.0121206287294626E-4,7.784272311255336E-4,8.659095037728548E-4,-5.442200183868408,22.36231231689453,-37.205020904541016,0.07011565566062927,0.12009650468826294,0.04794120788574219,0.06324065,-0.16131298,9.753998,-0.0913357,-0.10307056,9.754565,0
15,985.4326171875,-3.677236963994801E-4,-2.0488572772592306E-5,4.663518338929862E-4,-5.161430835723877,21.25600814819336,-37.87641143798828,0.07433296740055084,0.11451718956232071,0.047943115234375,0.060871005,-0.15654702,9.756367,-0.09377232,-0.09545959,9.756894,0
15,985.4561157226562,-6.342352135106921E-4,-2.0456849597394466E-5,3.331100451759994E-4,-5.75318717956543,22.01842498779297,-37.1369743347168,0.07901626825332642,0.11398901045322418,0.062142372131347656,0.056111515,-0.1565475,9.751635,-0.09884742,-0.09315016,9.752107,0
15,985.448486328125,-3.6831048782914877E-4,-5.530250491574407E-4,8.655741112306714E-4,-6.524566650390625,23.350326538085938,-36.711124420166016,0.06455361843109131,0.10363566875457764,0.06213855743408203,0.058521748,-0.15893127,9.754004,-0.09786603,-0.09418006,9.754528,0
15,985.4386596679688,1.6412546392530203E-4,-0.0010856251465156674,-1.9977317424491048E-4,-6.564566135406494,23.365936279296875,-37.32174301147461,0.07393835484981537,0.10320953279733658,0.05266761779785156,0.04898241,-0.15178193,9.756372,-0.10516855,-0.08434353,9.756744,0
15,985.4439697265625,8.297195890918374E-4,-5.529615445993841E-4,-1.9985699327662587E-4,-6.1520280838012695,22.698806762695312,-37.57723617553711,0.06457430124282837,0.08851037919521332,0.03372383117675781,0.060952216,-0.13748272,9.76821,-0.089477025,-0.07391175,9.76868,0
15,985.4517822265625,-2.3573951330035925E-4,-0.00108556158374995,3.326907171867788E-4,-6.261625289916992,22.964401245117188,-36.729061126708984,0.05940760672092438,0.09258638322353363,0.07159900665283203,0.07053214,-0.1422499,9.746907,-0.08075762,-0.08026664,9.747536,0
15,985.4569702148438,-7.685670861974359E-4,-4.1974009945988655E-4,-2.000248641707003E-4,-6.280592918395996,22.788799285888672,-37.023799896240234,0.07368123531341553,0.10150296986103058,0.06686210632324219,0.053823113,-0.15416674,9.758744,-0.100043155,-0.08679006,9.759211,0
15,985.426513671875,5.628167418763041E-4,-2.0234525436535478E-5,3.32523079123348E-4,-5.865691184997559,22.38698959350586,-36.83327102661133,0.06360451877117157,0.101112000644207,0.04319190979003906,0.06579292,-0.14940067,9.763481,-0.08563263,-0.08597212,9.764092,0
15,985.4496459960938,8.289370452985168E-4,6.455869879573584E-4,1.9928131951019168E-4,-6.3654327392578125,22.603755950927734,-36.61497497558594,0.05788877606391907,0.10064445436000824,0.05266761779785156,0.06581324,-0.14463459,9.749279,-0.08486016,-0.07961622,9.749881,0
15,985.4547119140625,-2.3652223171666265E-4,1.1298699246253818E-4,1.9919750047847629E-4,-6.1888227462768555,23.243576049804688,-37.2185173034668,0.07203604280948639,0.11430297791957855,0.057399749755859375,0.061053723,-0.14701833,9.758751,-0.08869869,-0.08133894,9.759308,0
16,985.4906616210938,-6.361916894093156E-4,2.461766707710922E-4,-6.720231613144279E-5,-5.785714626312256,21.93547821044922,-37.4350471496582,0.07159571349620819,0.10878720879554749,0.057399749755859375,0.04912448,-0.14940219,9.749284,-0.09987831,-0.080588736,9.749706,0
16,985.4630737304688,-3.70071385987103E-4,-1.532653986942023E-4,-2.0044395932927728E-4,-5.928925037384033,22.854705810546875,-37.081844329833984,0.07124868035316467,0.09348997473716736,0.043193817138671875,0.058704436,-0.14463611,9.761122,-0.088789254,-0.077518664,9.761659,0
16,985.4656982421875,-9.028987260535359E-4,-0.0012184971710667014,-6.000016001053154E-4,-5.589594841003418,22.382614135742188,-37.6453971862793,0.062006086111068726,0.0973435714840889,0.0242462158203125,0.056334823,-0.14940311,9.775327,-0.09167826,-0.08144118,9.775861,0
16,985.4530029296875,2.9011047445237637E-5,-8.189916843548417E-4,1.988621079362929E-4,-5.922837257385254,22.860599517822266,-37.39106369018555,0.06635862588882446,0.0731295496225357,0.04318523406982422,0.058744997,-0.1303374,9.761126,-0.085016124,-0.06242262,9.761603,0
16,985.4785766601562,-2.3750041145831347E-4,1.1314572475384921E-4,5.982520524412394E-4,-5.812536716461182,22.752933502197266,-37.016841888427734,0.06108890473842621,0.11076316237449646,0.0384521484375,0.065935016,-0.15655388,9.768229,-0.08335762,-0.08943344,9.76894,0
16,985.4765014648438,1.6177777433767915E-4,5.12651342432946E-4,1.986944698728621E-4,-6.119500637054443,22.781753540039062,-37.2791633605957,0.07482205331325531,0.09580937027931213,0.047924041748046875,0.05639571,-0.15655454,9.765863,-0.09297636,-0.08560045,9.766463,0
16,985.4667358398438,-3.7104974035173655E-4,-1.994866761378944E-5,-6.770534673705697E-5,-6.283636093139648,22.785850524902344,-36.86919021606445,0.06499046087265015,0.09517043828964233,0.06686019897460938,0.06597561,-0.13987206,9.754029,-0.07961221,-0.07071581,9.754674,0
16,985.4842529296875,-2.3808743571862578E-4,1.1324101069476455E-4,-7.33578868675977E-4,-5.791367530822754,22.667640686035156,-37.4000358581543,0.06458961963653564,0.09928040206432343,0.05739021301269531,0.0564363,-0.15893872,9.761133,-0.09144573,-0.08801257,9.7617655,0
16,985.4515991210938,6.938225706107914E-4,-1.9885148503817618E-5,3.316007205285132E-4,-5.929766654968262,22.590862274169922,-37.605167388916016,0.07361412048339844,0.09895149618387222,0.03845500946044922,0.06375152,-0.15179242,9.765881,-0.08270561,-0.081955746,9.766574,0
16,985.4721069335938,-6.382541032508016E-4,2.4651148123666644E-4,6.507179932668805E-5,-5.745279312133789,22.65792465209961,-37.098628997802734,0.06829068064689636,0.10781049728393555,0.04789924621582031,0.061514735,-0.158946,9.751691,-0.085274994,-0.088597365,9.752404,0
16,985.4697265625,1.6026219236664474E-4,1.1077367526013404E-4,6.190885324031115E-5,-6.163660526275635,22.318729400634766,-36.86034393310547,0.058592841029167175,0.11176560819149017,0.019486427307128906,0.06632495,-0.16371335,9.780101,-0.08368774,-0.09157053,9.7809105,0
16,985.4822387695312,2.931267081294209E-4,-0.0010876001324504614,-4.708487540483475E-4,-6.1406707763671875,22.867050170898438,-36.89596939086914,0.06279921531677246,0.0971650779247284,0.04789447784423828,0.06157565,-0.15894754,9.756432,-0.08560628,-0.08645133,9.757163,0
16,985.489990234375,2.9283305048011243E-4,1.1086893209721893E-4,-3.378167748451233E-4,-6.032732963562012,22.494060516357422,-36.9677619934082,0.057819075882434845,0.09695716202259064,0.047893524169921875,0.06399602,-0.14703189,9.761168,-0.07994427,-0.07555791,9.761864,0
16,985.489990234375,2.9283305048011243E-4,1.1086893209721893E-4,-3.378167748451233E-4,-5.901261806488037,22.301097869873047,-36.97673416137695,0.061804547905921936,0.0680869072675705,0.047898292541503906,0.054466814,-0.13034971,9.763538,-0.084646665,-0.05667106,9.764029,0
16,985.4850463867188,0.001091487123630941,9.098642040044069E-4,-6.042581517249346E-4,-6.032732963562012,22.494064331054688,-36.9677619934082,0.056683339178562164,0.0961897224187851,0.03842735290527344,0.05688721,-0.1494167,9.770643,-0.086607814,-0.07525329,9.771276,0
16,985.4671630859375,1.590881438460201E-4,6.435959949158132E-4,1.9456358859315515E-4,-5.99952507019043,22.31463623046875,-37.27031707763672,0.07048328220844269,0.08632078766822815,0.06210136413574219,0.05452776,-0.14941742,9.761177,-0.08699411,-0.07598921,9.76179,0
16,985.4546508789062,-3.7383727612905204E-4,-4.216198867652565E-4,-3.381940769031644E-4,-5.674978256225586,22.56586456298828,-37.335025787353516,0.07537639886140823,0.08543623983860016,0.047888755798339844,0.054558218,-0.14703484,9.758813,-0.08724305,-0.07171787,9.759419,0
16,985.4802856445312,1.5850100317038596E-4,-9.542039479129016E-4,-7.200392428785563E-5,-6.000067710876465,22.68292236328125,-37.368770599365234,0.055640704929828644,0.09417886286973953,0.06682682037353516,0.0617584,-0.15895207,9.735143,-0.08311923,-0.083583675,9.735923,0
16,985.4956665039062,-7.738979766145349E-4,2.442651311866939E-4,-4.716035909950733E-4,-6.239912986755371,22.510818481445312,-37.0138053894043,0.05011603236198425,0.09832528233528137,0.019484519958496094,0.05939892,-0.1565695,9.768287,-0.08417842,-0.080114305,9.769032,0
16,985.4725341796875,-2.1535891573876143E-4,0.00111680431291461,-5.014385678805411E-4,-6.192303657531738,22.502578735351562,-36.789703369140625,0.04908318817615509,0.09292831271886826,0.05263042449951172,0.06659907,-0.13988729,9.756454,-0.07120122,-0.06614994,9.757201,0
16,985.5017700195312,-3.4881039755418897E-4,0.0011168519267812371,-2.3524853168055415E-4,-5.956343650817871,22.40789031982422,-37.51338577270508,0.06297565996646881,0.08799829334020615,0.04789924621582031,0.057069957,-0.15180446,9.758823,-0.083335206,-0.07486434,9.759528,0
16,985.507080078125,-8.278805762529373E-5,5.842678365297616E-4,2.9725750209763646E-4,-6.259965419769287,23.071792602539062,-37.50544357299805,0.053039148449897766,0.08279287815093994,0.052631378173828125,0.057100385,-0.14227213,9.763561,-0.079438604,-0.066620864,9.7642145,0
16,985.5068359375,5.827081622555852E-4,-8.147426706273109E-5,1.6397377476096153E-4,-5.555843353271484,21.83489227294922,-37.84950637817383,0.08118236064910889,0.0681377649307251,0.05736732482910156,0.052350998,-0.135123,9.751728,-0.08261122,-0.05718921,9.752287,0
16,985.4689331054688,7.155726198107004E-4,4.51205181889236E-4,-3.6878377432003617E-4,-6.090858459472656,22.597904205322266,-37.34980392456055,0.06640541553497314,0.06741498410701752,0.04316139221191406,0.052381486,-0.13750704,9.758833,-0.08315871,-0.05815187,9.759415,0
16,985.47900390625,-6.163003272376955E-4,-8.137896656990051E-5,-2.3575167870149016E-4,-6.396843910217285,22.996490478515625,-37.78788375854492,0.06105460971593857,0.09065338969230652,0.03842735290527344,0.052411914,-0.15180744,9.761202,-0.08492872,-0.07291676,9.761883,0
17,985.47998046875,-3.502779291011393E-4,4.513004678301513E-4,1.6359641449525952E-4,-5.835389137268066,22.310531616210938,-37.680294036865234,0.06990097463130951,0.09976919740438461,0.04316425323486328,0.050052464,-0.15895797,9.777775,-0.08942587,-0.077662975,9.778478,0
17,985.4599609375,-3.505713539198041E-4,4.5134808169677854E-4,6.961023900657892E-4,-6.198391437530518,22.496688842773438,-36.4804801940918,0.06920608878135681,0.07066640257835388,0.03843212127685547,0.054862738,-0.1303594,9.791982,-0.076154366,-0.0519628,9.792568,0
17,985.4847412109375,9.807144524529576E-4,8.508695755153894E-4,-1.0297104017809033E-4,-5.916749477386475,22.866493225097656,-37.70028305053711,0.06875316053628922,0.09432931244373322,0.0431671142578125,0.057283103,-0.1518097,9.768312,-0.078984186,-0.07263133,9.769071,0
17,985.4671630859375,1.8117984291166067E-4,4.514910979196429E-4,1.630932092666626E-4,-6.269097805023193,23.062957763671875,-37.0416145324707,0.06826312094926834,0.07936666160821915,0.052634239196777344,0.052533746,-0.13036092,9.751745,-0.077625394,-0.050169915,9.75232,0
17,985.4800415039062,-0.0011506930459290743,4.5153871178627014E-4,4.292833327781409E-4,-6.046293258666992,22.58672332763672,-36.97109603881836,0.06801451742649078,0.06912384182214737,0.04789543151855469,0.04539448,-0.13512821,9.761216,-0.0852121,-0.052659526,9.7617445,0
17,985.4521484375,-8.846708224155009E-4,-4.805192002095282E-4,1.628416357561946E-4,-6.13458251953125,22.872940063476562,-37.2051887512207,0.05755937099456787,0.09244921058416367,0.04789924621582031,0.052594602,-0.15181191,9.765953,-0.081431195,-0.070208535,9.766684,0
17,985.45263671875,3.1345715979114175E-4,7.179498206824064E-4,2.9557792004197836E-5,-5.819465637207031,22.483192443847656,-37.23093795776367,0.06674302369356155,0.07760395109653473,0.06683540344238281,0.04067561,-0.15181269,9.747018,-0.091722906,-0.06787141,9.747618,0
17,985.488037109375,1.8000573618337512E-4,1.8536574498284608E-4,-2.3688370129093528E-4,-6.3055100440979,22.713218688964844,-37.708396911621094,0.05197807401418686,0.0820922926068306,0.0478973388671875,0.055045426,-0.14943011,9.758858,-0.07808108,-0.06726453,9.759613,0
17,985.4607543945312,4.4602813431993127E-4,-2.140604192391038E-4,4.28780127549544E-4,-6.441003322601318,22.533470153808594,-37.36906051635742,0.06594709306955338,0.0626719668507576,0.047896385192871094,0.042856038,-0.13512458,9.756468,-0.08621172,-0.04943502,9.756992,0
17,985.4608154296875,3.172133583575487E-4,-4.846386727876961E-4,-9.04090644326061E-4,-6.4602155685424805,23.358291625976562,-37.337379455566406,0.061441920697689056,0.09096136689186096,0.04321002960205078,0.056939423,-0.15180124,9.763546,-0.07614385,-0.06953494,9.764348,0
17,985.4761352539062,-7.981207454577088E-5,0.001246016938239336,-6.367253954522312E-4,-6.394480228424072,23.261810302734375,-37.341861724853516,0.060622312128543854,0.10956104099750519,0.04321575164794922,0.056948304,-0.16371779,9.775383,-0.07823457,-0.0808284,9.776273,0
17,985.518798828125,7.19049945473671E-4,4.76094865007326E-5,-7.699202396906912E-4,-6.345348834991455,23.255043029785156,-37.195072174072266,0.06948232650756836,0.08500383049249649,0.03374958038330078,0.035448074,-0.15656818,9.768282,-0.096223906,-0.06822132,9.768889,0
17,985.491943359375,-2.1314126206561923E-4,3.139392356388271E-4,5.616226699203253E-4,-6.139148712158203,22.86852264404297,-36.9732780456543,0.05971372872591019,0.07521235942840576,0.062155723571777344,0.056966066,-0.15418519,9.739876,-0.073957875,-0.071663894,9.740718,0
17,985.491943359375,-2.1322688553482294E-4,7.134269690141082E-4,4.284279712010175E-4,-5.637341499328613,22.284934997558594,-37.1704216003418,0.05905862897634506,0.08434398472309113,0.0526885986328125,0.049805224,-0.14465229,9.758816,-0.07709932,-0.061432935,9.759517,0
17,985.4689331054688,3.1931931152939796E-4,4.4712505768984556E-4,-2.3739848984405398E-4,-5.870119094848633,22.488487243652344,-37.30043029785156,0.05381535738706589,0.06993312388658524,0.06216239929199219,0.05459392,-0.13511945,9.754082,-0.070150666,-0.052749336,9.754774,0
17,985.4817504882812,-2.1339813247323036E-4,9.797706734389067E-4,4.283546004444361E-4,-6.316844463348389,22.96527862548828,-36.56663131713867,0.05786793678998947,0.08831740915775299,0.04796314239501953,0.05460283,-0.16133569,9.761183,-0.07667899,-0.07658554,9.762068,0
17,985.504638671875,5.283218342810869E-5,4.767900099977851E-5,-1.0431389091536403E-4,-5.992595672607422,22.584373474121094,-37.056217193603516,0.0669555515050888,0.07333824038505554,0.057430267333984375,0.04744202,-0.14941944,9.754084,-0.07932536,-0.063542604,9.754814,0
17,985.4872436523438,-7.462010253220797E-4,3.140087937936187E-4,-5.038243834860623E-4,-6.10898494720459,22.68614959716797,-37.121219635009766,0.05249188095331192,0.07739061117172241,0.04322242736816406,0.061790287,-0.14226986,9.765921,-0.06372377,-0.05906467,9.766767,0
17,985.4955444335938,1.8581881886348128E-4,-4.8492499627172947E-4,-2.3754517314955592E-4,-6.2696404457092285,23.43124771118164,-37.14006423950195,0.04758906364440918,0.0533922016620636,0.043221473693847656,0.04984969,-0.13512026,9.744616,-0.07313667,-0.04935404,9.745281,0
17,985.5333251953125,1.8573319539427757E-4,-8.543723379261792E-5,1.6189197776839137E-4,-6.313800811767578,22.968223571777344,-36.72124099731445,0.047597043216228485,0.07231812179088593,6.103515625E-4,0.04985857,-0.14227034,9.770656,-0.07547798,-0.055383578,9.771371,0
17,985.4827880859375,4.519634530879557E-4,-0.0014170027570798993,-2.376185148023069E-4,-6.168769836425781,22.682605743408203,-36.72687911987305,0.04739254713058472,0.08116669207811356,0.03848075866699219,0.059427053,-0.1613368,9.7588215,-0.07032949,-0.075951934,9.759788,0
17,985.4955444335938,-3.4706981386989355E-4,1.8090639787260443E-4,2.949764602817595E-4,-5.831503868103027,22.57732391357422,-37.311580657958984,0.051588274538517,0.0713767483830452,0.062157630920410156,0.057045996,-0.13988753,9.754087,-0.06591161,-0.05540228,9.754877,0
17,985.483154296875,1.8547638319432735E-4,-8.539552800357342E-5,-3.708497970364988E-4,-5.972649574279785,23.129741668701172,-36.93723678588867,0.05640701949596405,0.09001736342906952,0.03847980499267578,0.057054907,-0.14703746,9.768291,-0.067692615,-0.06176223,9.769135,0
17,985.483154296875,1.8547638319432735E-4,-8.539552800357342E-5,-3.708497970364988E-4,-6.030369758605957,22.759380340576172,-36.52174377441406,0.06535815447568893,0.08971340209245682,0.06215667724609375,0.049894094,-0.15418755,9.754088,-0.07643405,-0.06600411,9.754911,0
18,985.4806518554688,4.517065826803446E-4,-8.538163092453033E-5,-1.0457070311531425E-4,-6.089612007141113,22.38754653930664,-36.028953552246094,0.05991782993078232,0.07537289708852768,0.02428722381591797,0.05707267,-0.14942123,9.7801285,-0.067052975,-0.06392786,9.780997,0
18,985.5160522460938,9.842527797445655E-4,0.0013793696416541934,-2.3776531452313066E-4,-5.872322082519531,22.7493896484375,-36.622501373291016,0.045466236770153046,0.08910271525382996,0.06215858459472656,0.05947143,-0.15180476,9.761192,-0.065544285,-0.06581534,9.762114,0
18,985.5088500976562,5.20615722052753E-5,-3.516697324812412E-4,5.611455417238176E-4,-6.041865348815918,22.48522186279297,-36.503929138183594,0.0354270413517952,0.05508444458246231,0.052689552307128906,0.06665003,-0.13273875,9.754091,-0.054049585,-0.047733404,9.754955,0
