Timestamp,P,Gx,Gy,Gz,Mx,My,Mz,LiAx,LiAy,LiAz,Ax,Ay,Az,earthAx,earthAy,earthAz,Value,Type
0,985.6503295898438,4.6438112622126937E-4,0.008367626927793026,-1.779266749508679E-4,-4.5051093101501465,22.66034698486328,-37.36686325073242,-0.00336543470621109,0.003079637885093689,0.08151721954345703,0.060406446,-0.14497103,9.752903,-1.3798041,-4.017695,8.780551,0
0,985.6503295898438,4.6438112622126937E-4,0.008367626927793026,-1.779266749508679E-4,-8.117053985595703,20.385162353515625,-37.985877990722656,-4.150606691837311E-4,0.013727396726608276,0.036930084228515625,0.06520778,-0.14973806,9.769475,0.0022873818,-0.00868848,9.770837,0
0,985.3963623046875,3.8587889866903424E-4,0.00188095448538661,8.525183657184243E-4,-8.343338012695312,20.120399475097656,-37.62757873535156,0.004511695355176926,0.0042808204889297485,0.051131248474121094,0.065229386,-0.14735542,9.764744,0.003039323,-0.0065823942,9.766072,0
0,985.4010009765625,1.1935521615669131E-4,-1.1638061550911516E-4,4.52955428045243E-4,-8.593262672424316,20.781951904296875,-37.70476150512695,0.009646296501159668,0.004352182149887085,0.04165935516357422,0.048521638,-0.14258935,9.755276,-0.010937037,0.004172981,9.756432,0
0,985.43212890625,6.517791771329939E-4,-7.821365725249052E-4,5.339249037206173E-5,-8.21727466583252,19.65917205810547,-37.927955627441406,0.013999953866004944,-0.014455452561378479,0.032195091247558594,0.048543155,-0.1259069,9.776583,-0.004387677,0.019461662,9.7774935,0
0,985.4424438476562,5.184132605791092E-4,2.8316068346612155E-4,1.8646137323230505E-4,-8.165642738342285,20.023643493652344,-38.03422164916992,-3.971271216869354E-4,0.014359310269355774,0.03693103790283203,0.055734456,-0.14735694,9.771851,-0.005952349,-0.0032494664,9.773119,0
0,985.4423217773438,3.848396008834243E-4,-3.825615858659148E-4,5.857570213265717E-4,-8.099906921386719,19.927154541015625,-38.03870391845703,-0.009981706738471985,1.70096755027771E-4,0.03692913055419922,0.065315664,-0.14735745,9.767118,0.002976506,-0.007188782,9.768445,0
0,985.4576416015625,-1.479999627918005E-4,-3.8252779631875455E-4,1.8619414186105132E-4,-8.38833999633789,19.39352798461914,-37.732078552246094,0.013851024210453033,1.310408115386963E-4,0.08427238464355469,0.048607886,-0.14259146,9.748182,-0.010574296,0.0034746975,9.74934,0
0,985.449951171875,5.17581938765943E-4,6.827693432569504E-4,4.5242090709507465E-4,-9.002511978149414,20.45159912109375,-37.930301666259766,-5.383528769016266E-4,3.337562084197998E-4,0.03692913055419922,0.060579002,-0.1402087,9.769489,0.0013142994,0.0010374039,9.770683,0
0,985.4833984375,6.505319615826011E-4,4.164873098488897E-4,-4.7977379290387034E-4,-8.6925048828125,20.42572784423828,-37.82258987426758,-0.005434636026620865,0.005194634199142456,0.03692913055419922,0.06060052,-0.1425925,9.764757,4.3736066E-4,-0.0013449192,9.765986,0
0,985.440673828125,1.1769228149205446E-4,-3.8242657319642603E-4,-4.7986285062506795E-4,-8.20716381072998,20.037769317626953,-38.56753921508789,0.004186060279607773,0.005501121282577515,0.0653390884399414,0.05823219,-0.14497627,9.757656,-0.0028286618,-0.0030100942,9.758905,0
0,985.4512939453125,3.8380036130547523E-4,-1.1607696069404483E-4,-2.1363614359870553E-4,-8.664840698242188,19.872116088867188,-37.71747970581055,0.0137869194149971,0.010226890444755554,0.0511322021484375,0.05347395,-0.15212665,9.76476,-0.010157922,-0.007419646,9.766085,0
0,985.4381103515625,5.167503841221333E-4,1.711472577881068E-5,-3.4688302548602223E-4,-9.006672859191895,19.972976684570312,-36.90085983276367,0.00863991305232048,-0.0038875043392181396,0.04166603088378906,0.055885434,-0.14974387,9.760028,-0.006837753,-0.0064935684,9.7613325,0
0,985.4276123046875,6.497004651464522E-4,2.8346441104076803E-4,5.851334426552057E-4,-8.900663375854492,20.07271957397461,-37.692874908447266,-8.93615186214447E-4,0.005558907985687256,0.060601234436035156,0.053517103,-0.14021139,9.74346,-0.005104854,0.0029735118,9.744613,0
0,985.4688110351562,-4.157708026468754E-4,2.83498055068776E-4,7.18202325515449E-4,-8.497905731201172,20.87139129638672,-37.95563888549805,0.003595225512981415,0.01992066204547882,0.03692817687988281,0.05353868,-0.14974494,9.774235,-0.008549108,-0.0057020187,9.775523,0
0,985.430908203125,5.161268054507673E-4,6.830056663602591E-4,5.23235066793859E-5,-8.720603942871094,20.24127960205078,-37.653499603271484,0.008459106087684631,0.010412126779556274,0.04639434814453125,0.06550974,-0.14974554,9.767136,0.0022204844,-0.010354772,9.7684965,0
0,985.453857421875,-1.4987075701355934E-4,-0.001447487622499466,5.223439075052738E-5,-8.086346626281738,19.83449935913086,-38.03537368774414,-8.554905652999878E-4,0.0011143088340759277,0.07006645202636719,0.05836156,-0.14974602,9.748199,-0.0045201145,-0.008025274,9.749521,0
0,985.438720703125,6.488689687103033E-4,-2.490324550308287E-4,3.1846118508838117E-4,-7.935067653656006,20.08098602294922,-37.22628402709961,0.008800804615020752,8.456110954284668E-4,0.04165363311767578,0.05599326,-0.1545131,9.764772,-0.008400588,-0.011088312,9.766146,0
0,985.4412841796875,-6.829183548688889E-4,-1.1584075400605798E-4,-2.142596640624106E-4,-8.145695686340332,20.569007873535156,-37.91524124145508,-8.342117071151733E-4,0.010216385126113892,0.0321807861328125,0.048845112,-0.14974709,9.769508,-0.013197255,-0.0038170218,9.77077,0
0,985.448974609375,-1.5049433568492532E-4,1.7350888811051846E-5,-3.475066623650491E-4,-8.391926765441895,19.75887680053711,-37.67592239379883,0.013481240719556808,0.005463078618049622,0.027443885803222656,0.056036383,-0.1449811,9.774245,-0.004809761,-0.0018460155,9.77548,0
0,985.446533203125,-1.754437107592821E-5,2.837005886249244E-4,-3.4759583650156856E-4,-8.184066772460938,19.479740142822266,-38.230506896972656,0.003951437771320343,0.005530640482902527,0.05111503601074219,0.058447897,-0.14259835,9.774246,-0.0017292358,-6.442219E-4,9.775461,0
0,985.446533203125,-1.8860865384340286E-4,-5.49683696590364E-4,2.475573855917901E-4,-8.441057205200195,19.765640258789062,-37.822715759277344,0.009062636643648148,0.010147646069526672,0.060578346252441406,0.048909843,-0.15689845,9.757678,-0.016386624,-0.010022044,9.759043,0
0,985.464111328125,7.749930955469608E-5,-6.828078767284751E-4,3.806262684520334E-4,-8.889167785644531,20.346878051757812,-37.710689544677734,0.008768510073423386,3.7148594856262207E-4,0.041637420654296875,0.051085025,-0.13782705,9.760025,-0.0064919326,0.0068694204,9.7611265,0
0,985.4593505859375,-5.879318923689425E-4,-1.707641058601439E-5,7.802537293173373E-4,-8.7416353225708,20.43248748779297,-37.96938705444336,0.004519414156675339,0.009758636355400085,0.036940574645996094,0.05324599,-0.15212102,9.76474,-0.0101942485,-0.006946385,9.766064,0
0,985.4413452148438,-4.5091385254636407E-4,6.480866577476263E-4,6.48750108666718E-4,-8.400622367858887,20.48809051513672,-37.48629379272461,-4.933811724185944E-4,0.009838089346885681,0.03694343566894531,0.06041822,-0.14735456,9.755272,-0.0015526259,-0.005696684,9.756571,0
1,985.4598999023438,-4.937220364809036E-5,3.8111567846499383E-4,5.148330819793046E-4,-8.647258758544922,20.152164459228516,-38.04451370239258,0.008729994297027588,0.023884236812591553,0.06061553955078125,0.053251028,-0.15212123,9.762372,-0.009466496,-0.0072327703,9.763695,0
1,985.4119262695312,7.495509926229715E-4,3.811195201706141E-4,2.485067234374583E-4,-8.194284439086914,20.207481384277344,-37.96358108520508,-0.005597706884145737,3.063082695007324E-4,0.051148414611816406,0.06281322,-0.14497142,9.762373,0.0018934084,-0.004461229,9.763651,0
1,985.4346313476562,4.8321078065782785E-4,1.1480771354399621E-4,-9.499251609668136E-4,-8.695548057556152,20.422775268554688,-37.6679801940918,-6.463602185249329E-4,0.0052328407764434814,0.04641532897949219,0.060425818,-0.14258827,9.762373,4.0478748E-4,-0.0014132261,9.763601,0
1,985.4423217773438,-4.944554530084133E-5,-4.178201488684863E-4,-2.8414593543857336E-4,-8.732641220092773,20.335411071777344,-37.73413848876953,0.004186384379863739,-0.009208306670188904,0.027475357055664062,0.053258687,-0.14258821,9.762373,-0.006199819,0.001467526,9.763557,0
1,985.4369506835938,-1.82627874892205E-4,-1.515002513770014E-4,-6.836303509771824E-4,-8.384017944335938,20.39837646484375,-37.637577056884766,0.009084232151508331,0.0051853954792022705,0.03694343566894531,0.05565113,-0.15212147,9.771843,-0.0077781184,-0.008130193,9.773179,0
1,985.4369506835938,-1.82627874892205E-4,-1.515002513770014E-4,-6.836303509771824E-4,-8.443803787231445,20.39482879638672,-37.24323654174805,-0.004859942942857742,0.00980675220489502,0.04640960693359375,0.06999305,-0.14973821,9.762373,0.006160804,-0.011229262,9.763763,0
1,985.4471435546875,3.4997944021597505E-4,-0.00148307578638196,-9.499565931037068E-4,-7.884712219238281,19.443553924560547,-37.581661224365234,-0.014225035905838013,-0.009059295058250427,0.055878639221191406,0.06282589,-0.14020522,9.760008,0.0028406421,1.398921E-4,9.761216,0
1,985.4420776367188,-1.826767693273723E-4,-2.846502175088972E-4,-4.1733530815690756E-4,-8.487390518188477,20.77578353881836,-37.797698974609375,-0.004249788820743561,0.005239695310592651,0.05587577819824219,0.060438484,-0.14497177,9.750538,-0.0016386395,-0.0033214688,9.7518015,0
1,985.4644165039062,4.8308854456990957E-4,-1.5148843522183597E-4,2.484439464751631E-4,-8.954902648925781,20.443355560302734,-37.70620346069336,4.151090979576111E-4,4.994124174118042E-4,0.046408653259277344,0.05805117,-0.14497189,9.75764,-0.0037013176,-0.0023694634,9.758888,0
1,985.416748046875,3.499060985632241E-4,-6.841161521151662E-4,5.147493211552501E-4,-8.55494499206543,20.238651275634766,-38.14078140258789,3.522820770740509E-4,4.062056541442871E-4,0.036937713623046875,0.06044358,-0.14735521,9.771844,-0.002317377,-0.0052174926,9.77314,0
1,985.4373779296875,-1.8275005277246237E-4,5.143092712387443E-4,-5.505246808752418E-4,-8.43551254272461,20.13982391357422,-38.23038101196289,0.010048724710941315,0.005107060074806213,0.05113792419433594,0.046106696,-0.14973857,9.764744,-0.016601078,-0.0015204102,9.765988,0
1,985.4823608398438,-4.490903811529279E-4,-1.5147645899560302E-4,-1.510613365098834E-4,-9.12042236328125,20.551902770996094,-37.91800308227539,0.010395899415016174,0.014495179057121277,0.03693103790283203,0.05566886,-0.15212189,9.764744,-0.008941995,-0.0074860007,9.76608,0
1,985.4423217773438,4.8299069749191403E-4,-6.841042777523398E-4,-1.7913873307406902E-5,-8.670492172241211,20.60427474975586,-37.68246078491211,0.00560615211725235,0.009768322110176086,0.0653390884399414,0.055671394,-0.1449721,9.75054,-0.0061909147,-0.0010701865,9.751775,0
1,985.4471435546875,-4.966557025909424E-5,-8.172582602128386E-4,-1.5108229126781225E-4,-8.867998123168945,20.261581420898438,-38.0938835144043,8.180141448974609E-4,0.004872366786003113,0.04166412353515625,0.06284362,-0.14735548,9.760008,-5.4227654E-4,-0.0058622956,9.761321,0
1,985.4395141601562,-1.8284795805811882E-4,2.4800930987112224E-4,-5.505667068064213E-4,-8.834927558898926,19.976242065429688,-37.69736099243164,0.010261639952659607,0.014538764953613281,0.046401023864746094,0.053286552,-0.14020564,9.764744,-0.006363048,0.0044136792,9.765894,0
1,985.4501953125,-4.4918828643858433E-4,3.8117115036584437E-4,-5.505770677700639E-4,-8.576414108276367,19.691810607910156,-38.18246078491211,0.0057793594896793365,1.6444921493530273E-4,0.0700693130493164,0.06045878,-0.14973883,9.752908,-0.003776216,-0.007223025,9.754242,0
1,985.4281616210938,3.497349680401385E-4,-0.001483036088757217,-4.174296045675874E-4,-8.608642578125,20.240997314453125,-38.055660247802734,-0.003539782017469406,0.004852473735809326,0.06059837341308594,0.06524116,-0.14020582,9.75054,0.0041616005,-2.2339821E-4,9.751765,0
1,985.4471435546875,-3.160792402923107E-4,-1.5145265206228942E-4,-6.837559631094337E-4,-8.66622543334961,19.97655487060547,-38.33924865722656,-0.0032506734132766724,-0.009417548775672913,0.03219127655029297,0.06524366,-0.13543929,9.771845,0.0057458063,0.004620135,9.772999,0
1,985.4448852539062,4.8281956696882844E-4,-6.84076570905745E-4,7.809604285284877E-4,-8.589675903320312,20.416606903076172,-37.760921478271484,0.0015910007059574127,0.019327640533447266,0.03692436218261719,0.06046641,-0.15450557,9.764746,-0.0061753546,-0.011305779,9.7661495,0
1,985.437255859375,2.1647923858836293E-4,2.4803311680443585E-4,1.1516024824231863E-4,-8.730576515197754,19.968597412109375,-37.71299362182617,0.010962340980768204,0.005081266164779663,0.04639625549316406,0.055689156,-0.14735584,9.762377,-0.007701369,-0.0029123724,9.763645,0
1,985.4295043945312,-4.986097337678075E-5,2.4803695851005614E-4,2.483077405486256E-4,-8.715059280395508,20.615463256835938,-38.06117248535156,-0.003684539347887039,5.396604537963867E-4,0.0464019775390625,0.058081567,-0.14497261,9.77658,-0.0043426063,-0.0018444955,9.777826,0
1,985.4448852539062,6.159041658975184E-4,7.806727662682533E-4,3.814551455434412E-4,-8.640329360961914,20.421905517578125,-37.83041000366211,0.0010665543377399445,-0.004358559846878052,0.04640007019042969,0.05808413,-0.13543959,9.767112,-5.518547E-4,0.0068965107,9.768221,0
1,985.4369506835938,-4.9909926019608974E-5,-1.514288887847215E-4,1.1512881610542536E-4,-8.875715255737305,21.360565185546875,-38.080013275146484,0.0011703148484230042,0.02442888915538788,0.05584716796875,0.055918396,-0.15451129,9.755297,-0.010182833,-0.010019556,9.75667,0
1,985.437255859375,4.813687992282212E-4,-0.00108331476803869,3.8086483255028725E-4,-8.118032455444336,20.015396118164062,-37.810123443603516,0.001165829598903656,6.365776062011719E-4,0.027441978454589844,0.06548947,-0.13544534,9.767134,0.0058136177,0.004022807,9.76829,0
2,985.445068359375,2.161691663786769E-4,-4.1801281622610986E-4,2.4660685448907316E-4,-8.49986457824707,20.13186264038086,-37.604129791259766,0.0014472492039203644,-0.003892064094543457,0.046380043029785156,0.0678907,-0.13782887,9.7624,0.0067982096,6.2949955E-4,9.763607,0
2,985.432373046875,8.290121331810951E-5,2.4779472732916474E-4,-1.975620398297906E-5,-8.201756477355957,20.30603790283203,-38.2761344909668,-0.012872468680143356,0.005507573485374451,0.041642189025878906,0.06312233,-0.14497907,9.764769,-2.880618E-4,-0.0039381087,9.7660475,0
2,985.4322509765625,-9.824723238125443E-4,-5.511350464075804E-4,-6.855931133031845E-4,-8.620138168334961,19.966842651367188,-38.037845611572266,-0.003283485770225525,-0.004514813423156738,0.04636859893798828,0.065523654,-0.14497928,9.757668,0.0019770598,-0.0045303404,9.758964,0
2,985.4395141601562,-5.0476694013923407E-5,-2.84801353700459E-4,-1.530083827674389E-4,-8.184066772460938,19.479740142822266,-38.23051071166992,0.011459387838840485,-0.013898789882659912,0.03689765930175781,0.05358556,-0.13544641,9.760036,-0.0057359813,0.008957908,9.761119,0
2,985.4397583007812,8.257123408839107E-5,-8.174151880666614E-4,-1.530555309727788E-4,-8.5263032913208,20.0548095703125,-38.211421966552734,0.002031177282333374,0.009986251592636108,0.036895751953125,0.060766697,-0.14736314,9.762405,-0.003896688,-0.0047454834,9.763706,0
2,985.437255859375,7.482509245164692E-4,-1.5160764451138675E-4,-1.9944796804338694E-5,-8.881994247436523,19.616188049316406,-37.8230094909668,0.0015972517430782318,0.014950692653656006,0.04636955261230469,0.05121851,-0.15927978,9.762405,-0.017322823,-0.011915848,9.763817,0
2,985.4490966796875,-8.497543167322874E-4,5.141999572515488E-4,-8.189395302906632E-4,-8.844900131225586,19.703556060791016,-37.75685501098633,0.006244804710149765,0.009812027215957642,0.036895751953125,0.060789526,-0.14736368,9.781343,-0.003405664,-0.0044371337,9.78264,0
2,985.4369506835938,-5.091674393042922E-5,-1.8413964426144958E-5,1.1311890557408333E-4,-8.830904006958008,20.34894561767578,-38.02772903442383,0.015926700085401535,0.004796922206878662,0.055828094482421875,0.044071615,-0.147364,9.76004,-0.018707475,0.002115339,9.761234,0
2,985.4423217773438,-5.836584605276585E-4,5.142356385476887E-4,-9.52191767282784E-4,-8.540407180786133,20.515758514404297,-38.313201904296875,0.010685756802558899,-0.0050759464502334595,0.03688621520996094,0.058422446,-0.14259769,9.762408,-0.0031141806,8.983612E-4,9.763624,0
2,985.44970703125,-9.832422947511077E-4,6.474113906733692E-4,-5.527652101591229E-4,-8.694025993347168,20.42424774169922,-37.74528884887695,-0.013161122798919678,0.013810411095619202,0.04161643981933594,0.06799346,-0.1521311,9.757675,0.0019804067,-0.011479527,9.759091,0
2,985.444580078125,-1.812033005990088E-4,-5.147065967321396E-4,-1.867878600023687E-4,-8.840441703796387,20.814315795898438,-38.36142349243164,0.005975581705570221,-6.805956363677979E-4,0.03687858581542969,0.06322506,-0.14498158,9.774246,4.4035225E-4,-0.00258407,9.775526,0
2,985.444580078125,-7.13945017196238E-4,-1.1521487613208592E-4,2.126388717442751E-4,-8.380431175231934,20.033035278320312,-37.6937370300293,0.005857214331626892,0.008581042289733887,0.05107688903808594,0.051286995,-0.15689816,9.767146,-0.014951402,-0.008876428,9.768528,0
2,985.4593505859375,8.489261381328106E-5,-5.146708572283387E-4,7.943378295749426E-5,-8.963055610656738,20.804283142089844,-37.41813278198242,0.006146203726530075,-0.005830422043800354,0.05107307434082031,0.048908472,-0.14498211,9.757679,-0.012747299,0.0032395422,9.758871,0
2,985.4593505859375,6.174143054522574E-4,2.842946851160377E-4,4.7886042739264667E-4,-8.516468048095703,20.221576690673828,-37.452850341796875,0.001603592187166214,-0.010402947664260864,0.02740192413330078,0.053699702,-0.14021583,9.767148,-0.006703239,0.0058646947,9.768299,0
2,985.4617919921875,-3.148011164739728E-4,-9.141089394688606E-4,4.788133082911372E-4,-8.732939720153809,19.70327377319336,-38.15900802612305,0.006194278597831726,0.004008829593658447,0.04160594940185547,0.053711087,-0.14498265,9.767149,-0.008532367,0.0011672527,9.76837,0
2,985.436279296875,8.456263458356261E-5,5.506462184712291E-4,-5.386560223996639E-5,-8.565462112426758,20.334259033203125,-38.29872131347656,0.006131090223789215,-0.010438919067382812,0.032134056091308594,0.048942745,-0.14259966,9.778986,-0.0118851,0.005550176,9.780139,0
2,985.4822998046875,-4.870526026934385E-5,-3.8144149584695697E-4,3.4556110040284693E-4,-8.434831619262695,19.87744903564453,-38.83101272583008,0.015514634549617767,-5.281716585159302E-4,0.05107688903808594,0.04895413,-0.14259993,9.769519,-0.011785008,0.0051804185,9.770673,0
2,985.4618530273438,0.001149606192484498,4.175241047050804E-4,-1.8711778102442622E-4,-8.951177597045898,20.183929443359375,-38.46144485473633,0.001282036304473877,0.01418641209602356,0.055815696716308594,0.06808478,-0.14974998,9.767153,0.0026025951,-0.009459466,9.768534,0
2,985.446533203125,8.831802988424897E-4,-3.8140572723932564E-4,4.786247154697776E-4,-8.751609802246094,20.159805297851562,-38.02887725830078,0.001086220145225525,-2.4078786373138428E-4,0.041611671447753906,0.053756773,-0.14021726,9.757685,-0.0065851226,0.004801348,9.758837,0
2,985.446533203125,8.831802988424897E-4,-3.8140572723932564E-4,4.786247154697776E-4,-8.579021453857422,20.426918029785156,-38.30205535888672,-0.003534644842147827,-0.004950135946273804,0.0416107177734375,0.068107605,-0.1402175,9.757686,0.006476912,-6.720722E-4,9.758928,0
2,985.456787109375,-4.485092358663678E-4,-2.4822994600981474E-4,-1.8721213564276695E-4,-8.254070281982422,20.203941345214844,-37.569236755371094,0.010778076946735382,0.013944819569587708,0.06054401397705078,0.05616945,-0.15928395,9.764788,-0.011810738,-0.013457075,9.766232,0
2,985.4564819335938,-4.914519377052784E-5,-2.4821210536174476E-4,8.780042990110815E-4,-8.293525695800781,19.85125732421875,-38.0814094543457,0.006328575313091278,0.013775095343589783,0.05580425262451172,0.056180924,-0.15213443,9.755321,-0.00937703,-0.0066102,9.756662,0
2,985.4541015625,-1.8241332145407796E-4,-1.1503628047648817E-4,-5.414843326434493E-5,-8.627748489379883,19.95948028564453,-37.65132141113281,0.0019824132323265076,-0.005366235971450806,0.05579948425292969,0.05367756,-0.137832,9.760044,-0.006336222,0.007864013,9.76116,0
2,985.4615478515625,-3.156812163069844E-4,-6.476501584984362E-4,3.4527824027463794E-4,-8.717016220092773,19.875938415527344,-37.709659576416016,0.006984025239944458,0.013805106282234192,0.04635429382324219,0.048776746,-0.14974542,9.760034,-0.015608997,-0.0014789253,9.7612915,0
2,985.4593505859375,8.368265116587281E-5,-6.476322887465358E-4,0.0011441786773502827,-8.393991470336914,20.125694274902344,-37.69706726074219,0.01161445677280426,0.004240483045578003,0.03688621520996094,0.048777997,-0.1425956,9.767136,-0.012726106,0.005173698,9.768288,0
3,985.453857421875,3.523377235978842E-4,1.7777594621293247E-5,-8.521877462044358E-4,-8.524620056152344,20.582500457763672,-37.16477966308594,0.01115645095705986,0.014095708727836609,0.055830955505371094,0.05833888,-0.14497887,9.77187,-0.0045118136,-0.0010488033,9.773117,0
3,985.4510498046875,3.5232544178143144E-4,1.7779573681764305E-5,-5.3245516028255224E-5,-8.67505931854248,20.599857330322266,-37.4505500793457,0.015417516231536865,0.004503354430198669,0.04636383056640625,0.053560376,-0.14021243,9.764769,-0.00658744,0.004913956,9.765921,0
3,985.4585571289062,4.854711005464196E-4,9.49887209571898E-4,-5.325081292539835E-5,-8.2308349609375,19.751827239990234,-37.9312858581543,-0.003910932689905167,0.008985340595245361,0.03689289093017578,0.06312123,-0.15927865,9.769503,-0.0045716222,-0.01616545,9.770991,0
3,985.453857421875,-3.134888247586787E-4,9.498890722170472E-4,2.130598877556622E-4,-7.995555877685547,19.919513702392578,-38.05433654785156,0.010335501283407211,0.009082823991775513,0.036894798278808594,0.051173,-0.1521288,9.762402,-0.013039843,-0.005107254,9.763711,0
3,985.4562377929688,-7.129748119041324E-4,1.5094352420419455E-4,-3.195770550519228E-4,-8.742178916931152,20.80078125,-38.06783676147461,0.005770266056060791,-0.005197420716285706,0.04636192321777344,0.0559541,-0.13782917,9.7553005,-0.003367724,0.006139159,9.756432,0
3,985.448974609375,-4.720961442217231E-5,-7.811581017449498E-4,-4.5274558942765E-4,-8.402986526489258,20.22277069091797,-37.932315826416016,0.005624458193778992,0.004473268985748291,0.05109882354736328,0.05595535,-0.14259584,9.769504,-0.005073564,0.0018040091,9.770703,0
3,985.450927734375,-4.722177982330322E-5,0.0010830549290403724,-3.1959288753569126E-4,-8.557010650634766,20.605472564697266,-38.16192626953125,0.01475021243095398,-0.009804129600524902,0.041632652282714844,0.051176786,-0.1449791,9.769504,-0.010011453,0.0012477934,9.770709,0
3,985.4462280273438,4.8539781710132957E-4,5.504252621904016E-4,-1.8644012743607163E-4,-8.70247745513916,20.15304183959961,-37.882083892822266,0.005207080394029617,-3.8649141788482666E-4,0.06056976318359375,0.05834776,-0.14497913,9.7553005,-0.003380685,-0.0015636832,9.756553,0
3,985.45361328125,-1.8040422582998872E-4,1.779547892510891E-5,-5.328736733645201E-5,-8.701498031616211,20.522804260253906,-38.05784225463867,-1.2740492820739746E-6,0.00924643874168396,0.027431488037109375,0.06551877,-0.14497916,9.760035,0.0035844373,-0.004567519,9.76133,0
3,985.4457397460938,4.85373311676085E-4,0.001615692744962871,-8.522402495145798E-4,-8.645736694335938,20.153636932373047,-38.1218147277832,0.004632405936717987,0.004564791917800903,0.055840492248535156,0.05357051,-0.14021267,9.7529335,-0.0054371087,0.0042610466,9.754085,0
3,985.4552612304688,2.1904526511207223E-4,-7.811482064425945E-4,-5.85929723456502E-4,-8.885442733764648,20.08745574951172,-38.46592712402344,0.018937166780233383,0.00471457839012146,0.055843353271484375,0.046402037,-0.14974578,9.757668,-0.015831029,-0.0015645772,9.758916,0
3,985.445068359375,-4.7282897867262363E-5,1.780143065843731E-5,6.124865612946451E-4,-8.508177757263184,19.966567993164062,-38.440006256103516,0.009473823010921478,0.004597842693328857,0.041637420654296875,0.053573042,-0.14021267,9.769504,-0.005516689,0.0045031905,9.770655,0
3,985.4578857421875,-3.1361100263893604E-4,-1.1535453086253256E-4,2.13007559068501E-4,-8.830904006958008,20.34894561767578,-38.02772521972656,-4.7747790813446045E-4,0.014200970530509949,0.05584239959716797,0.05835411,-0.15927894,9.755301,-0.008368813,-0.0152924955,9.756762,0
3,985.4557495117188,2.1900859428569674E-4,5.504371365532279E-4,-7.191032636910677E-4,-8.59867000579834,20.513687133789062,-37.99616622924805,0.014284096658229828,-3.307908773422241E-4,0.022696495056152344,0.051185668,-0.13544624,9.771872,-0.0058718263,0.009986952,9.772937,0
3,985.4527587890625,-5.799514474347234E-4,-2.4850841145962477E-4,-7.191086187958717E-4,-8.001506805419922,20.01953887939453,-38.44419479370117,-4.4499337673187256E-4,0.009142562747001648,0.041634559631347656,0.055966735,-0.14497934,9.7624035,-0.004750151,-9.776801E-4,9.763639,0
3,985.4525756835938,-4.4680561404675245E-4,4.1728318319655955E-4,3.461496962700039E-4,-8.669950485229492,20.23598861694336,-37.58401107788086,0.009372282773256302,0.01375579833984375,0.03689765930175781,0.055968046,-0.15212919,9.7647705,-0.0077652563,-0.0071496516,9.766111,0
3,985.4627685546875,4.852876882068813E-4,-0.0019795577973127365,3.4614448668435216E-4,-8.40078353881836,19.961872100830078,-38.61024856567383,3.8744136691093445E-4,-0.00533178448677063,0.07003402709960938,0.058359176,-0.1425962,9.757668,-0.0023362008,7.867962E-4,9.758883,0
3,985.4378662109375,-1.8051429651677608E-4,-1.1534460645634681E-4,7.982330862432718E-5,-8.875469207763672,20.360130310058594,-38.406436920166016,0.009791340678930283,-0.005350053310394287,0.03216075897216797,0.05597061,-0.1425962,9.767138,-0.0043656663,0.00187774,9.768337,0
3,985.463623046875,-3.136844024993479E-4,5.50447148270905E-4,-4.5281369239091873E-4,-9.250371932983398,20.746337890625,-37.9863395690918,0.009651578962802887,0.004137471318244934,0.03216075897216797,0.0559718,-0.14497949,9.769505,-0.0051747803,-2.3856759E-4,9.77074,0
3,985.4678344726562,-3.1369668431580067E-4,-5.148144555278122E-4,7.981283124536276E-5,-8.910200119018555,20.538089752197266,-38.026573181152344,4.577040672302246E-4,-0.005399748682975769,0.051095008850097656,0.055973113,-0.1425962,9.755301,-0.004556908,0.0018167943,9.756502,0
3,985.4603881835938,2.1892291260883212E-4,-7.811282994225621E-4,7.980759255588055E-5,-8.481738090515137,20.043621063232422,-37.83271408081055,5.810149013996124E-4,-8.244216442108154E-4,0.046357154846191406,0.058364272,-0.13067992,9.769505,0.002230483,0.012265608,9.770545,0
3,985.4373779296875,-4.468789556995034E-4,1.5097917639650404E-4,-1.8651352729648352E-4,-8.922674179077148,19.894168853759766,-37.8330078125,0.009824864566326141,0.003819480538368225,0.06056022644042969,0.05119583,-0.14974613,9.757669,-0.011519907,-0.0024445504,9.758945,0
3,985.4525756835938,-8.46365001052618E-4,9.49928886257112E-4,-3.1967659015208483E-4,-8.690439224243164,20.05890655517578,-37.801448822021484,0.004726320505142212,-0.005954563617706299,0.03688621520996094,0.05372989,-0.14259984,9.769518,-0.005932415,0.0032357424,9.770704,0
3,985.445068359375,-4.489906132221222E-5,-7.692007347941399E-4,-4.896119935438037E-5,-9.120423316955566,20.551902770996094,-37.91800308227539,0.009535007178783417,0.0035623013973236084,0.036856651306152344,0.056272626,-0.1497534,9.7719,-0.00659292,-0.0041897297,9.773207,0
4,985.445068359375,-4.489906132221222E-5,-7.692007347941399E-4,-4.896119935438037E-5,-9.120423316955566,20.551902770996094,-37.91800308227539,0.009787563234567642,0.013100594282150269,0.036853790283203125,0.05867517,-0.15452026,9.7719,-0.0066633187,-0.009380788,9.773292,0
4,985.4655151367188,-3.1133717857301235E-4,-3.697070642374456E-4,-1.8217164324596524E-4,-8.60657787322998,19.874183654785156,-38.03451156616211,0.00985683873295784,0.008160606026649475,0.04158496856689453,0.049128234,-0.149754,9.771902,-0.013523182,-0.00116463,9.773165,0
4,985.4629516601562,2.2117234766483307E-4,-1.0337131971027702E-4,3.5040784860029817E-4,-8.560895919799805,20.33867645263672,-38.530635833740234,-3.3795833587646484E-5,0.008052647113800049,0.05578804016113281,0.05870062,-0.15928747,9.755333,-0.008423233,-0.0137358755,9.756796,0
4,985.4678344726562,-1.7842400120571256E-4,0.0012282280949875712,2.1719734650105238E-4,-9.107704162597656,20.195396423339844,-38.437992095947266,0.0040025971829891205,-0.0016714781522750854,0.06525707244873047,0.051543593,-0.14022152,9.750599,-0.006392926,0.0063465983,9.75174,0
4,985.4297485351562,3.540853504091501E-4,0.001095089945010841,0.001016092486679554,-9.178548812866211,20.655750274658203,-38.300045013427734,0.003928724676370621,-0.006000682711601257,0.04159069061279297,0.046776444,-0.14022188,9.757702,-0.011093041,0.0076580793,9.758811,0
4,985.4622192382812,-1.7866853158921003E-4,-3.696276107802987E-4,3.5025045508518815E-4,-8.5885591506958,20.892292022705078,-38.6357536315918,0.008855905383825302,-0.0016202926635742188,0.02737903594970703,0.053958893,-0.14260544,9.771906,-0.0054299575,0.0032497793,9.773094,0
4,985.4622192382812,-1.7866853158921003E-4,-3.696276107802987E-4,3.5025045508518815E-4,-7.839573383331299,20.27634048461914,-38.176239013671875,0.004080921411514282,0.012360602617263794,0.046311378479003906,0.05158168,-0.15452208,9.779009,-0.011998276,-0.0063055456,9.780357,0
4,985.4572143554688,-7.114228210411966E-4,-5.027656443417072E-4,4.8335589235648513E-4,-8.334206581115723,20.129234313964844,-38.091407775878906,0.008877422660589218,-0.020988166332244873,0.06051445007324219,0.053984255,-0.1402228,9.755338,-0.004204276,0.005707741,9.756491,0
4,985.4498901367188,-5.783874657936394E-4,-6.359037361107767E-4,-4.932837327942252E-5,-8.781368255615234,19.86797332763672,-37.083404541015625,-0.005693472921848297,0.01693207025527954,0.04630851745605469,0.058776736,-0.14975621,9.764808,-0.0033346051,-0.004733458,9.766131,0
4,985.4576416015625,-4.453517613001168E-4,6.956955185160041E-4,3.500930906739086E-4,-8.738592147827148,20.435436248779297,-38.12399673461914,0.017737310379743576,-0.011528387665748596,0.01790332794189453,0.04922989,-0.13307358,9.779013,-0.005401812,0.014197364,9.78003,0
4,985.4572143554688,3.534737043082714E-4,6.957153091207147E-4,-4.943314706906676E-5,-8.446571350097656,20.603721618652344,-38.48678207397461,-0.0014086998999118805,0.017298758029937744,0.036843299865722656,0.05641225,-0.15452342,9.769545,-0.0070877634,-0.008636251,9.770922,0
4,985.4521484375,6.196668837219477E-4,-1.0321236914023757E-4,-4.489595885388553E-4,-8.592039108276367,20.151287078857422,-38.20693588256836,0.0036328285932540894,0.007871836423873901,0.04631233215332031,0.054035038,-0.15690692,9.7671795,-0.010566531,-0.009854913,9.768578,0
4,985.4647216796875,8.691300172358751E-5,1.6312338993884623E-4,2.167777274735272E-4,-8.829381942749023,20.350421905517578,-38.10503005981445,0.022692065685987473,0.003131181001663208,0.03684234619140625,0.044488132,-0.15214075,9.764813,-0.017359324,-0.002055928,9.766084,0
4,985.4699096679688,3.5310653038322926E-4,-5.026465514674783E-4,-5.822221864946187E-4,-8.33877182006836,20.12481689453125,-37.859493255615234,0.01278066635131836,0.01737523078918457,0.03210926055908203,0.05406043,-0.14975776,9.774282,-0.0072865314,-0.003411442,9.775576,0
4,985.4498901367188,-1.796478172764182E-4,1.6316314577125013E-4,7.493045413866639E-4,-8.335047721862793,19.865386962890625,-38.6147346496582,-0.011317424476146698,-0.01589520275592804,0.036843299865722656,0.06841254,-0.1354584,9.76955,0.011612361,0.003992483,9.770722,0
4,985.4547119140625,2.1970376837998629E-4,0.0013616045471280813,4.8293633153662086E-4,-8.27387809753418,19.764488220214844,-38.387298583984375,-0.016109440475702286,0.008055761456489563,0.03211021423339844,0.073205054,-0.15214165,9.764816,0.009488047,-0.013466358,9.766264,0
4,985.4545288085938,7.522133528254926E-4,2.963607548736036E-4,-4.4922163942828774E-4,-8.562555313110352,20.231292724609375,-37.75425720214844,0.0031173862516880035,0.00851556658744812,0.06052207946777344,0.06126821,-0.14975871,9.755348,-0.0010076449,-0.0071235746,9.756686,0
4,985.4521484375,6.188104161992669E-4,-9.020209545269608E-4,4.827789671253413E-4,-8.703999519348145,20.151565551757812,-37.80478286743164,-0.0015558525919914246,0.008353173732757568,0.046314239501953125,0.05889103,-0.15690883,9.764818,-0.0059797643,-0.01240845,9.766247,0
4,985.4570922851562,8.605641778558493E-5,8.290520636364818E-4,-1.830631517805159E-4,-8.2464599609375,20.211307525634766,-37.95576095581055,-0.020701829344034195,-0.005738168954849243,0.041581153869628906,0.080412865,-0.14499278,9.771921,0.018643169,-0.009708285,9.773303,0
4,985.4464721679688,4.8540765419602394E-4,-3.6934943636879325E-4,8.3200226072222E-5,-8.958353042602539,20.91461944580078,-38.349124908447266,-0.006363619118928909,0.01319032907485962,0.036843299865722656,0.05652654,-0.1497596,9.762455,-0.0053227777,-0.005028069,9.763765,0
4,985.4566650390625,2.1896942052990198E-4,-3.6932958755642176E-4,8.314783917739987E-5,-8.359804153442383,20.316024780273438,-38.17538070678711,-0.0012700706720352173,-0.0010727494955062866,0.022637367248535156,0.06609881,-0.14499344,9.771925,0.005102781,-0.004098922,9.773223,0
4,985.4291381835938,-1.8062657909467816E-4,-2.3615184181835502E-4,7.488850969821215E-4,-8.414886474609375,20.422821044921875,-38.712032318115234,-0.020433947443962097,0.013100758194923401,0.04157257080078125,0.06850147,-0.15214352,9.774292,0.004676452,-0.011484891,9.775707,0
4,985.4495849609375,-1.80749106220901E-4,3.018396091647446E-5,3.493588010314852E-4,-8.793375968933105,21.17436981201172,-38.235774993896484,0.01750946044921875,-0.001279681921005249,0.041571617126464844,0.051784813,-0.14737727,9.776661,-0.008676414,-6.8226457E-4,9.7779045,0
4,985.44189453125,-4.771363455802202E-5,4.2967768968082964E-4,-3.164833760820329E-4,-8.887508392333984,20.454269409179688,-38.4870719909668,-0.005844343453645706,-0.0011722743511199951,0.017940521240234375,0.06329942,-0.1426001,9.781355,0.0036272274,-7.375926E-4,9.7825985,0
4,985.4515380859375,6.211650907061994E-4,-7.692452054470778E-4,7.501039654016495E-4,-8.805849075317383,20.530445098876953,-38.04220962524414,0.003910642117261887,0.003564491868019104,0.051079750061035156,0.070464075,-0.15213303,9.76005,0.0062883506,-0.012540787,9.76148,0
5,985.4285888671875,-4.4300040462985635E-4,2.9584000003524125E-4,3.511007234919816E-4,-7.967457294464111,20.103958129882812,-38.22343063354492,-7.501281797885895E-4,0.0037066489458084106,0.04161262512207031,0.060899377,-0.14021654,9.767151,0.0019762306,0.0022653341,9.768347,0
5,985.4572143554688,7.554697804152966E-4,-9.025892941281199E-4,7.505954708904028E-4,-8.465677261352539,20.32219696044922,-38.08243942260742,0.00919874757528305,0.0041265785694122314,0.03688335418701172,0.06089431,-0.14021643,9.776619,0.0014968466,0.0021428466,9.777814,0
5,985.46435546875,6.223609088920057E-4,-5.031234468333423E-4,2.1798472153022885E-4,-8.50374984741211,19.865070343017578,-37.972843170166016,-1.9878149032592773E-5,-0.019535839557647705,0.05108642578125,0.060889244,-0.13544972,9.762416,0.0030144018,0.0062616467,9.763543,0
5,985.4617919921875,-4.337989958003163E-5,-3.699734515976161E-4,6.174794980324805E-4,-8.567962646484375,19.963024139404297,-38.04566192626953,-2.7742236852645874E-5,0.008686333894729614,0.03214454650878906,0.0584943,-0.1497493,9.757681,-0.004661853,-0.005670175,9.759002,0
5,985.4488525390625,-1.7648900393396616E-4,2.9492381145246327E-5,8.486869046464562E-5,-8.892073631286621,20.449848175048828,-38.25515365600586,-0.0049711912870407104,0.003980860114097595,0.0368804931640625,0.068048805,-0.14974917,9.771884,0.0042034006,-0.0093563795,9.773264,0
5,985.4080810546875,2.2303382866084576E-4,8.284320356324315E-4,8.48897616378963E-5,-9.117379188537598,20.554847717285156,-38.07261276245117,0.004439089447259903,0.027740836143493652,0.04161643981933594,0.05609423,-0.15451558,9.764781,-0.008559791,-0.009000257,9.766157,0
5,985.438720703125,-7.090229191817343E-4,-2.368393907090649E-4,-3.1456322176381946E-4,-8.502089500427246,19.972457885742188,-38.74922561645508,-0.014500819146633148,0.00853806734085083,0.03687858581542969,0.07281846,-0.15451546,9.77425,0.006862005,-0.015338883,9.775728,0
5,985.4566040039062,2.2313155932351947E-4,-1.0368941002525389E-4,0.0011501952540129423,-8.520896911621094,20.323074340820312,-37.920013427734375,-2.468675374984741E-4,-0.010610908269882202,0.05108165740966797,0.058474004,-0.14259894,9.760046,-0.0015590386,0.0010484457,9.761264,0
5,985.4744873046875,-1.7629330977797508E-4,1.6261855489574373E-4,2.1811056649312377E-4,-8.909220695495605,20.907852172851562,-38.20233154296875,-0.004815347492694855,-0.010517895221710205,0.02740955352783203,0.07041842,-0.1378323,9.767147,0.01107928,8.678287E-4,9.768368,0
5,985.44384765625,2.2322952281683683E-4,-7.694949163123965E-4,-4.818435991182923E-5,-8.227355003356934,20.492828369140625,-38.36009979248047,-0.009323149919509888,0.00876927375793457,0.02741241455078125,0.0632436,-0.14259864,9.767147,0.0022961502,-7.5252354E-4,9.768393,0
5,985.4541015625,6.227521225810051E-4,-2.3687111388426274E-4,6.176262395456433E-4,-8.775142669677734,19.979782104492188,-38.09170150756836,-0.004657413810491562,-5.956441164016724E-4,0.04161834716796875,0.060848653,-0.14498188,9.76478,-8.406814E-4,-0.002284348,9.766047,0
5,985.4464721679688,7.559589575976133E-4,4.2891062912531197E-4,3.513314004521817E-4,-8.490732192993164,20.140701293945312,-38.06795883178711,-0.004614517092704773,0.004359647631645203,0.02268505096435547,0.060843527,-0.15451483,9.776615,-0.0046209362,-0.011049688,9.778018,0
5,985.4541015625,2.2663152776658535E-6,-4.979580407962203E-4,-2.793610910885036E-4,-8.836012840270996,20.71282196044922,-37.89426040649414,3.5661086440086365E-4,0.004345029592514038,0.04162025451660156,0.06083849,-0.13306521,9.769513,0.003636462,0.008648559,9.770605,0
5,985.4464721679688,2.6863114908337593E-4,-2.3165017773862928E-4,-2.7934013633057475E-4,-8.675357818603516,19.967723846435547,-37.875423431396484,-0.00902823731303215,-0.009966671466827393,0.046355247497558594,0.06800312,-0.14498146,9.76241,0.005327352,-0.0051469356,9.763722,0
5,985.4515380859375,-5.30267832800746E-4,-2.3165810853242874E-4,7.859442848712206E-4,-8.786201477050781,20.443679809570312,-38.34809494018555,-0.00444391742348671,0.008873045444488525,0.022681236267089844,0.063218266,-0.14736463,9.767145,2.729635E-4,-0.0052431226,9.768459,0
5,985.4437255859375,-5.30218705534935E-4,-3.648239653557539E-4,-2.7929822681471705E-4,-8.656251907348633,20.249237060546875,-38.27975845336914,-0.004071366041898727,0.01354534924030304,0.04635143280029297,0.067992985,-0.14736451,9.774245,0.0044770353,-0.0067023337,9.77559,0
5,985.4437255859375,-2.6385392993688583E-4,-2.3167399922385812E-4,7.859862525947392E-4,-8.484346389770508,20.778732299804688,-37.952308654785156,-0.004093460738658905,-0.005489960312843323,0.04161643981933594,0.06798786,-0.13783132,9.771878,0.008087917,0.0020412654,9.773082,0
5,985.48193359375,6.68300548568368E-4,8.335815509781241E-4,-5.455721984617412E-4,-8.470785140991211,20.686065673828125,-37.948978424072266,4.904493689537048E-4,-7.08460807800293E-4,0.041619300842285156,0.06320304,-0.14498104,9.771877,0.001103152,-0.002865836,9.773156,0
5,985.48193359375,6.68300548568368E-4,8.335815509781241E-4,-5.455721984617412E-4,-8.643235206604004,20.524871826171875,-38.374874114990234,0.0055245161056518555,0.009155750274658203,0.03688812255859375,0.060808063,-0.14974745,9.757673,-0.0033714778,-0.006731391,9.759009,0
5,985.4358520507812,4.0203362004831433E-4,-2.3168987536337227E-4,-1.2919423170387745E-5,-8.703999519348145,20.151565551757812,-37.80478286743164,0.005351599305868149,0.013599827885627747,0.041619300842285156,0.05841309,-0.14736398,9.762407,-0.0042942553,-0.0033473969,9.763694,0
5,985.4336547851562,5.352405132725835E-4,1.6777601558715105E-4,7.860491750761867E-4,-8.452116966247559,20.229537963867188,-38.079105377197266,-0.004151422530412674,0.023291796445846558,0.03215312957763672,0.06318781,-0.15213044,9.774243,-0.0019677074,-0.009496465,9.775627,0
5,985.4435424804688,-6.631320575252175E-4,-4.980216035619378E-4,-1.2877571862190962E-5,-8.748564720153809,20.162750244140625,-38.1834831237793,-0.0041518621146678925,-7.397383451461792E-4,0.055823326110839844,0.060792834,-0.14259721,9.762406,-2.858194E-4,1.925379E-4,9.763637,0
5,985.4617919921875,-1.3045145897194743E-4,-2.317136968486011E-4,1.2030138168483973E-4,-8.899682998657227,20.442481994628906,-37.86863327026367,0.014954932034015656,-5.795508623123169E-4,0.05109119415283203,0.053586602,-0.14021303,9.755302,-0.0059330817,0.0050555766,9.756454,0
5,985.45654296875,4.022292559966445E-4,-2.3172161309048533E-4,2.534802770242095E-4,-8.91963005065918,19.897117614746094,-37.987613677978516,-0.004301734268665314,0.014117896556854248,0.027433395385742188,0.07266742,-0.15212853,9.771869,0.0068121324,-0.013719127,9.773312,0
5,985.4560546875,8.018273510970175E-4,0.001099837594665587,-6.785720470361412E-4,-8.760602951049805,20.25688934326172,-38.26412582397461,3.121718764305115E-4,0.004555702209472656,0.041637420654296875,0.0654901,-0.14497848,9.769501,0.0032201991,-0.004397765,9.770793,0
6,985.4635620117188,3.4699332900345325E-6,1.676362007856369E-4,-4.120032535865903E-4,-8.712312698364258,19.98627471923828,-38.64065933227539,-0.00908811017870903,-0.004751577973365784,0.060577392578125,0.06548247,-0.14736153,9.75293,0.0020403084,-0.0069839507,9.754261,0
6,985.4862060546875,1.3670115731656551E-4,7.002560887485743E-4,-4.1197187965735793E-4,-9.04762077331543,20.831077575683594,-38.40746307373047,5.655176937580109E-4,0.014122843742370605,0.041637420654296875,0.048745573,-0.14259483,9.767133,-0.011390869,0.0045452416,9.768287,0
6,985.4358520507812,2.699324395507574E-4,-4.981773090548813E-4,-1.2466509360820055E-5,-8.834789276123047,20.08216094970703,-38.39643859863281,0.014840558171272278,-5.076229572296143E-4,0.04163360595703125,0.05112785,-0.14259459,9.752928,-0.0091084745,0.0033905506,9.754101,0
6,985.46142578125,-3.9578397991135716E-4,1.676004903856665E-4,3.8703871541656554E-4,-8.23289966583252,20.118648529052734,-37.952430725097656,0.0102243572473526,-0.015242397785186768,0.03689289093017578,0.048730403,-0.13306136,9.764764,-0.0077546546,0.013739973,9.76578,0
6,985.46630859375,3.83652513846755E-6,-4.982129903510213E-4,5.202594911679626E-4,-8.433448791503906,19.77301025390625,-38.2092399597168,9.875893592834473E-4,0.01354438066482544,0.03689384460449219,0.06545204,-0.14974405,9.769497,9.803914E-4,-0.007992372,9.770862,0
6,985.4537963867188,-2.6240613078698516E-4,-9.875107207335532E-5,-6.781306001357734E-4,-8.701498031616211,20.52280044555664,-38.05784225463867,-0.004026249051094055,0.0038938969373703003,0.04162883758544922,0.055884838,-0.14974387,9.76713,-0.007543667,-0.0042809546,9.768435,0
6,985.4232788085938,3.983150236308575E-6,3.439497959334403E-5,3.8716435665264726E-4,-8.505814552307129,20.231887817382812,-37.993988037109375,0.010288864374160767,-0.0011085271835327148,0.03689289093017578,0.058267146,-0.13782732,9.767128,-5.9734954E-4,0.0059615523,9.768271,0
6,985.4534912109375,-5.28575386852026E-4,4.338568833190948E-4,-6.780678522773087E-4,-8.44700813293457,19.86566925048828,-38.21257400512695,-0.00905798003077507,-0.010476216673851013,0.05583381652832031,0.06781918,-0.13782714,9.75766,0.008369382,0.0018330365,9.758866,0
6,985.46142578125,4.0360342245548964E-4,7.001608610153198E-4,-1.2246659025549889E-5,-8.708427429199219,20.25305938720703,-38.271942138671875,-0.0045731328427791595,-0.005744576454162598,0.032164573669433594,0.06542164,-0.14021026,9.769494,0.005524125,6.571263E-4,9.770718,0
6,985.4105834960938,-5.28428703546524E-4,7.001489866524935E-4,-1.2215226888656616E-5,-8.374886512756348,20.407211303710938,-38.10140609741211,-4.8801302909851074E-5,0.0039374977350234985,0.046372413635253906,0.06302413,-0.14497657,9.752923,0.0016743465,-0.0032483637,9.754205,0
6,985.4791259765625,6.700659287162125E-4,-9.881056030280888E-5,-4.1165767470374703E-4,-8.580543518066406,20.425445556640625,-38.22475051879883,1.2546777725219727E-5,0.018290191888809204,0.036904335021972656,0.06540644,-0.15689279,9.774227,-8.4197056E-4,-0.0148599595,9.775694,0
6,985.4637451171875,-1.2880837311968207E-4,9.664410026744008E-4,-1.453103614039719E-4,-8.539863586425781,20.14746856689453,-38.21475601196289,-0.004571855068206787,0.013563200831413269,0.06531143188476562,0.06778872,-0.15450926,9.752922,0.0020455178,-0.013894141,9.754373,0
6,985.4637451171875,4.422909114509821E-6,-0.0010309399804100394,3.8735283305868506E-4,-8.568399429321289,19.224971771240234,-37.77145767211914,0.019293274730443954,0.0038329362869262695,0.04163646697998047,0.051051855,-0.14020948,9.767124,-0.0075509325,0.006334707,9.768261,0
6,985.4841918945312,2.7081213193014264E-4,-8.977939141914248E-4,2.542263246141374E-4,-8.317899703979492,19.40738296508789,-38.66755676269531,-0.004231095314025879,0.008336737751960754,0.04163169860839844,0.060603797,-0.15212564,9.774225,-0.0037924075,-0.007994384,9.775593,0
6,985.4588623046875,-9.27535817027092E-4,-2.320161584066227E-4,1.2109975796192884E-4,-8.373662948608398,19.77655029296875,-38.603580474853516,0.005716729909181595,0.00844651460647583,0.051100730895996094,0.060596168,-0.14497565,9.757654,-0.0013665515,-0.0016422421,9.75892,0
6,985.4637451171875,2.7095869882032275E-4,-8.978176629170775E-4,-1.4518469106405973E-4,-8.729597091674805,20.338359832763672,-37.88874435424805,8.392147719860077E-4,0.013192698359489441,0.032164573669433594,0.06775832,-0.15212531,9.77659,0.0024908965,-0.0107503235,9.778002,0
6,985.466552734375,4.0418998105451465E-4,8.332236902788281E-4,-9.441008442081511E-4,-8.636741638183594,20.056556701660156,-37.88656997680664,-0.013581857085227966,-0.006079673767089844,0.06530380249023438,0.0701406,-0.14735855,9.764755,0.006713364,-0.0073537678,9.766115,0
6,985.45654296875,-6.610001437366009E-4,-3.6520976573228836E-4,1.2119408347643912E-4,-8.932753562927246,20.727828979492188,-38.26515579223633,-0.008506815880537033,-0.001347273588180542,0.036894798278808594,0.065353185,-0.14259188,9.757652,0.0039522075,-0.0010527819,9.758912,0
6,985.4616088867188,1.3802078319713473E-4,1.6741009312681854E-4,-4.1140627581626177E-4,-8.293770790100098,20.8516845703125,-37.7549934387207,-0.0086466483771801,-0.011006087064743042,0.032161712646484375,0.07251531,-0.1330585,9.771854,0.014331913,0.0055687577,9.773017,0
6,985.4513549804688,-5.276957526803017E-4,1.6739816055633128E-4,-1.1900963727384806E-5,-8.616252899169922,20.233638763427734,-37.669132232666016,-0.008641570806503296,-0.0014926940202713013,0.05109882354736328,0.06294808,-0.14735799,9.760017,7.0426286E-5,-0.004365757,9.761332,0
6,985.4310913085938,-2.61306413449347E-4,-9.892959496937692E-5,-1.4502758858725429E-4,-8.94881534576416,20.449249267578125,-38.01542282104492,8.952505886554718E-4,0.012587308883666992,0.041626930236816406,0.06294051,-0.14497454,9.767119,0.0010914115,-0.0018786788,9.768399,0
6,985.4534912109375,-6.607070099562407E-4,-2.3209945356938988E-4,-4.1131197940558195E-4,-9.158900260925293,20.56897735595703,-38.60593032836914,-0.003807835280895233,-0.006797969341278076,0.05582618713378906,0.06293288,-0.14735766,9.760017,1.6609742E-4,-0.0038547814,9.7613325,0
6,985.4281616210938,-3.9431778714060783E-4,1.6736247926019132E-4,-8.107543108053505E-4,-8.542226791381836,19.88214874267578,-38.660770416259766,-0.008690360933542252,-0.025816455483436584,0.04631614685058594,0.06575853,-0.13783525,9.760057,0.0061910413,0.003983468,9.7612505,0
6,985.4534912109375,1.357299624942243E-4,-4.980077501386404E-4,-6.787039455957711E-4,-8.133955955505371,19.84273910522461,-38.25947189331055,0.005454014986753464,0.021591350436210632,0.036843299865722656,0.060988843,-0.15928496,9.767159,-0.0061039715,-0.013767004,9.768637,0
7,985.460693359375,-7.98035878688097E-4,1.680515124462545E-4,-5.462575354613364E-4,-8.594646453857422,20.886398315429688,-38.326534271240234,-0.008769840002059937,0.0024187415838241577,0.022637367248535156,0.07055861,-0.14498557,9.7766285,0.008069253,-0.0039607435,9.777952,0
7,985.4539794921875,-5.537993274629116E-5,-4.6559536713175476E-4,-0.0013888536486774683,-8.471084594726562,20.053932189941406,-38.37384796142578,-0.008274540305137634,-0.006899610161781311,0.055777549743652344,0.06817889,-0.1354527,9.762426,0.009125489,0.005373776,9.7635975,0
7,985.4739379882812,7.433721330016851E-4,7.32857792172581E-4,-7.231477065943182E-4,-8.786744117736816,20.811969757080078,-38.4465446472168,-0.013165540993213654,-0.011259019374847412,0.04631328582763672,0.06340921,-0.13783623,9.767162,0.003570268,0.0050693303,9.768338,0
7,985.4739379882812,7.433721330016851E-4,7.32857792172581E-4,-7.231477065943182E-4,-8.786744117736816,20.811969757080078,-38.4465446472168,-0.0038539692759513855,0.0029650330543518066,0.046314239501953125,0.06580925,-0.15690269,9.76953,-0.0013172696,-0.013639241,9.771002,0
7,985.4739379882812,7.433721330016851E-4,7.32857792172581E-4,-7.231477065943182E-4,-8.533775329589844,20.153358459472656,-38.52397155761719,-0.00445021316409111,0.002973794937133789,0.03684806823730469,0.063429534,-0.13545342,9.764797,0.005343959,0.006761104,9.765939,0
7,985.4513549804688,3.43800347764045E-4,0.0015318214427679777,3.4207379212602973E-4,-8.380293846130371,20.138946533203125,-38.3928108215332,-0.004685603082180023,-0.01125963032245636,0.036849021911621094,0.06821948,-0.13068707,9.774266,0.0119429175,0.009114459,9.775366,0
7,985.4513549804688,-4.5524502638727427E-4,8.660475141368806E-4,6.083478219807148E-4,-8.886123657226562,20.349822998046875,-37.865299224853516,2.4622678756713867E-4,-0.0015951097011566162,0.06525611877441406,0.0634498,-0.14737026,9.757696,7.162661E-4,-0.0045761466,9.759014,0
7,985.4227905273438,-5.586905172094703E-5,6.711579771945253E-5,-5.901156109757721E-4,-8.703862190246582,20.257484436035156,-38.50385665893555,-0.004380717873573303,-0.0014786124229431152,0.041584014892578125,0.07062966,-0.14260398,9.762432,0.009010266,-0.0029689372,9.763723,0
7,985.433349609375,7.429808028973639E-4,6.713167385896668E-5,-3.23841639328748E-4,-8.985472679138184,21.09994125366211,-38.35578918457031,-0.009390410035848618,-0.011266171932220459,0.06525230407714844,0.06586003,-0.13783778,9.752964,0.006827671,0.003200531,9.754157,0
7,985.433349609375,7.709325291216373E-5,-3.323263372294605E-4,-8.565153111703694E-4,-8.859003067016602,20.164505004882812,-37.858638763427734,0.004792880266904831,0.0032678693532943726,0.04631805419921875,0.058700442,-0.14022128,9.762434,-6.545484E-4,0.0037785769,9.763616,0
7,985.4713745117188,-4.556364146992564E-4,5.997951957397163E-4,7.55483633838594E-5,-8.831042289733887,20.24303436279297,-37.32864761352539,-2.3187324404716492E-4,0.003423735499382019,0.036850929260253906,0.070660174,-0.14737137,9.764803,0.0076374128,-0.0077168643,9.766165,0
7,985.43603515625,4.7637143870815635E-4,7.329689688049257E-4,-1.9080948550254107E-4,-8.632176399230957,20.06098175048828,-38.11848449707031,-0.014611870050430298,0.00791981816291809,0.06051921844482422,0.073060155,-0.14975484,9.762436,0.009063116,-0.01063174,9.763849,0
7,985.43603515625,7.679976988583803E-5,-6.596276216441765E-5,-3.240092773921788E-4,-8.650164604187012,20.255130767822266,-38.5889778137207,0.009308245033025742,0.0031634122133255005,0.046314239501953125,0.053951085,-0.14737184,9.767172,-0.007595144,-9.42871E-4,9.768431,0
7,985.4486694335938,-4.559297813102603E-4,8.661585743539035E-4,-5.903671844862401E-4,-8.489753723144531,20.51046371459961,-38.243717193603516,0.004940405488014221,0.007764339447021484,0.06998062133789062,0.06113094,-0.15213858,9.745867,-0.00326787,-0.00805445,9.747243,0
7,985.4307250976562,-3.22869629599154E-4,-4.6540488256141543E-4,2.0853860769420862E-4,-8.565896987915039,19.596206665039062,-38.02451705932617,-1.2382864952087402E-4,-0.0017061084508895874,0.041576385498046875,0.061141133,-0.13783918,9.764805,0.0025959006,0.005230412,9.765968,0
7,985.4788818359375,4.759800503961742E-4,-1.9907302339561284E-4,3.4165458055213094E-4,-8.331162452697754,20.132179260253906,-38.24602127075195,0.004980213940143585,-0.0016938447952270508,0.0321044921875,0.061151236,-0.14498927,9.769541,-4.5446545E-4,-0.0011827201,9.770807,0
7,985.4742431640625,4.7578441444784403E-4,-7.316731498576701E-4,-5.7903118431568146E-5,-8.736771583557129,21.069046020507812,-37.776432037353516,-0.004853352904319763,0.0031871795654296875,0.0463104248046875,0.065941215,-0.1449895,9.76244,0.004183916,-0.0033406615,9.763738,0
7,985.4537963867188,-5.694496212527156E-5,7.330801454372704E-4,3.4152885200455785E-4,-8.765169143676758,20.25246810913086,-38.03220748901367,-0.009416904300451279,0.008014187216758728,0.046309471130371094,0.068341255,-0.15213953,9.760075,0.0032612823,-0.01092343,9.761493,0
7,985.4208374023438,7.419046596623957E-4,-3.3216745941899717E-4,3.414869133848697E-4,-8.688779830932617,20.166297912597656,-38.57783126831055,-0.014814283698797226,-0.010805800557136536,0.041581153869628906,0.06835142,-0.13069041,9.755341,0.012237107,0.008232564,9.756443,0
7,985.428466796875,3.4233310725539923E-4,0.001265743630938232,4.746029444504529E-4,-8.641170501708984,20.158058166503906,-38.35373306274414,0.004362400621175766,0.008252203464508057,0.055782318115234375,0.05641201,-0.15690668,9.7529745,-0.009143038,-0.011133432,9.75439,0
7,985.4616088867188,2.0907731959596276E-4,5.999698769301176E-4,6.077189464122057E-4,-8.63880729675293,20.423377990722656,-37.90771484375,-6.81556761264801E-4,-0.00130482017993927,0.03684425354003906,0.05881214,-0.14499058,9.767179,-0.0019926627,-9.903312E-4,9.768433,0
7,985.45654296875,-5.899680545553565E-4,-5.984357558190823E-4,8.739929180592299E-4,-8.854437828063965,20.168922424316406,-38.09054946899414,-0.010152928531169891,0.0033097267150878906,0.051044464111328125,0.068381846,-0.14975734,9.760078,0.004806077,-0.009110957,9.761461,0
7,985.4537963867188,2.0888162543997169E-4,6.000016001053154E-4,6.076350691728294E-4,-8.207706451416016,20.40605926513672,-38.66598892211914,-0.015020526945590973,-0.001240059733390808,0.04631328582763672,0.07540554,-0.1497537,9.774267,0.011603118,-0.011569023,9.775693,0
7,985.4442749023438,-1.906898687593639E-4,-1.9893015269190073E-4,7.49614555388689E-5,-8.456544876098633,20.331031799316406,-38.54627227783203,-4.096291959285736E-4,0.007988020777702332,0.03686809539794922,0.06330049,-0.14498337,9.762418,0.0022649537,-0.002586767,9.763698,0
7,985.4340209960938,-3.208815469406545E-4,3.3322005765512586E-4,3.4254853380843997E-4,-8.321624755859375,19.666812896728516,-37.912322998046875,-0.009952697902917862,0.00330902636051178,0.036869049072265625,0.06807774,-0.15451641,9.769519,0.002886173,-0.013202414,9.770969,0
8,985.4435424804688,3.4493260318413377E-4,-6.625771493418142E-5,3.425590693950653E-4,-8.933189392089844,19.989776611328125,-37.99094772338867,-4.5242905616760254E-4,-0.001529112458229065,0.05107307434082031,0.05851558,-0.14259999,9.755316,-0.0011643805,0.0013361126,9.756535,0
8,985.46630859375,7.864111103117466E-5,4.6637008199468255E-4,2.094115479849279E-4,-8.587611198425293,20.04979705810547,-37.73977279663086,0.008994609117507935,0.017571792006492615,0.04160499572753906,0.06329289,-0.1545163,9.781355,-0.0013937664,-0.011177957,9.782774,0
8,985.4739379882812,4.78139438200742E-4,5.995240644551814E-4,-1.9005179638043046E-4,-7.821447372436523,20.188098907470703,-38.404823303222656,-0.010341756045818329,-0.010871440172195435,0.041609764099121094,0.06329036,-0.14259984,9.767151,0.003458389,-5.5652857E-4,9.768396,0
8,985.4462890625,-5.446776049211621E-5,4.663621657527983E-4,-1.900412025861442E-4,-8.50277042388916,20.234832763671875,-38.148597717285156,0.00867069885134697,-0.01115158200263977,0.04160594940185547,0.05611807,-0.1378332,9.757682,-0.0011163128,0.0065799057,9.758815,0
8,985.4537963867188,-3.2075931085273623E-4,-3.3258949406445026E-4,-5.895046633668244E-4,-8.174636840820312,20.120716094970703,-38.269466400146484,-0.009960517287254333,0.026988953351974487,0.036869049072265625,0.06328529,-0.16166593,9.757681,-0.0039703073,-0.018035531,9.759208,0
8,985.4513549804688,-5.870506865903735E-4,2.000382519327104E-4,-4.563361289910972E-4,-8.384017944335938,20.39837646484375,-37.637577056884766,-0.010390136390924454,0.0079566091299057,0.051074981689453125,0.068062514,-0.13783304,9.755314,0.009814153,0.0019758195,9.75652,0
8,985.4586181640625,0.001277184928767383,3.3319229260087013E-4,4.757798742502928E-4,-8.468583106994629,20.425167083740234,-38.62691116333008,-0.020056460052728653,0.0033198297023773193,0.041609764099121094,0.0728398,-0.14974947,9.774252,0.009720431,-0.010750771,9.77566,0
8,985.4811401367188,7.878791075199842E-5,-6.628547998843715E-5,-1.8999940948560834E-4,-8.7416353225708,20.43248748779297,-37.96938705444336,-0.010262079536914825,-0.0013858675956726074,0.060545921325683594,0.06805748,-0.1449828,9.755314,0.006836479,-0.004864499,9.756626,0
8,985.4541015625,-5.434564081951976E-5,-1.9944735686294734E-4,-5.6830933317542076E-5,-8.786881446838379,20.7060546875,-37.74747085571289,0.004323158413171768,0.007982403039932251,0.0463409423828125,0.06088519,-0.15213259,9.750579,-0.0027035759,-0.008451924,9.75195,0
8,985.4512329101562,-3.2063707476481795E-4,-5.989251658320427E-4,7.633748464286327E-5,-8.493776321411133,20.13775634765625,-37.91334915161133,0.004089709371328354,-0.006190434098243713,0.03687477111816406,0.060882688,-0.14736594,9.760048,-6.667247E-4,-0.004122451,9.761349,0
8,985.4586181640625,-5.429668817669153E-5,7.326502236537635E-4,2.0950590260326862E-4,-8.339177131652832,20.599021911621094,-38.657020568847656,-0.019968505948781967,0.007866233587265015,0.03213787078857422,0.07999936,-0.14498265,9.771883,0.018247921,-0.00873819,9.773264,0
8,985.4667358398438,-4.537461791187525E-4,3.3317244378849864E-4,2.0951629267074168E-4,-8.529210090637207,20.15777587890625,-38.755889892578125,-6.533041596412659E-4,0.007889732718467712,0.05107402801513672,0.058487654,-0.15451564,9.769516,-0.005414095,-0.009519845,9.770906,0
8,985.4435424804688,-1.8740573432296515E-4,-4.6577921602874994E-4,-7.225787849165499E-4,-7.9282989501953125,19.824508666992188,-38.13612747192383,-0.014986839145421982,-0.011311233043670654,0.04160499572753906,0.065654874,-0.14021601,9.762414,0.0065982956,0.0010883957,9.76364,0
8,985.4541015625,4.7840847400948405E-4,4.6632246812805533E-4,7.421691552735865E-4,-8.281051635742188,20.49517822265625,-38.27498245239258,-0.005655672401189804,-0.0016702860593795776,0.04160785675048828,0.06804222,-0.14021589,9.760046,0.008985425,-5.1543117E-5,9.761288,0
8,985.4412841796875,2.857928047887981E-4,4.35273046605289E-4,-1.5634694136679173E-5,-8.261541366577148,20.302490234375,-37.88179397583008,-0.01043606922030449,-0.006237730383872986,0.060547828674316406,0.07042956,-0.14259912,9.760047,0.010222387,-0.003358066,9.761338,0
8,985.4591064453125,2.8581719379872084E-4,3.0211126431822777E-4,-1.5624158550053835E-5,-8.644458770751953,21.155540466308594,-37.87269973754883,0.013496004045009613,0.012945324182510376,0.03687763214111328,0.04891795,-0.14974888,9.767149,-0.012501788,-0.0015850812,9.768411,0
8,985.4591064453125,2.8581719379872084E-4,3.0211126431822777E-4,-1.5624158550053835E-5,-9.012049674987793,20.916969299316406,-38.263999938964844,0.0037303827702999115,0.008268669247627258,0.04635047912597656,0.05608508,-0.15451534,9.767147,-0.0076076025,-0.009001881,9.768523,0
8,985.4488525390625,2.858416410163045E-4,-3.636824549175799E-4,-2.819296205416322E-4,-8.84500789642334,20.809898376464844,-38.1295051574707,-0.005514893680810928,-0.0059408992528915405,0.046349525451660156,0.058472484,-0.14736547,9.769514,-0.0029069963,-0.0033040196,9.770799,0
8,985.448974609375,9.516557911410928E-4,3.5787466913461685E-5,1.1755467858165503E-4,-8.458066940307617,20.32956314086914,-38.46896743774414,-0.005482561886310577,0.008565858006477356,0.04161834716796875,0.06085983,-0.14498211,9.757679,1.2429885E-4,-0.0023865849,9.758945,0
8,985.4463500976562,-1.1358322808519006E-4,4.3525727232918143E-4,-1.5592726413160563E-5,-8.318145751953125,20.40781021118164,-38.34113693237305,-6.695427000522614E-4,0.0040204524993896484,0.02741718292236328,0.058467418,-0.14021553,9.776616,-3.62702E-4,0.0030431598,9.777796,0
8,985.438720703125,5.522308056242764E-4,-6.300101522356272E-4,2.5073354481719434E-4,-8.518693923950195,20.062171936035156,-38.59794616699219,0.013504240661859512,0.013548329472541809,0.046357154846191406,0.058464885,-0.14974858,9.75531,-0.0038772947,-0.0061656088,9.756633,0
8,985.4896850585938,6.854132516309619E-4,3.020914155058563E-4,2.5074402219615877E-4,-8.48214340209961,20.51782989501953,-38.63024139404297,-0.00552653893828392,0.013408884406089783,0.055823326110839844,0.053682506,-0.1592816,9.764779,-0.0121793235,-0.012634322,9.766211,0
8,985.4285888671875,-7.792996475473046E-4,-9.738643711898476E-5,-5.48193056602031E-4,-9.007621765136719,20.815471649169922,-37.79684066772461,0.004060056060552597,-0.015249669551849365,0.0652923583984375,0.05342582,-0.13782586,9.752919,-0.0038608734,0.007044539,9.754037,0
8,985.4539794921875,1.5283044194802642E-4,-4.968642024323344E-4,5.170808872207999E-4,-8.895256042480469,20.340988159179688,-37.40147018432617,-4.468075931072235E-4,-0.015436381101608276,0.046401023864746094,0.06510335,-0.13781913,9.759996,0.007138727,0.002533123,9.761185,0
9,985.4617919921875,-1.11641944386065E-4,8.344158995896578E-4,1.1839711805805564E-4,-8.794790267944336,20.066551208496094,-37.78581619262695,-5.17185777425766E-4,0.0036645829677581787,0.0274658203125,0.0579108,-0.14020188,9.769464,-3.741267E-4,0.0033180118,9.770641,0
9,985.4310913085938,-3.786548913922161E-4,3.0225329101085663E-4,5.207585054449737E-4,-8.213550567626953,19.399742126464844,-38.68319320678711,-0.010260805487632751,-0.0010106861591339111,0.03693962097167969,0.06266773,-0.1497344,9.769462,4.3576444E-4,-0.0074786544,9.770806,0
9,985.4105834960938,-2.452766930218786E-4,3.590167034417391E-5,-1.1778902262449265E-5,-8.674241065979004,20.443397521972656,-38.7502555847168,0.0037528686225414276,-0.0055275410413742065,0.046416282653808594,0.067424655,-0.14735056,9.762358,0.0058021364,-0.007747218,9.763699,0
9,985.430908203125,5.541115533560514E-4,0.0012342516565695405,1.2156792217865586E-4,-8.620979309082031,19.702999114990234,-38.5611686706543,0.003544967621564865,0.0039072185754776,0.032215118408203125,0.055452347,-0.14735003,9.769457,-0.0048347055,-0.002774164,9.770723,0
9,985.4365844726562,6.874897517263889E-4,-9.736351785250008E-5,-5.441273096948862E-4,-8.734025955200195,20.43985366821289,-38.35590744018555,0.0034826993942260742,0.009012460708618164,0.04169178009033203,0.06498909,-0.14734943,9.762354,0.0039022516,-0.0070228726,9.7636795,0
9,985.4520263671875,4.213941574562341E-4,3.575865412130952E-5,2.549146593082696E-4,-8.511220932006836,19.963623046875,-38.28539276123047,0.0037386491894721985,-0.005264952778816223,0.008551597595214844,0.053016722,-0.1330492,9.783656,-0.0017094415,0.011236355,9.784698,0
9,985.4340209960938,2.2140651708468795E-5,-6.300668464973569E-4,-1.4446477871388197E-4,-8.495161056518555,20.24219512939453,-38.53512191772461,-8.922144770622253E-4,0.004197418689727783,0.05116081237792969,0.0649434,-0.15926473,9.76235,-0.0010167123,-0.017781883,9.763848,0
9,985.4463500976562,-9.097446454688907E-4,3.5687146009877324E-5,-6.77002128213644E-4,-8.45113754272461,20.59930419921875,-38.25486373901367,-0.02467988431453705,0.018104374408721924,0.05589103698730469,0.076870024,-0.1473478,9.769449,0.0147530595,-0.01078406,9.770847,0
9,985.4213256835938,2.258122549392283E-5,1.6880931798368692E-4,5.21513749845326E-4,-8.907591819763184,19.802978515625,-37.906978607177734,-0.005610954016447067,-0.015023782849311829,0.051163673400878906,0.06967747,-0.14019735,9.762344,0.010721626,-0.0021689832,9.763594,0
9,985.4541015625,4.2227530502714217E-4,4.35089401435107E-4,-4.104974213987589E-4,-9.315021514892578,20.10623550415039,-37.78495407104492,-0.010623179376125336,-0.0053360313177108765,0.051169395446777344,0.06248492,-0.14258008,9.759975,0.0033328691,-0.0017059743,9.761217,0
9,985.4310913085938,2.893376804422587E-4,9.676854824647307E-4,-5.435608327388763E-4,-8.452958106994629,19.96569061279297,-38.60243225097656,0.008369822055101395,-0.005431607365608215,0.032233238220214844,0.055292368,-0.1354297,9.774178,-2.675664E-4,0.008051321,9.7752695,0
9,985.413818359375,-2.4307382409460843E-4,-4.970876616425812E-4,-2.7715053874999285E-4,-8.541790962219238,20.620201110839844,-38.934974670410156,-0.010654326528310776,0.013577014207839966,0.03223419189453125,0.06721899,-0.14734556,9.774176,0.006080546,-0.0074427277,9.775513,0
9,985.448974609375,-2.4285356630571187E-4,4.349822411313653E-4,7.882072823122144E-4,-8.557446479797363,19.867416381835938,-37.887718200683594,0.008097562938928604,-0.010206177830696106,0.0701150894165039,0.05763656,-0.14257838,9.755235,-6.067408E-4,1.4324486E-4,9.756447,0
9,985.4591674804688,-5.089491605758667E-4,5.681043257936835E-4,-2.7696171309798956E-4,-8.544429779052734,20.143051147460938,-37.98283767700195,-0.01096629723906517,0.00854964554309845,0.041706085205078125,0.064783394,-0.14734443,9.762335,0.0042001926,-0.006631106,9.763659,0
9,985.4462890625,6.8969267886132E-4,-9.772110206540674E-5,3.889222862198949E-4,-8.59769058227539,20.883453369140625,-38.17192459106445,-0.0012300387024879456,0.0137624591588974,0.027509689331054688,0.057590842,-0.1568769,9.762333,-0.0063181533,-0.013013005,9.763753,0
9,985.44384765625,0.0013557026395574212,3.0171696562319994E-4,2.558587584644556E-4,-8.08566665649414,19.572128295898438,-38.63600158691406,-0.010758697986602783,0.00439336895942688,0.03698253631591797,0.07190737,-0.14257677,9.778901,0.012288579,-0.0051440597,9.780196,0
9,985.4464721679688,-2.4197236052714288E-4,-4.972664755769074E-4,-1.0362709872424603E-5,-8.61198616027832,19.60592269897461,-38.32592010498047,-0.010726362466812134,0.004296779632568359,0.03224945068359375,0.059935004,-0.14495946,9.764695,2.747418E-4,-0.00291349,9.765955,0
9,985.448974609375,-7.743837777525187E-4,8.342771325260401E-4,-2.765841200016439E-4,-8.518693923950195,20.062175750732422,-38.59794616699219,-0.0013348832726478577,-0.010126441717147827,0.0559234619140625,0.059912145,-0.13780905,9.76706,0.0033111142,0.0037546158,9.768215,0
9,985.4464721679688,4.242579743731767E-4,-9.786419104784727E-5,1.229840563610196E-4,-8.400346755981445,20.69992446899414,-38.88445281982422,-0.010318327695131302,0.004381164908409119,0.051189422607421875,0.062279224,-0.14972492,9.755222,3.7589227E-4,-0.008293286,9.756566,0
9,985.4462890625,0.0010902680223807693,-8.968476322479546E-4,1.2307858560234308E-4,-9.006940841674805,20.553096771240234,-38.397464752197266,-0.015374056994915009,0.009523361921310425,0.036995887756347656,0.07181597,-0.14972432,9.757587,0.008996297,-0.01255773,9.758989,0
9,985.448974609375,5.578565178439021E-4,7.010119734331965E-4,-2.763009979389608E-4,-8.79131031036377,20.80754852294922,-38.214630126953125,-0.02010708674788475,-0.009259283542633057,0.041736602783203125,0.0694032,-0.14019062,9.7623205,0.010525535,-0.0028909445,9.763567,0
9,985.4317016601562,4.249188641551882E-4,-4.974453477188945E-4,-2.7620652690529823E-4,-8.451681137084961,20.96759033203125,-38.35331344604492,0.0041127391159534454,0.005016788840293884,0.06540966033935547,0.06221062,-0.14733993,9.762318,9.642908E-4,-0.0065226555,9.763626,0
9,985.4417724609375,2.56653584074229E-5,-3.6432311753742397E-4,-9.796232916414738E-6,-8.775249481201172,21.08612823486328,-38.464359283447266,-3.082454204559326E-4,0.009747728705406189,0.04647064208984375,0.057407975,-0.15687247,9.759949,-0.007909523,-0.013127908,9.761366,0
9,985.4693603515625,2.922014973592013E-4,-6.306747673079371E-4,1.2345612049102783E-4,-8.950634956359863,19.81563949584961,-38.36299133300781,-0.0014046356081962585,0.009850740432739258,0.04165935516357422,0.06784016,-0.15212731,9.762396,0.003993208,-0.013161361,9.763806,0
9,985.4541015625,-1.114552142098546E-4,3.019247960764915E-4,3.8632273208349943E-4,-8.799760818481445,20.536338806152344,-38.3514289855957,-0.0061524175107479095,0.019249483942985535,0.04639148712158203,0.058293194,-0.1449778,9.755295,-0.0019161568,-0.0028251112,9.756544,0
10,985.4541015625,1.5263969544321299E-4,3.022852761205286E-4,5.185288609936833E-4,-8.800847053527832,21.272918701171875,-38.5483283996582,0.0033986158668994904,-0.0045283883810043335,0.06532859802246094,0.05830592,-0.14021154,9.755297,-7.9137506E-5,0.0015270263,9.756477,0
10,985.4365844726562,1.525174011476338E-4,-2.303266228409484E-4,3.8531856262125075E-4,-8.809734344482422,20.263652801513672,-38.41091537475586,-0.015702668577432632,0.019410058856010437,0.032187461853027344,0.070268095,-0.15927811,9.774235,0.0032674077,-0.020504668,9.7757635,0
10,985.4213256835938,1.5239522326737642E-4,3.600912168622017E-5,0.0010510558495298028,-8.864112854003906,20.52837371826172,-37.72517013549805,0.0034855231642723083,-1.3133883476257324E-4,0.04638195037841797,0.06311104,-0.14021213,9.764768,0.0043744994,1.0116398E-4,9.765978,0
10,985.4213256835938,1.5239522326737642E-4,3.600912168622017E-5,0.0010510558495298028,-9.024523735046387,20.273048400878906,-38.070430755615234,-0.0014570876955986023,-0.009800001978874207,0.036911964416503906,0.060733855,-0.14497904,9.767136,5.061551E-4,-0.0031759292,9.7684,0
10,985.442138671875,-7.045309757813811E-4,2.0384148228913546E-4,6.849737837910652E-5,-8.83144760131836,20.717239379882812,-38.12617492675781,-0.01049012690782547,0.02328135073184967,0.04163646697998047,0.065526366,-0.15451245,9.7576685,8.1867405E-4,-0.013500407,9.759101,0
10,985.4442749023438,-7.046533282846212E-4,-3.2877043122425675E-4,-3.3102877205237746E-4,-8.860090255737305,20.901084899902344,-38.055538177490234,0.004127230495214462,0.008676379919052124,0.051097869873046875,0.06792894,-0.14497964,9.757669,0.0065357885,-0.005355671,9.75898,0
10,985.4541015625,-5.716177402064204E-4,-7.282243459485471E-4,-5.97397331148386E-4,-8.93525505065918,20.356590270996094,-38.01209259033203,-0.0054487623274326324,0.013031497597694397,0.06529521942138672,0.067941606,-0.14736326,9.750568,0.005730868,-0.007300511,9.751915,0
10,985.46435546875,-9.71214147284627E-4,-3.2873061718419194E-4,-8.6376559920609E-4,-8.972349166870117,20.26922607421875,-38.0782470703125,-5.719810724258423E-4,-0.029943451285362244,0.051087379455566406,0.065564394,-0.12829734,9.764773,0.010945739,0.011693656,9.765824,0
10,985.4545288085938,-7.050202693790197E-4,-1.9555290054995567E-4,-6.487034261226654E-5,-8.477715492248535,20.41632843017578,-38.16307830810547,-0.0243062861263752,-0.010913565754890442,0.032149314880371094,0.07752657,-0.14736386,9.762407,0.014714779,-0.010179311,9.763811,0
10,985.4617919921875,-1.7251077224500477E-4,-3.2869097776710987E-4,2.0139318075962365E-4,-7.879030227661133,19.923656463623047,-38.688411712646484,0.01356431096792221,-0.0015520602464675903,0.02267742156982422,0.044080615,-0.13306458,9.774244,-0.010490648,0.015796095,9.77523,0
10,985.4317016601562,-3.9475009543821216E-5,6.034343969076872E-4,-6.497511640191078E-5,-8.073627471923828,19.477989196777344,-38.555362701416016,-0.014900438487529755,-0.006368204951286316,0.055815696716308594,0.07994184,-0.14259793,9.755308,0.018688442,-0.007201791,9.756657,0
10,985.4649658203125,-4.3907100916840136E-4,-4.618092207238078E-4,3.344463766552508E-4,-8.842942237854004,20.443084716796875,-38.10836410522461,-0.005717352032661438,-0.001573994755744934,0.07001972198486328,0.06322527,-0.140215,9.757676,0.00458231,0.0015971959,9.758888,0
10,985.4598388671875,-1.728773640934378E-4,8.69789975695312E-4,3.343940188642591E-4,-8.23276138305664,20.224563598632812,-38.651512145996094,0.01772083342075348,-0.011235415935516357,0.03214454650878906,0.05606824,-0.137832,9.771881,-7.30325E-4,0.006672919,9.773011,0
10,985.4545288085938,9.33159317355603E-5,8.698098827153444E-4,6.802554707974195E-5,-8.082324028015137,20.20720672607422,-38.36574172973633,-0.020147405564785004,0.022317960858345032,0.051079750061035156,0.079979956,-0.15689851,9.767147,0.014006089,-0.019988164,9.7687025,0
10,985.4622192382812,9.307134314440191E-5,-5.948877660557628E-4,-4.64710989035666E-4,-8.886964797973633,20.085975646972656,-38.38862228393555,-0.001005321741104126,-0.0019060224294662476,0.008464813232421875,0.06087339,-0.14259924,9.783718,0.0016845274,9.345412E-4,9.784948,0
10,985.4622192382812,9.307134314440191E-5,-5.948877660557628E-4,-4.64710989035666E-4,-8.886964797973633,20.085975646972656,-38.38862228393555,-5.076751112937927E-4,0.007645055651664734,0.05106925964355469,0.060886085,-0.15213259,9.760048,-0.0025247606,-0.008012429,9.761419,0
10,985.4494018554688,-4.0330953197553754E-5,-5.948480684310198E-4,-3.316578222438693E-4,-8.59867000579834,20.513687133789062,-37.99616622924805,-0.005365259945392609,0.007422089576721191,0.05106544494628906,0.06328869,-0.15451618,9.767151,-0.0010455906,-0.010857984,9.768571,0
10,985.4703369140625,-5.730849225074053E-4,6.03593303821981E-4,6.00395433139056E-4,-8.874628067016602,20.623981475830078,-37.883113861083984,-7.262341678142548E-4,-0.01187528669834137,0.04159259796142578,0.060911477,-0.1402169,9.767152,0.0025305124,0.0033854991,9.768349,0
10,985.4442749023438,-4.0575367165729403E-5,4.704550956375897E-4,-3.317624796181917E-4,-8.673835754394531,19.969192504882812,-37.95272445678711,-0.005579717457294464,0.012107908725738525,0.055797576904296875,0.04180497,-0.13783382,9.762419,-0.014033595,0.012943879,9.763463,0
10,985.4677734375,2.2561775404028594E-4,-3.2847258262336254E-4,-3.318150993436575E-4,-8.975934982299805,20.634571075439453,-38.022090911865234,-0.034213777631521225,0.016777753829956055,0.008450508117675781,0.08961567,-0.15928365,9.767155,0.021229086,-0.02561371,9.768807,0
10,985.442138671875,-4.0820305002853274E-5,4.704949096776545E-4,-1.9870966207236052E-4,-9.062159538269043,20.553970336914062,-38.23503875732422,-0.015175152570009232,0.021586686372756958,0.051059722900390625,0.06811923,-0.16166724,9.762421,5.142207E-4,-0.019359961,9.763979,0
10,985.4700317382812,2.253733982797712E-4,-6.211706204339862E-5,-8.645516354590654E-4,-8.895660400390625,20.81519317626953,-38.19899368286133,-0.015170395374298096,-0.030652493238449097,0.03212451934814453,0.029893488,-0.13545151,9.760055,-0.024187868,0.019570708,9.760991,0
10,985.4572143554688,9.2093221610412E-5,3.3737666672095656E-4,8.664492052048445E-4,-8.959331512451172,20.544857025146484,-38.17336654663086,-0.058016154915094376,-0.006804049015045166,0.04159069061279297,0.08481079,-0.15689982,9.76005,0.017531898,-0.021814153,9.76164,0
10,985.4473876953125,2.254308492410928E-4,-1.9528428674675524E-4,4.6705236309207976E-4,-8.709949493408203,20.25159454345703,-38.19463348388672,-0.024635009467601776,-0.02611987292766571,0.027396202087402344,0.06324744,-0.14498205,9.769514,0.0028265242,-0.0019522905,9.770794,0
10,985.4521484375,-0.0011053348425775766,7.089943392202258E-5,-6.523058982565999E-5,-8.292004585266113,19.85272979736328,-38.15871810913086,-0.010301757603883743,0.011832103133201599,0.008455276489257812,0.082374275,-0.14736553,9.781351,0.0196458,-0.011136755,9.782783,0
11,985.442138671875,9.301342652179301E-5,-1.9540448556654155E-4,-4.647357854992151E-4,-8.439535140991211,19.767112731933594,-37.900020599365234,0.018549971282482147,-0.002404123544692993,0.032126426696777344,0.039363652,-0.12591626,9.771883,-0.01176029,0.025185406,9.772735,0
11,985.4498901367188,-3.065339114982635E-4,-3.285505226813257E-4,3.3418030943721533E-4,-8.767669677734375,19.88123321533203,-37.779151916503906,-7.272325456142426E-4,0.011782914400100708,0.05579662322998047,0.0728299,-0.15213244,9.757681,0.008743264,-0.012357444,9.759128,0
11,985.4591674804688,-4.029125557281077E-5,8.698827587068081E-4,6.004648748785257E-4,-8.525760650634766,19.68651580810547,-38.11296844482422,-0.005717385560274124,0.011724218726158142,0.04632854461669922,0.06566775,-0.14736612,9.76715,0.004363591,-0.0049511045,9.76848,0
11,985.4703369140625,-3.066804201807827E-4,2.0410504657775164E-4,-3.31672141328454E-4,-8.802804946899414,20.53339385986328,-38.19681930541992,-0.00587872788310051,0.006622880697250366,0.02738475799560547,0.068065286,-0.14736624,9.776619,0.0068598334,-0.0054823607,9.777964,0
11,985.4647216796875,-9.725436102598906E-4,7.095892215147614E-5,-1.9854563288390636E-4,-9.002077102661133,21.189655303955078,-38.20450973510742,0.013464663177728653,-0.007822558283805847,0.032115936279296875,0.056123406,-0.13545008,9.774253,3.9524445E-4,0.010364205,9.775347,0
11,985.4576416015625,4.921206273138523E-4,-7.279767887666821E-4,-3.3173500560224056E-4,-8.614593505859375,20.341026306152344,-38.44551467895508,0.008803602308034897,-0.01221795380115509,0.051056861877441406,0.06091082,-0.14021684,9.764786,0.0026695388,0.0036655515,9.765981,0
11,985.4649658203125,3.5888931597582996E-4,-5.94806915614754E-4,-3.317666123621166E-4,-8.668428421020508,20.237457275390625,-37.661319732666016,-0.01002596691250801,-0.0028080642223358154,0.051052093505859375,0.06091839,-0.1497501,9.764786,-0.0012881368,-0.0048799813,9.766121,0
11,985.4473266601562,-4.065784742124379E-5,-6.216327892616391E-5,-1.9863992929458618E-4,-8.234283447265625,20.22309112548828,-38.5742073059082,-5.266107618808746E-4,-0.017165035009384155,0.060520172119140625,0.05136639,-0.14021723,9.752951,-0.0063803885,0.007368833,9.75409,0
11,985.4570922851562,-3.070470120292157E-4,7.367962971329689E-4,-6.551342085003853E-5,-8.897863388061523,21.076095581054688,-37.52106475830078,-0.0055886730551719666,-0.012613356113433838,0.041581153869628906,0.06810331,-0.13783409,9.769522,0.010416355,0.003442198,9.770726,0
11,985.46240234375,-0.0012392259668558836,3.3733429154381156E-4,6.761314580217004E-5,-8.98104476928711,20.998443603515625,-37.88862991333008,0.0038481727242469788,0.006107628345489502,0.022637367248535156,0.065721035,-0.15213396,9.77189,0.0027930695,-0.008470699,9.773291,0
11,985.4498901367188,-8.398254867643118E-4,2.041883417405188E-4,6.758177187293768E-5,-8.994060516357422,20.722808837890625,-37.79350662231445,-0.00542091578245163,0.010646313428878784,0.06524181365966797,0.065728605,-0.15213408,9.750586,0.0028383574,-0.008417532,9.751989,0
11,985.4652099609375,9.2206901172176E-5,-0.001260537188500166,-6.560771726071835E-5,-8.30222225189209,20.580474853515625,-37.891788482666016,-0.009817011654376984,-0.013277798891067505,0.0747060775756836,0.06812614,-0.1449845,9.750586,0.007408037,-0.0024552196,9.751899,0
11,985.4423217773438,-3.0734032043255866E-4,-3.284196136519313E-4,-4.6511285472661257E-4,-8.198712348937988,20.308982849121094,-38.43074417114258,0.004809882491827011,-0.0037298202514648438,0.05103111267089844,0.060964018,-0.14498468,9.760056,4.957777E-4,4.632026E-4,9.761322,0
11,985.44189453125,2.25218158448115E-4,-3.284077101852745E-4,-1.98828405700624E-4,-8.5066556930542,19.968036651611328,-38.51730728149414,-0.010211773216724396,-0.0036886483430862427,0.027364730834960938,0.063361555,-0.14736815,9.762423,0.0024041021,-0.0029027462,9.763741,0
11,985.44189453125,2.25218158448115E-4,-3.284077101852745E-4,-1.98828405700624E-4,-8.100748062133789,19.663307189941406,-38.56203079223633,-0.006259717047214508,0.010646194219589233,0.0510406494140625,0.063369155,-0.15213491,9.755322,0.0012572871,-0.007783085,9.756712,0
11,985.4703369140625,4.914607852697372E-4,0.0030005527660250664,6.000878056511283E-4,-8.373662948608398,19.77655029296875,-38.60358428955078,0.008042629808187485,0.010636165738105774,0.03683662414550781,0.05859697,-0.14498521,9.7718935,-3.2730555E-4,9.199381E-4,9.773145,0
11,985.4525756835938,7.257494144141674E-5,2.1189363906159997E-5,5.392063758336008E-4,-8.194147109985352,20.313400268554688,-38.662662506103516,-0.0016655661165714264,-0.008130744099617004,0.060512542724609375,0.05860457,-0.14498545,9.750589,-2.986011E-4,2.4826825E-4,9.751843,0
11,985.4347534179688,7.250165799632668E-5,5.538330879062414E-4,-2.5977269979193807E-4,-8.579565048217773,20.795211791992188,-38.40050506591797,-0.01587716117501259,0.010909497737884521,0.06051158905029297,0.0681718,-0.15213545,9.762426,0.0054635345,-0.009880587,9.763843,0
11,985.4578857421875,0.001137691899202764,2.8752905200235546E-4,2.7282763039693236E-4,-8.680765151977539,19.69945526123047,-38.16682434082031,-0.015999790281057358,0.0015543103218078613,0.022638320922851562,0.077739,-0.15451892,9.762426,0.013494174,-0.015959322,9.763937,0
11,985.4652709960938,-3.2711890526115894E-4,2.1225103409960866E-5,2.727961982600391E-4,-8.694026947021484,20.424251556396484,-37.74528884887695,-0.006535790860652924,-0.0077130794525146484,0.051049232482910156,0.068187,-0.13545288,9.757693,0.012142383,0.0050073564,9.758863,0
11,985.460205078125,2.0543969003483653E-4,4.207108577247709E-4,-3.9302505319938064E-4,-8.577637672424316,20.32247543334961,-37.68028259277344,-0.016087841242551804,0.011486440896987915,0.03211212158203125,0.0681946,-0.15451925,9.776631,0.0045659016,-0.012407392,9.778082,0
11,985.4680786132812,6.048401701264083E-4,2.8756484971381724E-4,4.058913327753544E-4,-8.697912216186523,20.157459259033203,-38.1140022277832,-0.0023309700191020966,-0.0025853514671325684,0.03685283660888672,0.058642596,-0.14260314,9.767163,9.3339407E-4,0.0017448962,9.76838,0
11,985.4526977539062,8.710826514288783E-4,9.533663978800178E-4,-3.930879174731672E-4,-8.796419143676758,21.171424865722656,-38.0811653137207,0.0030934102833271027,0.0069541484117507935,0.03687286376953125,0.06556651,-0.14974685,9.776609,0.004230476,-0.0072043836,9.777972,0
11,985.449951171875,4.715356626547873E-4,2.8758859843946993E-4,-1.2680323561653495E-4,-8.65733814239502,20.985824584960938,-38.47665786743164,-0.0016424693167209625,-0.002445399761199951,0.03214073181152344,0.06317404,-0.14498033,9.762405,0.0037448755,-0.002224654,9.763684,0
12,985.4526977539062,-1.928085694089532E-4,-7.77909648604691E-4,2.732900611590594E-4,-8.221565246582031,19.86658477783203,-39.09419250488281,-0.006227284669876099,0.011999562382698059,0.03214263916015625,0.06795132,-0.15451325,9.781343,0.004102119,-0.012676135,9.782789,0
12,985.4481201171875,4.738986608572304E-4,2.088907058350742E-5,-3.921064198948443E-4,-8.386680603027344,19.500919342041016,-38.50846481323242,-0.016296125948429108,0.011813730001449585,0.03214263916015625,0.06794879,-0.14974673,9.774241,0.0065858597,-0.008395389,9.7756195,0
12,985.4552612304688,2.0763167412951589E-4,6.866710027679801E-4,7.388414815068245E-6,-8.433991432189941,20.14129638671875,-38.30768966674805,-0.0017894059419631958,-0.021563366055488586,0.05581378936767578,0.055996716,-0.13306369,9.750569,0.0018814018,0.011320934,9.751632,0
12,985.4576416015625,-4.581335815601051E-4,-3.785967128351331E-4,-7.915489259175956E-4,-8.845986366271973,20.44013214111328,-37.95375442504883,0.007829919457435608,0.006731286644935608,0.046339988708496094,0.05838412,-0.15451314,9.755303,-0.0042517064,-0.008953288,9.756697,0
12,985.4677734375,-7.244247826747596E-4,-3.7860064185224473E-4,-1.2574851280078292E-4,-8.70454216003418,20.519855499267578,-37.90323257446289,-0.015796218067407608,0.011245876550674438,0.04160022735595703,0.06794119,-0.14974649,9.755302,0.006325731,-0.007997617,9.756682,0
12,985.4752197265625,-7.244005682878196E-4,2.0869163563475013E-5,5.400516092777252E-4,-8.329778671264648,20.02773666381836,-37.624244689941406,-0.020838167518377304,0.0015286654233932495,0.041599273681640625,0.07510829,-0.14974649,9.755302,0.01331326,-0.010637835,9.756726,0
12,985.4322509765625,2.0772969583049417E-4,2.8718102839775383E-4,2.7374623459763825E-4,-8.56644058227539,19.964500427246094,-38.12296676635742,0.003346230834722519,0.011088371276855469,0.07473945617675781,0.05837649,-0.14736308,9.752935,-0.0015106227,-0.0019462109,9.754223,0
12,985.4552612304688,-9.906673803925514E-4,-7.780863670632243E-4,-3.920329618267715E-4,-8.193741798400879,19.839195251464844,-37.86513137817383,0.0033897869288921356,-0.013134375214576721,0.046326637268066406,0.058373928,-0.1402132,9.7671385,0.0013567262,0.0052433163,9.768318,0
12,985.434814453125,-3.2485323026776314E-4,1.5401517157442868E-4,7.45127908885479E-6,-8.756420135498047,21.15581512451172,-37.47053909301758,-0.0015452094376087189,-0.008321419358253479,0.05106353759765625,0.058371365,-0.13306333,9.757669,0.0042204726,0.011593059,9.758743,0
12,985.4550170898438,3.4096097806468606E-4,2.871692122425884E-4,-1.256961841136217E-4,-8.964141845703125,21.540863037109375,-37.61503219604492,-0.0061596110463142395,0.006250664591789246,0.03212928771972656,0.06075877,-0.14021309,9.7624035,0.0034451578,0.003955856,9.763599,0
12,985.4501953125,2.078275429084897E-4,-5.117824184708297E-4,4.069461429025978E-4,-8.686118125915527,21.06375503540039,-37.70694351196289,-0.0011805780231952667,0.015972301363945007,0.036865234375,0.06553602,-0.14974613,9.767138,0.003960903,-0.006688684,9.768502,0
12,985.4271850585938,7.404837524518371E-4,-1.1231258395127952E-4,-3.919910523109138E-4,-8.710630416870117,20.513961791992188,-37.59400939941406,-0.0013109184801578522,-0.002985045313835144,0.055805206298828125,0.060753703,-0.14259626,9.755302,0.0023614387,0.0013778061,9.756534,0
12,985.4526977539062,-1.9159738440066576E-4,5.534731317311525E-4,2.7380912797525525E-4,-8.585790634155273,20.68340301513672,-37.392208099365234,0.012728050351142883,-0.00336572527885437,0.06053638458251953,0.05119157,-0.13782965,9.767138,-0.0042270576,0.009890214,9.768238,0
12,985.4378662109375,-7.242046413011849E-4,4.2031126213259995E-4,-6.582859787158668E-4,-8.398120880126953,20.859329223632812,-37.73936080932617,-0.011094927787780762,0.006003156304359436,0.051064491271972656,0.0679183,-0.14736266,9.7505665,0.0076151364,-0.0053317547,9.751914,0
12,985.4578857421875,-5.839049117639661E-5,1.5399136464111507E-4,-2.588016213849187E-4,-8.508857727050781,20.22894287109375,-37.839378356933594,-0.011418867856264114,0.0011096447706222534,0.03212738037109375,0.055966258,-0.14497937,9.771872,-0.0022072229,0.001714915,9.773108,0
12,985.440673828125,-4.578397492878139E-4,5.534612573683262E-4,7.524795364588499E-6,-8.422090530395508,19.94124984741211,-37.527976989746094,-0.01599700376391411,0.005948081612586975,0.03212738037109375,0.07030314,-0.1521291,9.778973,0.0080065895,-0.010323957,9.780401,0
12,985.4448852539062,4.742901655845344E-4,-5.118062836118042E-4,4.070090362802148E-4,-8.667043685913086,20.133018493652344,-37.039546966552734,0.00312785804271698,0.006257563829421997,0.05580425262451172,0.051181376,-0.15212904,9.757668,-0.009757901,-0.0034334809,9.758982,0
12,985.4583129882812,3.4115673042833805E-4,6.866112817078829E-4,-2.5877024745568633E-4,-8.221542358398438,20.286888122558594,-37.27116775512695,-0.0016837306320667267,-0.0032573193311691284,0.055805206298828125,0.06790817,-0.1449792,9.762402,0.008532703,-0.003257975,9.76371,0
12,985.4627685546875,-5.8292585890740156E-5,-0.0010444459039717913,-1.2560177128762007E-4,-8.508560180664062,20.86107635498047,-37.41450500488281,0.012973669916391373,-0.007980197668075562,0.036866188049316406,0.05117631,-0.14021255,9.767136,-0.005474197,0.0076086074,9.768271,0
12,985.4476318359375,4.743636818602681E-4,-6.449760403484106E-4,2.738825569394976E-4,-8.482961654663086,20.674285888671875,-37.330535888671875,-0.0010075084865093231,-0.0031697452068328857,0.027395248413085938,0.05834347,-0.14259572,9.776605,-7.646937E-5,0.002941087,9.777819,0
12,985.4531860351562,-0.0011235072743147612,-7.781380554661155E-4,0.0013391566462814808,-8.522418975830078,20.32160186767578,-37.842708587646484,-0.00589510053396225,-0.0033376067876815796,0.05106639862060547,0.072680354,-0.14259572,9.760034,0.013330479,-0.00276044,9.761336,0
12,985.4457397460938,4.7441257629543543E-4,2.8712154016830027E-4,-7.913599838502705E-4,-8.4927978515625,20.50751495361328,-38.089107513427734,-7.440410554409027E-4,0.010965824127197266,0.027393341064453125,0.06072831,-0.16166179,9.778971,-0.005026431,-0.015400216,9.780483,0
12,985.468505859375,4.7443708172068E-4,-3.7867214996367693E-4,8.06545780505985E-4,-7.789898872375488,19.901283264160156,-37.93099594116211,0.008575744926929474,0.011218979954719543,0.05580425262451172,0.060866475,-0.15213214,9.762414,-0.0013615452,-0.007151574,9.763786,0
12,985.4403686523438,3.413034719415009E-4,4.2027150630019605E-4,2.7392449555918574E-4,-8.134498596191406,20.211029052734375,-38.3579216003418,0.0035788454115390778,0.011057257652282715,0.03683662414550781,0.058623314,-0.154519,9.769529,-0.0044044005,-0.008195907,9.770923,0
12,985.4483032226562,-5.905999569222331E-5,2.038927050307393E-5,-9.262650855816901E-4,-8.605300903320312,20.87609100341797,-37.785396575927734,-0.005706407129764557,-0.003222912549972534,0.03683662414550781,0.06341204,-0.14498617,9.760061,0.003389703,-0.0012668222,9.761343,0
13,985.4583129882812,-8.580933208577335E-4,-9.117024019360542E-4,-1.2735399650409818E-4,-8.380973815917969,20.401321411132812,-37.79218673706055,-0.010416105389595032,0.015608131885528564,0.036830902099609375,0.070590585,-0.1640525,9.764796,0.0030586561,-0.021270096,9.766406,0
13,985.4583129882812,-8.580933208577335E-4,-9.117024019360542E-4,-1.2735399650409818E-4,-8.132135391235352,20.476348876953125,-37.91190719604492,0.0039261989295482635,0.010989546775817871,0.04156780242919922,0.061039865,-0.14498653,9.774265,0.0011443321,-3.2797456E-5,9.775531,0
13,985.4434204101562,3.4024269552901387E-4,5.530488560907543E-4,-2.6054878253489733E-4,-8.514945983886719,20.223052978515625,-37.530155181884766,0.003761887550354004,-0.008146658539772034,0.036830902099609375,0.05626899,-0.14975332,9.769531,-0.0049416833,-0.0026299804,9.77084,0
13,985.4680786132812,6.06472953222692E-4,-3.7904284545220435E-4,-5.269012763164937E-4,-8.788403511047363,20.70458221435547,-37.670162200927734,-6.157755851745605E-4,-0.003444001078605652,0.05576515197753906,0.063447535,-0.14022045,9.748228,0.0050193323,0.0032407045,9.749441,0
13,985.4755249023438,7.37555674277246E-5,-2.458709932398051E-4,-5.269379471428692E-4,-8.723349571228027,20.87047576904297,-37.07402420043945,-0.014969345182180405,-0.0033499151468276978,0.05103015899658203,0.07062614,-0.14498724,9.755331,0.009793912,-0.003845945,9.756659,0
13,985.46044921875,-5.025506252422929E-4,-9.723665425553918E-5,-3.357297391630709E-4,-8.364370346069336,20.311607360839844,-37.94346237182617,0.004131481051445007,0.0016276687383651733,0.05103302001953125,0.06346533,-0.14737077,9.762433,0.0022158255,-0.0033925623,9.763751,0
13,985.47900390625,2.963114238809794E-4,-4.966965643689036E-4,3.3002346754074097E-4,-8.131592750549316,20.108055114746094,-37.813453674316406,-0.0053503625094890594,0.006115585565567017,0.05576324462890625,0.06347418,-0.14737086,9.771902,0.0022237548,-0.002971083,9.773219,0
13,985.441162109375,1.6306803445331752E-4,3.594908048398793E-5,1.9682885613292456E-4,-8.509401321411133,20.597232818603516,-37.937828063964844,0.004651863127946854,0.0014687925577163696,0.0652303695678711,0.058703244,-0.14975436,9.750599,-0.0035797993,-0.003610164,9.751924,0
13,985.4552612304688,-2.3649146896786988E-4,-3.6351088783703744E-4,-7.353134569711983E-4,-8.830606460571289,20.981082916259766,-37.60285568237305,-1.017637550830841E-4,-0.008000388741493225,0.041558265686035156,0.06349197,-0.15213789,9.76717,-2.0114356E-4,-0.0074409842,9.7685585,0
13,985.4813232421875,1.628967293072492E-4,-6.298128282651305E-4,5.962293362244964E-4,-8.810415267944336,20.52602767944336,-37.8102912902832,-0.009803786873817444,0.010929107666015625,0.04155540466308594,0.06350082,-0.14975484,9.757701,8.971635E-4,-0.0053391904,9.759056,0
13,985.4527587890625,5.622849566861987E-4,3.599075716920197E-5,9.956664871424437E-4,-8.708703994750977,20.041229248046875,-36.87378692626953,0.004698518663644791,0.0014623850584030151,0.032085418701171875,0.061119795,-0.14737184,9.781374,-5.13447E-4,-0.0018149912,9.782675,0
13,985.45361328125,-6.362220738083124E-4,3.600463969632983E-5,3.298400843050331E-4,-8.843080520629883,20.337162017822266,-37.40928268432617,-0.009572215378284454,0.006162017583847046,0.046286582946777344,0.06590849,-0.14975531,9.757703,0.0028971932,-0.00619103,9.759072,0
13,985.4501342773438,-1.0367590584792197E-4,-3.634552995208651E-4,4.6296126674860716E-4,-8.851936340332031,20.540157318115234,-38.34360885620117,-0.01883164793252945,0.0015540868043899536,0.05101966857910156,0.07069719,-0.1473722,9.760071,0.007883341,-0.0058980286,9.761435,0
13,985.4534301757812,6.951862014830112E-4,3.6032404750585556E-5,1.9660877296701074E-4,-8.606578826904297,19.874183654785156,-38.03451156616211,-0.009004674851894379,0.0014989227056503296,0.06522178649902344,0.06831613,-0.14975567,9.748236,0.0046863547,-0.007060781,9.749622,0
13,985.4608154296875,-1.0393271804787219E-4,-6.297294748947024E-4,8.623250760138035E-4,-8.034416198730469,20.83110809326172,-37.71677017211914,-0.018102511763572693,0.015530243515968323,0.027338027954101562,0.06832501,-0.1521392,9.767174,0.003615798,-0.00847806,9.768595,0
13,985.4660034179688,-1.040183415170759E-4,-0.0016949791461229324,5.959725240245461E-4,-8.261541366577148,20.302490234375,-37.88179397583008,0.0014514699578285217,0.006102532148361206,0.060477256774902344,0.06116423,-0.15928926,9.755339,-0.0063145403,-0.0125950575,9.75682,0
13,985.4501953125,1.6221203259192407E-4,-4.965437692590058E-4,-2.0301173208281398E-4,-8.261541366577148,20.302490234375,-37.88179397583008,0.0014723986387252808,-0.008171483874320984,0.036803245544433594,0.06356299,-0.13307346,9.776645,0.0057320828,0.011119455,9.777747,0
13,985.430419921875,-1.0418947204016149E-4,3.610196290537715E-5,5.958991241641343E-4,-8.576658248901367,20.692237854003906,-37.856040954589844,0.0016134679317474365,-0.0034419596195220947,0.041535377502441406,0.061181962,-0.15690647,9.762443,-0.0056322683,-0.010163993,9.763888,0
13,985.4783325195312,4.283567250240594E-4,-2.3020010848995298E-4,1.96388631593436E-4,-8.641414642333984,21.158485412597656,-38.02730941772461,-0.017425917088985443,-0.008142516016960144,0.041535377502441406,0.070750475,-0.13784038,9.769545,0.010373025,0.003933355,9.770768,0
13,985.445068359375,2.8797279810532928E-5,-2.3018615320324898E-4,-8.689114474691451E-4,-8.326297760009766,20.76873779296875,-38.05305862426758,0.006432369351387024,-0.008138686418533325,0.03679943084716797,0.05641997,-0.14260717,9.767179,-0.0047000335,0.0048458725,9.76838,0
13,985.4425659179688,-7.70235899835825E-4,-6.296461215242743E-4,-2.0315853180363774E-4,-8.434916496276855,21.404098510742188,-37.38064193725586,0.006791695952415466,9.167343378067017E-4,0.032054901123046875,0.058818698,-0.1449907,9.78375,-0.0035447357,0.0025683343,9.785,0
13,985.4398803710938,-6.371636409312487E-4,-0.0011622640304267406,3.294364723842591E-4,-8.584268569946289,20.68487548828125,-37.46950912475586,0.0022974014282226562,0.019945800304412842,0.060459136962890625,0.0564377,-0.16405709,9.762445,-0.013248319,-0.014266178,9.7639675,0
13,985.4627685546875,2.948564651887864E-4,-7.627762970514596E-4,3.2939991797320545E-4,-8.767669677734375,19.88123321533203,-37.77914810180664,-0.011642836034297943,0.010398775339126587,0.060455322265625,0.07537514,-0.1569028,9.750593,0.0062809284,-0.015077934,9.752133,0
13,985.445068359375,2.981946454383433E-5,-7.629839237779379E-4,6.363209104165435E-5,-8.532636642456055,21.04934310913086,-37.57577896118164,-0.0014669373631477356,-0.004025876522064209,0.03681468963623047,0.06323242,-0.14736499,9.77188,-0.0011179415,-9.402633E-4,9.773196,0
14,985.4576416015625,-5.005227867513895E-4,-3.638817579485476E-4,1.9777117995545268E-4,-8.427742004394531,20.67340850830078,-37.49296188354492,0.003337293863296509,-0.01833312213420868,0.03207969665527344,0.060836136,-0.13068189,9.760043,0.0029385053,0.015236661,9.761095,0
14,985.470458984375,-5.004615522921085E-4,3.0189804965630174E-4,6.463954923674464E-5,-8.447253227233887,20.86609649658203,-37.88615417480469,-0.0014530271291732788,-0.0086747407913208,0.055755615234375,0.063219726,-0.14021488,9.76241,0.0015078951,0.0054299533,9.763619,0
14,985.4678344726562,9.64336795732379E-4,1.6873021377250552E-4,6.466562626883388E-5,-8.288416862487793,19.487384796142578,-38.214874267578125,0.008016906678676605,-0.008470281958580017,0.04629039764404297,0.065603286,-0.13544811,9.762409,0.005671383,0.008631542,9.763564,0
14,985.4501953125,2.9860823997296393E-4,1.6872026026248932E-4,-4.6793982619419694E-4,-8.172708511352539,19.64798355102539,-37.54924392700195,-0.006065621972084045,-0.0035931766033172607,0.046291351318359375,0.067986846,-0.14021452,9.774245,0.0056969253,0.0035491735,9.775483,0
14,985.4550170898438,3.2353418646380305E-5,-6.302372785285115E-4,-4.679137491621077E-4,-8.461929321289062,20.483070373535156,-37.0146484375,0.0033755451440811157,-0.003813415765762329,0.036820411682128906,0.060810804,-0.14498098,9.764776,-0.0025610067,0.0018938035,9.766041,0
14,985.4473266601562,-7.665330776944757E-4,-2.3077346850186586E-4,3.3106020418927073E-4,-8.46885871887207,20.213336944580078,-37.22875213623047,0.003827117383480072,-0.008495211601257324,0.027349472045898438,0.05841455,-0.13783096,9.762407,-0.0024434587,0.009480953,9.763552,0
14,985.460205078125,4.3194947647862136E-4,-2.3078332014847547E-4,-6.838754052296281E-5,-8.203958511352539,20.566936492919922,-37.598201751708984,0.00812702625989914,-0.013086766004562378,0.051029205322265625,0.06079811,-0.13544749,9.771876,8.6532533E-4,0.010583103,9.772999,0
14,985.4473876953125,4.320105363149196E-4,5.681543261744082E-4,7.305863546207547E-4,-7.971181392669678,20.363384246826172,-37.46818923950195,0.0030687153339385986,-0.022470057010650635,0.05576896667480469,0.06079173,-0.13544737,9.760039,0.0010075332,0.010156527,9.761163,0
14,985.4521484375,-2.3371752467937768E-4,3.0182849150151014E-4,-2.0149286137893796E-4,-7.975067138671875,20.096595764160156,-37.8369026184082,0.007596105337142944,0.020109862089157104,0.046296119689941406,0.060785383,-0.1545134,9.771875,-0.0057147928,-0.0071005374,9.773282,0
14,985.4550170898438,-1.0049846605397761E-4,0.0013670821208506823,8.637969149276614E-4,-8.297250747680664,20.11068344116211,-37.326175689697266,-0.001906760036945343,-0.00849825143814087,0.036828041076660156,0.060779065,-0.14259686,9.769507,-0.0012240913,0.003907338,9.770736,0
14,985.4677734375,3.272059257142246E-5,-7.634548819623888E-4,-4.677563556469977E-4,-7.7608513832092285,19.243228912353516,-37.204105377197266,-0.0015563443303108215,0.01065070927143097,0.04156208038330078,0.0655525,-0.1425967,9.760038,0.0028448354,0.001989454,9.761299,0
14,985.4521484375,2.9909753357060254E-4,-7.63464835472405E-4,-6.825634045526385E-5,-8.378068923950195,20.298351287841797,-37.24772262573242,0.003472946584224701,0.006136387586593628,0.04629993438720703,0.055986583,-0.14974637,9.764772,-0.009022102,-0.0012207329,9.766078,0
14,985.4473266601562,5.654745036736131E-4,5.681048496626318E-4,5.975595558993518E-4,-7.95291805267334,20.381057739257812,-38.39585494995117,0.012580536305904388,-0.007977113127708435,0.04630565643310547,0.055980206,-0.1449797,9.7718725,-0.006864071,0.003186807,9.773106,0
14,985.4271850585938,2.992197114508599E-4,3.0177884036675096E-4,1.9811192760244012E-4,-8.588153839111328,20.41808319091797,-37.83822250366211,-0.006478995084762573,-0.003261476755142212,0.04157066345214844,0.0679234,-0.14974608,9.769505,0.0022560102,-0.0058096796,9.770887,0
14,985.4694213867188,-3.665088734123856E-4,-2.3086278815753758E-4,-3.344936412759125E-4,-8.649460792541504,20.413063049316406,-37.3665771484375,-0.001693718135356903,0.0058622807264328,0.036830902099609375,0.06313726,-0.14736266,9.7624035,-0.0010461616,-0.0015007406,9.7637205,0
14,985.4622192382812,-4.996055504307151E-4,1.6860116738826036E-4,-6.007833289913833E-4,-8.446709632873535,20.497802734375,-37.78770065307617,-0.011233873665332794,0.006024569272994995,0.027364730834960938,0.07030064,-0.14497922,9.776606,0.00637284,-0.00204435,9.777932,0
14,985.4622192382812,-4.996055504307151E-4,1.6860116738826036E-4,-6.007833289913833E-4,-8.941885948181152,20.718990325927734,-37.80132293701172,0.012575186789035797,-0.013130053877830505,0.060504913330078125,0.055954874,-0.14021249,9.762402,-0.004985535,0.00770095,9.763566,0
14,985.46240234375,-3.663866373244673E-4,-2.3088260786607862E-4,-2.0128331379964948E-4,-8.210750579833984,20.403114318847656,-38.51137924194336,0.003190256655216217,0.006081998348236084,0.060507774353027344,0.06311822,-0.154512,9.762401,-0.0040904507,-0.008204162,9.763822,0
14,985.472412109375,-1.0000969632528722E-4,-9.773456258699298E-5,3.3137458376586437E-4,-8.627748489379883,19.95948028564453,-37.65132141113281,0.002883598208427429,0.0013389289379119873,0.0510406494140625,0.06550181,-0.1378289,9.764768,0.004804458,0.006205708,9.765958,0
14,985.4495849609375,8.187514613382518E-4,-1.4404105604626238E-4,-3.0037888791412115E-4,-7.877645492553711,19.8192138671875,-38.0666389465332,0.0031181424856185913,-0.012762397527694702,0.02737140655517578,0.060715675,-0.1330622,9.764767,0.0018591858,0.012294963,9.765853,0
14,985.4396362304688,1.9864935893565416E-5,6.548967212438583E-4,-3.4036929719150066E-5,-8.012160301208496,20.009231567382812,-37.90306091308594,0.003223016858100891,0.006327897310256958,0.036841392517089844,0.060709238,-0.15212826,9.774235,-0.005371496,-0.0051893294,9.775605,0
14,985.4617919921875,-1.1323188664391637E-4,-4.103768151253462E-4,-3.0032650101929903E-4,-8.4617919921875,20.5889892578125,-37.71372985839844,0.027099594473838806,0.006084322929382324,0.046306610107421875,0.04875344,-0.14974482,9.764766,-0.015383136,0.0018181503,9.766024,0
14,985.447021484375,-2.4632824352011085E-4,2.5540293427184224E-4,9.917363058775663E-5,-8.62234115600586,20.22774887084961,-37.35991287231445,0.0029322579503059387,-0.00333268940448761,0.06051445007324219,0.06547636,-0.14974464,9.767132,2.3884699E-4,-0.004907891,9.768498,0
14,985.4412841796875,1.5320669626817107E-4,-4.1039675124920905E-4,-4.334318218752742E-4,-8.391085624694824,20.022720336914062,-37.1525993347168,0.0033782348036766052,0.001344144344329834,0.03686809539794922,0.06276071,-0.15450321,9.764736,-0.004136839,-0.008189142,9.766155,0
14,985.4694213867188,1.532678143121302E-4,2.5538308545947075E-4,-8.328795665875077E-4,-8.686118125915527,21.06375503540039,-37.70694351196289,0.013086266815662384,-0.00815466046333313,0.03687000274658203,0.050792158,-0.14735289,9.764734,-0.012646165,0.00285694,9.765969,0
15,985.44189453125,-1.1423364048823714E-4,-4.1040987707674503E-4,2.348923298995942E-4,-8.420676231384277,21.049068450927734,-37.97793960571289,-0.0014165043830871582,0.015712767839431763,0.05107688903808594,0.06272268,-0.16165207,9.762365,-0.006803127,-0.0149382055,9.763892,0
15,985.44384765625,1.5301431994885206E-4,-2.774032764136791E-4,-1.6418204177170992E-4,-8.42165470123291,20.679302215576172,-37.80218505859375,0.008030511438846588,-0.0034363120794296265,0.03687477111816406,0.06270367,-0.14735205,9.776566,-0.0012992437,-0.0014192909,9.777877,0
15,985.456298828125,9.523284970782697E-4,1.2201107165310532E-4,-3.086705692112446E-5,-8.620819091796875,20.229217529296875,-37.437217712402344,-0.006460234522819519,0.006329968571662903,0.05108451843261719,0.062684655,-0.1545014,9.759994,-0.0040653916,-0.008524969,9.761414,0
15,985.4412841796875,-1.1275173164904118E-4,2.5513925356790423E-4,1.0236952221021056E-4,-8.215316772460938,20.398696899414062,-38.27946472167969,-0.00156441330909729,-0.017532631754875183,0.05581951141357422,0.057885826,-0.13543473,9.759993,-0.0013119001,0.010934815,9.761099,0
15,985.4791259765625,4.200632683932781E-4,-1.1206386261619627E-5,-4.301837179809809E-4,-8.089092254638672,20.463687896728516,-37.45589065551758,0.008066445589065552,0.001912444829940796,0.04635906219482422,0.055476904,-0.14496739,9.759991,-0.007307554,0.0026093274,9.76122,0
15,985.46142578125,6.865625036880374E-4,2.5507970713078976E-4,2.3568453616462648E-4,-7.9689788818359375,20.10248565673828,-38.146121978759766,0.012812405824661255,-0.007374480366706848,0.027426719665527344,0.053067982,-0.13781707,9.77656,-0.0069680223,0.010170445,9.777667,0
15,985.4512329101562,1.5411415370181203E-4,-6.770556792616844E-4,5.02079026773572E-4,-8.047188758850098,19.55504608154297,-37.94807434082031,0.012719765305519104,0.002122744917869568,0.05109977722167969,0.055438817,-0.15449955,9.764722,-0.010856632,-0.006268114,9.766094,0
15,985.4554443359375,1.5429791528731585E-4,-1.4445370470639318E-4,1.0268395999446511E-4,-8.570028305053711,20.32984161376953,-38.06680679321289,-0.011342272162437439,-0.0024665147066116333,0.051105499267578125,0.06736931,-0.14019938,9.762352,0.005732692,0.0021038651,9.76359,0
15,985.441162109375,9.534288547001779E-4,7.876220624893904E-4,3.6907842149958014E-4,-8.520896911621094,20.323074340820312,-37.92001724243164,0.012746132910251617,-0.011888712644577026,0.036904335021972656,0.05540076,-0.13543238,9.767085,-0.0036703255,0.011173829,9.768174,0
15,985.4509887695312,-1.1165137402713299E-4,-9.434609673917294E-4,-1.634748186916113E-4,-8.748266220092773,20.794891357421875,-37.75861740112305,-0.010680720210075378,0.016846463084220886,0.046375274658203125,0.06255147,-0.15449812,9.755247,-0.00491497,-0.009307712,9.756664,0
15,985.4765014648438,2.880056854337454E-4,-1.445430243620649E-4,-3.0238355975598097E-5,-8.20548152923584,20.565467834472656,-37.520896911621094,0.02715122699737549,0.007130801677703857,0.04637622833251953,0.041023344,-0.1473478,9.767082,-0.021642158,0.0054042786,9.768253,0
15,985.4560546875,-3.776006633415818E-4,9.206909453496337E-4,-6.959494203329086E-4,-8.22999382019043,20.01567840576172,-37.407962799072266,0.017364799976348877,-0.0024344325065612793,0.06058216094970703,0.05295384,-0.14496405,9.750509,-0.009396417,0.0029817373,9.751724,0
15,985.4432373046875,2.883722772821784E-4,-1.44602483487688E-4,-9.621868375688791E-4,-8.658454895019531,20.510147094726562,-37.60182571411133,0.012514762580394745,-0.0071297138929367065,0.046382904052734375,0.04815501,-0.14019705,9.759977,-0.011883878,0.0093809515,9.761091,0
15,985.460693359375,4.2171351378783584E-4,1.2168371176812798E-4,2.3631320800632238E-4,-8.60780143737793,20.50484848022461,-37.5323371887207,0.00768762081861496,0.011912018060684204,0.04638481140136719,0.050525874,-0.15687947,9.764709,-0.01609946,-0.006869808,9.766085,0
15,985.4330444335938,-3.770508337765932E-4,2.54811835475266E-4,1.0323384776711464E-4,-8.441303253173828,20.766071319580078,-37.49629592895508,0.007324516773223877,-0.0020924508571624756,0.046393394470214844,0.055286705,-0.15211244,9.759974,-0.009571064,-0.0049215853,9.76131,0
15,985.4526977539062,6.883959285914898E-4,3.879400319419801E-4,1.0331236990168691E-4,-8.470243453979492,20.317779541015625,-37.850528717041016,0.007309801876544952,0.012287735939025879,0.04639625549316406,0.05526769,-0.15687852,9.767073,-0.011466945,-0.009199366,9.768477,0
15,985.4530029296875,9.548951638862491E-4,3.8791028782725334E-4,1.0339095024392009E-4,-8.540544509887695,20.409839630126953,-37.6141242980957,0.012060105800628662,-0.00631345808506012,0.055873870849609375,0.050468862,-0.14257847,9.769439,-0.010526328,0.0054502487,9.770602,0
15,985.4859619140625,5.556045798584819E-4,-5.442250985652208E-4,-8.286361116915941E-4,-8.823134422302246,20.882537841796875,-37.29030227661133,-0.002069227397441864,0.003314688801765442,0.02746868133544922,0.06000942,-0.14496131,9.776539,-0.0028579598,-3.1758845E-4,9.777798,0
15,985.4599609375,2.8947199461981654E-4,-2.779389906208962E-4,2.3670599330216646E-4,-8.57307243347168,20.326892852783203,-37.91219711303711,0.002811238169670105,0.007908344268798828,0.0416717529296875,0.052820683,-0.14496084,9.767068,-0.009488622,0.0025101155,9.768281,0
15,985.4530029296875,-6.424503517337143E-4,-1.1652839020825922E-5,-5.621631862595677E-4,-8.409479141235352,20.691085815429688,-38.42061996459961,0.0025700852274894714,-0.006717473268508911,0.013262748718261719,0.059971422,-0.14019383,9.774168,-7.438031E-4,0.004428923,9.775356,0
15,985.43994140625,-2.4279323406517506E-4,9.204229572787881E-4,2.3686300846748054E-4,-8.529890060424805,20.420154571533203,-38.1552619934082,0.011638425290584564,0.0029770582914352417,0.03694343566894531,0.05756247,-0.1473432,9.769432,-0.00526841,-0.0016536713,9.770712,0
15,985.4623413085938,-3.7576782051473856E-4,-1.171229814644903E-5,-1.625322038307786E-4,-9.051345825195312,21.09050750732422,-37.652225494384766,0.021117854863405228,-0.001733541488647461,0.041680335998535156,0.047983885,-0.14495943,9.771797,-0.0130616035,0.0043635815,9.772982,0
15,985.432373046875,1.5704717952758074E-4,-2.7805811259895563E-4,-1.6245362348854542E-4,-8.695005416870117,20.054489135742188,-37.56953048706055,0.006870228797197342,-0.0018900632858276367,0.05588340759277344,0.05287054,-0.14496206,9.755236,-0.008645549,0.0020868033,9.7564535,0
15,985.4655151367188,5.561019643209875E-4,2.5464181089773774E-4,-2.957911929115653E-4,-7.97743034362793,19.831275939941406,-38.28292465209961,0.001662764698266983,-0.0016706585884094238,0.04639625549316406,0.057764947,-0.14496483,9.774185,-0.0040099714,3.656596E-4,9.77543,0
15,985.445068359375,5.544172017835081E-4,-1.4455853670369834E-4,-4.296711413189769E-4,-8.493776321411133,20.137752532958984,-37.91334915161133,0.0017624422907829285,0.007785171270370483,0.032192230224609375,0.05297622,-0.15926422,9.771816,-0.013994901,-0.0109272,9.773243,0
16,985.4446411132812,-7.770767551846802E-4,5.212173564359546E-4,-8.29108408652246E-4,-8.455161094665527,20.226593017578125,-37.924495697021484,0.016028117388486862,0.0030595511198043823,0.041663169860839844,0.055357218,-0.1473477,9.764713,-0.0071437177,-0.0010327846,9.765979,0
16,985.4646606445312,9.540620958432555E-4,-2.777441986836493E-4,2.3619187413714826E-4,-8.535978317260742,20.414260864257812,-37.84604263305664,0.011294972151517868,0.012818455696105957,0.03219890594482422,0.05295849,-0.15211405,9.771814,-0.011249838,-0.004747942,9.773136,0
16,985.4646606445312,9.540620958432555E-4,-2.777441986836493E-4,2.3619187413714826E-4,-8.492499351501465,21.13965606689453,-37.66423416137695,0.0156545527279377,-0.015582337975502014,0.06061077117919922,0.043389976,-0.12828104,9.759978,-0.010989801,0.020368963,9.760891,0
16,985.438720703125,4.2151601519435644E-4,3.880315343849361E-4,-5.627190694212914E-4,-8.275644302368164,20.763442993164062,-37.98357391357422,0.01085764542222023,-0.0012272447347640991,0.041675567626953125,0.05055079,-0.1425805,9.764711,-0.009598906,0.004496351,9.765878,0
16,985.4569091796875,-1.1103024007752538E-4,9.206495014950633E-4,-1.6320869326591492E-4,-8.046209335327148,19.92481231689453,-38.12382888793945,0.0252675823867321,0.03200283646583557,0.04167461395263672,0.04576212,-0.15687992,9.752874,-0.019458778,-0.0068204254,9.75422,0
16,985.4588012695312,1.5545682981610298E-4,0.0013200954999774694,-2.9629317577928305E-4,-7.9439239501953125,20.283985137939453,-38.160606384277344,0.015279006212949753,-0.006197318434715271,0.05588054656982422,0.050533056,-0.14734657,9.752874,-0.010965912,-1.7769635E-4,9.754113,0
16,985.4588012695312,1.5545682981610298E-4,0.0013200954999774694,-2.9629317577928305E-4,-7.9439239501953125,20.283985137939453,-38.160606384277344,0.010468844324350357,-0.006133124232292175,0.05114555358886719,0.05769387,-0.14734633,9.771811,-0.0043000034,-0.0025462955,9.77309,0
16,985.441162109375,-2.8602388920262456E-4,1.574734051246196E-4,2.6688043726608157E-4,-8.244502067565918,20.950836181640625,-38.307273864746094,0.005466941744089127,0.007774949073791504,0.055877685546875,0.048125416,-0.15211271,9.759974,-0.014662221,-0.003055483,9.761266,0
16,985.464111328125,-1.962244277819991E-5,5.569332861341536E-4,1.3375922571867704E-4,-8.60780143737793,20.50484848022461,-37.5323371887207,0.015084505081176758,-0.01129220426082611,0.022737503051757812,0.04333669,-0.1497292,9.778912,-0.01820162,0.0012990385,9.780136,0
16,985.4590454101562,-9.516424033790827E-4,-2.420281816739589E-4,9.327436564490199E-4,-8.622883796691895,20.596038818359375,-37.4583625793457,-0.004030246287584305,-0.006265312433242798,0.02747631072998047,0.06722683,-0.14019592,9.77891,0.0074186013,6.496906E-4,9.780143,0
16,985.4335327148438,9.126542718149722E-4,2.427372965030372E-5,5.333063891157508E-4,-8.74438190460205,21.061683654785156,-37.3899040222168,6.135068833827972E-4,-0.006148397922515869,0.04168415069580078,0.05048868,-0.14972876,9.76944,-0.011602694,-0.0020695478,9.770709,0
16,985.4434204101562,-1.936574699357152E-5,-1.0889807890634984E-4,7.996589411050081E-4,-8.672558784484863,20.971099853515625,-37.703609466552734,3.930516541004181E-4,-0.0062481313943862915,0.06535625457763672,0.057649493,-0.14734526,9.75997,-0.0038609859,-0.0026973188,9.761251,0
16,985.4306640625,2.4703581584617496E-4,2.905618748627603E-4,2.6706396602094173E-4,-8.755332946777344,20.419231414794922,-37.27363967895508,-0.008889999240636826,0.003439575433731079,0.041686058044433594,0.062420398,-0.14496173,9.764704,0.001190049,-0.002333209,9.76598,0
16,985.47607421875,2.471212646923959E-4,2.905480214394629E-4,2.671005204319954E-4,-8.510923385620117,20.59575653076172,-37.86052322387695,7.063411176204681E-4,0.017521798610687256,0.046417236328125,0.05763173,-0.16164453,9.762337,-0.009916477,-0.015520319,9.763827,0
16,985.4510498046875,-2.8533925069496036E-4,-1.0895359446294606E-4,8.580973371863365E-7,-8.422335624694824,20.941673278808594,-37.20155334472656,0.014825474470853806,-0.0017616748809814453,0.03221321105957031,0.04567337,-0.13304497,9.771804,-0.009539773,0.015416622,9.7727995,0
16,985.4708862304688,-1.5209580305963755E-4,1.5734834596514702E-4,5.335264140740037E-4,-8.125886917114258,21.008460998535156,-37.0971794128418,0.00987027958035469,0.012815296649932861,0.03221893310546875,0.05522406,-0.15211095,9.776537,-0.0076346598,-0.00618729,9.777872,0
16,985.4257202148438,1.1430570157244802E-4,5.568082560785115E-4,-1.3222661800682545E-4,-8.134636878967285,20.10511016845703,-37.658843994140625,0.009469933807849884,0.008110985159873962,0.04169273376464844,0.05521518,-0.14734419,9.767068,-0.0055971732,-0.0020045042,9.7683325,0
16,985.4513549804688,2.4754920741543174E-4,0.001089425990357995,5.335998721420765E-4,-8.409753799438477,20.47925567626953,-37.02246856689453,-3.588050603866577E-4,0.0032724589109420776,0.041693687438964844,0.059986144,-0.14734398,9.759966,-9.107828E-4,-0.0039377958,9.761263,0
16,985.4501953125,2.4763477267697453E-4,-3.753250930458307E-4,0.0011994262458756566,-9.034879684448242,20.894874572753906,-37.104427337646484,0.0048285312950611115,0.017604827880859375,0.03222370147705078,0.048027724,-0.15687679,9.771801,-0.016120607,-0.0076022,9.773162,0
16,985.4398803710938,5.140362191013992E-4,-7.748128264211118E-4,1.3419927563518286E-4,-8.774003028869629,20.87576675415039,-37.14350509643555,4.8469752073287964E-5,-0.0012785643339157104,0.02275848388671875,0.059968412,-0.14019378,9.769432,0.001370722,0.0027700216,9.770622,0
16,985.4833984375,-4.1798368329182267E-4,4.235947853885591E-4,-2.652377588674426E-4,-8.476330757141113,20.31188201904297,-37.54130935668945,0.014244277030229568,0.013043835759162903,0.04169750213623047,0.052789807,-0.14496006,9.771799,-0.0069656316,0.0010979176,9.773013,0
16,985.43994140625,3.8104940904304385E-4,1.5726499259471893E-4,-2.6520120445638895E-4,-8.266948699951172,20.034225463867188,-38.17319869995117,0.009282048791646957,0.008433252573013306,0.051171302795410156,0.05995059,-0.15449293,9.764697,-0.0038690045,-0.0108015835,9.766095,0
16,985.4777221679688,5.142929148860276E-4,5.567249609157443E-4,-1.3200659304857254E-4,-7.938952445983887,19.814197540283203,-37.59498977661133,0.017886560410261154,-0.0011779963970184326,0.06055927276611328,0.04888019,-0.13783158,9.760043,-0.007724806,0.0087246,9.761133,0
16,985.4501342773438,1.0958232451230288E-4,4.2441714322194457E-4,-1.092907041311264E-6,-8.144174575805664,20.570484161376953,-37.9925422668457,0.017684821039438248,-0.010398313403129578,0.03689002990722656,0.044127047,-0.1425987,9.767147,-0.013888462,0.0057664067,9.768276,0
17,985.4371337890625,5.075503140687943E-4,-7.74187094066292E-4,5.29694720171392E-4,-8.745658874511719,20.059783935546875,-37.63901901245117,-0.015539534389972687,-0.005654394626617432,0.03215217590332031,0.06327292,-0.13306634,9.771883,0.0074552894,0.0075261295,9.772988,0
17,985.4297485351562,3.7413547397591174E-4,6.905919872224331E-4,-4.025209927931428E-4,-8.896639823913574,20.44542694091797,-38.02324295043945,0.007742714136838913,0.00884297490119934,0.0274200439453125,0.04896021,-0.14974989,9.776621,-0.011885332,-0.0022999197,9.777883,0
17,985.4393310546875,-2.5595334591344E-5,4.243177827447653E-4,0.0011952641652897,-8.668428421020508,20.237457275390625,-37.661319732666016,-0.015916217118501663,0.008757323026657104,0.05582141876220703,0.068106055,-0.15213384,9.769522,0.004586304,-0.01211752,9.770936,0
17,985.440185546875,-2.9216831899248064E-4,-2.4143012706190348E-4,1.2989051174372435E-4,-7.880551815032959,19.922183990478516,-38.61110305786133,0.012536749243736267,0.008641913533210754,0.04635047912597656,0.051403403,-0.14736791,9.76479,-0.008621935,-0.0014523715,9.766034,0
17,985.4443969726562,3.7336445529945195E-4,0.0010901909554377198,1.2978038284927607E-4,-8.698454856872559,20.52574920654297,-38.21245193481445,-0.0017340220510959625,0.003959149122238159,0.041614532470703125,0.063379586,-0.14021878,9.760057,0.0050412626,5.5392087E-4,9.76127,0
17,985.4448852539062,2.3994958610273898E-4,-6.408204790204763E-4,-6.692773895338178E-4,-9.31458568572998,20.84429168701172,-38.05915832519531,-0.0022168345749378204,-7.344037294387817E-4,0.022678375244140625,0.058626413,-0.14975248,9.778997,-0.0027891924,-0.006256476,9.780319,0
17,985.4346313476562,-2.6623107260093093E-5,9.57116368226707E-4,3.958761226385832E-4,-8.5947847366333,20.78048324584961,-37.62745666503906,0.002300851047039032,-4.668980836868286E-4,0.036884307861328125,0.070602596,-0.1473699,9.774265,0.0094844485,-0.009120852,9.775622,0
17,985.44384765625,1.0627778829075396E-4,1.582105178385973E-4,-5.363395903259516E-4,-8.652803421020508,19.777984619140625,-37.636837005615234,-0.0069325268268585205,0.028225138783454895,0.05108356475830078,0.056289822,-0.16405348,9.760065,-0.010876242,-0.019016922,9.761581,0
17,985.4616088867188,9.049683576449752E-4,-2.4122156901285052E-4,1.2933980906382203E-4,-8.539022445678711,20.411312103271484,-37.69143295288086,-0.0023745112121105194,-0.005180627107620239,0.06528568267822266,0.068266034,-0.15213777,9.760067,0.0052839946,-0.012865901,9.761481,0
17,985.4564819335938,-2.7394125936552882E-5,1.5829390031285584E-4,-2.702440833672881E-4,-8.575029373168945,19.58736801147461,-37.56068801879883,-0.007440052926540375,0.018413051962852478,0.03213977813720703,0.06351286,-0.15690495,9.769539,-8.669286E-4,-0.015145391,9.770993,0
17,985.4590454101562,-8.265986107289791E-4,6.909673102200031E-4,-1.3719621347263455E-4,-8.691280364990234,19.795059204101562,-38.32476806640625,-0.01237153634428978,0.013251379132270813,0.032134056091308594,0.06831929,-0.14975579,9.764807,0.0068010082,-0.0102119,9.766186,0
17,985.44384765625,-1.6106580733321607E-4,2.915352815762162E-4,5.284833605401218E-4,-8.538341522216797,20.148941040039062,-38.292057037353516,-0.0030319727957248688,0.003535151481628418,0.06053638458251953,0.054006547,-0.14260663,9.764809,-0.0033260703,0.002064228,9.765998,0
17,985.455810546875,-5.607967032119632E-4,5.57892897631973E-4,2.620574086904526E-4,-8.665384292602539,20.240406036376953,-37.8159294128418,-0.01706971600651741,-0.0010114461183547974,0.036861419677734375,0.070762515,-0.1497571,9.774281,0.008973876,-0.01094906,9.775675,0
17,985.428466796875,0.0010368417715653777,-3.741709515452385E-4,-2.706844825297594E-4,-8.36977767944336,20.04334259033203,-38.234867095947266,-0.0025791004300117493,0.01795053482055664,0.036856651306152344,0.06600937,-0.15690757,9.767181,0.00155027,-0.015677154,9.768652,0
17,985.4635620117188,-1.6183665138669312E-4,-5.072872154414654E-4,-1.3763667084276676E-4,-8.56644058227539,19.964492797851562,-38.12296676635742,-0.012101337313652039,0.008355364203453064,0.04632282257080078,0.07081589,-0.14260854,9.762449,0.011649938,-0.0042329133,9.76374,0
17,985.4635620117188,-1.6183665138669312E-4,-5.072872154414654E-4,-1.3763667084276676E-4,-8.472308158874512,20.68459701538086,-37.871673583984375,0.0026014670729637146,0.01795855164527893,0.051052093505859375,0.058892965,-0.15690888,9.75535,-0.0053536426,-0.012907565,9.756781,0
17,985.4589233398438,-1.6209363820962608E-4,-3.740875399671495E-4,-4.5888591557741165E-6,-8.544429779052734,20.143047332763672,-37.98283767700195,0.0024606063961982727,0.008257225155830383,0.0415802001953125,0.054139853,-0.14975972,9.762455,-0.0068175755,-0.0041602403,9.763751,0
17,985.4481811523438,-2.9550856561399996E-4,-7.735196850262582E-4,-2.7101486921310425E-4,-8.854437828063965,20.168922424316406,-38.09054946899414,-0.011478275060653687,0.003614276647567749,0.03684234619140625,0.06850591,-0.15214364,9.77666,0.0050417064,-0.011797905,9.778075,0
17,985.4708862304688,2.3686620988883078E-4,1.5862769214436412E-4,-1.379670575261116E-4,-8.808893203735352,20.527496337890625,-37.88759994506836,0.007546868175268173,0.003339141607284546,0.04630565643310547,0.061362863,-0.14737777,9.764826,4.9862755E-4,-0.0045656264,9.7661295,0
