Timestamp,P,Gx,Gy,Gz,Mx,My,Mz,LiAx,LiAy,LiAz,Ax,Ay,Az,earthAx,earthAy,earthAz,Value,Type
0,985.664794921875,0.0011787294642999768,0.007201962172985077,3.1644594855606556E-4,-7.718901634216309,23.546669006347656,-32.92030715942383,-1.8118398189544678,-0.6727235913276672,-0.12178516387939453,0.06317145,-0.15933849,9.753157,1.8711737,-0.43429232,9.563657,0
0,985.6014404296875,6.073783151805401E-4,0.0017019824590533972,2.331728464923799E-4,-7.489030838012695,23.446086883544922,-33.33476638793945,-1.8368011713027954,-0.6758734583854675,-0.16358184814453125,0.07748294,-0.14742137,9.774458,1.8906918,-0.42697167,9.581792,0
0,985.6119384765625,2.0817399490624666E-4,1.0404331260360777E-4,-3.30274342559278E-5,-7.993338108062744,23.658432006835938,-32.88455581665039,-1.7943205833435059,-0.6739261150360107,-0.1579141616821289,0.05833572,-0.1545706,9.774456,1.8632271,-0.4363855,9.586721,0
0,985.647705078125,2.084434381686151E-4,-4.2863216367550194E-4,-2.9922794783487916E-4,-7.724714756011963,23.752609252929688,-34.009239196777344,-1.8137556314468384,-0.6677410006523132,-0.17119121551513672,0.07503712,-0.15933646,9.779187,1.8718989,-0.44338733,9.589731,0
0,985.6318359375,7.555494084954262E-5,-4.286758485250175E-4,7.661511190235615E-4,-7.958310127258301,24.11261749267578,-32.83954620361328,-1.7998113632202148,-0.6660266518592834,-0.1371164321899414,0.065449536,-0.1641023,9.769716,1.859282,-0.42279908,9.583469,0
0,985.6234130859375,-1.904914970509708E-4,-4.2871959158219397E-4,1.0047684190794826E-4,-8.42386531829834,24.51971435546875,-33.09956359863281,-1.8048360347747803,-0.6646921634674072,-0.14092254638671875,0.072591305,-0.16171832,9.767345,1.8581728,-0.4375741,9.580615,0
0,985.6214599609375,2.092516515403986E-4,-2.9289483791217208E-5,5.000660894438624E-4,-7.777462959289551,22.912460327148438,-33.028141021728516,-1.8005188703536987,-0.6630256772041321,-0.15421295166015625,0.07256335,-0.15933438,9.772078,1.8501254,-0.45857823,9.585974,0
0,985.6270141601562,-1.8995266873389482E-4,1.0382468462921679E-4,-5.650818930007517E-4,-7.61289119720459,23.646411895751953,-33.71232223510742,-1.7916805744171143,-0.6471568942070007,-0.13915157318115234,0.07970512,-0.16886683,9.764974,1.8527938,-0.4378904,9.579405,0
0,985.6366577148438,-5.652528489008546E-5,3.700967936310917E-4,-5.649665254168212E-4,-7.719987869262695,24.283241271972656,-33.11720657348633,-1.7725920677185059,-0.674244225025177,-0.14764785766601562,0.06533772,-0.14503337,9.779175,1.8578,-0.38099563,9.594843,0
0,985.65185546875,7.426918018609285E-4,-9.615262970328331E-4,2.3409660207107663E-4,-7.972711086273193,23.941429138183594,-33.3661994934082,-1.7867474555969238,-0.6580345630645752,-0.13713645935058594,0.0772593,-0.16171558,9.760235,1.8432152,-0.4306375,9.576608,0
0,985.621826171875,2.103295410051942E-4,-9.6157006919384E-4,-3.210367867723107E-5,-8.493486404418945,24.349403381347656,-33.46379470825195,-1.787047028541565,-0.6564310193061829,-0.13620853424072266,0.07484144,-0.15933158,9.760231,1.8344288,-0.44109562,9.577757,0
0,985.62158203125,7.74410436861217E-5,3.6996565177105367E-4,-2.9830419225618243E-4,-7.9395036697387695,23.762001037597656,-33.668758392333984,-1.7633968591690063,-0.6403699517250061,-0.15419864654541016,0.07003367,-0.16886415,9.769698,1.8243012,-0.43776292,9.589616,0
0,985.6339721679688,8.766581304371357E-4,1.0360599844716489E-4,3.676009946502745E-4,-8.907981872558594,24.277008056640625,-32.85679244995117,-1.7733144760131836,-0.6429114937782288,-0.15323257446289062,0.070005745,-0.16886343,9.779163,1.8255185,-0.41905004,9.599862,0
0,985.6437377929688,4.774538101628423E-4,-4.2906953603960574E-4,2.345585380680859E-4,-8.135868072509766,24.315292358398438,-33.13198471069336,-1.7490980625152588,-0.6365113258361816,-0.12379646301269531,0.06758785,-0.17124598,9.753122,1.8185239,-0.3892488,9.575949,0
0,985.6310424804688,7.824943168088794E-5,-2.959553094115108E-4,-3.164185909554362E-5,-8.132526397705078,24.95037078857422,-32.86172103881836,-1.7686909437179565,-0.6584873199462891,-0.12288761138916016,0.0771195,-0.14502926,9.7649555,1.8295878,-0.40999204,9.58467,0
0,985.6432495117188,6.111506372690201E-4,9.02422470971942E-4,6.342633278109133E-4,-8.286306381225586,24.33264923095703,-33.41775131225586,-1.740208625793457,-0.6423390507698059,-0.13140201568603516,0.06036228,-0.15694489,9.772055,1.807355,-0.40382713,9.596444,0
0,985.6432495117188,6.111506372690201E-4,9.02422470971942E-4,6.342633278109133E-4,-7.926486492156982,24.037635803222656,-33.76387405395508,-1.7308504581451416,-0.6454806923866272,-0.1399393081665039,0.060334295,-0.15694429,9.767319,1.7992287,-0.41374123,9.592724,0
0,985.65087890625,7.878837641328573E-5,-2.9726914362981915E-5,2.3490499006584287E-4,-8.172418594360352,23.859634399414062,-33.09968185424805,-1.7405370473861694,-0.6437828540802002,-0.14845943450927734,0.067476034,-0.15694357,9.779152,1.8083345,-0.390849,9.60407,0
0,985.6505737304688,-3.204160020686686E-4,2.36545194638893E-4,-5.639271694235504E-4,-7.956788063049316,24.114089965820312,-32.91685104370117,-1.7407745122909546,-0.6418271064758301,-0.11910533905029297,0.072227895,-0.1640927,9.755477,1.7950824,-0.4163233,9.581535,0
0,985.6404418945312,-5.383079405874014E-5,-1.6297232650686055E-4,-2.974958042614162E-4,-8.265274047851562,24.141433715820312,-33.10186767578125,-1.7312567234039307,-0.6261917948722839,-0.137115478515625,0.067420095,-0.16170873,9.769677,1.7929105,-0.3995594,9.597037,0
0,985.6513671875,2.1275458857417107E-4,1.032997970469296E-4,2.3525144206359982E-4,-8.186521530151367,24.320587158203125,-33.20146560668945,-1.7363768815994263,-0.6430315375328064,-0.14563751220703125,0.06978208,-0.16409133,9.76494,1.7883972,-0.3996148,9.593112,0
0,985.6176147460938,2.130239736288786E-4,0.00130167743191123,2.3536692606285214E-4,-8.026813507080078,24.417984008789062,-34.078609466552734,-1.7213032245635986,-0.6315746307373047,-0.13036537170410156,0.062109113,-0.15216257,9.76016,1.7861937,-0.36555982,9.5897665,0
0,985.6531982421875,3.4645124105736613E-4,-1.6310354112647474E-4,0.001034429995343089,-7.74504280090332,24.101749420166016,-33.102725982666016,-1.7165168523788452,-0.6390839219093323,-0.11991500854492188,0.071621835,-0.15931131,9.769625,1.7846884,-0.38716018,9.599015,0
0,985.6611328125,3.4685677383095026E-4,3.7254966446198523E-4,-2.9226631158962846E-4,-8.008963584899902,24.117908477783203,-32.909034729003906,-1.7303173542022705,-0.6372048854827881,-0.13779163360595703,0.07157487,-0.15454356,9.776722,1.7776711,-0.40628478,9.60667,0
1,985.6250610351562,4.821422044187784E-4,-6.930592935532331E-4,-2.5038665626198053E-5,-8.051326751708984,23.86819839477539,-33.96567153930664,-1.7109752893447876,-0.6306301355361938,-0.12259292602539062,0.06674808,-0.16407551,9.760147,1.7637119,-0.39554358,9.592951,0
1,985.6429443359375,6.157524767331779E-4,-8.26290575787425E-4,5.077869282104075E-4,-8.281878471374512,24.23114776611328,-32.95058822631836,-1.6969096660614014,-0.6288423538208008,-0.11221599578857422,0.057141542,-0.1593078,9.750673,1.7527143,-0.38143098,9.585758,0
1,985.6356201171875,-4.958466161042452E-5,7.715312531217933E-4,-9.567565866746008E-4,-8.22970199584961,24.227325439453125,-32.95840835571289,-1.705680251121521,-0.6270558834075928,-0.1253337860107422,0.07143402,-0.16407324,9.769608,1.762912,-0.37827593,9.603452,0
1,985.6611328125,8.40257853269577E-5,-4.2696372838690877E-4,1.0870100231841207E-4,-8.107769012451172,24.499732971191406,-33.30107498168945,-1.6958985328674316,-0.6206107139587402,-0.11489009857177734,0.068997175,-0.16168879,9.767237,1.7514106,-0.3974678,9.602312,0
1,985.6480102539062,-5.813114694319665E-4,-6.933530094102025E-4,-4.2373681208118796E-4,-8.285901069641113,23.858440399169922,-32.62022399902344,-1.6868622303009033,-0.6379786133766174,-0.12824249267578125,0.06417045,-0.15453784,9.776701,1.7530578,-0.36728942,9.61269,0
1,985.6329956054688,6.180148338899016E-4,6.380794802680612E-4,2.4244067026302218E-4,-7.7359113693237305,24.11058807373047,-33.566558837890625,-1.6815792322158813,-0.6173285245895386,-0.11776256561279297,0.06651336,-0.16883637,9.771962,1.7435697,-0.3688565,9.609789,0
1,985.6327514648438,-7.131122401915491E-4,3.7169011193327606E-4,1.094765611924231E-4,-8.247989654541016,23.789352416992188,-33.8537712097168,-1.6718220710754395,-0.6247641444206238,-0.10256099700927734,0.06407654,-0.14500241,9.753019,1.7360805,-0.38947463,9.590666,0
1,985.63525390625,3.5260384902358055E-4,2.3845871328376234E-4,3.7598639028146863E-4,-7.9912428855896,24.503875732421875,-33.93514633178711,-1.666956901550293,-0.6228523850440979,-0.12053871154785156,0.061639726,-0.1545343,9.76722,1.7352033,-0.3549239,9.606735,0
1,985.6455078125,3.5305629717186093E-4,-4.2740441858768463E-4,-4.2276730528101325E-4,-7.790587425231934,23.74317169189453,-33.30567932128906,-1.6806056499481201,-0.6209349632263184,-0.12421321868896484,0.07832205,-0.15453322,9.771949,1.7429478,-0.36935645,9.60972,0
1,985.6605834960938,-1.7912295879796147E-4,-2.800405491143465E-5,7.758480496704578E-4,-7.769555568695068,23.551963806152344,-32.98979568481445,-1.6564987897872925,-0.595361590385437,-0.10431480407714844,0.06154585,-0.16644849,9.764843,1.7162406,-0.36985713,9.607362,0
1,985.6580200195312,-4.5512570068240166E-5,5.045542493462563E-4,9.091998799704015E-4,-8.260165214538574,23.777565002441406,-33.23533248901367,-1.6513997316360474,-0.6219757199287415,-0.11278533935546875,0.068668604,-0.164064,9.755369,1.7116439,-0.3918665,9.597685,0
1,985.6432495117188,-4.506023833528161E-5,1.0500699863769114E-4,-2.8902775375172496E-4,-7.98268461227417,23.668746948242188,-33.42569351196289,-1.6558104753494263,-0.6010707020759583,-0.12599754333496094,0.068621635,-0.16406287,9.774303,1.7121167,-0.3804303,9.617306,0
1,985.6582641601562,-3.1092355493456125E-4,1.0493351146578789E-4,-1.5567586524412036E-4,-7.968145370483398,23.945846557617188,-33.59811782836914,-1.655388593673706,-0.6039780974388123,-0.1250019073486328,0.070964575,-0.15929516,9.776666,1.7138524,-0.36651385,9.619875,0
1,985.6400756835938,-1.7731310799717903E-4,1.0486014070920646E-4,-2.2323860321193933E-5,-8.154293060302734,23.771392822265625,-33.32826614379883,-1.6454591751098633,-0.6069409847259521,-0.11455249786376953,0.06852776,-0.159294,9.764826,1.7018086,-0.37603194,9.609597,0
1,985.637939453125,-4.370277747511864E-5,5.042605334892869E-4,2.4418585235252976E-4,-8.29878044128418,23.688724517822266,-33.22418212890625,-1.6303635835647583,-0.6001002192497253,-0.11349010467529297,0.07804042,-0.16882594,9.77429,1.6986041,-0.39666444,9.619186,0
1,985.6455078125,2.2306549362838268E-4,-9.605502709746361E-4,-1.55094254296273E-4,-8.533080101013184,23.890804290771484,-33.276885986328125,-1.6394535303115845,-0.5984954833984375,-0.09357643127441406,0.0732137,-0.15929176,9.748246,1.6887739,-0.38907704,9.594565,0
1,985.6251220703125,-4.279788117855787E-5,-2.8518203180283308E-5,2.4457357358187437E-4,-7.916512966156006,24.310314178466797,-33.704383850097656,-1.6336495876312256,-0.6011940240859985,-0.11141777038574219,0.07794654,-0.15690728,9.762445,1.7003056,-0.34328115,9.608702,0
1,985.61767578125,9.081256575882435E-5,-0.0014933289494365454,-4.210222396068275E-4,-8.12923812866211,23.952896118164062,-33.34274673461914,-1.6234076023101807,-0.5993794798851013,-0.11513328552246094,0.07072985,-0.16167267,9.767176,1.6831828,-0.36108708,9.615892,0
1,985.6535034179688,-1.7505104187875986E-4,-6.944547640159726E-4,-4.20828175265342E-4,-8.502479553222656,24.446487426757812,-33.699039459228516,-1.612697720527649,-0.6022882461547852,-0.10930442810058594,0.068293035,-0.14975514,9.771906,1.6810483,-0.35426077,9.621114,0
1,985.637939453125,-1.7459847731515765E-4,-5.613702815026045E-4,5.114712403155863E-4,-8.12923812866211,23.952896118164062,-33.342750549316406,-1.6025094985961914,-0.5907003283500671,-0.10828304290771484,0.070636034,-0.1640537,9.776636,1.6725129,-0.35792768,9.627518,0
1,985.6452026367188,9.216973558068275E-5,-2.881194814108312E-5,-4.2044062865898013E-4,-7.853278636932373,23.84259796142578,-33.455806732177734,-1.5925946235656738,-0.6030856370925903,-0.09311485290527344,0.070589095,-0.1545194,9.748224,1.6695843,-0.336816,9.59978,0
1,985.6554565429688,9.262224193662405E-5,5.037463270127773E-4,1.1238519800826907E-4,-7.62645149230957,23.73907470703125,-33.71565628051758,-1.5915474891662598,-0.5632045865058899,-0.11573028564453125,0.05656293,-0.16406016,9.769559,1.6522735,-0.3289931,9.624769,0
1,985.6273193359375,-5.72715129237622E-4,-0.0018931699451059103,-2.8689479222521186E-4,-8.239974021911621,23.322509765625,-33.44276809692383,-1.605618953704834,-0.5944806933403015,-0.10999107360839844,0.0784072,-0.15453531,9.757753,1.6580904,-0.37530282,9.610082,0
1,985.6574096679688,3.5277631832286716E-4,-5.605168407782912E-4,-2.897295053116977E-4,-7.933851718902588,23.029842376708984,-33.70376968383789,-1.5808686017990112,-0.5874871611595154,-0.089996337890625,0.054490417,-0.1616847,9.764853,1.632466,-0.35538843,9.622381,0
1,985.6452026367188,2.1978950826451182E-4,2.3840295034460723E-4,-1.5649822307750583E-4,-8.625935554504395,24.172603607177734,-33.27906799316406,-1.5709383487701416,-0.595371663570404,-0.11746883392333984,0.06164235,-0.1569177,9.769587,1.6398935,-0.33811086,9.626508,0
2,985.6375732421875,-4.635524237528443E-5,-2.942565770354122E-4,-2.8958270559087396E-4,-8.037903785705566,23.669620513916016,-33.26326370239258,-1.5798949003219604,-0.5836876034736633,-0.09752559661865234,0.07118422,-0.154534,9.760117,1.6431501,-0.33348912,9.61653,0
2,985.6375732421875,6.196056492626667E-4,3.715053608175367E-4,1.0996457422152162E-4,-7.601831912994385,23.182514190673828,-33.455928802490234,-1.564821720123291,-0.605350911617279,-0.11070442199707031,0.05682707,-0.14738373,9.77195,1.6330409,-0.3088364,9.630874,0
2,985.6324462890625,1.5010355855338275E-4,-1.0454996663611382E-4,-1.7210206715390086E-4,-7.8622727394104,23.939678192138672,-33.6910514831543,-1.564302921295166,-0.5842323899269104,-0.10499191284179688,0.06636888,-0.16168292,9.767214,1.6265517,-0.32882532,9.626797,0
2,985.6375732421875,-6.486729253083467E-4,-1.0457777534611523E-4,-3.0518678249791265E-4,-7.8918938636779785,23.753761291503906,-33.44466018676758,-1.5684136152267456,-0.6013131141662598,-0.09926509857177734,0.07591075,-0.14023308,9.767213,1.6426007,-0.30054826,9.62473,0
2,985.6375732421875,-6.486729253083467E-4,-1.0457777534611523E-4,-3.0518678249791265E-4,-7.354515552520752,23.25606918334961,-33.49834442138672,-1.5674817562103271,-0.5801244974136353,-0.08875656127929688,0.07350308,-0.15929879,9.764844,1.6276048,-0.29801258,9.625231,0
2,985.6292724609375,2.836038183886558E-4,1.6171036986634135E-4,2.2751849610358477E-4,-7.562918663024902,23.903488159179688,-33.042205810546875,-1.5521631240844727,-0.5687558650970459,-0.08300113677978516,0.06631559,-0.1640649,9.748272,1.6081932,-0.30909947,9.611362,0
2,985.6429443359375,-2.488568134140223E-4,-3.70949215721339E-4,8.933816570788622E-4,-7.898525238037109,24.11615753173828,-33.233882904052734,-1.5466957092285156,-0.5618330240249634,-0.0962066650390625,0.071077645,-0.14976485,9.774309,1.619786,-0.2893261,9.636245,0
2,985.627685546875,4.17103961808607E-4,-7.704508025199175E-4,7.602968253195286E-4,-7.658275604248047,23.814056396484375,-32.791324615478516,-1.5557236671447754,-0.5738853812217712,-0.10943222045898438,0.07822958,-0.15929748,9.760105,1.612879,-0.30092663,9.622849,0
2,985.6375732421875,1.780144521035254E-5,8.274167194031179E-4,-3.8577301893383265E-5,-7.995945930480957,24.393539428710938,-33.004154205322266,-1.5263984203338623,-0.5480400323867798,-0.0753183364868164,0.06865221,-0.16168033,9.76247,1.5991639,-0.29244262,9.627764,0
2,985.6498413085938,-2.4834342184476554E-4,-3.7103256909176707E-4,2.2781197912991047E-4,-8.154537200927734,24.771820068359375,-33.00185012817383,-1.530417561531067,-0.5700412392616272,-0.09801673889160156,0.06863445,-0.15929665,9.776671,1.590989,-0.32090724,9.6425705,0
2,985.6699829101562,5.507755558937788E-4,2.8413458494469523E-5,2.2788526257500052E-4,-7.819665908813477,23.188968658447266,-32.96083450317383,-1.5104409456253052,-0.5588268041610718,-0.07337093353271484,0.059057117,-0.16406275,9.755364,1.569783,-0.3256501,9.624306,0
2,985.6250610351562,-1.148431038018316E-4,-1.047722325893119E-4,9.480060543864965E-5,-8.0404052734375,23.298385620117188,-33.01020431518555,-1.524305820465088,-0.5566708445549011,-0.07715988159179688,0.06620908,-0.15691243,9.755363,1.5751307,-0.31657588,9.623662,0
2,985.64208984375,-7.804615888744593E-4,5.609896034002304E-4,7.606637664139271E-4,-8.324516296386719,23.769603729248047,-32.609073638916016,-1.4944441318511963,-0.5591774582862854,-0.09030532836914062,0.056631684,-0.15929534,9.755362,1.5585207,-0.31796628,9.626297,0
2,985.6349487304688,1.5181515482254326E-4,5.609618383459747E-4,-1.7136841779574752E-4,-8.300302505493164,23.687252044677734,-33.14687728881836,-1.5128555297851562,-0.5571200251579285,-0.07039928436279297,0.075733125,-0.16167815,9.75536,1.5681605,-0.32608068,9.624629,0
2,985.627685546875,1.8828344764187932E-5,-0.001569592859596014,3.613365697674453E-4,-8.31234073638916,23.781387329101562,-33.22751998901367,-1.4972693920135498,-0.5503627061843872,-0.07409477233886719,0.06376588,-0.15452786,9.757726,1.5585986,-0.29963127,9.629234,0
2,985.6495971679688,1.5215747407637537E-4,-3.711992467287928E-4,6.277258507907391E-4,-8.181412696838379,23.956710815429688,-33.33493423461914,-1.4918161630630493,-0.5579462647438049,-0.08261775970458984,0.06852794,-0.14737763,9.767193,1.5594102,-0.309318,9.638311,0
2,985.6452026367188,-1.1381608783267438E-4,6.940087187103927E-4,-3.7917227018624544E-5,-7.549220561981201,23.916748046875,-33.737953186035156,-1.4862076044082642,-0.5558785796165466,-0.072174072265625,0.07090008,-0.15452702,9.757723,1.5587671,-0.2705348,9.630115,0
2,985.6446533203125,1.5267086564563215E-4,2.945070737041533E-4,-1.7100170953199267E-4,-8.059915542602539,23.491065979003906,-33.40339279174805,-1.4808149337768555,-0.5586028099060059,-0.08543968200683594,0.066102505,-0.1449935,9.764822,1.5484823,-0.29503632,9.638064,0
2,985.6455078125,-1.1347376857884228E-4,0.001359742833301425,-4.3724413262680173E-4,-7.798058986663818,23.841720581054688,-33.618228912353516,-1.4854416847229004,-0.5517289638519287,-0.07036304473876953,0.075644374,-0.15690942,9.762454,1.5493082,-0.28541464,9.636081,0
2,985.6498413085938,-6.459343712776899E-4,2.9445154359564185E-4,-4.371710238046944E-4,-7.938662052154541,24.025848388671875,-33.14543533325195,-1.4702215194702148,-0.5404304265975952,-0.08835220336914062,0.070846796,-0.16167556,9.767187,1.5386398,-0.28157234,9.642737,0
2,985.6395263671875,1.5318431542254984E-4,2.8107839170843363E-5,-4.3709768215194345E-4,-8.074997901916504,23.582260131835938,-33.32942199707031,-1.4789013862609863,-0.5383871793746948,-0.09211921691894531,0.07799876,-0.16405834,9.771919,1.5342449,-0.3077427,9.647529,0
2,985.64208984375,1.5335562056861818E-4,2.808007411658764E-5,-0.0011028137523680925,-7.961215972900391,24.21558380126953,-33.38401412963867,-1.4639122486114502,-0.5315786004066467,-0.07698726654052734,0.073646486,-0.16645212,9.757755,1.5264534,-0.280239,9.635265,0
2,985.652099609375,1.5033964882604778E-4,5.612014210782945E-4,4.937889170832932E-4,-8.044397354125977,24.137935638427734,-33.7515754699707,-1.4594242572784424,-0.534191370010376,-0.06194019317626953,0.071710765,-0.15693022,9.757797,1.5222603,-0.27909818,9.635831,0
2,985.6444702148438,-2.5450988323427737E-4,9.61547892075032E-4,9.201111970469356E-5,-8.116220474243164,24.22852325439453,-33.437870025634766,-1.449174165725708,-0.5273621082305908,-0.07994747161865234,0.07172853,-0.15454732,9.772001,1.520553,-0.27295363,9.6506195,0
2,985.675048828125,5.442667752504349E-4,2.947007305920124E-5,3.5825371742248535E-4,-7.440984725952148,24.17589569091797,-33.38487243652344,-1.4532958269119263,-0.5489915609359741,-0.06007671356201172,0.0741362,-0.15693109,9.753065,1.5185891,-0.24017528,9.632685,0
3,985.64013671875,2.77779734460637E-4,0.0013610771857202053,2.2502249339595437E-4,-7.849691390991211,23.477252960205078,-33.511966705322266,-1.4528640508651733,-0.5372315645217896,-0.07811546325683594,0.069374144,-0.15454824,9.755434,1.5031881,-0.2774865,9.63642,0
3,985.6452026367188,2.776087203528732E-4,-1.0363233741372824E-4,-8.403142564930022E-4,-7.957629203796387,23.850242614746094,-33.4401741027832,-1.4230875968933105,-0.5259922742843628,-0.0771646499633789,0.062222183,-0.15693189,9.757803,1.4917781,-0.26665476,9.640888,0
3,985.6452026367188,-0.0011872996110469103,-2.367624983889982E-4,-1.7459812806919217E-4,-7.817707061767578,23.928489685058594,-33.31234359741211,-1.42240571975708,-0.5383366346359253,-0.07152080535888672,0.06940961,-0.1545491,9.757805,1.4954797,-0.25529283,9.640635,0
3,985.6521606445312,-2.5536512839607894E-4,2.958119148388505E-5,-5.741450586356223E-4,-8.270383834838867,24.505306243896484,-32.96840286254883,-1.4312644004821777,-0.5267720818519592,-0.07534408569335938,0.07420716,-0.15454955,9.769643,1.4953777,-0.25846666,9.652582,0
3,985.6292724609375,-5.21852052770555E-4,8.285565418191254E-4,-4.15865215472877E-5,-8.24782943725586,24.315567016601562,-32.72982406616211,-1.4210797548294067,-0.5298292636871338,-0.06026649475097656,0.0694451,-0.1569332,9.755442,1.4822204,-0.2579106,9.64026,0
3,985.6521606445312,-5.220230668783188E-4,-1.0352124809287488E-4,-4.16599796153605E-5,-7.929530143737793,24.034683227539062,-33.6092643737793,-1.410508155822754,-0.5232464671134949,-0.0688018798828125,0.062293112,-0.15693365,9.755442,1.4703852,-0.25195658,9.64218,0
3,985.6597900390625,1.435955346096307E-4,-0.0010355990380048752,-4.173332126811147E-5,-7.773983001708984,23.653457641601562,-33.45695877075195,-1.4045330286026,-0.5303431749343872,-0.06306934356689453,0.07426041,-0.14740108,9.755444,1.4788636,-0.24945584,9.640885,0
3,985.657470703125,1.4342446229420602E-4,-3.697815991472453E-4,0.0010234570363536477,-8.311361312866211,24.151145935058594,-33.40327072143555,-1.3942229747772217,-0.5043970942497253,-0.06689453125,0.06710845,-0.16170104,9.762547,1.4590008,-0.26792687,9.650777,0
3,985.62158203125,-5.225362256169319E-4,5.623518372885883E-4,3.575939335860312E-4,-8.378618240356445,24.24615478515625,-33.32148361206055,-1.398125171661377,-0.512164831161499,-0.0659952163696289,0.067126185,-0.15216841,9.772018,1.459718,-0.25715107,9.660389,0
3,985.6088256835938,-6.558652967214584E-4,-9.023578022606671E-4,4.906784743070602E-4,-8.410602569580078,23.794918060302734,-33.52110290527344,-1.3922926187515259,-0.5340813994407654,-0.05086231231689453,0.07670355,-0.14740236,9.750715,1.4582938,-0.271712,9.638653,0
3,985.659423828125,-9.223523084074259E-4,-2.3654033429920673E-4,-1.7518439562991261E-4,-8.302772521972656,24.528274536132812,-33.96554946899414,-1.3959894180297852,-0.5039137601852417,-0.05942535400390625,0.07911119,-0.16885222,9.755451,1.4470174,-0.2756221,9.645402,0
3,985.6392822265625,-3.898915892932564E-4,-6.359863327816129E-4,2.2421602625399828E-4,-8.176709175109863,24.06705093383789,-34.265926361083984,-1.3760592937469482,-0.5020155906677246,-0.08220958709716797,0.06956935,-0.15455301,9.772022,1.4436272,-0.25273967,9.662982,0
3,985.6695556640625,2.7572709950618446E-4,4.2930489871650934E-4,4.904585657641292E-4,-8.178369522094727,23.95966339111328,-33.48954391479492,-1.3755254745483398,-0.49950677156448364,-0.06711769104003906,0.06958711,-0.16646986,9.764923,1.4310496,-0.26096088,9.657654,0
3,985.6343994140625,-1.239178527612239E-4,2.9617472318932414E-4,8.898591622710228E-4,-8.108067512512207,23.867599487304688,-33.7259407043457,-1.3763511180877686,-0.5013788342475891,-0.07995128631591797,0.079164445,-0.1569371,9.772026,1.4391613,-0.2567591,9.663658,0
3,985.6343994140625,-1.239178527612239E-4,2.9617472318932414E-4,8.898591622710228E-4,-8.108067512512207,23.867599487304688,-33.7259407043457,-1.3641512393951416,-0.495841383934021,-0.05587482452392578,0.072012484,-0.16170414,9.767293,1.4259454,-0.24560225,9.661144,0
3,985.63427734375,-4.1959091322496533E-4,-2.7934202807955444E-4,6.596709135919809E-4,-7.823114395141602,23.66022491455078,-33.6037483215332,-1.3535118103027344,-0.498590886592865,-0.0596923828125,0.06964034,-0.16647117,9.77203,1.4119773,-0.2703862,9.667386,0
3,985.63427734375,-4.1959091322496533E-4,-2.7934202807955444E-4,6.596709135919809E-4,-8.143095970153809,23.413414001464844,-33.77095413208008,-1.3571888208389282,-0.5060794949531555,-0.06350994110107422,0.076827794,-0.15455513,9.767297,1.4201064,-0.24713796,9.661888,0
3,985.6624145507812,-2.0288105588406324E-5,-4.12472290918231E-4,3.9328180719166994E-4,-8.030294418334961,23.676986694335938,-33.6497917175293,-1.3465368747711182,-0.5086962580680847,-0.057854652404785156,0.067285925,-0.14978905,9.762564,1.4071244,-0.23925029,9.659058,0
3,985.6446533203125,-2.8677505906671286E-4,-9.450762299820781E-4,-6.720550009049475E-4,-8.414190292358398,24.160263061523438,-33.464942932128906,-1.331047534942627,-0.5018473267555237,-0.05220317840576172,0.060133994,-0.15455605,9.757832,1.3938473,-0.22621344,9.656542,0
3,985.6521606445312,-4.2010407196357846E-4,-6.787325837649405E-4,5.262930644676089E-4,-8.144319534301758,24.044082641601562,-33.268775939941406,-1.320763349533081,-0.5094814896583557,-0.046622276306152344,0.06493151,-0.14502336,9.764935,1.3979319,-0.21956824,9.663166,0
3,985.6400756835938,6.449883221648633E-4,2.534007071517408E-4,-2.727278624661267E-4,-8.34152603149414,24.33352279663086,-33.25532150268555,-1.32929527759552,-0.507429838180542,-0.0646677017211914,0.06972909,-0.14264055,9.7649355,1.3986388,-0.20922254,9.663291,0
3,985.6702270507812,-4.2044633300974965E-4,-5.455191130749881E-4,-4.059591447003186E-4,-7.853278636932373,23.84259796142578,-33.455806732177734,-1.3328357934951782,-0.5048809051513672,-0.059009552001953125,0.07143307,-0.14500706,9.7554035,1.3904147,-0.2199937,9.654656,0
3,985.6393432617188,2.451724139973521E-4,3.866142360493541E-4,-2.728745457716286E-4,-7.927464962005615,23.667869567871094,-33.5881233215332,-1.3079732656478882,-0.4695051908493042,-0.07707595825195312,0.071422875,-0.1664563,9.769607,1.372365,-0.25752476,9.671004,0
3,985.6495971679688,-1.5438825357705355E-5,-1.3785669580101967E-5,-2.7042959118261933E-4,-8.537508010864258,23.99230194091797,-33.74404525756836,-1.3117592334747314,-0.4958001375198364,-0.033573150634765625,0.069022834,-0.14023991,9.748301,1.379146,-0.20255376,9.649389,0
4,985.6494750976562,6.51271257083863E-4,-9.460406727157533E-4,2.62596586253494E-4,-8.184999465942383,24.32205581665039,-33.27877426147461,-1.301468849182129,-0.48899132013320923,-0.042204856872558594,0.064232886,-0.1569226,9.755402,1.3586069,-0.23543853,9.658951,0
4,985.6547241210938,1.1873745825141668E-4,-1.3950979337096214E-5,9.284282568842173E-4,-8.035700798034668,23.40871810913086,-33.941200256347656,-1.2816295623779297,-0.4632446765899658,-0.05558490753173828,0.05705303,-0.16883875,9.762503,1.3425003,-0.23741215,9.668482,0
4,985.6497192382812,3.852490917779505E-4,-2.802986418828368E-4,-1.3675150694325566E-4,-8.419597625732422,23.891998291015625,-33.756351470947266,-1.2761633396148682,-0.48934417963027954,-0.05946540832519531,0.061822653,-0.15215556,9.764869,1.348453,-0.22957379,9.669985,0
4,985.6370239257812,0.0010511367581784725,5.186331109143794E-4,3.9592236862517893E-4,-8.210895538330078,23.87671661376953,-33.78761672973633,-1.284976840019226,-0.4629799723625183,-0.049137115478515625,0.068982214,-0.1616884,9.769602,1.3462272,-0.23076487,9.675249,0
4,985.6502685546875,3.8544490234926343E-4,-8.129621855914593E-4,-5.361412768252194E-4,-7.640554428100586,24.20001983642578,-33.81743621826172,-1.2792342901229858,-0.470660924911499,-0.05303192138671875,0.07375187,-0.16407146,9.760132,1.347711,-0.19809449,9.66628,0
4,985.652099609375,-4.1340471943840384E-4,3.854433889500797E-4,-9.355729562230408E-4,-8.060213088989258,22.858928680419922,-33.82826614379883,-1.2689595222473145,-0.4641062617301941,-0.02855968475341797,0.061792195,-0.17122109,9.762499,1.3194605,-0.25160378,9.671363,0
4,985.6522827148438,2.524828305467963E-4,-6.79836084600538E-4,-2.697413437999785E-4,-8.192365646362305,23.314266204833984,-33.21866989135742,-1.2725695371627808,-0.48118019104003906,-0.051364898681640625,0.07612145,-0.1545379,9.755396,1.3351814,-0.23103517,9.662366,0
4,985.6497192382812,-2.8005102649331093E-4,-5.466940347105265E-4,6.624060915783048E-4,-8.112632751464844,23.863178253173828,-33.4940299987793,-1.252795696258545,-0.4550262689590454,-0.03634166717529297,0.04982233,-0.16168745,9.762497,1.3070444,-0.20639467,9.6738825,0
4,985.6395263671875,7.853104616515338E-4,6.517116562463343E-4,1.2981629697605968E-4,-7.849148750305176,23.108963012695312,-33.41351318359375,-1.247304081916809,-0.46217840909957886,-0.05445289611816406,0.05937183,-0.15215416,9.769597,1.314059,-0.20806882,9.679962,0
4,985.6497192382812,2.527766046114266E-4,-5.467258160933852E-4,1.2985826469957829E-4,-8.510931015014648,24.175270080566406,-33.83583450317383,-1.2415354251861572,-0.45535188913345337,-0.044147491455078125,0.06653136,-0.15930359,9.764862,1.3093495,-0.22106495,9.675695,0
4,985.6349487304688,5.191902746446431E-4,-5.467416485771537E-4,-8.022053516469896E-4,-8.483267784118652,23.621662139892578,-33.73072052001953,-1.2359576225280762,-0.48189854621887207,-0.029135704040527344,0.06174141,-0.14977027,9.762493,1.301935,-0.22065663,9.674131,0
4,985.640380859375,1.1981447460129857E-4,6.516639259643853E-4,-2.6953156339004636E-4,-8.120105743408203,23.96173095703125,-33.80657958984375,-1.2274669408798218,-0.45960408449172974,-0.037372589111328125,0.07368076,-0.15930314,9.76486,1.3032091,-0.20732573,9.676877,0
4,985.6426391601562,2.5307026226073503E-4,-0.001212563132867217,2.6314205024391413E-4,-7.947656631469727,24.1229248046875,-33.380680084228516,-1.2292941808700562,-0.4442874789237976,-0.041687965393066406,0.06650087,-0.15453638,9.769593,1.2991399,-0.18384288,9.682547,0
4,985.6145629882812,3.863261081278324E-4,-4.1363140917383134E-4,-1.3628974556922913E-4,-7.911403656005859,23.946441650390625,-33.83784866333008,-1.2240227460861206,-0.4516093134880066,-0.031447410583496094,0.059321016,-0.15691938,9.748287,1.2825568,-0.18673824,9.663199,0
4,985.6349487304688,-1.3049750123172998E-5,6.516161956824362E-4,-2.6940583484247327E-4,-7.896460056304932,23.749343872070312,-33.21274185180664,-1.2285287380218506,-0.44955873489379883,-0.0307159423828125,0.068870485,-0.16168569,9.771958,1.2865353,-0.1938211,9.686555,0
4,985.6605224609375,5.196799756959081E-4,-2.8050527907907963E-4,2.6326795341446996E-4,-8.247692108154297,24.421485900878906,-33.428897857666016,-1.2274610996246338,-0.4616616368293762,-0.05355548858642578,0.06886032,-0.1569189,9.76959,1.2823775,-0.18841988,9.684744,0
4,985.6395263671875,1.20303884614259E-4,1.1895259376615286E-4,1.3015198055654764E-4,-8.108610153198242,24.235885620117188,-33.82439422607422,-1.2125120162963867,-0.43607550859451294,-0.043341636657714844,0.06646025,-0.16645177,9.755386,1.2683376,-0.1945972,9.672288,0
4,985.6123046875,-6.785458535887301E-4,-1.4221121091395617E-5,1.3019394828006625E-4,-7.927327632904053,23.773788452148438,-34.28719711303711,-1.2070550918579102,-0.4439561367034912,-0.028392791748046875,0.06884,-0.15930171,9.745916,1.2662194,-0.19360363,9.6629305,0
4,985.6477661132812,-4.1213195072486997E-4,9.178683976642787E-4,-2.9219663701951504E-6,-7.824093341827393,23.290462493896484,-33.42799377441406,-1.2069039344787598,-0.4324973225593567,-0.027696609497070312,0.078389436,-0.16645129,9.753017,1.2667149,-0.20437357,9.669999,0
4,985.6298828125,-6.783500430174172E-4,-1.4741087215952575E-4,-1.3603799743577838E-4,-7.938960075378418,23.39371109008789,-33.57030487060547,-1.2106380462646484,-0.4448707699775696,-0.026899337768554688,0.0783793,-0.1521513,9.76722,1.2690536,-0.19326082,9.68401,0
4,985.67333984375,-1.2462318409234285E-5,1.1888903100043535E-4,3.96635674405843E-4,-8.312202453613281,23.887306213378906,-33.92659378051758,-1.1814732551574707,-0.4381052255630493,-0.030900001525878906,0.061639816,-0.15215106,9.7506485,1.2487779,-0.1707529,9.670237,0
4,985.6497192382812,3.8710946682840586E-4,2.520310808904469E-4,-5.354278837330639E-4,-7.684171676635742,23.36871337890625,-33.300167083740234,-1.180741310119629,-0.43135082721710205,-0.03487586975097656,0.061629653,-0.17360033,9.764851,1.2331439,-0.19887769,9.686384,0
4,985.637939453125,-1.2266449630260468E-5,-1.430066186003387E-5,-6.685439147986472E-4,-8.161765098571777,23.869949340820312,-33.64082336425781,-1.18498957157135,-0.43877196311950684,-0.038872718811035156,0.06400943,-0.15215059,9.767218,1.2400305,-0.18139666,9.68789,0
4,985.63525390625,-1.4532654313370585E-4,-2.8063240461051464E-4,-2.6902806712314487E-4,-8.568215370178223,24.54296112060547,-33.69455337524414,-1.1891858577728271,-0.4463618993759155,-0.023939132690429688,0.075975716,-0.14976771,9.75775,1.2427258,-0.19736594,9.677736,0
4,985.6273193359375,-4.115444025956094E-4,7.846152293495834E-4,-2.6898604119196534E-4,-8.372966766357422,23.513996124267578,-33.35649490356445,-1.169569969177246,-0.4256305694580078,-0.023235321044921875,0.06643444,-0.17360093,9.755384,1.2215574,-0.1849539,9.678619,0
5,985.6429443359375,2.538143889978528E-4,-5.468943272717297E-4,-1.3601273531094193E-4,-7.969666957855225,23.944374084472656,-33.520809173583984,-1.1785598993301392,-0.42358124256134033,-0.03197479248046875,0.07598594,-0.16406767,9.75775,1.2306,-0.16934822,9.680047,0
5,985.6432495117188,2.5389291113242507E-4,5.183565081097186E-4,3.966525546275079E-4,-7.554765701293945,23.542564392089844,-33.33028030395508,-1.173486351966858,-0.43568217754364014,-0.050209999084472656,0.07597774,-0.16168417,9.771954,1.225565,-0.18392442,9.694696,0
5,985.6432495117188,2.5389291113242507E-4,5.183565081097186E-4,3.966525546275079E-4,-8.179890632629395,23.958187103271484,-33.412235260009766,-1.1583073139190674,-0.4239633083343506,-0.039978981018066406,0.07118982,-0.1616839,9.774319,1.2178149,-0.16633633,9.698339,0
5,985.6455078125,3.8712937384843826E-4,-1.428800169378519E-5,2.63528258074075E-4,-7.810096740722656,23.935855865478516,-33.69887161254883,-1.1575093269348145,-0.4311458468437195,-0.02974700927734375,0.07357159,-0.15215068,9.753014,1.2154123,-0.16035442,9.677133,0
5,985.6304321289062,5.566161125898361E-4,-5.668684025295079E-4,1.640916452743113E-4,-7.859228610992432,23.942623138427734,-33.84566116333008,-1.1231803894042969,-0.4290841817855835,-0.019530296325683594,0.061613917,-0.1545337,9.757748,1.1963302,-0.17186128,9.684037,0
5,985.6611328125,0.0010893263388425112,-0.0010995129123330116,1.641253475099802E-4,-8.27510929107666,23.974666595458984,-33.860435485839844,-1.132178783416748,-0.4269322156906128,-0.037749290466308594,0.06160575,-0.15453346,9.769583,1.1941453,-0.15636852,9.696493,0
5,985.6582641601562,1.5729936421848834E-4,9.889576176647097E-5,-5.016308277845383E-4,-8.377778053283691,24.51000213623047,-32.798160552978516,-1.1220375299453735,-0.4104663133621216,-0.037034034729003906,0.0663774,-0.17121632,9.762481,1.1834276,-0.17637342,9.690622,0
5,985.6483154296875,6.900096777826548E-4,-1.6743283777032048E-4,1.6419263556599617E-4,-8.4043550491333,24.327030181884766,-32.70637130737305,-1.1263806819915771,-0.4035841226577759,-0.03160572052001953,0.05919957,-0.16168298,9.76248,1.1764554,-0.1610382,9.691526,0
5,985.6432495117188,6.900882581248879E-4,-1.6744559979997575E-4,3.106833901256323E-5,-8.3671236038208,24.520313262939453,-33.339298248291016,-1.1119636297225952,-0.41102099418640137,-0.030953407287597656,0.06636113,-0.15691616,9.764847,1.1787944,-0.16843472,9.693469,0
5,985.6201782226562,4.23850811785087E-4,8.97805264685303E-4,-5.015297792851925E-4,-8.13921070098877,23.680206298828125,-33.40224075317383,-1.116593360900879,-0.41364479064941406,-0.025560379028320312,0.06635293,-0.15453269,9.757744,1.1717745,-0.179133,9.686935,0
5,985.620849609375,2.9077150975354016E-4,3.651606966741383E-4,-6.346540758386254E-4,-8.22641372680664,23.229846954345703,-33.43943786621094,-1.1018009185791016,-0.4115965962409973,-0.015408515930175781,0.049615502,-0.16406564,9.760111,1.1479748,-0.17492168,9.692301,0
5,985.6329956054688,9.566398803144693E-4,8.97779653314501E-4,-3.683045506477356E-4,-8.46277904510498,23.798744201660156,-33.51328659057617,-1.1112674474716187,-0.40947598218917847,-0.014764785766601562,0.06872657,-0.14976574,9.753008,1.1688608,-0.14506045,9.683027,0
5,985.6515502929688,6.904024630784988E-4,-1.674966188147664E-4,2.9751891270279884E-4,-8.053528785705566,24.12909698486328,-33.28774642944336,-1.101263403892517,-0.41215968132019043,-0.01882171630859375,0.07110828,-0.15453209,9.757742,1.1621969,-0.16160704,9.688429,0
5,985.6162109375,-7.74177722632885E-4,-3.4364144084975123E-5,3.127031959593296E-5,-7.854258060455322,23.47283935546875,-33.28004837036133,-1.0955445766448975,-0.4055395722389221,-0.037044525146484375,0.06632036,-0.1592985,9.769577,1.1523567,-0.15487106,9.701675,0
5,985.6109008789062,4.243222938384861E-4,-0.001365956268273294,-2.3501180112361908E-4,-7.38011360168457,23.44286346435547,-33.58231735229492,-1.0855786800384521,-0.4132484197616577,-0.036393165588378906,0.061532438,-0.14976515,9.776677,1.1501484,-0.12504393,9.709333,0
5,985.6488037109375,5.57558611035347E-4,9.876828698907048E-5,3.133760765194893E-5,-7.533297538757324,24.08940887451172,-33.28860092163086,-1.0707722902297974,-0.43016940355300903,-0.026251792907714844,0.056744456,-0.14023186,9.75774,1.143247,-0.104342446,9.6911545,0
5,985.6519775390625,1.5816339873708785E-4,-5.670341779477894E-4,-6.344183348119259E-4,-7.6123480796813965,23.278121948242188,-33.61387252807617,-1.0799839496612549,-0.394936203956604,-0.011407852172851562,0.07585549,-0.15453137,9.750637,1.1451762,-0.14644048,9.683578,0
5,985.6259765625,-2.4123184266500175E-4,-4.33889013947919E-4,-2.3491098545491695E-4,-7.928689002990723,24.29853057861328,-33.085941314697266,-1.0793406963348389,-0.3832511305809021,-0.015456199645996094,0.07584739,-0.16168095,9.755371,1.1382606,-0.13991301,9.689373,0
5,985.6515502929688,5.577944684773684E-4,6.313617341220379E-4,-1.0171916801482439E-4,-8.125214576721191,24.325599670410156,-33.67311477661133,-1.069695234298706,-0.405060350894928,-0.0243072509765625,0.06388974,-0.14976431,9.776675,1.1292013,-0.13291998,9.7117,0
5,985.62158203125,9.573467541486025E-4,2.318752376595512E-4,3.147241659462452E-5,-7.841240882873535,23.74846649169922,-33.37516784667969,-1.0597140789031982,-0.41722655296325684,-0.023653030395507812,0.063881546,-0.14738093,9.764837,1.1235493,-0.12846304,9.700465,0
5,985.6416015625,2.5319779524579644E-5,-3.445343463681638E-5,4.309798532631248E-4,-8.175868034362793,24.330894470214844,-33.74260330200195,-1.05922269821167,-0.3916272521018982,-0.027749061584472656,0.06387338,-0.15214725,9.764837,1.115626,-0.13425566,9.701374,0
5,985.6239624023438,2.9171418282203376E-4,-3.0078209238126874E-4,-7.674080552533269E-4,-8.155814170837402,23.769920349121094,-33.2509651184082,-1.0639303922653198,-0.3940182328224182,-0.031856536865234375,0.07581478,-0.1545303,9.764836,1.118743,-0.14912532,9.70092,0
5,985.6239624023438,5.581086734309793E-4,8.976266835816205E-4,-1.0158459190279245E-4,-7.878877639770508,24.02939224243164,-33.53977584838867,-1.0544368028640747,-0.37810856103897095,-0.017086029052734375,0.068636894,-0.16406329,9.762468,1.1048963,-0.13803688,9.70039,0
5,985.6416015625,-3.739183594007045E-4,7.644559373147786E-4,-5.010247696191072E-4,-7.856620788574219,23.20751190185547,-33.72606658935547,-1.035302758216858,-0.38559186458587646,-0.016489028930664062,0.06664303,-0.15215658,9.757771,1.1008154,-0.14235686,9.695857,0
6,985.6495971679688,2.2741471184417605E-5,9.912300447467715E-5,3.0401046387851238E-5,-7.962738037109375,24.214111328125,-33.306705474853516,-1.0215343236923218,-0.379347026348114,0.0029582977294921875,0.04794395,-0.15216692,9.760176,1.0817057,-0.11367731,9.700695,0
6,985.6119384765625,-3.816881508100778E-4,8.988752379082143E-4,5.609089857898653E-4,-7.979097366333008,23.30339813232422,-33.481849670410156,-1.0316091775894165,-0.3963676691055298,-0.015440940856933594,0.062307477,-0.14978422,9.767281,1.0893505,-0.1370353,9.706731,0
6,985.6395263671875,4.170275351498276E-4,0.001165228895843029,2.8177688363939524E-5,-8.085077285766602,24.415912628173828,-33.76156997680664,-1.0218080282211304,-0.380062460899353,-0.01483154296875,0.05994165,-0.14978479,9.7601795,1.0831473,-0.11784594,9.700518,0
6,985.6067504882812,-1.1583624291233718E-4,-5.657867877744138E-4,2.8078327886760235E-5,-8.418756484985352,24.155845642089844,-33.233028411865234,-1.021736979484558,-0.37346798181533813,-0.02372264862060547,0.06713542,-0.15455194,9.76255,1.0807444,-0.13916531,9.703011,0
6,985.6272583007812,-3.8238425622694194E-4,-3.311736509203911E-5,1.6113673336803913E-4,-7.961216449737549,24.21558380126953,-33.38401412963867,-1.0357807874679565,-0.3812941908836365,-0.008927345275878906,0.07910895,-0.1569358,9.762552,1.0872592,-0.12726395,9.702575,0
6,985.62744140625,-6.489319493994117E-4,-3.307973383925855E-5,-3.715944476425648E-4,-8.035945892333984,24.40914535522461,-33.61478042602539,-1.0118354558944702,-0.36554014682769775,-0.0036420822143554688,0.06957343,-0.15693642,9.767288,1.0744054,-0.121604845,9.708773,0
6,985.6248779296875,1.4978370745666325E-4,7.659055409021676E-4,-3.7169374991208315E-4,-7.771481990814209,24.024696350097656,-33.710018157958984,-1.0116935968399048,-0.3683775067329407,-0.02673053741455078,0.067207634,-0.16885339,9.769658,1.06237,-0.12762186,9.712585,0
6,985.6292724609375,2.827095740940422E-4,1.0015351290348917E-4,2.7680653147399426E-5,-8.214483261108398,24.24205780029297,-33.7314567565918,-0.9974397420883179,-0.36186087131500244,-0.01671314239501953,0.0624519,-0.16408743,9.757824,1.0525403,-0.13260823,9.701573,0
6,985.6272583007812,2.82477616565302E-4,8.991389186121523E-4,2.938972320407629E-4,-8.242039680480957,23.68932342529297,-33.46391296386719,-0.9978493452072144,-0.35515880584716797,-0.030391693115234375,0.06964567,-0.16408803,9.779131,1.0553232,-0.14415309,9.722588,0
6,985.6197509765625,2.8224565903656185E-4,1.0022889182437211E-4,-2.38833948969841E-4,-7.904230117797852,23.215755462646484,-33.95016860961914,-0.973707914352417,-0.38630038499832153,-0.0013856887817382812,0.045770705,-0.14740564,9.760197,1.0357758,-0.10536551,9.705737,0
6,985.6323852539062,1.4885564451105893E-4,1.0026655218098313E-4,6.931719835847616E-4,-8.305953979492188,24.419414520263672,-33.11186599731445,-0.9927781820297241,-0.3799973726272583,-0.01978015899658203,0.07447359,-0.15217282,9.769667,1.053769,-0.13290007,9.713239,0
6,985.6400756835938,-3.8400813355110586E-4,-3.285380080342293E-5,-9.048226056620479E-4,-8.186820030212402,23.688453674316406,-33.626338958740234,-0.9879103899002075,-0.3781551718711853,-0.0050182342529296875,0.06254816,-0.14502354,9.7602005,1.0411841,-0.11294262,9.705136,0
6,985.6248779296875,2.8154978645034134E-4,3.6665768129751086E-4,-1.0597455548122525E-4,-8.043853759765625,23.769641876220703,-33.65312194824219,-0.9786758422851562,-0.37145566940307617,-0.009229660034179688,0.06735206,-0.14979066,9.755468,1.0389757,-0.10959309,9.700755,0
6,985.6299438476562,2.8131765429861844E-4,8.993271621875465E-4,-5.055477377027273E-4,-7.697731971740723,23.46137237548828,-33.303497314453125,-0.9783828854560852,-0.35993701219558716,-0.013383865356445312,0.06259632,-0.15455778,9.772041,1.0289189,-0.111687765,9.71851,0
6,985.6299438476562,2.8131765429861844E-4,8.993271621875465E-4,-5.055477377027273E-4,-7.974233150482178,23.939956665039062,-33.28889465332031,-0.9736385345458984,-0.36295491456985474,-0.012848854064941406,0.06740016,-0.16409151,9.767307,1.0213473,-0.13815542,9.714398,0
6,985.6249389648438,1.4792769798077643E-4,-0.0013643201673403382,-5.056471563875675E-4,-8.294214248657227,23.693145751953125,-33.45610046386719,-0.9594045877456665,-0.36644285917282104,-0.002880096435546875,0.060254544,-0.14979245,9.757843,1.0164484,-0.11619064,9.705406,0
6,985.6453857421875,-5.180938169360161E-4,8.994024829007685E-4,2.9320118483155966E-4,-7.980619430541992,23.301925659179688,-33.404544830322266,-0.9545358419418335,-0.3600034713745117,-0.02128124237060547,0.057888746,-0.15694286,9.774414,1.0090253,-0.10955715,9.723015,0
6,985.6681518554688,-3.851679211948067E-4,-1.6582341049797833E-4,-1.0637205559760332E-4,-8.314949035644531,24.516490936279297,-33.347110748291016,-0.9645397663116455,-0.338967502117157,-0.0065765380859375,0.06508249,-0.15932675,9.755479,1.0081396,-0.11017659,9.70415,0
6,985.6351318359375,2.4192262208089232E-4,6.353678181767464E-4,-2.9455404728651047E-6,-8.07456111907959,24.320308685302734,-33.6036262512207,-0.9452441930770874,-0.3609808087348938,-0.006030082702636719,0.060326755,-0.14264442,9.760216,1.0071721,-0.084882386,9.708977,0
6,985.6531982421875,-2.9094115598127246E-4,1.0277365799993277E-4,9.290605084970593E-4,-7.934638977050781,24.398555755615234,-33.475799560546875,-0.9358776807785034,-0.3450142741203308,-0.01026153564453125,0.050791204,-0.15932791,9.767319,0.9871549,-0.09649532,9.718267,0
6,985.6427612304688,-2.4857174139469862E-5,-3.034659312106669E-5,2.631712704896927E-4,-7.76248836517334,23.9276123046875,-33.47477340698242,-0.9264228343963623,-0.3480406403541565,-2.803802490234375E-4,0.06276479,-0.15217869,9.757853,0.99425566,-0.10272758,9.70792,0
6,985.6531982421875,-1.5824718866497278E-4,-2.9662478482350707E-4,5.293877329677343E-4,-8.09518814086914,24.037315368652344,-33.12198257446289,-0.9360431432723999,-0.3608201742172241,2.2029876708984375E-4,0.062788844,-0.1450295,9.76259,0.9919154,-0.10646735,9.71277,0
6,985.6429443359375,3.741524997167289E-4,-2.9658718267455697E-4,3.961304319091141E-4,-8.180870056152344,23.588424682617188,-33.23648452758789,-0.9266530275344849,-0.34468626976013184,0.0054607391357421875,0.06520283,-0.15217988,9.746021,0.9864631,-0.091767706,9.696949,0
6,985.6558837890625,-9.576588054187596E-4,3.6924018058925867E-4,-1.3660069089382887E-4,-7.553244113922119,23.544036865234375,-33.40758514404297,-0.9456237554550171,-0.3382394313812256,-0.0034837722778320312,0.074786484,-0.16171356,9.764961,0.9867156,-0.11267668,9.7159605,0
6,985.6507568359375,1.0737276170402765E-4,-2.965118328575045E-4,-4.030158743262291E-4,-8.177390098571777,24.329421997070312,-33.66529846191406,-0.9208035469055176,-0.3320508599281311,0.011302947998046875,0.068591565,-0.1640621,9.7529955,0.9746078,-0.110276446,9.705181,0
7,985.648193359375,3.8343184860423207E-4,-5.631367093883455E-4,2.6919791707769036E-4,-7.725800514221191,24.48918914794922,-34.20614242553711,-0.9206075668334961,-0.34944844245910645,0.0023555755615234375,0.07333833,-0.15452822,9.764829,0.9806656,-0.08668319,9.716579,0
7,985.64306640625,-5.466730799525976E-4,-5.634615663439035E-4,4.032133729197085E-4,-8.32796573638916,24.240859985351562,-33.25199508666992,-0.9108758568763733,-0.3384243845939636,-0.011341094970703125,0.05896589,-0.15691064,9.771928,0.9604135,-0.102279566,9.725524,0
7,985.6483154296875,-1.3722863513976336E-5,-4.3035525595769286E-4,3.875873517245054E-6,-8.185436248779297,23.584007263183594,-33.00457000732422,-0.9060914516448975,-0.3367961049079895,-0.001373291015625,0.05893284,-0.15690987,9.760088,0.9537258,-0.10645044,9.714242,0
7,985.6456909179688,-5.460361717268825E-4,-5.635649431496859E-4,4.012428689748049E-6,-8.088558197021484,23.674915313720703,-33.3327522277832,-0.9110816121101379,-0.3207871913909912,-8.916854858398438E-4,0.07323924,-0.17120872,9.762451,0.956028,-0.12082984,9.71656,0
7,985.645751953125,2.5322980945929885E-4,1.0217310045845807E-4,2.7046474860981107E-4,-7.8928728103637695,23.38399887084961,-33.26890182495117,-0.9061696529388428,-0.33807677030563354,0.009087562561035156,0.07320619,-0.15929149,9.745879,0.9548291,-0.10695382,9.699987,0
7,985.645751953125,1.2039020657539368E-4,2.352793817408383E-4,6.700750673189759E-4,-8.357585906982422,24.054946899414062,-33.00559616088867,-0.887543797492981,-0.3172919750213623,0.019008636474609375,0.061223686,-0.17359038,9.748243,0.93316257,-0.11695797,9.704517,0
7,985.645751953125,2.538666012696922E-4,1.020697527565062E-4,4.0389556670561433E-4,-8.342504501342773,23.963760375976562,-33.07957077026367,-0.9069309234619141,-0.34422576427459717,0.010005950927734375,0.08030987,-0.1521401,9.7435055,0.9544242,-0.106514506,9.69759,0
7,985.6388549804688,2.54184880759567E-4,9.009657660499215E-4,-3.9491552161052823E-4,-7.8834428787231445,24.02497100830078,-33.307857513427734,-0.8931164741516113,-0.323215126991272,0.0057277679443359375,0.06832737,-0.15213926,9.755339,0.9418972,-0.08461697,9.710825,0
7,985.6158447265625,5.208191578276455E-4,3.6828225711360574E-4,-2.6162114227190614E-4,-8.021437644958496,23.47399139404297,-32.7154655456543,-0.8791183233261108,-0.3357502818107605,0.010924339294433594,0.0635145,-0.1497552,9.762438,0.9335653,-0.09102535,9.718633,0
7,985.6337890625,-1.1494208592921495E-5,6.345465080812573E-4,5.374629399739206E-4,-8.214620590209961,24.136138916015625,-33.032379150390625,-0.884292721748352,-0.3150903582572937,-0.007569313049316406,0.07065117,-0.15928747,9.764802,0.93180263,-0.09836332,9.721306,0
7,985.6312866210938,-1.4433375326916575E-4,1.0186299914494157E-4,4.967616405338049E-6,-7.882356643676758,23.28839111328125,-33.110958099365234,-0.8703055381774902,-0.33270949125289917,0.007073402404785156,0.06583834,-0.14975353,9.750595,0.9254958,-0.08963983,9.707538,0
7,985.6334228515625,-8.098050602711737E-4,-2.9766251100227237E-4,-1.280538854189217E-4,-8.104182243347168,24.13439178466797,-33.35723114013672,-0.8702510595321655,-0.31704020500183105,0.0075397491455078125,0.058635592,-0.16166909,9.757694,0.9102447,-0.09017648,9.716249,0
7,985.6410522460938,5.220927996560931E-4,-2.9771417030133307E-4,5.240552127361298E-6,-8.003716468811035,23.859954833984375,-33.741573333740234,-0.870842456817627,-0.31018948554992676,-0.015684127807617188,0.07055205,-0.15690179,9.781363,0.9204234,-0.09276943,9.739038,0
7,985.6362915039062,7.887269603088498E-4,-3.144997754134238E-5,6.711665773764253E-4,-8.061842918395996,23.963802337646484,-34.12361526489258,-0.8708573579788208,-0.3083491921424866,0.0037326812744140625,0.075298846,-0.16881733,9.755321,0.911896,-0.106296875,9.713784,0
7,985.6365966796875,-1.4306022785604E-4,2.3481424432247877E-4,1.3867119560018182E-4,-8.173803329467773,23.964080810546875,-33.72146224975586,-0.8619645833969116,-0.32099610567092896,0.032553672790527344,0.0680961,-0.15690015,9.743481,0.90498006,-0.09394204,9.7024145,0
7,985.616455078125,1.2357404921203852E-4,-1.647112803766504E-4,4.051236901432276E-4,-8.325900077819824,23.874046325683594,-33.2308464050293,-0.8573538064956665,-0.3145901560783386,-0.0048694610595703125,0.06567317,-0.16166587,9.760049,0.8970251,-0.10057279,9.719786,0
7,985.6491088867188,3.902082680724561E-4,-5.642367759719491E-4,-6.600034539587796E-4,-8.057552337646484,23.756389617919922,-32.95737838745117,-0.84794020652771,-0.3083428144454956,0.009777069091796875,0.07519975,-0.16166507,9.762413,0.9019225,-0.095674284,9.721826,0
7,985.6388549804688,1.2421089923009276E-4,6.341330008581281E-4,-7.930248393677175E-4,-7.86629581451416,23.566970825195312,-33.36068344116211,-0.8341655731201172,-0.3021804094314575,7.13348388671875E-4,0.058437407,-0.1640475,9.764777,0.88232857,-0.083816186,9.72603,0
7,985.6315307617188,-0.0013402081094682217,-1.6486634558532387E-4,4.055330064147711E-4,-7.995265960693359,24.13116455078125,-33.60477828979492,-0.8443382382392883,-0.29126816987991333,0.015315055847167969,0.070353866,-0.17596315,9.757672,0.8830711,-0.098704495,9.718979,0
7,985.6187133789062,2.580055734142661E-4,0.0010335034457966685,2.7251156279817224E-4,-8.543596267700195,23.986412048339844,-33.43482971191406,-0.8400571346282959,-0.2942120432853699,0.02047443389892578,0.07749051,-0.16404592,9.755302,0.8894161,-0.09414536,9.715909,0
7,985.644287109375,6.577976164408028E-4,3.6766205448657274E-4,1.3949000276625156E-4,-8.235652923583984,24.327354431152344,-33.348262786865234,-0.8306626081466675,-0.3021887540817261,0.016176223754882812,0.0631181,-0.15927859,9.767136,0.8732228,-0.09856911,9.729031,0
7,985.6113891601562,2.586421906016767E-4,-4.313373065087944E-4,-5.26163203176111E-4,-8.31318187713623,23.517539978027344,-33.75083541870117,-0.8264601230621338,-0.2863500714302063,0.0023736953735351562,0.06308508,-0.17119415,9.767133,0.8648011,-0.097729124,9.729993,0
7,985.6141967773438,1.2580276234075427E-4,-5.645469063892961E-4,4.0607881965115666E-4,-8.009262084960938,23.485774993896484,-33.33390426635742,-0.8221570253372192,-0.29912543296813965,0.0027818679809570312,0.06544191,-0.1545104,9.760028,0.87010616,-0.07116413,9.722355,0
7,985.5936889648438,-4.0651060407981277E-4,5.006649298593402E-4,6.741436664015055E-6,-7.949178218841553,24.12145233154297,-33.303375244140625,-0.827549159526825,-0.2879487872123718,0.012650489807128906,0.07577407,-0.1616791,9.7600975,0.87201893,-0.081538916,9.7223625,0
7,985.6240844726562,2.5574449682608247E-4,-1.6455099103040993E-4,-7.937211194075644E-4,-8.01795768737793,24.214988708496094,-33.144283294677734,-0.8343403339385986,-0.29594212770462036,0.01764392852783203,0.078985035,-0.1640826,9.764908,0.86928827,-0.08919216,9.727433,0
8,985.624755859375,-1.925890683196485E-5,-4.315259284339845E-4,6.636368343606591E-4,-8.322420120239258,24.61504364013672,-33.659664154052734,-0.8299139738082886,-0.29459816217422485,-8.945465087890625E-4,0.08140665,-0.15931676,9.767279,0.8679027,-0.09687983,9.729805,0
8,985.624755859375,-1.925890683196485E-5,-4.315259284339845E-4,6.636368343606591E-4,-8.582891464233398,24.159942626953125,-32.823055267333984,-0.7970544695854187,-0.2929611802101135,0.023172378540039062,0.06231913,-0.17123403,9.7483425,0.84221196,-0.07179401,9.713337,0
8,985.6138916015625,3.7990944110788405E-4,-2.983183949254453E-4,-1.3544171815738082E-4,-7.788767337799072,24.376781463623047,-32.95811462402344,-0.8215147852897644,-0.29145348072052,-1.125335693359375E-4,0.079080135,-0.14978527,9.774385,0.8640098,-0.05856116,9.737422,0
8,985.6318359375,-5.525016458705068E-4,3.6752093001268804E-4,3.970590769313276E-4,-7.938226222991943,24.763900756835938,-33.419639587402344,-0.7936136722564697,-0.30422264337539673,0.028665542602539062,0.06477243,-0.15931918,9.748348,0.8391589,-0.078261495,9.71337,0
8,985.6068725585938,-2.017532824538648E-5,-2.982192381750792E-4,-6.683352985419333E-4,-8.048419952392578,23.765228271484375,-33.421207427978516,-0.7989217042922974,-0.293363094329834,0.010105133056640625,0.067194015,-0.14978682,9.760188,0.84189594,-0.07149938,9.724934,0
8,985.6244506835938,-8.194284746423364E-4,6.339357933029532E-4,6.631131400354207E-4,-7.9479546546936035,23.49079132080078,-33.8055534362793,-0.7855222821235657,-0.30591970682144165,0.019937515258789062,0.06483585,-0.14978759,9.757824,0.83569396,-0.06617853,9.723118,0
8,985.6272583007812,3.914620610885322E-4,-1.8371426267549396E-4,-9.126871591433883E-4,-8.22209358215332,24.234691619873047,-33.34492874145508,-0.8003401756286621,-0.2851942181587219,0.015596389770507812,0.076817036,-0.15693815,9.757827,0.83827543,-0.0834788,9.722966,0
8,985.6318359375,6.574724684469402E-4,3.489671216811985E-4,1.5244539827108383E-4,-8.643082618713379,24.63060760498047,-33.22623825073242,-0.7917520999908447,-0.28838855028152466,-0.0029897689819335938,0.07445881,-0.14978911,9.755463,0.8350705,-0.07406941,9.720813,0
8,985.65966796875,2.5769317289814353E-4,4.821746551897377E-4,-1.140013337135315E-4,-8.06600284576416,23.48517608642578,-33.094173431396484,-0.7781517505645752,-0.28211361169815063,0.016309738159179688,0.0697107,-0.16408964,9.757833,0.8227939,-0.058980927,9.724537,0
8,985.6392822265625,1.2422975851222873E-4,-3.1672342447564006E-4,2.85341520793736E-4,-7.632103443145752,24.471233367919922,-33.68064498901367,-0.7790170907974243,-0.29036545753479004,0.016651153564453125,0.06974241,-0.15694048,9.764936,0.82044256,-0.07452027,9.731639,0
8,985.6471557617188,-4.0870747761800885E-4,0.0010149055160582066,2.852106117643416E-4,-8.25157642364502,24.154693603515625,-33.797611236572266,-0.7794154286384583,-0.2790567874908447,0.012311935424804688,0.07933372,-0.16647442,9.760206,0.8193668,-0.09188181,9.727065,0
8,985.6650390625,-2.761604846455157E-4,-7.160485256463289E-4,1.8632912542670965E-5,-7.85493803024292,23.735210418701172,-32.67942428588867,-0.7706608176231384,-0.27790963649749756,0.012647628784179688,0.07219571,-0.15455882,9.753107,0.8146948,-0.06250902,9.720318,0
8,985.6318359375,-4.096238990314305E-4,4.8242256161756814E-4,-7.80445639975369E-4,-7.854800701141357,23.84112548828125,-33.37849807739258,-0.7668837308883667,-0.2907066345214844,0.008249282836914062,0.06744757,-0.14979304,9.762579,0.80908966,-0.05587949,9.730221,0
8,985.6574096679688,2.5586033007130027E-4,8.299833280034363E-5,-3.811027854681015E-4,-7.847870826721191,24.110862731933594,-33.16439437866211,-0.7580113410949707,-0.2699965238571167,0.032283782958984375,0.06747928,-0.15694363,9.753113,0.801323,-0.05739747,9.72147,0
8,985.6248779296875,0.0010545025579631329,3.4936380689032376E-4,1.82401854544878E-5,-7.9289870262146,23.666397094726562,-33.51081466674805,-0.753990888595581,-0.27751636505126953,0.023187637329101562,0.06990087,-0.15217789,9.762585,0.80111194,-0.062913164,9.730898,0
8,985.6395263671875,6.547232042066753E-4,-8.490080945193768E-4,-2.482065465301275E-4,-7.854800701141357,23.84112548828125,-33.37849807739258,-0.7595705986022949,-0.27137887477874756,-1.4591217041015625E-4,0.074712366,-0.164095,9.769689,0.7973405,-0.06985306,9.738516,0
8,985.6471557617188,-1.4452991308644414E-4,-1.8316875502932817E-4,2.842942485585809E-4,-7.856322288513184,23.83965301513672,-33.30119705200195,-0.7363163232803345,-0.29374808073043823,0.02861309051513672,0.06040466,-0.14264633,9.743652,0.78676456,-0.04367972,9.712973,0
8,985.6301879882812,-2.7799332747235894E-4,-8.489089086651802E-4,-1.153105404227972E-4,-8.346933364868164,24.06525421142578,-33.54673385620117,-0.7464666366577148,-0.27334123849868774,0.005288124084472656,0.07238585,-0.1545635,9.760225,0.7887718,-0.07005494,9.729546,0
8,985.6119384765625,-4.1145674185827374E-4,2.1640417980961502E-4,1.771643292158842E-5,-8.143775939941406,23.67578887939453,-33.170326232910156,-0.7285581231117249,-0.25795453786849976,0.024518966674804688,0.0724175,-0.16648062,9.764963,0.780607,-0.078312896,9.735091,0
8,985.6248779296875,-9.443939779885113E-4,7.490854477509856E-4,1.7585582099854946E-5,-7.700775623321533,23.45842742919922,-33.14889144897461,-0.7439851760864258,-0.2663477063179016,0.029555320739746094,0.06766945,-0.16171487,9.750763,0.7742512,-0.061245628,9.721363,0
8,985.6473999023438,2.5372201343998313E-4,8.334542508237064E-5,1.7454614862799644E-5,-8.092985153198242,23.776412963867188,-33.7999153137207,-0.7258632183074951,-0.27457815408706665,0.02986907958984375,0.07009101,-0.16171564,9.753133,0.7719438,-0.07010792,9.723881,0
8,985.6123657226562,-5.455311038531363E-4,8.339507621712983E-5,-9.147818200290203E-4,-8.071952819824219,23.585205078125,-33.48403549194336,-0.7221482992172241,-0.26380449533462524,0.006500244140625,0.07012272,-0.15933312,9.769707,0.77032804,-0.06804485,9.740608,0
8,985.6530151367188,-2.795206964947283E-4,8.34446691442281E-5,-3.822810249403119E-4,-8.1026611328125,24.1358642578125,-33.43453598022461,-0.7326046228408813,-0.2573380470275879,0.021038055419921875,0.074934214,-0.16410048,9.762608,0.76849025,-0.06748833,9.73375,0
8,985.6146850585938,9.185952949337661E-4,3.498100850265473E-4,2.8337776893749833E-4,-8.644604682922363,24.629135131835938,-33.14893341064453,-0.7281895279884338,-0.251125693321228,0.016674041748046875,0.07439497,-0.16647054,9.760191,0.7620002,-0.07663726,9.731807,0
9,985.6348876953125,-0.0010729733621701598,8.072296623140574E-5,-5.160391447134316E-4,-8.214483261108398,24.24205780029297,-33.7314567565918,-0.7197140455245972,-0.26442402601242065,0.02643108367919922,0.072013915,-0.15455435,9.760192,0.76159394,-0.058336884,9.731751,0
9,985.6299438476562,-2.720993070397526E-4,2.135681570507586E-4,-1.157397055067122E-4,-7.95222282409668,24.118507385253906,-33.14876174926758,-0.7014766931533813,-0.2727404236793518,0.03147602081298828,0.06724298,-0.1474048,9.753091,0.7561043,-0.04194048,9.724998,0
9,985.6197509765625,-1.3902693171985447E-4,-5.853656330145895E-4,-6.484081386588514E-4,-8.207010269165039,24.143508911132812,-33.41890335083008,-0.712083101272583,-0.2571702003479004,0.012837409973144531,0.06486201,-0.1640879,9.767296,0.7437942,-0.06248013,9.740332,0
9,985.6295166015625,2.603613829705864E-4,6.130696856416762E-4,-7.81602633651346E-4,-8.040512084960938,24.40472412109375,-33.38286209106445,-0.698786735534668,-0.260221004486084,0.013154983520507812,0.07204056,-0.15693824,9.750725,0.74850047,-0.050946668,9.723353,0
9,985.6455688476562,-1.3919812045060098E-4,2.1360983373597264E-4,-3.821655991487205E-4,-8.064044952392578,24.224700927734375,-33.44568634033203,-0.7089908123016357,-0.2685707211494446,0.03714561462402344,0.06726962,-0.14978863,9.757828,0.7432018,-0.04429902,9.73077,0
9,985.6226196289062,-6.125745130702853E-6,-0.0019169033039361238,5.499033723026514E-4,-7.948092460632324,23.384872436523438,-33.10647201538086,-0.6861404180526733,-0.2672126889228821,0.03270721435546875,0.067278564,-0.14978887,9.753094,0.7385188,-0.05011356,9.726351,0
9,985.6376342773438,-1.393693091813475E-4,0.0010125853586941957,2.8355076210573316E-4,-7.8528733253479,23.368392944335938,-32.65827560424805,-0.6969347596168518,-0.2562018036842346,0.014059066772460938,0.06967729,-0.15932222,9.764931,0.7342022,-0.05432769,9.73869,0
9,985.6123657226562,2.600190055090934E-4,6.131253321655095E-4,-1.1595978867262602E-4,-8.108747482299805,24.129974365234375,-33.12531661987305,-0.6843748688697815,-0.2598761320114136,0.014296531677246094,0.069686174,-0.16170575,9.755463,0.7289963,-0.06074574,9.729591,0
9,985.6279907226562,-5.390142323449254E-4,0.0015452445950359106,-2.491543418727815E-4,-8.102117538452148,23.767578125,-33.33608627319336,-0.6906824111938477,-0.2392754703760147,0.009833335876464844,0.06730515,-0.16408919,9.764933,0.7234174,-0.056406356,9.739552,0
9,985.6273803710938,-1.3962600496597588E-4,-1.8579450261313468E-4,-1.1603301391005516E-4,-8.114835739135742,24.124080657958984,-32.816097259521484,-0.6865473985671997,-0.24746085703372955,0.029087066650390625,0.06970397,-0.15932281,9.757832,0.72246945,-0.055789396,9.732443,0
9,985.6350708007812,7.923940429463983E-4,-8.515703957527876E-4,5.497199599631131E-4,-7.901866912841797,23.4810791015625,-33.504150390625,-0.6779515743255615,-0.2651081681251526,0.015181541442871094,0.06732291,-0.15693982,9.774404,0.71858215,-0.050487287,9.74932,0
9,985.6303100585938,2.5967651163227856E-4,-5.260881152935326E-5,-2.492644707672298E-4,-7.999288558959961,23.758460998535156,-33.274410247802734,-0.6645704507827759,-0.2542727589607239,0.029677391052246094,0.06494188,-0.15217344,9.7578335,0.7136513,-0.035965875,9.733042,0
9,985.6303100585938,2.5967651163227856E-4,-5.260881152935326E-5,-2.492644707672298E-4,-7.855343818664551,24.20941925048828,-33.476951599121094,-0.6891405582427979,-0.22905753552913666,0.011050224304199219,0.08407003,-0.17123993,9.7696705,0.71909684,-0.07161339,9.744774,0
9,985.6054077148438,-2.73040757747367E-4,-9.847005130723119E-4,-5.156169063411653E-4,-8.178369522094727,23.95966339111328,-33.48954391479492,-0.6806340217590332,-0.24197246134281158,0.03974342346191406,0.08168894,-0.15694048,9.745998,0.7176838,-0.050543755,9.721017,0
9,985.6427612304688,3.926634381059557E-4,-9.846866596490145E-4,1.5013612573966384E-4,-7.841240882873535,23.74846649169922,-33.37516784667969,-0.6724215149879456,-0.2360655814409256,0.02579498291015625,0.07452813,-0.16647379,9.762571,0.7047607,-0.057753123,9.738637,0
9,985.6156616210938,-4.0636988705955446E-4,2.1374871721491218E-4,1.5009933849796653E-4,-7.953063488006592,23.854663848876953,-33.67208480834961,-0.6592268943786621,-0.249186709523201,0.035533905029296875,0.067367315,-0.16170742,9.753102,0.6953826,-0.054416247,9.729706,0
9,985.6331176757812,-2.7329756994731724E-4,-5.255319410935044E-5,-3.825692110694945E-4,-7.942004203796387,23.390766143798828,-33.41569137573242,-0.6556299924850464,-0.24796055257320404,0.016861915588378906,0.07454592,-0.15455778,9.767307,0.7020947,-0.050292626,9.7434225,0
9,985.6151733398438,-1.402251364197582E-4,3.4693448105826974E-4,-1.1628976790234447E-4,-8.013689994812012,23.58727264404297,-33.80106735229492,-0.6616400480270386,-0.24201612174510956,0.0076541900634765625,0.07216486,-0.1497915,9.760205,0.6983515,-0.032401577,9.736557,0
9,985.6207275390625,1.2600506306625903E-4,2.1379039390012622E-4,-1.1632655514404178E-4,-7.7775702476501465,24.018798828125,-33.40079879760742,-0.648466944694519,-0.23587201535701752,0.007925987243652344,0.07456368,-0.1617081,9.776776,0.6927149,-0.050368056,9.7537,0
9,985.6506958007812,-2.735542075242847E-4,-7.18301220331341E-4,-1.1636322597041726E-4,-7.721264839172363,23.281349182128906,-33.3663215637207,-0.649681806564331,-0.23468409478664398,0.02238750457763672,0.06979275,-0.15455852,9.769676,0.6869756,-0.042271763,9.746877,0
9,985.6100463867188,-2.557880070526153E-4,7.708885823376477E-5,-5.080959526821971E-4,-8.087577819824219,24.044677734375,-33.50851058959961,-0.6461410522460938,-0.24769286811351776,0.022647857666015625,0.074581444,-0.1521755,9.764942,0.6886484,-0.034133106,9.742044,0
9,985.6228637695312,1.4360019122250378E-4,-4.5552896335721016E-4,-2.4181697517633438E-4,-7.924123287200928,24.30295181274414,-33.31785583496094,-0.6332137584686279,-0.24654220044612885,0.008687973022460938,0.057861,-0.1450258,9.772045,0.6728546,-0.027395085,9.750066,0
9,985.645263671875,-3.891171363648027E-4,7.71166814956814E-5,1.5762029215693474E-4,-8.3179931640625,24.513545989990234,-33.192501068115234,-0.6337937116622925,-0.24060846865177155,0.03265094757080078,0.06981939,-0.15455909,9.757842,0.67473674,-0.03873542,9.735887,0
9,985.6283569335938,-3.8920275983400643E-4,-7.218170212581754E-4,2.4425622541457415E-5,-8.113314628601074,24.125553131103516,-32.893402099609375,-0.6448086500167847,-0.2345801144838333,0.018690109252929688,0.07462382,-0.16647615,9.764946,0.67137456,-0.05018525,9.74342,0
9,985.6207275390625,-6.556897424161434E-4,-7.217893144115806E-4,-1.088057179003954E-4,-7.7860212326049805,23.747589111328125,-33.537593841552734,-0.6220703721046448,-0.2333003729581833,0.023680686950683594,0.062699854,-0.15217717,9.764948,0.66245353,-0.029618517,9.743798,0
10,985.6532592773438,9.705574484542012E-6,-5.593561218120158E-5,-1.0897463653236628E-4,-8.074018478393555,23.95201873779297,-33.50517654418945,-0.6137597560882568,-0.20843444764614105,0.004985809326171875,0.06271005,-0.17362688,9.779152,0.6509341,-0.053061992,9.759067,0
10,985.6251220703125,5.422394024208188E-4,-7.217093370854855E-4,-2.421744866296649E-4,-7.713356971740723,23.92084503173828,-33.32797622680664,-0.6245653629302979,-0.22611255943775177,0.03838062286376953,0.0698899,-0.15694417,9.746013,0.658685,-0.031826004,9.725195,0
10,985.6148681640625,1.426675880793482E-4,2.1041205036453903E-4,5.567311309278011E-4,-8.454029083251953,24.702091217041016,-32.95161819458008,-0.6164839267730713,-0.2249676138162613,-0.003997802734375,0.06751013,-0.1593277,9.77442,0.6535112,-0.04109408,9.753997,0
10,985.6203002929688,-3.900618467014283E-4,-7.216776139102876E-4,4.235312808305025E-4,-7.748928070068359,23.83495330810547,-33.471435546875,-0.6180100440979004,-0.21413521468639374,0.024641036987304688,0.0699102,-0.15694465,9.762585,0.65277684,-0.032652855,9.742198,0
10,985.643798828125,-2.5700186961330473E-4,-1.8903003365267068E-4,2.4015549570322037E-5,-7.851213455200195,23.475780487060547,-33.434661865234375,-0.614457905292511,-0.22748316824436188,0.024875640869140625,0.07231024,-0.16171141,9.769688,0.6495837,-0.043253645,9.749583,0
10,985.6309204101562,2.755318710114807E-4,-5.884878919459879E-4,-3.755004145205021E-4,-7.939640998840332,23.656085968017578,-32.96967697143555,-0.6013236045837402,-0.23547400534152985,0.029867172241210938,0.060370922,-0.16171171,9.764955,0.6345268,-0.03757277,9.745774,0
10,985.5980834960938,4.085920809302479E-4,7.731767254881561E-5,-3.7554220762103796E-4,-8.074018478393555,23.95201873779297,-33.50517654418945,-0.5936731696128845,-0.23438502848148346,0.0395355224609375,0.060381055,-0.14502902,9.753119,0.63732445,-0.023064628,9.733515,0
10,985.6156616210938,-9.230852592736483E-4,3.4364944440312684E-4,1.5704758698120713E-4,-7.963717460632324,23.844348907470703,-33.13094711303711,-0.5951400995254517,-0.21425946056842804,0.011350631713867188,0.062781096,-0.15932886,9.7696905,0.63156706,-0.034114704,9.7507,0
10,985.6231689453125,1.4208044740371406E-4,7.734945393167436E-5,1.5700561925768852E-4,-7.950699806213379,24.119979858398438,-33.226070404052734,-0.5947378873825073,-0.23163212835788727,0.030632972717285156,0.067571074,-0.15456264,9.760223,0.6339505,-0.028336167,9.741034,0
10,985.5980834960938,-3.90649278415367E-4,-7.215823279693723E-4,-1.0935217142105103E-4,-8.188586235046387,24.687400817871094,-33.22261428833008,-0.6024994254112244,-0.22148804366588593,0.04022407531738281,0.07475093,-0.15932943,9.760223,0.6348196,-0.034668207,9.741084,0
10,985.6033325195312,4.08200517995283E-4,-4.552504688035697E-4,2.9007962439209223E-4,-7.904475212097168,24.216182708740234,-33.62374496459961,-0.5899062156677246,-0.22965632379055023,0.030968666076660156,0.06998128,-0.14503007,9.753122,0.63230866,-0.018228427,9.733919,0
10,985.637939453125,1.4178678975440562E-4,6.100289756432176E-4,-2.42594163864851E-4,-8.067386627197266,23.589618682861328,-33.715946197509766,-0.5723692178726196,-0.23332561552524567,0.021712303161621094,0.05804193,-0.14741357,9.762592,0.6173267,-0.025201231,9.74431,0
10,985.6283569335938,-2.577849372755736E-4,2.105709572788328E-4,-2.426360733807087E-4,-8.057849884033203,23.124252319335938,-33.38224792480469,-0.5982998013496399,-0.22749151289463043,0.012429237365722656,0.0795612,-0.15456362,9.774429,0.63163674,-0.04404719,9.755449,0
10,985.6561279296875,-7.905146339908242E-4,8.763766381889582E-4,1.5679583884775639E-4,-8.309977531433105,24.046707153320312,-32.781497955322266,-0.5806467533111572,-0.2170502096414566,0.012637138366699219,0.06523195,-0.16171367,9.776798,0.61275744,-0.039254338,9.759056,0
10,985.637939453125,-5.24296541698277E-4,-4.551869351416826E-4,2.3595988750457764E-5,-7.86143159866333,24.203521728515625,-33.167728424072266,-0.5822689533233643,-0.21113060414791107,0.017580032348632812,0.0795815,-0.15933062,9.762596,0.6232639,-0.03131628,9.744258,0
10,985.6533203125,2.7455316740088165E-4,2.1061862935312092E-4,5.561858415603638E-4,-8.16480827331543,23.867000579833984,-33.48621368408203,-0.5932966470718384,-0.2242359071969986,0.017797470092773438,0.07959169,-0.15456434,9.7768,0.62194675,-0.037043735,9.758476,0
10,985.6405029296875,-3.913343825843185E-4,-1.888392580440268E-4,-2.428038278594613E-4,-7.941705703735352,24.022899627685547,-32.99082565307617,-0.594921350479126,-0.2183999866247177,0.017999649047851562,0.08438164,-0.15456457,9.767332,0.6228561,-0.031038895,9.748994,0
10,985.6455688476562,8.041533874347806E-6,-5.882971454411745E-4,4.229439655318856E-4,-8.326986312866211,24.610626220703125,-33.42774963378906,-0.5819669365882874,-0.20317448675632477,0.01820850372314453,0.07483217,-0.15933134,9.764966,0.6084153,-0.034625143,9.747521,0
10,985.6338500976562,-6.578461034223437E-4,2.1066635963506997E-4,1.5658605843782425E-4,-8.013391494750977,24.219406127929688,-33.376197814941406,-0.5600719451904297,-0.18777333199977875,0.018390655517578125,0.072452456,-0.17363138,9.764967,0.5980507,-0.040797383,9.748367,0
10,985.6231689453125,-2.5847015785984695E-4,3.4384013270027936E-4,-2.4292967282235622E-4,-7.9929022789001465,24.396484375,-33.15876388549805,-0.5714086294174194,-0.22480328381061554,0.03278636932373047,0.0676828,-0.15456541,9.7626,0.59713596,-0.032903478,9.7457285,0
10,985.648193359375,-2.585680049378425E-4,6.101718172430992E-4,1.5650223940610886E-4,-8.336416244506836,23.969650268554688,-33.388790130615234,-0.5541404485702515,-0.20964594185352325,0.03770160675048828,0.06291312,-0.16171546,9.767336,0.58722985,-0.03604397,9.751144,0
10,985.6203002929688,-5.249818786978722E-4,-4.55075700301677E-4,2.330215647816658E-5,-8.276769638061523,23.867279052734375,-33.08405685424805,-0.5747346878051758,-0.19927971065044403,0.03316211700439453,0.082042515,-0.1617157,9.750766,0.60081786,-0.03643994,9.733859,0
10,985.6203002929688,-5.249818786978722E-4,-4.55075700301677E-4,2.330215647816658E-5,-7.806510925292969,23.570510864257812,-33.75503158569336,-0.5569937229156494,-0.22199030220508575,0.038107872009277344,0.07727286,-0.14979957,9.753134,0.5978557,-0.018114626,9.736235,0
10,985.6028442382812,-3.9201966137625277E-4,-0.0017866232665255666,-5.094134248793125E-4,-7.764009952545166,23.92613983154297,-33.397464752197266,-0.568039059638977,-0.20677198469638824,0.03830909729003906,0.0795466,-0.15218,9.762592,0.59605426,-0.027577221,9.7458515,0
11,985.6028442382812,-3.9201966137625277E-4,-0.0017866232665255666,-5.094134248793125E-4,-7.987250804901123,23.664329528808594,-33.19377517700195,-0.5366770029067993,-0.19653074443340302,0.024263381958007812,0.06282234,-0.17124633,9.767326,0.57134235,-0.027819738,9.752269,0
11,985.645263671875,-9.241418447345495E-4,7.432948332279921E-4,4.229105543345213E-4,-7.523622989654541,23.729957580566406,-33.65398025512695,-0.5432934165000916,-0.20979104936122894,0.029178619384765625,0.06282741,-0.15933006,9.760226,0.5718743,-0.027957916,9.744923,0
11,985.63818359375,-2.578061248641461E-4,2.105744497384876E-4,4.2314460733905435E-4,-8.185840606689453,24.058212280273438,-33.80209732055664,-0.5452597737312317,-0.203770712018013,0.015158653259277344,0.074782014,-0.15218036,9.776796,0.58345413,-0.02828382,9.760804,0
11,985.6331176757812,8.460861863568425E-6,-5.573351518251002E-5,5.562816513702273E-4,-8.201902389526367,23.779640197753906,-33.552364349365234,-0.542255163192749,-0.20277966558933258,0.02007293701171875,0.07478705,-0.15933026,9.762594,0.5763126,-0.039694473,9.747078,0
11,985.6287841796875,8.41208384372294E-6,7.432220736518502E-4,2.3628934286534786E-5,-8.235408782958984,23.326927185058594,-33.674686431884766,-0.5391493439674377,-0.19234026968479156,0.039193153381347656,0.07479215,-0.15933041,9.753126,0.5730458,-0.031723335,9.737817,0
11,985.6231689453125,-5.242687184363604E-4,-1.888755796244368E-4,4.230818012729287E-4,-8.178369522094727,23.95966339111328,-33.48954391479492,-0.5409985184669495,-0.2005840390920639,0.025176048278808594,0.07957703,-0.14979742,9.764962,0.5786553,-0.02551286,9.749244,0
11,985.6105346679688,-2.5800158618949354E-4,-3.2202558941207826E-4,4.2306078830733895E-4,-8.074996948242188,23.582260131835938,-33.32942199707031,-0.523501455783844,-0.19479115307331085,0.03483104705810547,0.058072954,-0.1640972,9.762595,0.55027306,-0.020748377,9.748608,0
11,985.6304931640625,6.74055190756917E-4,-5.570179200731218E-5,8.225137135013938E-4,-7.989858627319336,24.399433135986328,-33.31337356567383,-0.5253645181655884,-0.20349620282649994,0.034996986389160156,0.06285784,-0.15456428,9.753127,0.55476016,-0.014148653,9.738755,0
11,985.6279907226562,-2.580994332674891E-4,7.746412302367389E-5,2.3545115254819393E-5,-7.6486005783081055,23.454605102539062,-33.15670394897461,-0.5279489755630493,-0.21171630918979645,0.035147666931152344,0.07481241,-0.14026476,9.764964,0.5693162,-0.011040479,9.749642,0
11,985.6558227539062,-3.2650079810991883E-4,2.1034908422734588E-4,2.029777388088405E-4,-8.142797470092773,24.045551300048828,-33.3460807800293,-0.5297906398773193,-0.19155646860599518,0.04005718231201172,0.07481751,-0.16648091,9.764964,0.5561034,-0.032872364,9.7507715,0
11,985.6207275390625,2.0603323355317116E-4,-1.8910887592937797E-4,-6.338005186989903E-5,-7.906975746154785,23.844947814941406,-33.37068557739258,-0.5223237872123718,-0.20455805957317352,0.030759811401367188,0.07004276,-0.15218134,9.76023,0.5540427,-0.01663576,9.745918,0
11,985.62841796875,6.054581608623266E-4,6.098466692492366E-4,6.023887544870377E-4,-8.013391494750977,24.219406127929688,-33.376197814941406,-0.5148548483848572,-0.1798161417245865,0.021445274353027344,0.07721752,-0.1712477,9.764965,0.55085224,-0.035500586,9.75116,0
11,985.6506958007812,7.277756230905652E-5,3.435387625358999E-4,3.3605191856622696E-4,-8.046355247497559,23.39841079711914,-33.400062561035156,-0.5122758746147156,-0.1789637953042984,0.021593093872070312,0.06049332,-0.16171469,9.762598,0.5359038,-0.027574375,9.74937,0
11,985.6502685546875,-1.9358721328899264E-4,6.09862559940666E-4,4.6918890438973904E-4,-8.064044952392578,24.224700927734375,-33.44568634033203,-0.504561185836792,-0.18239198625087738,0.040711402893066406,0.06766808,-0.1640981,9.750763,0.5380471,-0.02597262,9.73749,0
11,985.6356811523438,6.053115357644856E-4,-3.222351078875363E-4,-3.297797520644963E-4,-7.863251686096191,23.569915771484375,-33.515296936035156,-0.5302884578704834,-0.18104077875614166,0.021953582763671875,0.082012564,-0.15933163,9.772068,0.55097353,-0.028195694,9.758129,0
11,985.6123657226562,2.0578893600031734E-4,-4.5538507401943207E-4,-1.9664264982566237E-4,-7.910861492156982,23.578155517578125,-33.73939514160156,-0.5034137964248657,-0.19926442205905914,0.04578876495361328,0.065288305,-0.15694852,9.755497,0.5324842,-0.02034171,9.742415,0
11,985.6331176757812,-4.600497195497155E-4,-7.216930389404297E-4,4.6912606921978295E-4,-8.332830429077148,23.60430908203125,-33.444950103759766,-0.5151609182357788,-0.18419156968593597,0.036461830139160156,0.07724285,-0.16171516,9.769701,0.5392639,-0.03664501,9.756384,0
11,985.6353759765625,-3.269407316111028E-4,0.0012756838696077466,2.027892041951418E-4,-7.774961948394775,23.283695220947266,-33.28120040893555,-0.4979912340641022,-0.18314360082149506,0.022418975830078125,0.067688346,-0.16648193,9.764969,0.5259003,-0.028262556,9.752412,0
11,985.6328735351562,4.7195819206535816E-4,7.727048068773001E-5,3.359262482263148E-4,-7.4990034103393555,23.17340087890625,-33.39425277709961,-0.4906705319881439,-0.17248235642910004,0.02730560302734375,0.06291363,-0.15694894,9.764967,0.52253723,-0.012949258,9.752433,0
11,985.6401977539062,-6.072246469557285E-5,4.7675223322585225E-4,-5.962001741863787E-4,-7.8625712394714355,23.307540893554688,-34.11592483520508,-0.49318480491638184,-0.19045503437519073,0.04164409637451172,0.07008839,-0.15218244,9.762602,0.52814114,-0.018385217,9.749727,0
11,985.6327514648438,7.381762843579054E-4,0.0012757077347487211,-7.293790695257485E-4,-7.877110481262207,23.030441284179688,-33.94350051879883,-0.48599058389663696,-0.18436191976070404,0.03232765197753906,0.07009345,-0.1617157,9.760235,0.5214591,-0.029722705,9.747844,0
11,985.6328735351562,7.381275645457208E-4,-5.586366751231253E-5,0.0014011269668117166,-8.214780807495117,23.609920501708984,-34.15633010864258,-0.48299580812454224,-0.1547192484140396,0.03722572326660156,0.07248843,-0.18078206,9.769705,0.51335603,-0.049565434,9.758026,0
11,985.6301879882812,7.380786119028926E-4,-4.55329631222412E-4,6.952654803171754E-5,-8.018937110900879,23.845226287841797,-32.96852493286133,-0.49473047256469727,-0.19653429090976715,0.013703346252441406,0.0748834,-0.15456612,9.776806,0.52380574,-0.018955499,9.7642565,0
11,985.6254272460938,-3.2723386539146304E-4,-3.221637452952564E-4,2.0266365027055144E-4,-7.960811138153076,23.741378784179688,-32.586483001708984,-0.4726143777370453,-0.18075816333293915,0.02808380126953125,0.06293893,-0.15218295,9.767338,0.50990134,-0.011585236,9.755403,0
11,985.6331176757812,0.0010042968206107616,2.1047597692813724E-4,-6.367330206558108E-5,-7.766488075256348,23.97521209716797,-31.32137680053711,-0.48442697525024414,-0.16069595515727997,0.02349853515625,0.06756392,-0.17124538,9.762589,0.5044768,-0.024037227,9.751255,0
12,985.6356811523438,-4.591541364789009E-4,-5.60487387701869E-5,4.6950989053584635E-4,-7.982386112213135,24.30087661743164,-33.00082015991211,-0.4770398437976837,-0.1837948113679886,0.042571067810058594,0.06995255,-0.15932892,9.7602215,0.5081843,-0.016826823,9.748523,0
12,985.6331176757812,7.394665153697133E-4,6.097086588852108E-4,-3.293523914180696E-4,-7.953744888305664,24.117034912109375,-33.07146072387695,-0.47935160994529724,-0.18273915350437164,0.042710304260253906,0.069951296,-0.15456237,9.757854,0.5071568,-0.013252303,9.746133,0
12,985.6350708007812,-5.92100783251226E-4,-5.887147854082286E-4,4.696004616562277E-4,-7.448456764221191,24.274452209472656,-33.697425842285156,-0.4716629683971405,-0.18177379667758942,0.033394813537597656,0.0747298,-0.14979585,9.750752,0.5100748,-1.4270842E-4,9.73884,0
12,985.6231689453125,-4.589306190609932E-4,-1.8924297182820737E-4,-6.302609108388424E-5,-7.499003887176514,23.17340087890625,-33.39425277709961,-0.48334357142448425,-0.1809486597776413,0.033532142639160156,0.08189824,-0.15932886,9.757854,0.51068515,-0.020231381,9.746106,0
12,985.6177978515625,-1.926024560816586E-4,-5.608698120340705E-5,-4.624946159310639E-4,-7.370820999145508,23.977920532226562,-32.92219924926758,-0.46635377407073975,-0.18471325933933258,0.03367424011230469,0.06038791,-0.14741246,9.7649555,0.49273947,-2.7038157E-4,9.753817,0
12,985.6148681640625,6.063574692234397E-4,7.428586832247674E-4,3.364582662470639E-4,-7.919557094573975,24.307369232177734,-33.549774169921875,-0.4591827690601349,-0.17411048710346222,0.033806800842285156,0.065166414,-0.16409536,9.7602215,0.4879827,-0.021378934,9.749593,0
12,985.6507568359375,-4.588938318192959E-4,-3.22406820487231E-4,4.6962141641415656E-4,-8.043012619018555,24.033489227294922,-33.12980270385742,-0.47064805030822754,-0.17796306312084198,0.043422698974609375,0.06755504,-0.15456225,9.753119,0.49027526,-0.018804878,9.742232,0
12,985.6303100585938,3.4006591886281967E-4,-5.887247389182448E-4,-3.2932095928117633E-4,-8.348455429077148,24.06378173828125,-33.469425201416016,-0.45371517539024353,-0.1674695461988449,0.029356002807617188,0.06277397,-0.15932874,9.7554865,0.4816692,-0.013586342,9.745084,0
12,985.627685546875,3.400782588869333E-4,-5.88726659771055E-4,-6.299989763647318E-5,-8.021001815795898,24.21204376220703,-32.98967361450195,-0.4557969570159912,-0.16633985936641693,0.03896903991699219,0.06277269,-0.16171198,9.7649555,0.47850752,-0.008944884,9.754763,0
12,985.6327514648438,7.377448491752148E-5,-3.224128158763051E-4,3.364791045896709E-4,-7.956788539886475,24.114089965820312,-32.91685104370117,-0.4612763822078705,-0.16468988358974457,0.029718399047851562,0.067551196,-0.16171198,9.767323,0.47994927,-0.01651828,9.757083,0
12,985.6327514648438,7.377448491752148E-5,-3.224128158763051E-4,3.364791045896709E-4,-7.956788539886475,24.114089965820312,-32.91685104370117,-0.45492124557495117,-0.1499968022108078,0.048729896545410156,0.067549974,-0.16647853,9.7531185,0.47437626,-0.022762388,9.743206,0
12,985.6151733398438,6.064185290597379E-4,-4.555727355182171E-4,7.016857853159308E-5,-8.132823944091797,24.3182373046875,-33.286590576171875,-0.4521535634994507,-0.15863414108753204,0.02519512176513672,0.07232851,-0.1688617,9.76969,0.47524083,-0.035236433,9.75979,0
12,985.6328735351562,7.379910675808787E-5,-9.882064769044518E-4,2.0333181601017714E-4,-8.247446060180664,23.421058654785156,-33.75532150268555,-0.4356920123100281,-0.1625540405511856,0.025304794311523438,0.062767625,-0.15932857,9.772057,0.4684378,-0.012339562,9.762318,0
12,985.6586303710938,2.0696927094832063E-4,3.4337094984948635E-4,-6.297888467088342E-5,-7.684171676635742,23.36871337890625,-33.300167083740234,-0.4384205937385559,-0.14233459532260895,0.049094200134277344,0.06993607,-0.16647841,9.748384,0.46877307,-0.025879502,9.738748,0
12,985.6451416015625,-5.933450302109122E-5,6.096849101595581E-4,3.3650011755526066E-4,-8.130760192871094,23.951419830322266,-33.265445709228516,-0.43121516704559326,-0.1652066558599472,0.039750099182128906,0.06276509,-0.16171183,9.755486,0.46180686,-0.015960693,9.7460785,0
12,985.6248779296875,-5.932216299697757E-5,6.096828146837652E-4,3.365054144524038E-4,-8.04896354675293,24.133514404296875,-33.519657135009766,-0.44811323285102844,-0.15963520109653473,0.030391693115234375,0.07471335,-0.164095,9.772057,0.4704097,-0.02238983,9.762369,0
12,985.6301879882812,3.401638241484761E-4,3.4336495446041226E-4,3.36510653141886E-4,-8.12535285949707,24.219688415527344,-32.974037170410156,-0.44131967425346375,-0.1681474894285202,0.05417346954345703,0.06993225,-0.15932845,9.7507515,0.46466282,-0.012364611,9.74122,0
12,985.6353759765625,7.38601665943861E-5,7.42836797144264E-4,-1.961158704943955E-4,-7.785455703735352,23.799606323242188,-31.61611557006836,-0.45294949412345886,-0.15291638672351837,0.01169586181640625,0.08188051,-0.15694518,9.769689,0.47438174,-0.021934524,9.759746,0
12,985.6200561523438,4.733462701551616E-4,6.09676877502352E-4,2.033631899394095E-4,-8.171034812927246,23.75519561767578,-32.47791290283203,-0.42125195264816284,-0.1662580817937851,0.04498100280761719,0.060370147,-0.15217854,9.757853,0.45273957,0.0022531152,9.748719,0
12,985.6350708007812,-4.5874714851379395E-4,-0.0013876942684873939,-1.9610539311543107E-4,-7.658818244934082,24.182342529296875,-32.889774322509766,-0.4331648051738739,-0.1748826652765274,0.021429061889648438,0.06992844,-0.15217854,9.767321,0.45949864,-0.0035808384,9.757943,0
12,985.6675415039062,3.4021271858364344E-4,-5.887485458515584E-4,-4.624160355888307E-4,-7.562376022338867,23.535202026367188,-32.943756103515625,-0.4401645362377167,-0.164777472615242,0.03574371337890625,0.07470697,-0.14979525,9.762587,0.46200025,-0.0045687705,9.753084,0
12,985.6024169921875,-4.6515875146724284E-4,1.6205309657379985E-4,-0.0010667324531823397,-7.801241397857666,23.732864379882812,-32.76454544067383,-0.42324987053871155,-0.16415373980998993,0.016921043395996094,0.069925904,-0.15932833,9.769688,0.45175815,-0.011753559,9.760782,0
12,985.6473999023438,-0.0013972519664093852,-1.0426477820146829E-4,-2.67779512796551E-4,-8.276065826416016,24.02520751953125,-31.861652374267578,-0.43514057993888855,-0.1445113867521286,0.0359649658203125,0.079484224,-0.16409482,9.769688,0.45615125,-0.024560168,9.760706,0
12,985.6427612304688,-7.314501563087106E-4,-0.0015690040308982134,6.643312517553568E-4,-8.155952453613281,23.66400909423828,-32.551883697509766,-0.42735013365745544,-0.15330637991428375,0.050299644470214844,0.07728258,-0.14741652,9.764971,0.45715266,-0.008795023,9.75568,0
12,985.6342163085938,3.329193277750164E-4,-9.030692162923515E-4,2.6447424897924066E-4,-8.365196228027344,24.04758071899414,-32.619075775146484,-0.41552799940109253,-0.16659410297870636,0.03145408630371094,0.0703125,-0.15218796,9.762622,0.44595808,-0.01123181,9.753864,0
13,985.6544799804688,-6.935311830602586E-5,-0.0010357728460803628,1.3011688133701682E-4,-8.271905899047852,24.503833770751953,-32.89109420776367,-0.4030620753765106,-0.1611853688955307,0.04104423522949219,0.060766876,-0.1593381,9.762623,0.43160257,-0.009247959,9.754564,0
13,985.6248779296875,-4.6896139974705875E-4,-2.368033747188747E-4,3.9637513691559434E-4,-7.940727233886719,24.39266586303711,-33.16658020019531,-0.41090163588523865,-0.14619816839694977,0.041126251220703125,0.06556064,-0.16172175,9.750788,0.43289256,-0.008947805,9.742733,0
13,985.6397094726562,-2.0278015290386975E-4,0.0010947978589683771,3.9631742401979864E-4,-7.821837425231934,24.662124633789062,-33.35463333129883,-0.4130988121032715,-0.14555524289608002,0.04596996307373047,0.067964494,-0.16887195,9.760259,0.43043077,-0.012409329,9.752455,0
13,985.6171264648438,-7.355464622378349E-4,-0.0018346549477428198,-2.695300499908626E-4,-8.039968490600586,24.03643798828125,-33.2844123840332,-0.40586766600608826,-0.13999252021312714,0.03661155700683594,0.07036838,-0.17363887,9.76026,0.4280531,-0.024752274,9.752637,0
13,985.6471557617188,1.9642445840872824E-4,5.622098105959594E-4,-2.6958767557516694E-4,-8.145841598510742,24.04261016845703,-33.191471099853516,-0.4083344042301178,-0.1442243903875351,0.060378074645996094,0.072772264,-0.16172273,9.7578945,0.4322019,-0.015720755,9.74992,0
13,985.624755859375,-6.026576738804579E-4,-1.0355807899031788E-4,-1.3648741878569126E-4,-7.998852252960205,24.49651336669922,-33.548622131347656,-0.40629592537879944,-0.16270609200000763,0.02732563018798828,0.07517612,-0.15219001,9.7697315,0.4364536,-0.0021983087,9.761453,0
13,985.6497192382812,-4.696345131378621E-4,2.9621704015880823E-5,-3.3872202038764954E-6,-7.943633079528809,24.495635986328125,-33.7110481262207,-0.4041580855846405,-0.1427857130765915,0.01795482635498047,0.065630436,-0.16172345,9.767365,0.42171538,-0.006780237,9.759816,0
13,985.626708984375,-2.0345309167169034E-4,8.285912335850298E-4,-3.4447875805199146E-6,-7.356718063354492,23.5169677734375,-32.820411682128906,-0.39752060174942017,-0.15150518715381622,0.032245635986328125,0.07281411,-0.16172381,9.757898,0.42604694,-0.005396351,9.750204,0
13,985.6221313476562,-2.0358766778372228E-4,8.286131196655333E-4,2.628133515827358E-4,-7.841240406036377,23.74846649169922,-33.37516784667969,-0.4099777936935425,-0.12668581306934357,0.041808128356933594,0.072828114,-0.17840709,9.765,0.41799015,-0.027785838,9.757914,0
13,985.6392822265625,3.2890946022234857E-4,1.6284530283883214E-4,2.6275572599843144E-4,-7.6029181480407715,23.919097900390625,-33.652828216552734,-0.38393300771713257,-0.13551343977451324,0.046634674072265625,0.07284206,-0.17364086,9.746065,0.4169336,-0.018771142,9.738945,0
13,985.6342163085938,6.245894473977387E-5,2.960250130854547E-4,-1.367758377455175E-4,-8.278291702270508,23.865806579589844,-33.00674819946289,-0.41510209441185,-0.1444188505411148,0.051464080810546875,0.077635825,-0.16172482,9.755534,0.42333347,-0.019496366,9.747977,0
13,985.6497192382812,-7.366231875494123E-4,-2.36584892263636E-4,-2.6999140391126275E-4,-8.345548629760742,23.960811614990234,-32.92496109008789,-0.38905903697013855,-0.14850710332393646,0.04208564758300781,0.06570026,-0.15457536,9.757903,0.41286469,-0.008368522,9.750608,0
13,985.6392822265625,5.948216421529651E-4,8.287004311569035E-4,-4.0320708649232984E-4,-8.362014770507812,24.15644073486328,-33.47275924682617,-0.38681361079216003,-0.1475479155778885,0.013782501220703125,0.06332433,-0.15457572,9.767373,0.40863603,-0.006609395,9.760249,0
13,985.6516723632812,6.205527461133897E-5,-1.0338326683267951E-4,3.956829314120114E-4,-8.3474760055542,24.433547973632812,-33.64518356323242,-0.3851397633552551,-0.13728205859661102,0.04699897766113281,0.06572825,-0.1498095,9.748436,0.41005278,-0.0015516281,9.741182,0
13,985.636474609375,-0.001003342680633068,0.0010950600262731314,2.624673652462661E-4,-8.05711555480957,24.49443817138672,-33.2315788269043,-0.37826836109161377,-0.14627377688884735,0.05655097961425781,0.07291189,-0.16410948,9.760273,0.40982205,-0.01411131,9.753309,0
13,985.6137084960938,6.17861223872751E-5,-9.02287196367979E-4,-3.906257916241884E-6,-8.216686248779297,24.50295639038086,-33.053524017333984,-0.3852342963218689,-0.13592378795146942,0.047188758850097656,0.06575611,-0.17125966,9.767378,0.3975715,-0.02753967,9.76097,0
13,985.6415405273438,7.274411618709564E-4,-3.696336061693728E-4,-1.3712194049730897E-4,-8.721292495727539,24.083168029785156,-33.0281867980957,-0.3548170328140259,-0.139923557639122,0.03306388854980469,0.049040765,-0.1617269,9.75791,0.3836195,-0.012307525,9.751823,0
13,985.6289672851562,-3.379569679964334E-4,6.956516881473362E-4,5.286101368255913E-4,-8.132824897766113,24.3182373046875,-33.28658676147461,-0.35813647508621216,-0.14397622644901276,0.03786659240722656,0.056224465,-0.15696065,9.755543,0.39051044,0.0010842234,9.749149,0
13,985.6362915039062,-6.044073961675167E-4,0.001361463451758027,-1.3723724987357855E-4,-8.144021034240723,24.67621612548828,-32.843910217285156,-0.37052440643310547,-0.13856132328510284,0.056884765625,0.0610182,-0.15934427,9.760279,0.3921747,-0.008143261,9.753885,0
13,985.6414794921875,-2.050681214313954E-4,4.293795791454613E-4,-4.136993084102869E-6,-8.329625129699707,24.133472442626953,-32.475608825683594,-0.36886849999427795,-0.13299600780010223,0.03802204132080078,0.063422084,-0.16172792,9.762648,0.39172477,-0.012699157,9.756326,0
13,985.644287109375,6.11131836194545E-5,0.0013615069910883904,-4.0366844041273E-4,-8.10614013671875,23.394866943359375,-33.00571823120117,-0.37206658720970154,-0.1417216807603836,0.03809547424316406,0.056266367,-0.16172828,9.765017,0.3835044,-0.0064451844,9.758984,0
13,985.644287109375,6.11131836194545E-5,0.0013615069910883904,-4.0366844041273E-4,-7.916949272155762,23.572265625,-33.43017578125,-0.35076433420181274,-0.13104639947414398,0.038196563720703125,0.056280315,-0.16172864,9.7579155,0.38081414,-0.0047058314,9.751984,0
13,985.62353515625,8.599262218922377E-4,1.6310735372826457E-4,9.27853281609714E-4,-8.085214614868164,24.309993743896484,-33.06249237060547,-0.3533411920070648,-0.13518382608890533,0.033547401428222656,0.04912454,-0.15934564,9.753182,0.37254924,0.0013680905,9.747491,0
13,985.62353515625,3.2715985435061157E-4,-7.689763442613184E-4,3.951638354919851E-4,-7.958171844482422,24.218528747558594,-33.53862380981445,-0.3604383170604706,-0.1535176783800125,0.038394927978515625,0.06561339,-0.15218998,9.769731,0.38882148,-0.0012845546,9.763396,0
14,985.6357421875,-6.050802767276764E-4,-1.0316478437744081E-4,-4.367728251963854E-6,-8.214620590209961,24.136138916015625,-33.03237533569336,-0.35381677746772766,-0.13837961852550507,0.047942161560058594,0.060837448,-0.16172309,9.760263,0.37856013,-0.0032523274,9.754451,0
14,985.65087890625,-2.0421596127562225E-4,-3.697063948493451E-4,1.2938614236190915E-4,-7.858387470245361,24.206466674804688,-33.32234191894531,-0.3475446105003357,-0.14728163182735443,0.03853893280029297,0.05367148,-0.15219013,9.757895,0.37359458,0.006529197,9.752073,0
14,985.618408203125,6.2959996284917E-5,2.959436387754977E-4,1.2975477147847414E-4,-7.8668389320373535,23.935260772705078,-33.459136962890625,-0.3699724078178406,-0.1418212503194809,0.038603782653808594,0.06562486,-0.15457352,9.757896,0.38217777,-0.00781101,9.751852,0
14,985.6329345703125,4.623968561645597E-4,0.002027002861723304,-5.360508221201599E-4,-8.45750904083252,23.96109390258789,-32.52280044555664,-0.35876375436782837,-0.1361156851053238,0.052883148193359375,0.060848832,-0.15457357,9.753162,0.37574586,-0.0027510524,9.747337,0
14,985.6078491210938,-2.0342934294603765E-4,4.291135701350868E-4,-5.360663053579628E-4,-8.021300315856934,23.579910278320312,-33.41454315185547,-0.34737685322761536,-0.1446228176355362,0.02456188201904297,0.06563243,-0.15457372,9.7744665,0.37895638,0.0016607344,9.768559,0
14,985.6405029296875,1.9600780797190964E-4,6.9543527206406E-4,-4.029241972602904E-4,-7.867519378662109,24.1976318359375,-32.85851287841797,-0.355410635471344,-0.12989650666713715,0.03408622741699219,0.06085643,-0.16410686,9.7721,0.3692769,-0.0123138875,9.766683,0
14,985.645751953125,-2.0350285922177136E-4,2.959675039164722E-4,-8.024138514883816E-4,-8.1361665725708,23.683155059814453,-33.556854248046875,-0.34855493903160095,-0.13396523892879486,0.034168243408203125,0.060860217,-0.15934043,9.7721,0.3689093,-0.005941421,9.766623,0
14,985.6253051757812,6.277652573771775E-5,9.617632604204118E-4,-3.48180765286088E-6,-8.536230087280273,24.99420166015625,-33.49493408203125,-0.33726784586906433,-0.13795112073421478,0.015302658081054688,0.058474183,-0.15695728,9.767366,0.36551118,-0.0013111681,9.761963,0
14,985.6329345703125,-3.367707540746778E-4,1.6282749129459262E-4,-3.5132397897541523E-6,-8.024887084960938,23.94525146484375,-33.35838317871094,-0.3449517488479614,-0.1469578891992569,0.029575347900390625,0.05608803,-0.145041,9.767366,0.36569542,0.01073429,9.761751,0
14,985.6249389648438,-6.031233351677656E-4,-2.3664042237214744E-4,-1.3668689643964171E-4,-7.900589942932129,24.48297882080078,-33.255035400390625,-0.3286477327346802,-0.14161299169063568,0.029649734497070312,0.056091845,-0.15219085,9.776836,0.3613271,0.00905627,9.771499,0
14,985.6199951171875,-5.644352058880031E-4,-5.25580020621419E-4,-1.437846221961081E-4,-8.249351501464844,24.31409454345703,-32.65251922607422,-0.35505130887031555,-0.13600699603557587,0.03920745849609375,0.07521486,-0.15219094,9.765,0.37634695,-0.0032102317,9.759222,0
14,985.6582641601562,5.007913568988442E-4,-2.5925817317329347E-4,-6.764321005903184E-4,-7.913064002990723,23.839054107666016,-33.06146240234375,-0.34364956617355347,-0.11620230972766876,0.05348396301269531,0.068048984,-0.16410746,9.757899,0.3631447,-0.009868249,9.752753,0
14,985.6679077148438,6.339128012768924E-4,1.4022158575244248E-4,2.556577674113214E-4,-7.997766494750977,23.759933471679688,-33.35171890258789,-0.3370199203491211,-0.14874525368213654,0.0346221923828125,0.058493167,-0.1450413,9.753165,0.35896802,0.009548783,9.747807,0
14,985.64794921875,-2.9822945361956954E-4,4.065434040967375E-4,3.887999919243157E-4,-8.180870056152344,23.588424682617188,-33.23648452758789,-0.32589980959892273,-0.1337600201368332,0.053623199462890625,0.06088689,-0.15457453,9.750798,0.35591817,-0.0035588443,9.745716,0
14,985.6480102539062,-2.982664154842496E-4,0.0013386548962444067,3.8878433406352997E-4,-7.949858665466309,24.383827209472656,-32.7027473449707,-0.3289645314216614,-0.0996621698141098,0.030019760131835938,0.06567049,-0.16410773,9.765001,0.3556745,-0.0063657314,9.760121,0
14,985.6400756835938,3.674868494272232E-4,-1.2607642565853894E-4,-1.0705261956900358E-5,-7.855480670928955,24.103500366210938,-32.77787399291992,-0.34138453006744385,-0.13206233084201813,0.049037933349609375,0.06806418,-0.15219142,9.755533,0.35965124,0.0034520775,9.750325,0
14,985.6546630859375,6.337660597637296E-4,2.73403333267197E-4,3.887528146151453E-4,-7.924558639526367,23.564895629882812,-33.04365158081055,-0.3349522054195404,-0.1359831541776657,0.04437255859375,0.070457935,-0.15219156,9.765003,0.36039507,-0.0012688488,9.75979,0
14,985.6270141601562,2.342555089853704E-4,4.06567269237712E-4,-1.4389475109055638E-4,-8.34457015991211,24.33057403564453,-33.100711822509766,-0.3283558785915375,-0.12564952671527863,0.02550792694091797,0.06090209,-0.1617247,9.776838,0.34644765,-0.008038893,9.7722225,0
14,985.6376953125,2.3421889636665583E-4,-2.592165255919099E-4,1.2240553041920066E-4,-8.199943542480469,24.519161224365234,-33.90387725830078,-0.3264266848564148,-0.11543099582195282,0.030313491821289062,0.06329584,-0.154575,9.772104,0.34909517,2.3946166E-4,9.767296,0
14,985.62646484375,-1.6529159620404243E-4,-3.9236844168044627E-4,-5.433998885564506E-4,-7.871702671051025,23.298702239990234,-33.652095794677734,-0.3293059766292572,-0.10988356173038483,0.039855003356933594,0.065689504,-0.16410817,9.743698,0.344785,-0.011737883,9.739192,0
14,985.6298217773438,0.0032967780716717243,-0.0018570998217910528,-9.4288942636922E-4,-8.302367210388184,24.05406951904297,-33.168025970458984,-0.3312341868877411,-0.11717362701892853,0.021056175231933594,0.060913533,-0.15934171,9.788675,0.34017307,-0.0071451515,9.784247,0
14,985.8519897460938,2.3410876747220755E-4,-5.255144787952304E-4,1.2235838221386075E-4,-8.402832984924316,24.328506469726562,-32.7836799621582,-0.32960745692253113,-0.13674773275852203,0.040022850036621094,0.075256765,-0.14980875,9.765004,0.35486513,-0.002550751,9.7599945,0
14,985.5787353515625,-0.002828560071066022,6.729128072038293E-4,-1.4397321501746774E-4,-7.8078718185424805,24.095260620117188,-32.553775787353516,-0.30904996395111084,-0.12674720585346222,0.04480743408203125,0.05375141,-0.16172518,9.765005,0.32903874,7.8481436E-4,9.760947,0
14,985.5806884765625,-2.9859645292162895E-4,6.729187443852425E-4,-1.439889892935753E-4,-7.72150993347168,24.28177261352539,-33.03990173339844,-0.3164791464805603,-0.11121593415737152,0.030694007873535156,0.06292325,-0.15933241,9.769703,0.33620054,0.001350075,9.76542,0
14,985.6878051757812,0.002497683744877577,-0.002123391954228282,-1.44004647154361E-4,-7.572051048278809,23.8946533203125,-32.578372955322266,-0.323241651058197,-0.12019558250904083,0.05450630187988281,0.06729144,-0.15693904,9.750729,0.33841142,0.0023120642,9.746349,0
15,985.7029418945312,-0.0025566010735929012,0.0012058105785399675,2.604320761747658E-4,-8.4554443359375,23.59427261352539,-32.50165557861328,-0.3121074140071869,-0.139128640294075,0.04034900665283203,0.064873636,-0.14025544,9.769663,0.34151387,0.0066604465,9.764914,0
15,985.5598754882812,3.7314248038455844E-4,6.731351604685187E-4,1.2738938676193357E-4,-8.169618606567383,24.863006591796875,-32.92787551879883,-0.315405011177063,-0.10979895293712616,0.030941009521484375,0.06723562,-0.16647075,9.772028,0.33263332,-0.009006575,9.768011,0
15,985.6317138671875,1.0709557682275772E-4,-1.25856080558151E-4,3.9382054819725454E-4,-7.999426364898682,23.652542114257812,-32.57533645629883,-0.31323498487472534,-0.13270162045955658,0.031023025512695312,0.064817876,-0.14025404,9.762556,0.3370895,0.013012752,9.757949,0
15,985.6393432617188,2.405226114206016E-4,-0.0010580054949969053,-5.381696973927319E-4,-8.264432907104492,24.40528106689453,-32.57854461669922,-0.29228198528289795,-0.11306135356426239,0.04055595397949219,0.05284044,-0.15693633,9.755452,0.3177874,0.002506137,9.751681,0
15,985.66162109375,-6.913138786330819E-4,-1.2594345025718212E-4,-9.375281515531242E-4,-8.222911834716797,24.391151428222656,-32.045223236083984,-0.3095437288284302,-0.1174360066652298,0.050083160400390625,0.067151904,-0.15455236,9.760184,0.3303118,7.008314E-4,9.756049,0
15,985.646240234375,-2.5255198124796152E-5,-6.586189847439528E-4,1.2785062426701188E-4,-8.082308769226074,24.207027435302734,-32.51802444458008,-0.3025909662246704,-0.12121312320232391,0.05016517639160156,0.06473413,-0.15455164,9.757814,0.3255912,-0.0052721202,9.753819,0
15,985.6571655273438,1.0817148722708225E-4,-1.2603081995621324E-4,-1.3835006393492222E-4,-8.477860450744629,23.889930725097656,-33.43931579589844,-0.3009018898010254,-0.11121530830860138,0.06442546844482422,0.05992639,-0.15931748,9.745976,0.31735098,-5.785972E-4,9.742293,0
15,985.64697265625,-2.47173011302948E-5,1.4024140546098351E-4,1.280811266042292E-4,-7.69025993347168,23.36281967163086,-32.99094772338867,-0.271016001701355,-0.10589893162250519,0.040801048278808594,0.047948986,-0.16646667,9.764911,0.30293763,-0.0039845407,9.761746,0
15,985.64697265625,-2.47173011302948E-5,1.4024140546098351E-4,1.280811266042292E-4,-7.876949310302734,23.556659698486328,-32.81955337524414,-0.30264461040496826,-0.1099664717912674,0.04086589813232422,0.067040265,-0.1593162,9.760174,0.32124475,0.003425479,9.756416,0
15,985.6543579101562,1.0870967525988817E-4,9.391454514116049E-4,-0.0010702249128371477,-7.509764671325684,24.269432067871094,-33.22577667236328,-0.29149293899536133,-0.13786636292934418,0.045658111572265625,0.05745274,-0.14978237,9.762539,0.3138294,0.014634863,9.758801,1
15,985.6569213867188,-2.417911309748888E-5,-1.2616184540092945E-4,5.277855088934302E-4,-7.627675533294678,24.369735717773438,-33.21347427368164,-0.30413001775741577,-0.09911961853504181,0.03625011444091797,0.07176423,-0.17123117,9.767271,0.3184422,-0.009661987,9.763841,1
15,985.6406860351562,2.4240545462816954E-4,6.952468538656831E-6,-4.731002263724804E-6,-7.496342182159424,24.07085418701172,-32.52336502075195,-0.297890841960907,-0.12699110805988312,0.022103309631347656,0.062176794,-0.15216424,9.769635,0.3144241,0.007469654,9.765956,1
15,985.6259765625,5.089903715997934E-4,1.400667242705822E-4,3.94858157960698E-4,-7.882739067077637,24.182899475097656,-32.0854606628418,-0.3104594349861145,-0.09767065942287445,0.03163433074951172,0.07409841,-0.15216364,9.760164,0.32343513,8.495748E-4,9.756272,1
15,985.6206665039062,-2.337229670956731E-5,5.394968902692199E-4,-8.034480852074921E-4,-7.922195911407471,23.830219268798828,-32.597633361816406,-0.27997714281082153,-0.11577202379703522,0.03170490264892578,0.062120974,-0.15931274,9.764896,0.3078677,-0.0011534095,9.76154,1
15,985.6329956054688,3.7637061905115843E-4,-7.921261712908745E-4,6.614045705646276E-4,-7.959969520568848,24.005226135253906,-32.06315994262695,-0.31644660234451294,-0.10092230141162872,0.05070209503173828,0.08121228,-0.15931202,9.760159,0.3238042,-0.006020859,9.756422,1
15,985.64111328125,3.7663953844457865E-4,1.3993569882586598E-4,-2.7058570412918925E-4,-7.614551544189453,23.53902816772461,-32.93593978881836,-0.2810631990432739,-0.10999496281147003,0.046024322509765625,0.052505523,-0.15931131,9.764891,0.2951384,-9.505749E-4,9.76187,1
15,985.6708374023438,-1.5572342090308666E-4,2.730499254539609E-4,-4.036282771266997E-4,-8.340279579162598,24.12316131591797,-31.93447494506836,-0.2844579219818115,-0.10929985344409943,0.03187370300292969,0.06920689,-0.15216084,9.767255,0.31184655,0.0016265213,9.763708,1
15,985.64013671875,-1.554543268866837E-4,-6.590992561541498E-4,1.2911867816001177E-4,-8.351200103759766,24.692974090576172,-32.88994598388672,-0.27823421359062195,-0.108461394906044,0.036665916442871094,0.05483958,-0.16169329,9.76962,0.29349658,-6.7031384E-4,9.766703,1
15,985.6912841796875,1.1113064829260111E-4,6.724364357069135E-4,-2.7023983420804143E-4,-8.040786743164062,24.192893981933594,-31.984703063964844,-0.28614240884780884,-0.11216436326503754,0.03199958801269531,0.066761196,-0.14739291,9.769617,0.30781332,0.0071831644,9.766105,1
15,985.6580200195312,-2.148951170966029E-5,6.723491242155433E-4,-4.03167272452265E-4,-7.9532012939453125,23.74874496459961,-32.9730110168457,-0.2698049545288086,-0.09728659689426422,0.0462646484375,-0.6000494,0.06948614,9.779083,-0.24001926,0.4470212,9.784575,1
15,985.6298828125,-0.002151747466996312,9.3862134963274E-4,-0.16818204522132874,-8.101276397705078,24.03142547607422,-32.81276321411133,-0.8940112590789795,0.549522876739502,0.05561065673828125,0.8171346,-0.39286923,9.760143,0.9192443,-0.48408747,9.746954,1
15,985.60888671875,-0.021992012858390808,-0.008648794144392014,-0.2837630808353424,-8.204105377197266,24.04053497314453,-32.87443923950195,-0.23069998621940613,-0.3152596950531006,-0.2716255187988281,0.1096957,0.31258184,10.15783,0.5142629,0.4755947,10.139063,1
15,985.5458374023438,-0.21320652961730957,-0.04926200956106186,0.02689455635845661,-8.143072128295898,23.833717346191406,-31.94792938232422,-0.7836645245552063,-0.9075741171836853,-0.3385162353515625,0.6306665,-0.16168986,9.982655,0.8671907,-0.02171573,9.966182,1
15,985.5148315429688,-0.5510280132293701,-0.02902204543352127,0.16031892597675323,-8.395062446594238,24.862091064453125,-32.0462532043457,-0.5826078057289124,-0.6229771375656128,-0.11511421203613281,0.54460204,0.53184485,10.129419,1.0751381,0.9189963,10.059032,1
16,985.520263671875,-0.715610921382904,-0.21451109647750854,0.20812276005744934,-8.433517456054688,25.29947280883789,-30.911155700683594,-0.10754214227199554,-0.4680672287940979,-0.21869277954101562,-0.32296026,-1.2031811,9.96608,-0.20798409,-0.050349236,10.04136,1
16,985.5762329101562,-1.06461763381958,0.28736114501953125,-0.5202510952949524,-9.580097198486328,26.38544464111328,-30.49007797241211,0.27066510915756226,-0.5255724191665649,-1.4683446884155273,-0.24651128,-1.257996,10.763824,0.17989403,0.4109316,10.8306055,1
16,985.593505859375,-1.3724784851074219,0.44888168573379517,-0.6218504309654236,-9.51778793334961,27.180526733398438,-29.314456939697266,-0.8795111179351807,1.0705652236938477,-0.4863758087158203,0.47043145,-2.625997,10.5271015,0.71584123,-0.7051686,10.813294,1
16,985.5858154296875,-1.614293098449707,0.9050807356834412,-0.3667197525501251,-9.227375030517578,28.873985290527344,-28.149566650390625,-0.23830658197402954,-0.29445528984069824,-3.8273582458496094,-0.99460644,-2.580714,13.871956,0.9549198,1.0192825,14.075854,1
16,985.6114501953125,-0.9092214703559875,1.5506303310394287,-0.41692018508911133,-8.419934272766113,29.99858856201172,-27.954875946044922,-0.23779606819152832,0.05565333366394043,-4.122254371643066,-1.6160088,-2.7308598,13.064737,0.93949413,0.5514988,13.400359,1
16,985.6419067382812,1.2511330842971802,1.8805956840515137,-0.04008307680487633,-6.8168158531188965,28.182289123535156,-30.174205780029297,-0.4685753583908081,-0.559739351272583,-1.8392257690429688,-1.6710044,-1.0315818,10.4395075,1.2163818,0.44297254,10.543431,1
16,985.6568603515625,2.2424943447113037,1.707756519317627,0.2504676878452301,-4.286197662353516,25.496826171875,-33.6403694152832,-0.2536625862121582,-0.380720853805542,0.08924198150634766,-3.1193128,-0.8742847,9.459484,-0.08422327,0.3868357,9.990974,1
16,985.6261596679688,1.4745726585388184,1.2201321125030518,-0.1114555075764656,-2.01953125,21.615272521972656,-35.84110641479492,1.0829393863677979,0.5522593855857849,-1.2156744003295898,-4.068132,-1.2079431,10.66202,-0.5236032,-0.12029624,11.4629345,1
16,985.62548828125,1.2142493724822998,0.9440957903862,0.21331684291362762,-1.2432022094726562,19.39327621459961,-37.52437210083008,0.018678665161132812,0.5657622814178467,-1.8085412979125977,-3.7670321,-0.37617803,10.7945795,0.1314199,-0.4130286,11.430972,1
16,985.6312255859375,1.59534752368927,0.8321099877357483,0.42969855666160583,-0.012271881103515625,16.121726989746094,-38.831356048583984,0.26080942153930664,0.304743230342865,-1.4280548095703125,-4.0729675,0.25062487,10.1578,-0.06120825,-0.46898127,10.936593,1
16,985.6338500976562,1.7873615026474,1.121861457824707,0.3759028911590576,1.7160911560058594,14.000658988952637,-40.05135726928711,-0.14731502532958984,1.3308340311050415,-0.4266777038574219,-4.333495,0.03374715,8.867672,-0.7793474,-0.98936844,9.789266,1
16,985.6636352539062,1.7925550937652588,1.3644753694534302,0.34394511580467224,4.158954620361328,10.441168785095215,-40.75840759277344,-0.3932204246520996,1.245232343673706,-0.2298593521118164,-4.3215733,1.0418746,8.635683,-0.2847011,-0.98261285,9.658671,1
16,985.6107788085938,1.7178537845611572,0.9538161754608154,0.542084276676178,6.571632385253906,6.643752098083496,-43.14053726196289,-0.05256509780883789,0.7527685165405273,-1.0825300216674805,-5.0409617,1.9594375,9.016801,-0.3110851,-0.91661024,10.469787,1
16,985.6405639648438,1.5954819917678833,1.050222396850586,0.445278525352478,8.168493270874023,3.503385543823242,-43.27983474731445,0.01679849624633789,1.172769546508789,-0.7381529808044434,-5.5333095,2.4241776,8.545725,-0.5548661,-0.9349718,10.408724,1
16,985.645751953125,1.6189178228378296,1.3287887573242188,0.39933913946151733,9.985008239746094,0.9901857376098633,-43.5666618347168,0.36428022384643555,0.9497356414794922,-1.638350009918213,-6.4319406,2.3479133,8.046242,-1.439699,-1.1056256,10.408142,1
16,985.64794921875,1.8641951084136963,1.4389103651046753,0.497343510389328,12.0220947265625,-2.9506139755249023,-42.03330993652344,1.1326966285705566,1.4735124111175537,0.5748906135559082,-6.515615,3.761198,5.522803,-1.0649214,0.51368,9.257607,1
16,985.64013671875,1.8519448041915894,1.2500923871994019,1.0535444021224976,14.454166412353516,-6.626332759857178,-41.500144958496094,-0.11911249160766602,0.05887269973754883,0.06066560745239258,-5.9826946,5.0457854,5.9796705,-0.0733369,-0.13831854,9.848072,1
16,985.665771484375,1.2187789678573608,0.9040148258209229,0.9719186425209045,15.947517395019531,-9.495208740234375,-41.10049057006836,0.15615320205688477,0.5100741386413574,-0.39598512649536133,-5.9349246,5.4128113,5.709807,-0.108959675,-0.37250042,9.847494,1
16,985.6145629882812,1.1563282012939453,0.8283810615539551,0.9661929607391357,16.60883331298828,-12.511828422546387,-39.33222579956055,0.06857919692993164,0.07851076126098633,-1.1799540519714355,-6.1428742,5.9704995,6.0175405,-0.19621617,-0.90675354,10.427456,1
16,985.6145629882812,1.1563282012939453,0.8283810615539551,0.9661929607391357,17.136451721191406,-15.494892120361328,-38.7000846862793,0.37654733657836914,0.9597201347351074,-0.22898149490356445,-6.2886853,5.627308,4.2231984,-0.85426366,-0.110309124,9.397214,1
16,985.6265869140625,1.100535273551941,0.9383695721626282,0.8046725392341614,18.525753021240234,-17.723987579345703,-37.859928131103516,0.14718866348266602,0.561704158782959,-0.07885360717773438,-5.6506095,6.42094,3.9793742,-0.2367365,-0.32850933,9.424932,1
16,985.6417846679688,1.2885546684265137,1.0093425512313843,0.8864316344261169,18.626453399658203,-19.790809631347656,-35.67593002319336,-0.8274712562561035,1.193373680114746,-0.3570213317871094,-4.5314865,6.61397,3.6267202,0.37097418,-0.62793016,8.769273,1
16,985.5933227539062,1.0767006874084473,0.7181262373924255,1.1912301778793335,18.350414276123047,-22.52533721923828,-35.242435455322266,-0.9803290367126465,0.8232517242431641,-0.31528472900390625,-4.5315,6.5067225,3.0396528,0.066446066,-0.6000266,8.470359,1
16,985.5752563476562,1.0880131721496582,0.7895010113716125,1.0472866296768188,19.09534454345703,-24.726253509521484,-33.38081741333008,-0.46793460845947266,1.7955222129821777,-0.11800622940063477,-4.737045,6.3375106,1.9649417,-0.428078,-0.048158646,8.141195,1
16,985.6109619140625,1.023429274559021,0.9821809530258179,0.6177181005477905,19.027481079101562,-26.687477111816406,-31.254009246826172,-0.7418293952941895,1.4113645553588867,1.0854588747024536,-4.239959,6.540089,0.7268938,-0.20777619,0.7846863,7.785852,1
17,985.5748291015625,0.9432682991027832,0.8903018832206726,0.7452835440635681,19.66339111328125,-27.778827667236328,-29.517501831054688,-0.7451963424682617,2.186840057373047,0.8243341445922852,-4.039221,6.642571,1.096176,-0.22859676,0.24128449,7.844117,1
17,985.5956420898438,0.4549783170223236,0.8152008652687073,0.8835015892982483,19.388084411621094,-29.143165588378906,-28.933338165283203,-0.599036455154419,0.901397705078125,-0.21755766868591309,-3.496726,7.643548,1.8797188,0.43697107,-0.39274168,8.592968,1
17,985.5972290039062,0.04618355259299278,0.46845757961273193,1.1399637460708618,18.409873962402344,-29.90127182006836,-28.507286071777344,-1.1408705711364746,1.5110530853271484,0.3765897750854492,-3.0426583,7.317039,0.8949614,0.2928264,0.432226,7.957716,1
17,985.6278076171875,-0.1701979786157608,0.6017486453056335,1.11919105052948,18.22647476196289,-30.704914093017578,-28.81692123413086,-0.9930830001831055,1.1453933715820312,0.5818349123001099,-2.4906044,7.893793,1.197962,0.71057844,0.26404822,8.3292,1
17,985.5997924804688,-0.15222151577472687,0.7206586003303528,1.0255812406539917,17.284378051757812,-31.745418548583984,-28.14896011352539,-1.6698379516601562,0.7613554000854492,0.6616380214691162,-1.8071059,8.542045,0.97544384,1.1877179,0.8052527,8.66744,1
17,985.6072998046875,-0.5093509554862976,0.6373017430305481,1.1894986629486084,16.902252197265625,-32.26108932495117,-28.367835998535156,-0.7715542316436768,0.0908670425415039,0.6421375274658203,-2.961442,8.449097,1.7731897,0.14436963,0.14783704,9.124632,1
17,985.5639038085938,-1.3782062530517578,0.9845777153968811,0.20852428674697876,18.077726364135742,-29.367908477783203,-30.950809478759766,0.3499472141265869,1.598531723022461,0.25126171112060547,-3.4776742,7.3766227,2.083292,-0.64910275,-0.24618983,8.388499,1
17,985.591064453125,-1.2788703441619873,0.8034828305244446,0.6343634724617004,18.316349029541016,-28.565143585205078,-30.803600311279297,-0.3331279754638672,0.7567272186279297,0.5963585376739502,-2.5982037,8.308484,2.424168,0.20282847,0.2251575,9.031408,1
17,985.5706176757812,-1.4804712533950806,0.6902984976768494,0.8568704128265381,18.54374885559082,-27.8247013092041,-32.03673553466797,-0.5706655979156494,0.9246311187744141,-0.02638721466064453,-2.2469015,7.7007494,3.420759,0.47472823,-0.39623976,8.698812,1
17,985.5706176757812,-1.6308064460754395,0.7628695964813232,0.7889599204063416,18.458833694458008,-25.691139221191406,-33.072303771972656,-0.7365918159484863,0.796330451965332,-0.07244157791137695,-1.7235266,7.9414606,3.8941982,0.8837839,-0.105929375,8.967153,1
17,985.577880859375,-1.6815396547317505,0.9085443615913391,0.6482120156288147,19.24842071533203,-24.266456604003906,-34.047183990478516,-1.64011549949646,0.6480379104614258,0.26758694648742676,-1.2551192,7.4385886,4.0551667,1.1993117,0.22428012,8.477244,1
17,985.5729370117188,-1.9870036840438843,1.3548898696899414,0.028095541521906853,21.693817138671875,-21.87097930908203,-34.949100494384766,-0.47153449058532715,1.46989107131958,-0.24542665481567383,-3.0356097,6.3637304,5.0588593,0.15255427,-1.0817292,8.608754,1
17,985.5526123046875,-2.364905595779419,1.6250672340393066,-0.23142920434474945,23.95798110961914,-17.38083267211914,-34.636924743652344,-0.37841200828552246,1.6972246170043945,0.1878800392150879,-3.1383889,5.574866,4.945233,0.14619279,-0.78588986,8.046425,1
17,985.5904541015625,-2.5137763023376465,1.9189469814300537,-0.17497020959854126,27.18603515625,-14.622371673583984,-33.83306121826172,-0.4598407745361328,1.4906415939331055,0.5316963195800781,-3.3439338,5.241207,5.8116274,0.66924024,-0.7681639,8.449213,1
17,985.5908203125,-2.7417423725128174,1.6066914796829224,-0.029162202030420303,29.786483764648438,-10.60726547241211,-33.92982864379883,-2.070995807647705,1.1232953071594238,-0.9663147926330566,-2.6269767,4.790768,6.673288,1.767787,-0.18395042,8.439569,1
17,985.584716796875,-2.6246964931488037,1.6622183322906494,-0.19214744865894318,32.21391296386719,-7.597324848175049,-33.479217529296875,-1.2806313037872314,0.3918733596801758,0.7341194152832031,-3.807602,4.5166907,6.3773866,0.72660494,-0.069845796,8.662363,1
17,985.5997924804688,-2.7662432193756104,1.131850242614746,-0.22051005065441132,33.77849578857422,-3.078126907348633,-31.983158111572266,-0.5809760093688965,1.6419928073883057,-0.33701229095458984,-4.579553,2.9580274,7.291125,1.1341999,-0.958982,8.982019,1
17,985.5955200195312,-2.8931429386138916,1.1221295595169067,-0.3607252836227417,35.16852569580078,0.43443965911865234,-29.862407684326172,-1.635876178741455,0.5969443321228027,-0.1574387550354004,-3.7359316,2.7196999,7.492336,1.6584959,0.34092635,8.638415,1
17,985.581787109375,-2.6767609119415283,1.1242600679397583,-0.36511945724487305,36.88186264038086,4.408595085144043,-29.12722396850586,-2.0179927349090576,0.8474080562591553,-0.27646923065185547,-4.1374483,1.666291,7.4662957,1.6710818,0.07161242,8.534808,1
17,985.57666015625,-2.2618408203125,0.949423611164093,-0.4933505058288574,38.0479736328125,7.921713829040527,-26.202159881591797,-1.3764734268188477,1.2208080291748047,0.702298641204834,-5.287005,0.57474995,6.32767,0.7362449,-0.8726989,8.186483,1
17,985.5764770507812,-2.0282814502716064,0.9606088995933533,-0.6842989921569824,38.91582107543945,10.7344388961792,-23.72903823852539,-0.6149239540100098,1.232342004776001,0.9727721214294434,-5.5139713,-0.07350369,6.4081616,0.89779687,-0.75275993,8.372641,1
17,985.5914306640625,-2.0218899250030518,0.8082762360572815,-0.5579319596290588,39.25389862060547,14.052216529846191,-21.588756561279297,-2.5716137886047363,0.9236885905265808,0.5070457458496094,-4.309381,-0.805172,6.2258945,1.7060921,-0.1540463,7.419322,1
17,985.5859985351562,-1.8775482177734375,0.910408616065979,-0.8159927129745483,39.98885726928711,15.950089454650879,-18.65670394897461,-1.6034131050109863,1.575263261795044,1.5074734687805176,-5.9823184,-2.0444765,5.3500295,1.0449747,-1.4732363,8.082602,1
17,985.5831909179688,-1.948521375656128,0.8543490767478943,-1.1074755191802979,39.69017791748047,19.30341339111328,-15.881490707397461,-0.79132080078125,1.1896315813064575,0.43322134017944336,-6.0611916,-2.4615502,6.334785,1.4503158,-0.4930606,8.97665,1
17,985.6138916015625,-2.191934108734131,0.6739200949668884,-0.9221196174621582,39.24298095703125,22.20136260986328,-12.671825408935547,-1.3956022262573242,0.7656078338623047,-1.0697364807128906,-6.699302,-2.828575,7.3905563,1.4472604,0.509603,10.254147,1
18,985.58056640625,-1.9690276384353638,0.8833774924278259,-1.1230549812316895,39.02674865722656,24.26215362548828,-9.679716110229492,0.585906982421875,0.4968245029449463,-1.2020139694213867,-8.073502,-3.5769243,6.287439,0.49284315,-0.12492514,10.828167,1
18,985.6392822265625,-1.6597015857696533,1.533987283706665,-1.2121376991271973,38.1588134765625,26.555587768554688,-6.6777801513671875,0.3810882568359375,0.32721567153930664,-0.7358851432800293,-8.302938,-3.8557677,5.9086866,0.276891,0.3850212,10.885468,1
18,985.6087036132812,-1.4606304168701172,1.3627461194992065,-0.9906958341598511,37.08439636230469,29.023712158203125,-2.499483108520508,0.8054351806640625,0.10402250289916992,-1.3605318069458008,-8.608852,-4.3014407,5.255338,0.09725785,0.5102215,10.952787,1
18,985.6254272460938,-1.1248059272766113,1.476729393005371,-0.9317069053649902,35.64430236816406,30.3602294921875,0.1847095489501953,0.6678824424743652,0.5250473022460938,-0.7846715450286865,-8.56584,-5.0450234,4.346332,0.2655598,0.17519379,10.845057,1
18,985.6103515625,-0.8664795756340027,1.1957660913467407,-0.6494120359420776,34.8192138671875,30.90252685546875,3.5904455184936523,0.5112771987915039,0.1325063705444336,-0.9071128368377686,-8.3818245,-4.944926,4.133283,0.25003123,0.65988827,10.549565,1
