Timestamp,P,Gx,Gy,Gz,Mx,My,Mz,LiAx,LiAy,LiAz,Ax,Ay,Az,earthAx,earthAy,earthAz,Value,Type
1,985.625061035156,0.000482142204419,-0.000693059293553,-2.50386656261981E-05,-8.05132675170898,23.8681983947754,-33.9656715393066,-1.71097528934479,-0.630630135536194,-0.122592926025391,0.06674808,-0.16407551,9.760147,1.7637119,-0.39554358,9.592951,0,
1,985.642944335937,0.000615752476733,-0.000826290575787,0.00050778692821,-8.28187847137451,24.2311477661133,-32.9505882263184,-1.6969096660614,-0.628842353820801,-0.112215995788574,0.057141542,-0.1593078,9.750673,1.7527143,-0.38143098,9.585758,0,
1,985.635620117188,-4.95846616104245E-05,0.000771531253122,-0.000956756586675,-8.22970199584961,24.2273254394531,-32.9584083557129,-1.70568025112152,-0.627055883407593,-0.125333786010742,0.07143402,-0.16407324,9.769608,1.762912,-0.37827593,9.603452,0,
1,985.6611328125,8.40257853269577E-05,-0.000426963728387,0.000108701002318,-8.10776901245117,24.4997329711914,-33.3010749816895,-1.69589853286743,-0.62061071395874,-0.114890098571777,0.068997175,-0.16168879,9.767237,1.7514106,-0.3974678,9.602312,0,
1,985.648010253906,-0.000581311469432,-0.00069335300941,-0.000423736812081,-8.28590106964111,23.8584403991699,-32.6202239990234,-1.6868622303009,-0.637978613376617,-0.128242492675781,0.06417045,-0.15453784,9.776701,1.7530578,-0.36728942,9.61269,0,
1,985.632995605469,0.00061801483389,0.000638079480268,0.000242440670263,-7.73591136932373,24.1105880737305,-33.5665588378906,-1.68157923221588,-0.617328524589539,-0.117762565612793,0.06651336,-0.16883637,9.771962,1.7435697,-0.3688565,9.609789,0,
1,985.632751464844,-0.000713112240192,0.000371690111933,0.000109476561192,-8.24798965454102,23.7893524169922,-33.8537712097168,-1.67182207107544,-0.624764144420624,-0.102560997009277,0.06407654,-0.14500241,9.753019,1.7360805,-0.38947463,9.590666,0,
1,985.63525390625,0.000352603849024,0.000238458713284,0.000375986390281,-7.9912428855896,24.5038757324219,-33.9351463317871,-1.66695690155029,-0.622852385044098,-0.120538711547852,0.061639726,-0.1545343,9.76722,1.7352033,-0.3549239,9.606735,0,
1,985.6455078125,0.000353056297172,-0.000427404418588,-0.000422767305281,-7.79058742523193,23.7431716918945,-33.3056793212891,-1.68060564994812,-0.620934963226318,-0.124213218688965,0.07832205,-0.15453322,9.771949,1.7429478,-0.36935645,9.60972,0,
1,985.660583496094,-0.000179122958798,-2.80040549114347E-05,0.00077584804967,-7.76955556869507,23.5519638061523,-32.9897956848145,-1.65649878978729,-0.595361590385437,-0.104314804077148,0.06154585,-0.16644849,9.764843,1.7162406,-0.36985713,9.607362,0,
1,985.658020019531,-4.55125700682402E-05,0.000504554249346,0.00090919987997,-8.26016521453857,23.7775650024414,-33.2353324890137,-1.65139973163605,-0.621975719928741,-0.112785339355469,0.068668604,-0.164064,9.755369,1.7116439,-0.3918665,9.597685,0,
1,985.643249511719,-4.50602383352816E-05,0.000105006998638,-0.000289027753752,-7.98268461227417,23.6687469482422,-33.4256935119629,-1.65581047534943,-0.601070702075958,-0.125997543334961,0.068621635,-0.16406287,9.774303,1.7121167,-0.3804303,9.617306,0,
1,985.658264160156,-0.000310923554935,0.000104933511466,-0.000155675865244,-7.9681453704834,23.9458465576172,-33.5981178283691,-1.65538859367371,-0.603978097438812,-0.125001907348633,0.070964575,-0.15929516,9.776666,1.7138524,-0.36651385,9.619875,0,
1,985.640075683594,-0.000177313107997,0.000104860140709,-2.23238603211939E-05,-8.15429306030273,23.7713928222656,-33.3282661437988,-1.64545917510986,-0.606940984725952,-0.11455249786377,0.06852776,-0.159294,9.764826,1.7018086,-0.37603194,9.609597,0,
1,985.637939453125,-4.37027774751186E-05,0.000504260533489,0.000244185852353,-8.29878044128418,23.6887245178223,-33.2241821289062,-1.63036358356476,-0.600100219249725,-0.113490104675293,0.07804042,-0.16882594,9.77429,1.6986041,-0.39666444,9.619186,0,
1,985.6455078125,0.000223065493628,-0.000960550270975,-0.000155094254296,-8.53308010101318,23.8908042907715,-33.2768859863281,-1.63945353031158,-0.598495483398438,-0.093576431274414,0.0732137,-0.15929176,9.748246,1.6887739,-0.38907704,9.594565,0,
1,985.625122070313,-4.27978811785579E-05,-2.85182031802833E-05,0.000244573573582,-7.91651296615601,24.3103141784668,-33.7043838500977,-1.63364958763123,-0.601194024085999,-0.111417770385742,0.07794654,-0.15690728,9.762445,1.7003056,-0.34328115,9.608702,0,
1,985.61767578125,9.08125657588244E-05,-0.001493328949437,-0.000421022239607,-8.12923812866211,23.9528961181641,-33.3427467346191,-1.62340760231018,-0.599379479885101,-0.115133285522461,0.07072985,-0.16167267,9.767176,1.6831828,-0.36108708,9.615892,0,
1,985.653503417969,-0.000175051041879,-0.000694454764016,-0.000420828175265,-8.50247955322266,24.4464874267578,-33.6990394592285,-1.61269772052765,-0.602288246154785,-0.109304428100586,0.068293035,-0.14975514,9.771906,1.6810483,-0.35426077,9.621114,0,
1,985.637939453125,-0.000174598477315,-0.000561370281503,0.000511471240316,-8.12923812866211,23.9528961181641,-33.3427505493164,-1.60250949859619,-0.590700328350067,-0.108283042907715,0.070636034,-0.1640537,9.776636,1.6725129,-0.35792768,9.627518,0,
1,985.645202636719,9.21697355806828E-05,-2.88119481410831E-05,-0.000420440628659,-7.85327863693237,23.8425979614258,-33.4558067321777,-1.59259462356567,-0.60308563709259,-0.093114852905274,0.070589095,-0.1545194,9.748224,1.6695843,-0.336816,9.59978,0,
1,985.655456542969,9.26222419366241E-05,0.000503746327013,0.000112385198008,-7.62645149230957,23.7390747070312,-33.7156562805176,-1.59154748916626,-0.56320458650589,-0.115730285644531,0.05656293,-0.16406016,9.769559,1.6522735,-0.3289931,9.624769,0,
1,985.627319335937,-0.000572715129238,-0.001893169945106,-0.000286894792225,-8.23997402191162,23.322509765625,-33.4427680969238,-1.60561895370483,-0.594480693340302,-0.109991073608398,0.0784072,-0.15453531,9.757753,1.6580904,-0.37530282,9.610082,0,
1,985.657409667969,0.000352776318323,-0.000560516840778,-0.000289729505312,-7.93385171890259,23.029842376709,-33.7037696838379,-1.58086860179901,-0.587487161159515,-0.089996337890625,0.054490417,-0.1616847,9.764853,1.632466,-0.35538843,9.622381,0,
1,985.645202636719,0.000219789508265,0.000238402950345,-0.000156498223078,-8.62593555450439,24.1726036071777,-33.2790679931641,-1.57093834877014,-0.595371663570404,-0.11746883392334,0.06164235,-0.1569177,9.769587,1.6398935,-0.33811086,9.626508,0,
2,985.637573242187,-4.63552423752844E-05,-0.000294256577035,-0.000289582705591,-8.03790378570557,23.669620513916,-33.2632637023926,-1.57989490032196,-0.583687603473663,-0.097525596618652,0.07118422,-0.154534,9.760117,1.6431501,-0.33348912,9.61653,0,
2,985.637573242187,0.000619605649263,0.000371505360818,0.000109964574222,-7.60183191299439,23.1825141906738,-33.4559288024902,-1.56482172012329,-0.605350911617279,-0.11070442199707,0.05682707,-0.14738373,9.77195,1.6330409,-0.3088364,9.630874,0,
2,985.632446289062,0.000150103558553,-0.000104549966636,-0.000172102067154,-7.8622727394104,23.9396781921387,-33.6910514831543,-1.56430292129517,-0.58423238992691,-0.104991912841797,0.06636888,-0.16168292,9.767214,1.6265517,-0.32882532,9.626797,0,
2,985.637573242187,-0.000648672925308,-0.000104577775346,-0.000305186782498,-7.89189386367798,23.7537612915039,-33.4446601867676,-1.56841361522675,-0.60131311416626,-0.099265098571777,0.07591075,-0.14023308,9.767213,1.6426007,-0.30054826,9.62473,0,
2,985.637573242187,-0.000648672925308,-0.000104577775346,-0.000305186782498,-7.35451555252075,23.2560691833496,-33.4983444213867,-1.56748175621033,-0.580124497413635,-0.088756561279297,0.07350308,-0.15929879,9.764844,1.6276048,-0.29801258,9.625231,0,
2,985.629272460938,0.000283603818389,0.000161710369866,0.000227518496104,-7.5629186630249,23.9034881591797,-33.0422058105469,-1.55216312408447,-0.568755865097046,-0.083001136779785,0.06631559,-0.1640649,9.748272,1.6081932,-0.30909947,9.611362,0,
2,985.642944335937,-0.000248856813414,-0.000370949215721,0.000893381657079,-7.89852523803711,24.1161575317383,-33.2338829040527,-1.54669570922852,-0.561833024024963,-0.096206665039063,0.071077645,-0.14976485,9.774309,1.619786,-0.2893261,9.636245,0,
2,985.627685546875,0.000417103961809,-0.00077045080252,0.00076029682532,-7.65827560424805,23.8140563964844,-32.7913246154785,-1.55572366714478,-0.573885381221771,-0.109432220458984,0.07822958,-0.15929748,9.760105,1.612879,-0.30092663,9.622849,0,
2,985.637573242187,1.78014452103525E-05,0.000827416719403,-3.85773018933833E-05,-7.99594593048096,24.3935394287109,-33.0041542053223,-1.52639842033386,-0.54804003238678,-0.075318336486816,0.06865221,-0.16168033,9.76247,1.5991639,-0.29244262,9.627764,0,
2,985.649841308594,-0.000248343421845,-0.000371032569092,0.00022781197913,-8.15453720092773,24.7718200683594,-33.0018501281738,-1.53041756153107,-0.570041239261627,-0.098016738891602,0.06863445,-0.15929665,9.776671,1.590989,-0.32090724,9.6425705,0,
2,985.669982910156,0.000550775555894,2.84134584944695E-05,0.000227885262575,-7.81966590881348,23.1889686584473,-32.9608345031738,-1.51044094562531,-0.558826804161072,-0.073370933532715,0.059057117,-0.16406275,9.755364,1.569783,-0.3256501,9.624306,0,
2,985.625061035156,-0.000114843103802,-0.000104772232589,9.48006054386497E-05,-8.0404052734375,23.2983856201172,-33.0102043151855,-1.52430582046509,-0.556670844554901,-0.077159881591797,0.06620908,-0.15691243,9.755363,1.5751307,-0.31657588,9.623662,0,
2,985.64208984375,-0.000780461588874,0.0005609896034,0.000760663766414,-8.32451629638672,23.769603729248,-32.609073638916,-1.4944441318512,-0.559177458286285,-0.090305328369141,0.056631684,-0.15929534,9.755362,1.5585207,-0.31796628,9.626297,0,
2,985.634948730469,0.000151815154823,0.000560961838346,-0.000171368417796,-8.30030250549316,23.6872520446777,-33.1468772888184,-1.51285552978516,-0.557120025157928,-0.070399284362793,0.075733125,-0.16167815,9.75536,1.5681605,-0.32608068,9.624629,0,
2,985.627685546875,1.88283447641879E-05,-0.001569592859596,0.000361336569767,-8.31234073638916,23.7813873291016,-33.2275199890137,-1.49726939201355,-0.550362706184387,-0.074094772338867,0.06376588,-0.15452786,9.757726,1.5585986,-0.29963127,9.629234,0,
2,985.649597167969,0.000152157474076,-0.000371199246729,0.000627725850791,-8.18141269683838,23.9567108154297,-33.3349342346191,-1.49181616306305,-0.557946264743805,-0.08261775970459,0.06852794,-0.14737763,9.767193,1.5594102,-0.309318,9.638311,0,
2,985.645202636719,-0.000113816087833,0.00069400871871,-3.79172270186245E-05,-7.5492205619812,23.916748046875,-33.7379531860352,-1.48620760440826,-0.555878579616547,-0.072174072265625,0.07090008,-0.15452702,9.757723,1.5587671,-0.2705348,9.630115,0,
2,985.644653320312,0.000152670865646,0.000294507073704,-0.000171001709532,-8.05991554260254,23.4910659790039,-33.403392791748,-1.48081493377686,-0.558602809906006,-0.085439682006836,0.066102505,-0.1449935,9.764822,1.5484823,-0.29503632,9.638064,0,
2,985.6455078125,-0.000113473768579,0.001359742833301,-0.000437244132627,-7.79805898666382,23.8417205810547,-33.6182289123535,-1.4854416847229,-0.551728963851929,-0.07036304473877,0.075644374,-0.15690942,9.762454,1.5493082,-0.28541464,9.636081,0,
2,985.649841308594,-0.000645934371278,0.000294451543596,-0.000437171023805,-7.93866205215454,24.0258483886719,-33.145435333252,-1.47022151947021,-0.540430426597595,-0.088352203369141,0.070846796,-0.16167556,9.767187,1.5386398,-0.28157234,9.642737,0,
2,985.639526367187,0.000153184315423,2.81078391708434E-05,-0.000437097682152,-8.0749979019165,23.5822601318359,-33.3294219970703,-1.47890138626099,-0.538387179374695,-0.092119216918945,0.07799876,-0.16405834,9.771919,1.5342449,-0.3077427,9.647529,0,
2,985.64208984375,0.000153355620569,2.80800741165876E-05,-0.001102813752368,-7.96121597290039,24.2155838012695,-33.3840141296387,-1.46391224861145,-0.531578600406647,-0.076987266540527,0.073646486,-0.16645212,9.757755,1.5264534,-0.280239,9.635265,0,
2,985.652099609375,0.000150339648826,0.000561201421078,0.000493788917083,-8.04439735412598,24.1379356384277,-33.7515754699707,-1.45942425727844,-0.534191370010376,-0.06194019317627,0.071710765,-0.15693022,9.757797,1.5222603,-0.27909818,9.635831,0,
2,985.644470214844,-0.000254509883234,0.000961547892075,9.20111197046936E-05,-8.11622047424316,24.2285232543945,-33.4378700256348,-1.44917416572571,-0.527362108230591,-0.079947471618652,0.07172853,-0.15454732,9.772001,1.520553,-0.27295363,9.6506195,0,
2,985.675048828125,0.00054426677525,2.94700730592012E-05,0.000358253717422,-7.44098472595215,24.175895690918,-33.3848724365234,-1.45329582691193,-0.548991560935974,-0.060076713562012,0.0741362,-0.15693109,9.753065,1.5185891,-0.24017528,9.632685,0,
3,985.64013671875,0.000277779734461,0.00136107718572,0.000225022493396,-7.84969139099121,23.4772529602051,-33.5119667053223,-1.45286405086517,-0.53723156452179,-0.078115463256836,0.069374144,-0.15454824,9.755434,1.5031881,-0.2774865,9.63642,0,
3,985.645202636719,0.000277608720353,-0.000103632337414,-0.000840314256493,-7.95762920379639,23.8502426147461,-33.4401741027832,-1.42308759689331,-0.525992274284363,-0.077164649963379,0.062222183,-0.15693189,9.757803,1.4917781,-0.26665476,9.640888,0,
3,985.645202636719,-0.001187299611047,-0.000236762498389,-0.000174598128069,-7.81770706176758,23.9284896850586,-33.3123435974121,-1.42240571975708,-0.538336634635925,-0.071520805358887,0.06940961,-0.1545491,9.757805,1.4954797,-0.25529283,9.640635,0,
3,985.652160644531,-0.000255365128396,2.9581191483885E-05,-0.000574145058636,-8.27038383483887,24.5053062438965,-32.9684028625488,-1.43126440048218,-0.526772081851959,-0.075344085693359,0.07420716,-0.15454955,9.769643,1.4953777,-0.25846666,9.652582,0,
3,985.629272460938,-0.000521852052771,0.000828556541819,-4.15865215472877E-05,-8.24782943725586,24.3155670166016,-32.7298240661621,-1.42107975482941,-0.529829263687134,-0.060266494750977,0.0694451,-0.1569332,9.755442,1.4822204,-0.2579106,9.64026,0,
3,985.652160644531,-0.000522023066878,-0.000103521248093,-4.16599796153605E-05,-7.92953014373779,24.0346832275391,-33.6092643737793,-1.41050815582275,-0.523246467113495,-0.068801879882813,0.062293112,-0.15693365,9.755442,1.4703852,-0.25195658,9.64218,0,
3,985.659790039063,0.00014359553461,-0.001035599038005,-4.17333212681115E-05,-7.77398300170898,23.6534576416016,-33.456958770752,-1.4045330286026,-0.530343174934387,-0.063069343566895,0.07426041,-0.14740108,9.755444,1.4788636,-0.24945584,9.640885,0,
3,985.657470703125,0.000143424462294,-0.000369781599147,0.001023457036354,-8.31136131286621,24.1511459350586,-33.4032707214355,-1.39422297477722,-0.504397094249725,-0.06689453125,0.06710845,-0.16170104,9.762547,1.4590008,-0.26792687,9.650777,0,
3,985.62158203125,-0.000522536225617,0.000562351837289,0.000357593933586,-8.37861824035645,24.2461547851562,-33.3214836120605,-1.39812517166138,-0.512164831161499,-0.065995216369629,0.067126185,-0.15216841,9.772018,1.459718,-0.25715107,9.660389,0,
3,985.608825683594,-0.000655865296721,-0.000902357802261,0.000490678474307,-8.41060256958008,23.7949180603027,-33.5211029052734,-1.39229261875153,-0.534081399440765,-0.050862312316895,0.07670355,-0.14740236,9.750715,1.4582938,-0.271712,9.638653,0,
3,985.659423828125,-0.000922352308407,-0.000236540334299,-0.00017518439563,-8.30277252197266,24.5282745361328,-33.9655494689941,-1.39598941802979,-0.503913760185242,-0.059425354003906,0.07911119,-0.16885222,9.755451,1.4470174,-0.2756221,9.645402,0,
3,985.639282226563,-0.000389891589293,-0.000635986332782,0.000224216026254,-8.17670917510986,24.0670509338379,-34.265926361084,-1.37605929374695,-0.502015590667725,-0.082209587097168,0.06956935,-0.15455301,9.772022,1.4436272,-0.25273967,9.662982,0,
3,985.669555664063,0.000275727099506,0.000429304898717,0.000490458565764,-8.17836952209473,23.9596633911133,-33.4895439147949,-1.37552547454834,-0.499506771564484,-0.067117691040039,0.06958711,-0.16646986,9.764923,1.4310496,-0.26096088,9.657654,0,
3,985.634399414063,-0.000123917852761,0.000296174723189,0.000889859162271,-8.10806751251221,23.8675994873047,-33.7259407043457,-1.37635111808777,-0.501378834247589,-0.079951286315918,0.079164445,-0.1569371,9.772026,1.4391613,-0.2567591,9.663658,0,
3,985.634399414063,-0.000123917852761,0.000296174723189,0.000889859162271,-8.10806751251221,23.8675994873047,-33.7259407043457,-1.36415123939514,-0.495841383934021,-0.055874824523926,0.072012484,-0.16170414,9.767293,1.4259454,-0.24560225,9.661144,0,
3,985.63427734375,-0.000419590913225,-0.00027934202808,0.000659670913592,-7.8231143951416,23.6602249145508,-33.6037483215332,-1.35351181030273,-0.498590886592865,-0.0596923828125,0.06964034,-0.16647117,9.77203,1.4119773,-0.2703862,9.667386,0,
3,985.63427734375,-0.000419590913225,-0.00027934202808,0.000659670913592,-8.14309597015381,23.4134140014648,-33.7709541320801,-1.35718882083893,-0.506079494953156,-0.063509941101074,0.076827794,-0.15455513,9.767297,1.4201064,-0.24713796,9.661888,0,
3,985.662414550781,-2.02881055884063E-05,-0.000412472290918,0.000393281807192,-8.03029441833496,23.6769866943359,-33.6497917175293,-1.34653687477112,-0.508696258068085,-0.057854652404785,0.067285925,-0.14978905,9.762564,1.4071244,-0.23925029,9.659058,0,
3,985.644653320312,-0.000286775059067,-0.000945076229982,-0.000672055000905,-8.4141902923584,24.1602630615234,-33.4649429321289,-1.33104753494263,-0.501847326755524,-0.052203178405762,0.060133994,-0.15455605,9.757832,1.3938473,-0.22621344,9.656542,0,
3,985.652160644531,-0.000420104071964,-0.000678732583765,0.000526293064468,-8.14431953430176,24.0440826416016,-33.2687759399414,-1.32076334953308,-0.509481489658356,-0.046622276306152,0.06493151,-0.14502336,9.764935,1.3979319,-0.21956824,9.663166,0,
3,985.640075683594,0.000644988322165,0.000253400707152,-0.000272727862466,-8.34152603149414,24.3335227966309,-33.2553215026855,-1.32929527759552,-0.507429838180542,-0.064667701721191,0.06972909,-0.14264055,9.7649355,1.3986388,-0.20922254,9.663291,0,
3,985.670227050781,-0.00042044633301,-0.000545519113075,-0.0004059591447,-7.85327863693237,23.8425979614258,-33.4558067321777,-1.33283579349518,-0.504880905151367,-0.059009552001953,0.07143307,-0.14500706,9.7554035,1.3904147,-0.2199937,9.654656,0,
3,985.639343261719,0.000245172413997,0.000386614236049,-0.000272874545772,-7.92746496200562,23.6678695678711,-33.5881233215332,-1.30797326564789,-0.469505190849304,-0.077075958251953,0.071422875,-0.1664563,9.769607,1.372365,-0.25752476,9.671004,0,
3,985.649597167969,-1.54388253577054E-05,-1.3785669580102E-05,-0.000270429591183,-8.53750801086426,23.992301940918,-33.7440452575684,-1.31175923347473,-0.495800137519836,-0.033573150634766,0.069022834,-0.14023991,9.748301,1.379146,-0.20255376,9.649389,0,
4,985.649475097656,0.000651271257084,-0.000946040672716,0.000262596586253,-8.18499946594238,24.3220558166504,-33.2787742614746,-1.30146884918213,-0.488991320133209,-0.042204856872559,0.064232886,-0.1569226,9.755402,1.3586069,-0.23543853,9.658951,0,
4,985.654724121094,0.000118737458251,-1.39509793370962E-05,0.000928428256884,-8.03570079803467,23.4087181091309,-33.9412002563477,-1.28162956237793,-0.463244676589966,-0.055584907531738,0.05705303,-0.16883875,9.762503,1.3425003,-0.23741215,9.668482,0,
4,985.649719238281,0.000385249091778,-0.000280298641883,-0.000136751506943,-8.41959762573242,23.8919982910156,-33.7563514709473,-1.27616333961487,-0.48934417963028,-0.059465408325195,0.061822653,-0.15215556,9.764869,1.348453,-0.22957379,9.669985,0,
4,985.637023925781,0.001051136758178,0.000518633110914,0.000395922368625,-8.21089553833008,23.8767166137695,-33.7876167297363,-1.28497684001923,-0.462979972362518,-0.049137115478516,0.068982214,-0.1616884,9.769602,1.3462272,-0.23076487,9.675249,0,
4,985.650268554688,0.000385444902349,-0.000812962185591,-0.000536141276825,-7.64055442810059,24.2000198364258,-33.8174362182617,-1.27923429012299,-0.470660924911499,-0.053031921386719,0.07375187,-0.16407146,9.760132,1.347711,-0.19809449,9.66628,0,
4,985.652099609375,-0.000413404719438,0.00038544338895,-0.000935572956223,-8.06021308898926,22.8589286804199,-33.8282661437988,-1.26895952224731,-0.464106261730194,-0.028559684753418,0.061792195,-0.17122109,9.762499,1.3194605,-0.25160378,9.671363,0,
4,985.652282714844,0.000252482830547,-0.000679836084601,-0.0002697413438,-8.19236564636231,23.314266204834,-33.2186698913574,-1.27256953716278,-0.481180191040039,-0.051364898681641,0.07612145,-0.1545379,9.755396,1.3351814,-0.23103517,9.662366,0,
4,985.649719238281,-0.000280051026493,-0.000546694034711,0.000662406091578,-8.11263275146484,23.8631782531738,-33.4940299987793,-1.25279569625855,-0.455026268959045,-0.036341667175293,0.04982233,-0.16168745,9.762497,1.3070444,-0.20639467,9.6738825,0,
4,985.639526367187,0.000785310461652,0.000651711656246,0.000129816296976,-7.84914875030518,23.1089630126953,-33.4135131835937,-1.24730408191681,-0.462178409099579,-0.054452896118164,0.05937183,-0.15215416,9.769597,1.314059,-0.20806882,9.679962,0,
4,985.649719238281,0.000252776604611,-0.000546725816093,0.0001298582647,-8.51093101501465,24.1752700805664,-33.8358345031738,-1.24153542518616,-0.455351889133453,-0.044147491455078,0.06653136,-0.15930359,9.764862,1.3093495,-0.22106495,9.675695,0,
4,985.634948730469,0.000519190274645,-0.000546741648577,-0.000802205351647,-8.48326778411865,23.6216621398926,-33.7307205200195,-1.23595762252808,-0.481898546218872,-0.029135704040527,0.06174141,-0.14977027,9.762493,1.301935,-0.22065663,9.674131,0,
4,985.640380859375,0.000119814474601,0.000651663925964,-0.00026953156339,-8.1201057434082,23.9617309570312,-33.8065795898437,-1.22746694087982,-0.45960408449173,-0.037372589111328,0.07368076,-0.15930314,9.76486,1.3032091,-0.20732573,9.676877,0,
4,985.642639160156,0.000253070262261,-0.001212563132867,0.000263142050244,-7.94765663146973,24.1229248046875,-33.3806800842285,-1.22929418087006,-0.444287478923798,-0.041687965393067,0.06650087,-0.15453638,9.769593,1.2991399,-0.18384288,9.682547,0,
4,985.614562988281,0.000386326108128,-0.000413631409174,-0.000136289745569,-7.91140365600586,23.9464416503906,-33.8378486633301,-1.22402274608612,-0.451609313488007,-0.031447410583496,0.059321016,-0.15691938,9.748287,1.2825568,-0.18673824,9.663199,0,
4,985.634948730469,-1.3049750123173E-05,0.000651616195682,-0.000269405834842,-7.89646005630493,23.7493438720703,-33.2127418518066,-1.22852873802185,-0.449558734893799,-0.030715942382813,0.068870485,-0.16168569,9.771958,1.2865353,-0.1938211,9.686555,0,
4,985.660522460938,0.000519679975696,-0.000280505279079,0.000263267953414,-8.2476921081543,24.4214859008789,-33.428897857666,-1.22746109962463,-0.461661636829376,-0.053555488586426,0.06886032,-0.1569189,9.76959,1.2823775,-0.18841988,9.684744,0,
4,985.639526367187,0.000120303884614,0.000118952593766,0.000130151980557,-8.10861015319824,24.2358856201172,-33.8243942260742,-1.21251201629639,-0.436075508594513,-0.043341636657715,0.06646025,-0.16645177,9.755386,1.2683376,-0.1945972,9.672288,0,
4,985.6123046875,-0.000678545853589,-1.42211210913956E-05,0.00013019394828,-7.92732763290405,23.7737884521484,-34.2871971130371,-1.20705509185791,-0.443956136703491,-0.028392791748047,0.06884,-0.15930171,9.745916,1.2662194,-0.19360363,9.6629305,0,
4,985.647766113281,-0.000412131950725,0.000917868397664,-2.92196637019515E-06,-7.82409334182739,23.2904624938965,-33.4279937744141,-1.20690393447876,-0.432497322559357,-0.02769660949707,0.078389436,-0.16645129,9.753017,1.2667149,-0.20437357,9.669999,0,
4,985.6298828125,-0.000678350043017,-0.00014741087216,-0.000136037997436,-7.93896007537842,23.3937110900879,-33.5703048706055,-1.21063804626465,-0.44487076997757,-0.026899337768555,0.0783793,-0.1521513,9.76722,1.2690536,-0.19326082,9.68401,0,
4,985.67333984375,-1.24623184092343E-05,0.000118889031,0.000396635674406,-8.31220245361328,23.8873062133789,-33.9265937805176,-1.18147325515747,-0.438105225563049,-0.030900001525879,0.061639816,-0.15215106,9.7506485,1.2487779,-0.1707529,9.670237,0,
4,985.649719238281,0.000387109466828,0.00025203108089,-0.000535427883733,-7.68417167663574,23.3687133789063,-33.3001670837402,-1.18074131011963,-0.431350827217102,-0.034875869750977,0.061629653,-0.17360033,9.764851,1.2331439,-0.19887769,9.686384,0,
4,985.637939453125,-1.22664496302605E-05,-1.43006618600339E-05,-0.000668543914799,-8.16176509857178,23.8699493408203,-33.6408233642578,-1.18498957157135,-0.438771963119507,-0.038872718811035,0.06400943,-0.15215059,9.767218,1.2400305,-0.18139666,9.68789,0,
4,985.63525390625,-0.000145326543134,-0.000280632404611,-0.000269028067123,-8.56821537017822,24.5429611206055,-33.6945533752441,-1.18918585777283,-0.446361899375915,-0.02393913269043,0.075975716,-0.14976771,9.75775,1.2427258,-0.19736594,9.677736,0,
4,985.627319335937,-0.000411544402596,0.00078461522935,-0.000268986041192,-8.37296676635742,23.5139961242676,-33.3564949035645,-1.16956996917725,-0.425630569458008,-0.023235321044922,0.06643444,-0.17360093,9.755384,1.2215574,-0.1849539,9.678619,0,
5,985.642944335937,0.000253814388998,-0.000546894327272,-0.000136012735311,-7.96966695785522,23.9443740844727,-33.520809173584,-1.17855989933014,-0.42358124256134,-0.031974792480469,0.07598594,-0.16406767,9.75775,1.2306,-0.16934822,9.680047,0,
5,985.643249511719,0.000253892911132,0.00051835650811,0.000396652554628,-7.55476570129395,23.5425643920898,-33.3302803039551,-1.17348635196686,-0.43568217754364,-0.050209999084473,0.07597774,-0.16168417,9.771954,1.225565,-0.18392442,9.694696,0,
5,985.643249511719,0.000253892911132,0.00051835650811,0.000396652554628,-8.17989063262939,23.9581871032715,-33.4122352600098,-1.15830731391907,-0.423963308334351,-0.039978981018067,0.07118982,-0.1616839,9.774319,1.2178149,-0.16633633,9.698339,0,
5,985.6455078125,0.000387129373848,-1.42880016937852E-05,0.000263528258074,-7.81009674072266,23.9358558654785,-33.6988716125488,-1.15750932693481,-0.43114584684372,-0.029747009277344,0.07357159,-0.15215068,9.753014,1.2154123,-0.16035442,9.677133,0,
5,985.630432128906,0.00055661611259,-0.00056686840253,0.000164091645274,-7.85922861099243,23.9426231384277,-33.8456611633301,-1.1231803894043,-0.429084181785584,-0.019530296325684,0.061613917,-0.1545337,9.757748,1.1963302,-0.17186128,9.684037,0,
5,985.6611328125,0.001089326338843,-0.001099512912333,0.00016412534751,-8.27510929107666,23.974666595459,-33.8604354858398,-1.13217878341675,-0.426932215690613,-0.037749290466309,0.06160575,-0.15453346,9.769583,1.1941453,-0.15636852,9.696493,0,
5,985.658264160156,0.000157299364218,9.8895761766471E-05,-0.000501630827785,-8.37777805328369,24.5100021362305,-32.7981605529785,-1.12203752994537,-0.410466313362122,-0.037034034729004,0.0663774,-0.17121632,9.762481,1.1834276,-0.17637342,9.690622,0,
5,985.648315429688,0.000690009677783,-0.00016743283777,0.000164192635566,-8.4043550491333,24.3270301818848,-32.706371307373,-1.12638068199158,-0.403584122657776,-0.03160572052002,0.05919957,-0.16168298,9.76248,1.1764554,-0.1610382,9.691526,0,
5,985.643249511719,0.000690088258125,-0.0001674455998,3.10683390125632E-05,-8.3671236038208,24.5203132629395,-33.339298248291,-1.1119636297226,-0.411020994186401,-0.030953407287598,0.06636113,-0.15691616,9.764847,1.1787944,-0.16843472,9.693469,0,
5,985.620178222656,0.000423850811785,0.000897805264685,-0.000501529779285,-8.13921070098877,23.6802062988281,-33.4022407531738,-1.11659336090088,-0.413644790649414,-0.02556037902832,0.06635293,-0.15453269,9.757744,1.1717745,-0.179133,9.686935,0,
5,985.620849609375,0.000290771509754,0.000365160696674,-0.000634654075839,-8.22641372680664,23.2298469543457,-33.4394378662109,-1.1018009185791,-0.411596596240997,-0.015408515930176,0.049615502,-0.16406564,9.760111,1.1479748,-0.17492168,9.692301,0,
5,985.632995605469,0.000956639880314,0.000897779653315,-0.000368304550648,-8.46277904510498,23.7987442016602,-33.5132865905762,-1.11126744747162,-0.409475982189178,-0.014764785766602,0.06872657,-0.14976574,9.753008,1.1688608,-0.14506045,9.683027,0,
5,985.651550292969,0.000690402463078,-0.000167496618815,0.000297518912703,-8.05352878570557,24.1290969848633,-33.2877464294434,-1.10126340389252,-0.41215968132019,-0.018821716308594,0.07110828,-0.15453209,9.757742,1.1621969,-0.16160704,9.688429,0,
5,985.6162109375,-0.000774177722633,-3.43641440849751E-05,3.1270319595933E-05,-7.85425806045532,23.4728393554687,-33.2800483703613,-1.0955445766449,-0.405539572238922,-0.037044525146484,0.06632036,-0.1592985,9.769577,1.1523567,-0.15487106,9.701675,0,
5,985.610900878906,0.000424322293838,-0.001365956268273,-0.000235011801124,-7.38011360168457,23.4428634643555,-33.5823173522949,-1.08557868003845,-0.413248419761658,-0.036393165588379,0.061532438,-0.14976515,9.776677,1.1501484,-0.12504393,9.709333,0,
5,985.648803710938,0.000557558611035,9.87682869890705E-05,3.13376076519489E-05,-7.53329753875732,24.0894088745117,-33.2886009216309,-1.0707722902298,-0.430169403553009,-0.026251792907715,0.056744456,-0.14023186,9.75774,1.143247,-0.104342446,9.6911545,0,
5,985.651977539063,0.000158163398737,-0.000567034177948,-0.000634418334812,-7.6123480796814,23.2781219482422,-33.6138725280762,-1.07998394966125,-0.394936203956604,-0.011407852172852,0.07585549,-0.15453137,9.750637,1.1451762,-0.14644048,9.683578,0,
5,985.6259765625,-0.000241231842665,-0.000433889013948,-0.000234910985455,-7.92868900299072,24.2985305786133,-33.0859413146973,-1.07934069633484,-0.383251130580902,-0.015456199645996,0.07584739,-0.16168095,9.755371,1.1382606,-0.13991301,9.689373,0,
5,985.651550292969,0.000557794468477,0.000631361734122,-0.000101719168015,-8.12521457672119,24.3255996704102,-33.6731147766113,-1.06969523429871,-0.405060350894928,-0.024307250976563,0.06388974,-0.14976431,9.776675,1.1292013,-0.13291998,9.7117,0,
5,985.62158203125,0.000957346754149,0.00023187523766,3.14724165946245E-05,-7.84124088287354,23.7484664916992,-33.3751678466797,-1.0597140789032,-0.417226552963257,-0.023653030395508,0.063881546,-0.14738093,9.764837,1.1235493,-0.12846304,9.700465,0,
5,985.6416015625,2.53197795245796E-05,-3.44534346368164E-05,0.000430979853263,-8.17586803436279,24.3308944702148,-33.742603302002,-1.05922269821167,-0.391627252101898,-0.027749061584473,0.06387338,-0.15214725,9.764837,1.115626,-0.13425566,9.701374,0,
5,985.623962402344,0.000291714182822,-0.000300782092381,-0.000767408055253,-8.1558141708374,23.7699203491211,-33.2509651184082,-1.06393039226532,-0.394018232822418,-0.031856536865234,0.07581478,-0.1545303,9.764836,1.118743,-0.14912532,9.70092,0,
5,985.623962402344,0.000558108673431,0.000897626683582,-0.000101584591903,-7.87887763977051,24.0293922424316,-33.5397758483887,-1.05443680286407,-0.378108561038971,-0.017086029052734,0.068636894,-0.16406329,9.762468,1.1048963,-0.13803688,9.70039,0,
5,985.6416015625,-0.000373918359401,0.000764455937315,-0.000501024769619,-7.85662078857422,23.2075119018555,-33.7260665893555,-1.03530275821686,-0.385591864585876,-0.016489028930664,0.06664303,-0.15215658,9.757771,1.1008154,-0.14235686,9.695857,0,
6,985.649597167969,2.27414711844176E-05,9.91230044746771E-05,3.04010463878512E-05,-7.96273803710938,24.214111328125,-33.3067054748535,-1.02153432369232,-0.379347026348114,0.002958297729492,0.04794395,-0.15216692,9.760176,1.0817057,-0.11367731,9.700695,0,
6,985.611938476563,-0.00038168815081,0.000898875237908,0.00056090898579,-7.97909736633301,23.3033981323242,-33.4818496704102,-1.03160917758942,-0.39636766910553,-0.015440940856934,0.062307477,-0.14978422,9.767281,1.0893505,-0.1370353,9.706731,0,
6,985.639526367187,0.00041702753515,0.001165228895843,2.81776883639395E-05,-8.0850772857666,24.4159126281738,-33.7615699768066,-1.02180802822113,-0.380062460899353,-0.01483154296875,0.05994165,-0.14978479,9.7601795,1.0831473,-0.11784594,9.700518,0,
6,985.606750488281,-0.000115836242912,-0.000565786787774,2.80783278867602E-05,-8.41875648498535,24.1558456420898,-33.2330284118652,-1.02173697948456,-0.373467981815338,-0.023722648620606,0.06713542,-0.15455194,9.76255,1.0807444,-0.13916531,9.703011,0,
6,985.627258300781,-0.000382384256227,-3.31173650920391E-05,0.000161136733368,-7.96121644973755,24.2155838012695,-33.3840141296387,-1.03578078746796,-0.381294190883636,-0.008927345275879,0.07910895,-0.1569358,9.762552,1.0872592,-0.12726395,9.702575,0,
6,985.62744140625,-0.000648931949399,-3.30797338392585E-05,-0.000371594447643,-8.03594589233398,24.4091453552246,-33.6147804260254,-1.01183545589447,-0.365540146827698,-0.003642082214355,0.06957343,-0.15693642,9.767288,1.0744054,-0.121604845,9.708773,0,
6,985.624877929688,0.000149783707457,0.000765905540902,-0.000371693749912,-7.77148199081421,24.0246963500977,-33.710018157959,-1.0116935968399,-0.368377506732941,-0.026730537414551,0.067207634,-0.16885339,9.769658,1.06237,-0.12762186,9.712585,0,
6,985.629272460938,0.000282709574094,0.000100153512903,2.76806531473994E-05,-8.2144832611084,24.242057800293,-33.7314567565918,-0.997439742088318,-0.361860871315002,-0.01671314239502,0.0624519,-0.16408743,9.757824,1.0525403,-0.13260823,9.701573,0,
6,985.627258300781,0.000282477616565,0.000899138918612,0.000293897232041,-8.24203968048096,23.689323425293,-33.4639129638672,-0.997849345207214,-0.355158805847168,-0.030391693115234,0.06964567,-0.16408803,9.779131,1.0553232,-0.14415309,9.722588,0,
6,985.619750976563,0.000282245659037,0.000100228891824,-0.00023883394897,-7.90423011779785,23.2157554626465,-33.9501686096191,-0.973707914352417,-0.386300384998322,-0.001385688781738,0.045770705,-0.14740564,9.760197,1.0357758,-0.10536551,9.705737,0,
6,985.632385253906,0.000148855644511,0.000100266552181,0.000693171983585,-8.30595397949219,24.4194145202637,-33.1118659973145,-0.992778182029724,-0.379997372627258,-0.019780158996582,0.07447359,-0.15217282,9.769667,1.053769,-0.13290007,9.713239,0,
6,985.640075683594,-0.000384008133551,-3.28538008034229E-05,-0.000904822605662,-8.1868200302124,23.6884536743164,-33.6263389587402,-0.987910389900208,-0.378155171871185,-0.00501823425293,0.06254816,-0.14502354,9.7602005,1.0411841,-0.11294262,9.705136,0,
6,985.624877929688,0.00028154978645,0.000366657681298,-0.000105974555481,-8.04385375976563,23.7696418762207,-33.6531219482422,-0.978675842285156,-0.371455669403076,-0.00922966003418,0.06735206,-0.14979066,9.755468,1.0389757,-0.10959309,9.700755,0,
6,985.629943847656,0.000281317654299,0.000899327162188,-0.000505547737703,-7.69773197174072,23.4613723754883,-33.3034973144531,-0.978382885456085,-0.359937012195587,-0.013383865356445,0.06259632,-0.15455778,9.772041,1.0289189,-0.111687765,9.71851,0,
6,985.629943847656,0.000281317654299,0.000899327162188,-0.000505547737703,-7.97423315048218,23.9399566650391,-33.2888946533203,-0.973638534545898,-0.362954914569855,-0.012848854064941,0.06740016,-0.16409151,9.767307,1.0213473,-0.13815542,9.714398,0,
6,985.624938964844,0.000147927697981,-0.00136432016734,-0.000505647156388,-8.29421424865723,23.6931457519531,-33.4561004638672,-0.959404587745666,-0.366442859172821,-0.002880096435547,0.060254544,-0.14979245,9.757843,1.0164484,-0.11619064,9.705406,0,
6,985.645385742188,-0.000518093816936,0.000899402482901,0.000293201184832,-7.98061943054199,23.3019256591797,-33.4045448303223,-0.954535841941834,-0.360003471374512,-0.021281242370606,0.057888746,-0.15694286,9.774414,1.0090253,-0.10955715,9.723015,0,
6,985.668151855469,-0.000385167921195,-0.000165823410498,-0.000106372055598,-8.31494903564453,24.5164909362793,-33.347110748291,-0.964539766311646,-0.338967502117157,-0.006576538085938,0.06508249,-0.15932675,9.755479,1.0081396,-0.11017659,9.70415,0,
6,985.635131835937,0.000241922622081,0.000635367818177,-2.9455404728651E-06,-8.07456111907959,24.3203086853027,-33.6036262512207,-0.945244193077087,-0.360980808734894,-0.006030082702637,0.060326755,-0.14264442,9.760216,1.0071721,-0.084882386,9.708977,0,
6,985.653198242188,-0.000290941155981,0.000102773658,0.000929060508497,-7.93463897705078,24.3985557556152,-33.4757995605469,-0.935877680778503,-0.345014274120331,-0.010261535644531,0.050791204,-0.15932791,9.767319,0.9871549,-0.09649532,9.718267,0,
6,985.642761230469,-2.48571741394699E-05,-3.03465931210667E-05,0.00026317127049,-7.76248836517334,23.9276123046875,-33.4747734069824,-0.926422834396362,-0.348040640354156,-0.000280380249023,0.06276479,-0.15217869,9.757853,0.99425566,-0.10272758,9.70792,0,
6,985.653198242188,-0.000158247188665,-0.000296624784824,0.000529387732968,-8.09518814086914,24.0373153686523,-33.1219825744629,-0.9360431432724,-0.360820174217224,0.00022029876709,0.062788844,-0.1450295,9.76259,0.9919154,-0.10646735,9.71277,0,
6,985.642944335937,0.000374152499717,-0.000296587182675,0.000396130431909,-8.18087005615234,23.5884246826172,-33.2364845275879,-0.926653027534485,-0.344686269760132,0.005460739135742,0.06520283,-0.15217988,9.746021,0.9864631,-0.091767706,9.696949,0,
6,985.655883789062,-0.000957658805419,0.000369240180589,-0.000136600690894,-7.55324411392212,23.5440368652344,-33.407585144043,-0.945623755455017,-0.338239431381226,-0.003483772277832,0.074786484,-0.16171356,9.764961,0.9867156,-0.11267668,9.7159605,0,
6,985.650756835937,0.000107372761704,-0.000296511832858,-0.000403015874326,-8.17739009857178,24.3294219970703,-33.6652984619141,-0.920803546905518,-0.332050859928131,0.011302947998047,0.068591565,-0.1640621,9.7529955,0.9746078,-0.110276446,9.705181,0,
7,985.648193359375,0.000383431848604,-0.000563136709388,0.000269197917078,-7.72580051422119,24.4891891479492,-34.2061424255371,-0.920607566833496,-0.349448442459106,0.002355575561523,0.07333833,-0.15452822,9.764829,0.9806656,-0.08668319,9.716579,0,
7,985.64306640625,-0.000546673079953,-0.000563461566344,0.00040321337292,-8.32796573638916,24.2408599853516,-33.2519950866699,-0.910875856876373,-0.338424384593964,-0.011341094970703,0.05896589,-0.15691064,9.771928,0.9604135,-0.102279566,9.725524,0,
7,985.648315429688,-1.37228635139763E-05,-0.000430355255958,3.87587351724505E-06,-8.1854362487793,23.5840072631836,-33.0045700073242,-0.906091451644897,-0.336796104907989,-0.001373291015625,0.05893284,-0.15690987,9.760088,0.9537258,-0.10645044,9.714242,0,
7,985.645690917969,-0.000546036171727,-0.00056356494315,4.01242868974805E-06,-8.08855819702148,23.6749153137207,-33.3327522277832,-0.911081612110138,-0.320787191390991,-0.00089168548584,0.07323924,-0.17120872,9.762451,0.956028,-0.12082984,9.71656,0,
7,985.645751953125,0.000253229809459,0.000102173100458,0.00027046474861,-7.89287281036377,23.3839988708496,-33.2689018249512,-0.906169652938843,-0.338076770305634,0.009087562561035,0.07320619,-0.15929149,9.745879,0.9548291,-0.10695382,9.699987,0,
7,985.645751953125,0.000120390206575,0.000235279381741,0.000670075067319,-8.35758590698242,24.0549468994141,-33.0055961608887,-0.887543797492981,-0.317291975021362,0.019008636474609,0.061223686,-0.17359038,9.748243,0.93316257,-0.11695797,9.704517,0,
7,985.645751953125,0.00025386660127,0.000102069752757,0.000403895566706,-8.34250450134277,23.9637603759766,-33.0795707702637,-0.906930923461914,-0.344225764274597,0.010005950927734,0.08030987,-0.1521401,9.7435055,0.9544242,-0.106514506,9.69759,0,
7,985.638854980469,0.00025418488076,0.00090096576605,-0.000394915521611,-7.88344287872314,24.0249710083008,-33.3078575134277,-0.893116474151611,-0.323215126991272,0.005727767944336,0.06832737,-0.15213926,9.755339,0.9418972,-0.08461697,9.710825,0,
7,985.615844726562,0.000520819157828,0.000368282257114,-0.000261621142272,-8.0214376449585,23.473991394043,-32.7154655456543,-0.879118323326111,-0.33575028181076,0.010924339294434,0.0635145,-0.1497552,9.762438,0.9335653,-0.09102535,9.718633,0,
7,985.6337890625,-1.14942085929215E-05,0.000634546508081,0.000537462939974,-8.21462059020996,24.1361389160156,-33.0323791503906,-0.884292721748352,-0.315090358257294,-0.007569313049316,0.07065117,-0.15928747,9.764802,0.93180263,-0.09836332,9.721306,0,
7,985.631286621094,-0.000144333753269,0.000101862999145,4.96761640533805E-06,-7.88235664367676,23.2883911132812,-33.1109580993652,-0.87030553817749,-0.332709491252899,0.007073402404785,0.06583834,-0.14975353,9.750595,0.9254958,-0.08963983,9.707538,0,
7,985.633422851562,-0.000809805060271,-0.000297662511002,-0.000128053885419,-8.10418224334717,24.134391784668,-33.3572311401367,-0.870251059532166,-0.317040205001831,0.007539749145508,0.058635592,-0.16166909,9.757694,0.9102447,-0.09017648,9.716249,0,
7,985.641052246094,0.000522092799656,-0.000297714170301,5.2405521273613E-06,-8.00371646881104,23.8599548339844,-33.7415733337402,-0.870842456817627,-0.310189485549927,-0.015684127807617,0.07055205,-0.15690179,9.781363,0.9204234,-0.09276943,9.739038,0,
7,985.636291503906,0.000788726960309,-3.14499775413424E-05,0.000671166577376,-8.061842918396,23.9638023376465,-34.1236152648926,-0.870857357978821,-0.308349192142487,0.003732681274414,0.075298846,-0.16881733,9.755321,0.911896,-0.106296875,9.713784,0,
7,985.636596679688,-0.000143060227856,0.000234814244322,0.0001386711956,-8.17380332946777,23.9640808105469,-33.7214622497559,-0.861964583396912,-0.320996105670929,0.032553672790527,0.0680961,-0.15690015,9.743481,0.90498006,-0.09394204,9.7024145,0,
7,985.616455078125,0.000123574049212,-0.000164711280377,0.000405123690143,-8.32590007781982,23.8740463256836,-33.2308464050293,-0.857353806495667,-0.314590156078339,-0.00486946105957,0.06567317,-0.16166587,9.760049,0.8970251,-0.10057279,9.719786,0,
7,985.649108886719,0.000390208268072,-0.000564236775972,-0.000660003453959,-8.05755233764648,23.7563896179199,-32.9573783874512,-0.84794020652771,-0.308342814445496,0.009777069091797,0.07519975,-0.16166507,9.762413,0.9019225,-0.095674284,9.721826,0,
7,985.638854980469,0.00012421089923,0.000634133000858,-0.000793024839368,-7.86629581451416,23.5669708251953,-33.3606834411621,-0.834165573120117,-0.302180409431458,0.000713348388672,0.058437407,-0.1640475,9.764777,0.88232857,-0.083816186,9.72603,0,
7,985.631530761719,-0.001340208109468,-0.000164866345585,0.000405533006415,-7.99526596069336,24.1311645507812,-33.6047782897949,-0.844338238239288,-0.291268169879913,0.015315055847168,0.070353866,-0.17596315,9.757672,0.8830711,-0.098704495,9.718979,0,
7,985.618713378906,0.000258005573414,0.001033503445797,0.000272511562798,-8.5435962677002,23.9864120483398,-33.4348297119141,-0.840057134628296,-0.29421204328537,0.020474433898926,0.07749051,-0.16404592,9.755302,0.8894161,-0.09414536,9.715909,0,
7,985.644287109375,0.000657797616441,0.000367662054487,0.000139490002766,-8.23565292358398,24.3273544311523,-33.3482627868652,-0.830662608146668,-0.302188754081726,0.016176223754883,0.0631181,-0.15927859,9.767136,0.8732228,-0.09856911,9.729031,0,
7,985.611389160156,0.000258642190602,-0.000431337306509,-0.000526163203176,-8.31318187713623,23.5175399780273,-33.7508354187012,-0.826460123062134,-0.286350071430206,0.002373695373535,0.06308508,-0.17119415,9.767133,0.8648011,-0.097729124,9.729993,0,
7,985.614196777344,0.000125802762341,-0.000564546906389,0.000406078819651,-8.00926208496094,23.4857749938965,-33.3339042663574,-0.822157025337219,-0.29912543296814,0.002781867980957,0.06544191,-0.1545104,9.760028,0.87010616,-0.07116413,9.722355,0,
7,985.593688964844,-0.00040651060408,0.000500664929859,6.74143666401506E-06,-7.94917821884155,24.121452331543,-33.3033752441406,-0.827549159526825,-0.287948787212372,0.012650489807129,0.07577407,-0.1616791,9.7600975,0.87201893,-0.081538916,9.7223625,0,
7,985.624084472656,0.000255744496826,-0.00016455099103,-0.000793721119408,-8.01795768737793,24.2149887084961,-33.1442832946777,-0.834340333938599,-0.29594212770462,0.017643928527832,0.078985035,-0.1640826,9.764908,0.86928827,-0.08919216,9.727433,0,
8,985.624755859375,-1.92589068319649E-05,-0.000431525928434,0.000663636834361,-8.32242012023926,24.6150436401367,-33.6596641540527,-0.829913973808289,-0.294598162174225,-0.000894546508789,0.08140665,-0.15931676,9.767279,0.8679027,-0.09687983,9.729805,0,
8,985.624755859375,-1.92589068319649E-05,-0.000431525928434,0.000663636834361,-8.5828914642334,24.1599426269531,-32.823055267334,-0.797054469585419,-0.292961180210113,0.023172378540039,0.06231913,-0.17123403,9.7483425,0.84221196,-0.07179401,9.713337,0,
8,985.613891601563,0.000379909441108,-0.000298318394925,-0.000135441718157,-7.78876733779907,24.376781463623,-32.9581146240234,-0.821514785289764,-0.29145348072052,-0.000112533569336,0.079080135,-0.14978527,9.774385,0.8640098,-0.05856116,9.737422,0,
8,985.6318359375,-0.000552501645871,0.000367520930013,0.000397059076931,-7.93822622299194,24.7639007568359,-33.4196395874023,-0.79361367225647,-0.304222643375397,0.028665542602539,0.06477243,-0.15931918,9.748348,0.8391589,-0.078261495,9.71337,0,
8,985.606872558594,-2.01753282453865E-05,-0.000298219238175,-0.000668335298542,-8.04841995239258,23.7652282714844,-33.4212074279785,-0.798921704292297,-0.293363094329834,0.010105133056641,0.067194015,-0.14978682,9.760188,0.84189594,-0.07149938,9.724934,0,
8,985.624450683594,-0.000819428474642,0.000633935793303,0.000663113140035,-7.9479546546936,23.4907913208008,-33.8055534362793,-0.785522282123566,-0.305919706821442,0.019937515258789,0.06483585,-0.14978759,9.757824,0.83569396,-0.06617853,9.723118,0,
8,985.627258300781,0.000391462061089,-0.000183714262675,-0.000912687159143,-8.22209358215332,24.234691619873,-33.3449287414551,-0.800340175628662,-0.285194218158722,0.015596389770508,0.076817036,-0.15693815,9.757827,0.83827543,-0.0834788,9.722966,0,
8,985.6318359375,0.000657472468447,0.000348967121681,0.000152445398271,-8.64308261871338,24.6306076049805,-33.2262382507324,-0.791752099990845,-0.288388550281525,-0.002989768981934,0.07445881,-0.14978911,9.755463,0.8350705,-0.07406941,9.720813,0,
8,985.65966796875,0.000257693172898,0.00048217465519,-0.000114001333714,-8.06600284576416,23.4851760864258,-33.0941734313965,-0.778151750564575,-0.282113611698151,0.01630973815918,0.0697107,-0.16408964,9.757833,0.8227939,-0.058980927,9.724537,0,
8,985.639282226563,0.000124229758512,-0.000316723424476,0.000285341520794,-7.63210344314575,24.4712333679199,-33.6806449890137,-0.779017090797424,-0.29036545753479,0.016651153564453,0.06974241,-0.15694048,9.764936,0.82044256,-0.07452027,9.731639,0,
8,985.647155761719,-0.000408707477618,0.001014905516058,0.000285210611764,-8.25157642364502,24.1546936035156,-33.7976112365723,-0.779415428638458,-0.279056787490845,0.012311935424805,0.07933372,-0.16647442,9.760206,0.8193668,-0.09188181,9.727065,0,
8,985.6650390625,-0.000276160484646,-0.000716048525646,1.8632912542671E-05,-7.85493803024292,23.7352104187012,-32.6794242858887,-0.770660817623138,-0.277909636497498,0.01264762878418,0.07219571,-0.15455882,9.753107,0.8146948,-0.06250902,9.720318,0,
8,985.6318359375,-0.000409623899031,0.000482422561618,-0.000780445639975,-7.85480070114136,23.8411254882813,-33.3784980773926,-0.766883730888367,-0.290706634521484,0.008249282836914,0.06744757,-0.14979304,9.762579,0.80908966,-0.05587949,9.730221,0,
8,985.657409667969,0.000255860330071,8.29983328003436E-05,-0.000381102785468,-7.84787082672119,24.1108627319336,-33.1643943786621,-0.758011341094971,-0.269996523857117,0.032283782958984,0.06747928,-0.15694363,9.753113,0.801323,-0.05739747,9.72147,0,
8,985.624877929688,0.001054502557963,0.00034936380689,1.82401854544878E-05,-7.9289870262146,23.6663970947266,-33.510814666748,-0.753990888595581,-0.27751636505127,0.023187637329102,0.06990087,-0.15217789,9.762585,0.80111194,-0.062913164,9.730898,0,
8,985.639526367187,0.000654723204207,-0.000849008094519,-0.00024820654653,-7.85480070114136,23.8411254882813,-33.3784980773926,-0.759570598602295,-0.271378874778748,-0.00014591217041,0.074712366,-0.164095,9.769689,0.7973405,-0.06985306,9.738516,0,
8,985.647155761719,-0.000144529913086,-0.000183168755029,0.000284294248559,-7.85632228851318,23.8396530151367,-33.301197052002,-0.736316323280335,-0.293748080730438,0.028613090515137,0.06040466,-0.14264633,9.743652,0.78676456,-0.04367972,9.712973,0,
8,985.630187988281,-0.000277993327472,-0.000848908908665,-0.000115310540423,-8.34693336486816,24.0652542114258,-33.5467338562012,-0.746466636657715,-0.273341238498688,0.005288124084473,0.07238585,-0.1545635,9.760225,0.7887718,-0.07005494,9.729546,0,
8,985.611938476563,-0.000411456741858,0.00021640417981,1.77164329215884E-05,-8.14377593994141,23.6757888793945,-33.1703262329102,-0.728558123111725,-0.2579545378685,0.024518966674805,0.0724175,-0.16648062,9.764963,0.780607,-0.078312896,9.735091,0,
8,985.624877929688,-0.000944393977989,0.000749085447751,1.75855820998549E-05,-7.70077562332153,23.4584274291992,-33.1488914489746,-0.743985176086426,-0.266347706317902,0.029555320739746,0.06766945,-0.16171487,9.750763,0.7742512,-0.061245628,9.721363,0,
8,985.647399902344,0.00025372201344,8.33454250823706E-05,1.74546148627996E-05,-8.09298515319824,23.7764129638672,-33.7999153137207,-0.725863218307495,-0.274578154087067,0.029869079589844,0.07009101,-0.16171564,9.753133,0.7719438,-0.07010792,9.723881,0,
8,985.612365722656,-0.000545531103853,8.33950762171298E-05,-0.000914781820029,-8.07195281982422,23.585205078125,-33.4840354919434,-0.722148299217224,-0.263804495334625,0.006500244140625,0.07012272,-0.15933312,9.769707,0.77032804,-0.06804485,9.740608,0,
8,985.653015136719,-0.000279520696495,8.34446691442281E-05,-0.00038228102494,-8.1026611328125,24.1358642578125,-33.4345359802246,-0.732604622840881,-0.257338047027588,0.021038055419922,0.074934214,-0.16410048,9.762608,0.76849025,-0.06748833,9.73375,0,
8,985.614685058594,0.000918595294934,0.000349810085027,0.000283377768937,-8.64460468292236,24.6291351318359,-33.1489334106445,-0.728189527988434,-0.251125693321228,0.016674041748047,0.07439497,-0.16647054,9.760191,0.7620002,-0.07663726,9.731807,0,
9,985.634887695313,-0.00107297336217,8.07229662314057E-05,-0.000516039144713,-8.2144832611084,24.242057800293,-33.7314567565918,-0.719714045524597,-0.264424026012421,0.026431083679199,0.072013915,-0.15455435,9.760192,0.76159394,-0.058336884,9.731751,0,
9,985.629943847656,-0.00027209930704,0.000213568157051,-0.000115739705507,-7.95222282409668,24.1185073852539,-33.1487617492676,-0.701476693153381,-0.272740423679352,0.031476020812988,0.06724298,-0.1474048,9.753091,0.7561043,-0.04194048,9.724998,0,
9,985.619750976563,-0.00013902693172,-0.000585365633015,-0.000648408138659,-8.20701026916504,24.1435089111328,-33.4189033508301,-0.712083101272583,-0.2571702003479,0.012837409973145,0.06486201,-0.1640879,9.767296,0.7437942,-0.06248013,9.740332,0,
9,985.629516601563,0.000260361382971,0.000613069685642,-0.000781602633651,-8.04051208496094,24.4047241210937,-33.3828620910645,-0.698786735534668,-0.260221004486084,0.013154983520508,0.07204056,-0.15693824,9.750725,0.74850047,-0.050946668,9.723353,0,
9,985.645568847656,-0.000139198120451,0.000213609833736,-0.000382165599149,-8.06404495239258,24.2247009277344,-33.445686340332,-0.708990812301636,-0.268570721149445,0.037145614624024,0.06726962,-0.14978863,9.757828,0.7432018,-0.04429902,9.73077,0,
9,985.622619628906,-6.12574513070285E-06,-0.001916903303936,0.000549903372303,-7.94809246063232,23.3848724365234,-33.1064720153809,-0.686140418052673,-0.267212688922882,0.032707214355469,0.067278564,-0.14978887,9.753094,0.7385188,-0.05011356,9.726351,0,
9,985.637634277344,-0.000139369309181,0.001012585358694,0.000283550762106,-7.8528733253479,23.3683929443359,-32.658275604248,-0.696934759616852,-0.256201803684235,0.014059066772461,0.06967729,-0.15932222,9.764931,0.7342022,-0.05432769,9.73869,0,
9,985.612365722656,0.000260019005509,0.000613125332166,-0.000115959788673,-8.10874748229981,24.1299743652344,-33.125316619873,-0.684374868869782,-0.259876132011414,0.014296531677246,0.069686174,-0.16170575,9.755463,0.7289963,-0.06074574,9.729591,0,
9,985.627990722656,-0.000539014232345,0.001545244595036,-0.000249154341873,-8.10211753845215,23.767578125,-33.3360862731934,-0.690682411193848,-0.239275470376015,0.009833335876465,0.06730515,-0.16408919,9.764933,0.7234174,-0.056406356,9.739552,0,
9,985.627380371094,-0.000139626004966,-0.000185794502613,-0.00011603301391,-8.11483573913574,24.124080657959,-32.8160972595215,-0.6865473985672,-0.24746085703373,0.029087066650391,0.06970397,-0.15932281,9.757832,0.72246945,-0.055789396,9.732443,0,
9,985.635070800781,0.000792394042946,-0.000851570395753,0.000549719959963,-7.9018669128418,23.4810791015625,-33.504150390625,-0.677951574325562,-0.265108168125153,0.015181541442871,0.06732291,-0.15693982,9.774404,0.71858215,-0.050487287,9.74932,0,
9,985.630310058594,0.000259676511632,-5.26088115293533E-05,-0.000249264470767,-7.99928855895996,23.7584609985352,-33.2744102478027,-0.664570450782776,-0.254272758960724,0.029677391052246,0.06494188,-0.15217344,9.7578335,0.7136513,-0.035965875,9.733042,0,
9,985.630310058594,0.000259676511632,-5.26088115293533E-05,-0.000249264470767,-7.85534381866455,24.2094192504883,-33.4769515991211,-0.689140558242798,-0.229057535529137,0.011050224304199,0.08407003,-0.17123993,9.7696705,0.71909684,-0.07161339,9.744774,0,
9,985.605407714844,-0.000273040757747,-0.000984700513072,-0.000515616906341,-8.17836952209473,23.9596633911133,-33.4895439147949,-0.680634021759033,-0.241972461342812,0.039743423461914,0.08168894,-0.15694048,9.745998,0.7176838,-0.050543755,9.721017,0,
9,985.642761230469,0.000392663438106,-0.000984686659649,0.00015013612574,-7.84124088287354,23.7484664916992,-33.3751678466797,-0.672421514987946,-0.236065581440926,0.025794982910156,0.07452813,-0.16647379,9.762571,0.7047607,-0.057753123,9.738637,0,
9,985.615661621094,-0.00040636988706,0.000213748717215,0.000150099338498,-7.95306348800659,23.854663848877,-33.6720848083496,-0.659226894378662,-0.249186709523201,0.035533905029297,0.067367315,-0.16170742,9.753102,0.6953826,-0.054416247,9.729706,0,
9,985.633117675781,-0.000273297569947,-5.25531941093504E-05,-0.000382569211069,-7.94200420379639,23.3907661437988,-33.4156913757324,-0.655629992485046,-0.247960552573204,0.016861915588379,0.07454592,-0.15455778,9.767307,0.7020947,-0.050292626,9.7434225,0,
9,985.615173339844,-0.00014022513642,0.000346934481058,-0.000116289767902,-8.01368999481201,23.587272644043,-33.8010673522949,-0.661640048027039,-0.24201612174511,0.007654190063477,0.07216486,-0.1497915,9.760205,0.6983515,-0.032401577,9.736557,0,
9,985.620727539063,0.000126005063066,0.0002137903939,-0.000116326555144,-7.77757024765015,24.018798828125,-33.4007987976074,-0.648466944694519,-0.235872015357018,0.007925987243652,0.07456368,-0.1617081,9.776776,0.6927149,-0.050368056,9.7537,0,
9,985.650695800781,-0.000273554207524,-0.000718301220331,-0.00011636322597,-7.72126483917236,23.2813491821289,-33.3663215637207,-0.649681806564331,-0.234684094786644,0.022387504577637,0.06979275,-0.15455852,9.769676,0.6869756,-0.042271763,9.746877,0,
9,985.610046386719,-0.000255788007053,7.70888582337648E-05,-0.000508095952682,-8.08757781982422,24.044677734375,-33.5085105895996,-0.646141052246094,-0.247692868113518,0.022647857666016,0.074581444,-0.1521755,9.764942,0.6886484,-0.034133106,9.742044,0,
9,985.622863769531,0.000143600191223,-0.000455528963357,-0.000241816975176,-7.92412328720093,24.3029518127441,-33.3178558349609,-0.633213758468628,-0.246542200446129,0.008687973022461,0.057861,-0.1450258,9.772045,0.6728546,-0.027395085,9.750066,0,
9,985.645263671875,-0.000389117136365,7.71166814956814E-05,0.000157620292157,-8.3179931640625,24.5135459899902,-33.1925010681152,-0.633793711662293,-0.240608468651772,0.032650947570801,0.06981939,-0.15455909,9.757842,0.67473674,-0.03873542,9.735887,0,
9,985.628356933594,-0.000389202759834,-0.000721817021258,2.44256225414574E-05,-8.11331462860107,24.1255531311035,-32.8934020996094,-0.644808650016785,-0.234580114483833,0.01869010925293,0.07462382,-0.16647615,9.764946,0.67137456,-0.05018525,9.74342,0,
9,985.620727539063,-0.000655689742416,-0.000721789314412,-0.0001088057179,-7.78602123260498,23.7475891113281,-33.5375938415527,-0.622070372104645,-0.233300372958183,0.023680686950684,0.062699854,-0.15217717,9.764948,0.66245353,-0.029618517,9.743798,0,
10,985.653259277344,9.70557448454201E-06,-5.59356121812016E-05,-0.000108974636532,-8.07401847839356,23.952018737793,-33.5051765441895,-0.613759756088257,-0.208434447646141,0.004985809326172,0.06271005,-0.17362688,9.779152,0.6509341,-0.053061992,9.759067,0,
10,985.625122070313,0.000542239402421,-0.000721709337085,-0.00024217448663,-7.71335697174072,23.9208450317383,-33.3279762268066,-0.624565362930298,-0.226112559437752,0.03838062286377,0.0698899,-0.15694417,9.746013,0.658685,-0.031826004,9.725195,0,
10,985.614868164063,0.000142667588079,0.000210412050365,0.000556731130928,-8.45402908325195,24.702091217041,-32.9516181945801,-0.616483926773071,-0.224967613816261,-0.003997802734375,0.06751013,-0.1593277,9.77442,0.6535112,-0.04109408,9.753997,0,
10,985.620300292969,-0.000390061846701,-0.00072167761391,0.000423531280831,-7.74892807006836,23.8349533081055,-33.471435546875,-0.6180100440979,-0.214135214686394,0.024641036987305,0.0699102,-0.15694465,9.762585,0.65277684,-0.032652855,9.742198,0,
10,985.643798828125,-0.000257001869613,-0.000189030033653,2.4015549570322E-05,-7.8512134552002,23.4757804870605,-33.4346618652344,-0.614457905292511,-0.227483168244362,0.024875640869141,0.07231024,-0.16171141,9.769688,0.6495837,-0.043253645,9.749583,0,
10,985.630920410156,0.000275531871011,-0.000588487891946,-0.000375500414521,-7.93964099884033,23.6560859680176,-32.9696769714355,-0.60132360458374,-0.23547400534153,0.029867172241211,0.060370922,-0.16171171,9.764955,0.6345268,-0.03757277,9.745774,0,
10,985.598083496094,0.00040859208093,7.73176725488156E-05,-0.000375542207621,-8.07401847839356,23.952018737793,-33.5051765441895,-0.593673169612885,-0.234385028481483,0.039535522460938,0.060381055,-0.14502902,9.753119,0.63732445,-0.023064628,9.733515,0,
10,985.615661621094,-0.000923085259274,0.000343649444403,0.000157047586981,-7.96371746063232,23.8443489074707,-33.1309471130371,-0.595140099525452,-0.214259460568428,0.011350631713867,0.062781096,-0.15932886,9.7696905,0.63156706,-0.034114704,9.7507,0,
10,985.623168945313,0.000142080447404,7.73494539316744E-05,0.000157005619258,-7.95069980621338,24.1199798583984,-33.2260704040527,-0.594737887382507,-0.231632128357887,0.030632972717285,0.067571074,-0.15456264,9.760223,0.6339505,-0.028336167,9.741034,0,
10,985.598083496094,-0.000390649278415,-0.000721582327969,-0.000109352171421,-8.18858623504639,24.6874008178711,-33.2226142883301,-0.602499425411224,-0.221488043665886,0.040224075317383,0.07475093,-0.15932943,9.760223,0.6348196,-0.034668207,9.741084,0,
10,985.603332519531,0.000408200517995,-0.000455250468804,0.000290079624392,-7.90447521209717,24.2161827087402,-33.6237449645996,-0.589906215667725,-0.22965632379055,0.03096866607666,0.06998128,-0.14503007,9.753122,0.63230866,-0.018228427,9.733919,0,
10,985.637939453125,0.000141786789754,0.000610028975643,-0.000242594163865,-8.06738662719727,23.5896186828613,-33.7159461975098,-0.57236921787262,-0.233325615525246,0.021712303161621,0.05804193,-0.14741357,9.762592,0.6173267,-0.025201231,9.74431,0,
10,985.628356933594,-0.000257784937276,0.000210570957279,-0.000242636073381,-8.0578498840332,23.1242523193359,-33.3822479248047,-0.59829980134964,-0.22749151289463,0.012429237365723,0.0795612,-0.15456362,9.774429,0.63163674,-0.04404719,9.755449,0,
10,985.656127929687,-0.000790514633991,0.000876376638189,0.000156795838848,-8.30997753143311,24.0467071533203,-32.7814979553223,-0.580646753311157,-0.217050209641457,0.012637138366699,0.06523195,-0.16171367,9.776798,0.61275744,-0.039254338,9.759056,0,
10,985.637939453125,-0.000524296541698,-0.000455186935142,2.35959887504578E-05,-7.86143159866333,24.2035217285156,-33.1677284240723,-0.582268953323364,-0.211130604147911,0.017580032348633,0.0795815,-0.15933062,9.762596,0.6232639,-0.03131628,9.744258,0,
10,985.6533203125,0.000274553167401,0.000210618629353,0.00055618584156,-8.16480827331543,23.867000579834,-33.486213684082,-0.593296647071838,-0.224235907196999,0.017797470092774,0.07959169,-0.15456434,9.7768,0.62194675,-0.037043735,9.758476,0,
10,985.640502929688,-0.000391334382584,-0.000188839258044,-0.000242803827859,-7.94170570373535,24.0228996276855,-32.9908256530762,-0.594921350479126,-0.218399986624718,0.017999649047852,0.08438164,-0.15456457,9.767332,0.6228561,-0.031038895,9.748994,0,
10,985.645568847656,8.04153387434781E-06,-0.000588297145441,0.000422943965532,-8.32698631286621,24.6106262207031,-33.4277496337891,-0.581966936588287,-0.203174486756325,0.018208503723145,0.07483217,-0.15933134,9.764966,0.6084153,-0.034625143,9.747521,0,
10,985.633850097656,-0.000657846103422,0.000210666359635,0.000156586058438,-8.01339149475098,24.2194061279297,-33.3761978149414,-0.56007194519043,-0.187773331999779,0.018390655517578,0.072452456,-0.17363138,9.764967,0.5980507,-0.040797383,9.748367,0,
10,985.623168945313,-0.00025847015786,0.0003438401327,-0.000242929672822,-7.99290227890015,24.396484375,-33.158763885498,-0.571408629417419,-0.224803283810616,0.032786369323731,0.0676828,-0.15456541,9.7626,0.59713596,-0.032903478,9.7457285,0,
10,985.648193359375,-0.000258568004938,0.000610171817243,0.000156502239406,-8.33641624450684,23.9696502685547,-33.3887901306152,-0.554140448570251,-0.209645941853523,0.037701606750488,0.06291312,-0.16171546,9.767336,0.58722985,-0.03604397,9.751144,0,
10,985.620300292969,-0.000524981878698,-0.000455075700302,2.33021564781666E-05,-8.27676963806152,23.8672790527344,-33.084056854248,-0.574734687805176,-0.199279710650444,0.033162117004395,0.082042515,-0.1617157,9.750766,0.60081786,-0.03643994,9.733859,0,
10,985.620300292969,-0.000524981878698,-0.000455075700302,2.33021564781666E-05,-7.80651092529297,23.5705108642578,-33.7550315856934,-0.556993722915649,-0.221990302205086,0.038107872009277,0.07727286,-0.14979957,9.753134,0.5978557,-0.018114626,9.736235,0,
10,985.602844238281,-0.000392019661376,-0.001786623266526,-0.000509413424879,-7.76400995254517,23.926139831543,-33.3974647521973,-0.568039059638977,-0.206771984696388,0.038309097290039,0.0795466,-0.15218,9.762592,0.59605426,-0.027577221,9.7458515,0,
11,985.602844238281,-0.000392019661376,-0.001786623266526,-0.000509413424879,-7.98725080490112,23.6643295288086,-33.193775177002,-0.536677002906799,-0.196530744433403,0.024263381958008,0.06282234,-0.17124633,9.767326,0.57134235,-0.027819738,9.752269,0,
11,985.645263671875,-0.000924141844735,0.000743294833228,0.000422910554335,-7.52362298965454,23.7299575805664,-33.653980255127,-0.543293416500092,-0.209791049361229,0.029178619384766,0.06282741,-0.15933006,9.760226,0.5718743,-0.027957916,9.744923,0,
11,985.63818359375,-0.000257806124864,0.000210574449738,0.000423144607339,-8.18584060668945,24.0582122802734,-33.8020973205566,-0.545259773731232,-0.203770712018013,0.015158653259277,0.074782014,-0.15218036,9.776796,0.58345413,-0.02828382,9.760804,0,
11,985.633117675781,8.46086186356843E-06,-5.573351518251E-05,0.00055628165137,-8.20190238952637,23.7796401977539,-33.5523643493652,-0.542255163192749,-0.202779665589333,0.020072937011719,0.07478705,-0.15933026,9.762594,0.5763126,-0.039694473,9.747078,0,
11,985.628784179688,8.41208384372294E-06,0.000743222073652,2.36289342865348E-05,-8.23540878295898,23.3269271850586,-33.6746864318848,-0.539149343967438,-0.192340269684792,0.039193153381348,0.07479215,-0.15933041,9.753126,0.5730458,-0.031723335,9.737817,0,
11,985.623168945313,-0.000524268718436,-0.000188875579624,0.000423081801273,-8.17836952209473,23.9596633911133,-33.4895439147949,-0.540998518466949,-0.200584039092064,0.025176048278809,0.07957703,-0.14979742,9.764962,0.5786553,-0.02551286,9.749244,0,
11,985.610534667969,-0.000258001586189,-0.000322025589412,0.000423060788307,-8.07499694824219,23.5822601318359,-33.3294219970703,-0.523501455783844,-0.194791153073311,0.034831047058106,0.058072954,-0.1640972,9.762595,0.55027306,-0.020748377,9.748608,0,
11,985.630493164063,0.000674055190757,-5.57017920073122E-05,0.000822513713501,-7.98985862731934,24.3994331359863,-33.3133735656738,-0.525364518165588,-0.2034962028265,0.03499698638916,0.06285784,-0.15456428,9.753127,0.55476016,-0.014148653,9.738755,0,
11,985.627990722656,-0.000258099433267,7.74641230236739E-05,2.35451152548194E-05,-7.64860057830811,23.4546051025391,-33.1567039489746,-0.527948975563049,-0.211716309189796,0.035147666931152,0.07481241,-0.14026476,9.764964,0.5693162,-0.011040479,9.749642,0,
11,985.655822753906,-0.00032650079811,0.000210349084227,0.000202977738809,-8.14279747009277,24.0455513000488,-33.3460807800293,-0.529790639877319,-0.191556468605995,0.040057182312012,0.07481751,-0.16648091,9.764964,0.5561034,-0.032872364,9.7507715,0,
11,985.620727539063,0.000206033233553,-0.000189108875929,-6.3380051869899E-05,-7.90697574615479,23.8449478149414,-33.3706855773926,-0.522323787212372,-0.204558059573174,0.030759811401367,0.07004276,-0.15218134,9.76023,0.5540427,-0.01663576,9.745918,0,
11,985.62841796875,0.000605458160862,0.000609846669249,0.000602388754487,-8.01339149475098,24.2194061279297,-33.3761978149414,-0.514854848384857,-0.179816141724587,0.021445274353027,0.07721752,-0.1712477,9.764965,0.55085224,-0.035500586,9.75116,0,
11,985.650695800781,7.27775623090565E-05,0.000343538762536,0.000336051918566,-8.04635524749756,23.3984107971191,-33.4000625610352,-0.512275874614716,-0.178963795304298,0.02159309387207,0.06049332,-0.16171469,9.762598,0.5359038,-0.027574375,9.74937,0,
11,985.650268554688,-0.000193587213289,0.000609862559941,0.00046918890439,-8.06404495239258,24.2247009277344,-33.445686340332,-0.504561185836792,-0.182391986250877,0.040711402893067,0.06766808,-0.1640981,9.750763,0.5380471,-0.02597262,9.73749,0,
11,985.635681152344,0.000605311535764,-0.000322235107888,-0.000329779752064,-7.86325168609619,23.5699157714844,-33.5152969360352,-0.530288457870483,-0.181040778756142,0.021953582763672,0.082012564,-0.15933163,9.772068,0.55097353,-0.028195694,9.758129,0,
11,985.612365722656,0.000205788936,-0.000455385074019,-0.000196642649826,-7.91086149215698,23.5781555175781,-33.7393951416016,-0.503413796424866,-0.199264422059059,0.045788764953613,0.065288305,-0.15694852,9.755497,0.5324842,-0.02034171,9.742415,0,
11,985.633117675781,-0.00046004971955,-0.00072169303894,0.00046912606922,-8.33283042907715,23.6043090820313,-33.4449501037598,-0.515160918235779,-0.184191569685936,0.03646183013916,0.07724285,-0.16171516,9.769701,0.5392639,-0.03664501,9.756384,0,
11,985.635375976563,-0.000326940731611,0.001275683869608,0.000202789204195,-7.77496194839478,23.2836952209473,-33.2812004089355,-0.497991234064102,-0.183143600821495,0.022418975830078,0.067688346,-0.16648193,9.764969,0.5259003,-0.028262556,9.752412,0,
11,985.632873535156,0.000471958192065,7.727048068773E-05,0.000335926248226,-7.49900341033936,23.1734008789063,-33.3942527770996,-0.490670531988144,-0.1724823564291,0.027305603027344,0.06291363,-0.15694894,9.764967,0.52253723,-0.012949258,9.752433,0,
11,985.640197753906,-6.07224646955729E-05,0.000476752233226,-0.000596200174186,-7.86257123947144,23.3075408935547,-34.1159248352051,-0.493184804916382,-0.190455034375191,0.041644096374512,0.07008839,-0.15218244,9.762602,0.52814114,-0.018385217,9.749727,0,
11,985.632751464844,0.000738176284358,0.001275707734749,-0.000729379069526,-7.87711048126221,23.0304412841797,-33.9435005187988,-0.485990583896637,-0.184361919760704,0.032327651977539,0.07009345,-0.1617157,9.760235,0.5214591,-0.029722705,9.747844,0,
11,985.632873535156,0.000738127564546,-5.58636675123125E-05,0.001401126966812,-8.21478080749512,23.609920501709,-34.1563301086426,-0.482995808124542,-0.15471924841404,0.037225723266602,0.07248843,-0.18078206,9.769705,0.51335603,-0.049565434,9.758026,0,
11,985.630187988281,0.000738078611903,-0.000455329631222,6.95265480317175E-05,-8.01893711090088,23.8452262878418,-32.9685249328613,-0.494730472564697,-0.196534290909767,0.013703346252441,0.0748834,-0.15456612,9.776806,0.52380574,-0.018955499,9.7642565,0,
11,985.625427246094,-0.000327233865391,-0.000322163745295,0.000202663650271,-7.96081113815308,23.7413787841797,-32.586483001709,-0.472614377737045,-0.180758163332939,0.028083801269531,0.06293893,-0.15218295,9.767338,0.50990134,-0.011585236,9.755403,0,
11,985.633117675781,0.001004296820611,0.000210475976928,-6.36733020655811E-05,-7.76648807525635,23.975212097168,-31.3213768005371,-0.484426975250244,-0.16069595515728,0.02349853515625,0.06756392,-0.17124538,9.762589,0.5044768,-0.024037227,9.751255,0,
12,985.635681152344,-0.000459154136479,-5.60487387701869E-05,0.000469509890536,-7.98238611221314,24.3008766174316,-33.0008201599121,-0.477039843797684,-0.183794811367989,0.042571067810059,0.06995255,-0.15932892,9.7602215,0.5081843,-0.016826823,9.748523,0,
12,985.633117675781,0.00073946651537,0.000609708658885,-0.000329352391418,-7.95374488830566,24.1170349121094,-33.071460723877,-0.479351609945297,-0.182739153504372,0.042710304260254,0.069951296,-0.15456237,9.757854,0.5071568,-0.013252303,9.746133,0,
12,985.635070800781,-0.000592100783251,-0.000588714785408,0.000469600461656,-7.44845676422119,24.2744522094727,-33.6974258422852,-0.471662968397141,-0.181773796677589,0.033394813537598,0.0747298,-0.14979585,9.750752,0.5100748,-0.00014270842,9.73884,0,
12,985.623168945313,-0.000458930619061,-0.000189242971828,-6.30260910838842E-05,-7.49900388717651,23.1734008789063,-33.3942527770996,-0.483343571424484,-0.180948659777641,0.03353214263916,0.08189824,-0.15932886,9.757854,0.51068515,-0.020231381,9.746106,0,
12,985.617797851563,-0.000192602456082,-5.60869812034071E-05,-0.000462494615931,-7.37082099914551,23.9779205322266,-32.9221992492676,-0.46635377407074,-0.184713259339333,0.033674240112305,0.06038791,-0.14741246,9.7649555,0.49273947,-0.00027038157,9.753817,0,
12,985.614868164063,0.000606357469223,0.000742858683225,0.000336458266247,-7.91955709457397,24.3073692321777,-33.5497741699219,-0.459182769060135,-0.174110487103462,0.033806800842285,0.065166414,-0.16409536,9.7602215,0.4879827,-0.021378934,9.749593,0,
12,985.650756835937,-0.000458893831819,-0.000322406820487,0.000469621416414,-8.04301261901856,24.0334892272949,-33.1298027038574,-0.470648050308228,-0.177963063120842,0.043422698974609,0.06755504,-0.15456225,9.753119,0.49027526,-0.018804878,9.742232,0,
12,985.630310058594,0.000340065918863,-0.000588724738918,-0.000329320959281,-8.34845542907715,24.0637817382812,-33.469425201416,-0.453715175390244,-0.167469546198845,0.029356002807617,0.06277397,-0.15932874,9.7554865,0.4816692,-0.013586342,9.745084,0,
12,985.627685546875,0.000340078258887,-0.000588726659771,-6.29998976364732E-05,-8.0210018157959,24.212043762207,-32.989673614502,-0.455796957015991,-0.166339859366417,0.038969039916992,0.06277269,-0.16171198,9.7649555,0.47850752,-0.008944884,9.754763,0,
12,985.632751464844,7.37744849175215E-05,-0.000322412815876,0.00033647910459,-7.95678853988647,24.1140899658203,-32.9168510437012,-0.461276382207871,-0.164689883589745,0.029718399047852,0.067551196,-0.16171198,9.767323,0.47994927,-0.01651828,9.757083,0,
12,985.632751464844,7.37744849175215E-05,-0.000322412815876,0.00033647910459,-7.95678853988647,24.1140899658203,-32.9168510437012,-0.454921245574951,-0.149996802210808,0.04872989654541,0.067549974,-0.16647853,9.7531185,0.47437626,-0.022762388,9.743206,0,
12,985.615173339844,0.00060641852906,-0.000455572735518,7.01685785315931E-05,-8.1328239440918,24.3182373046875,-33.2865905761719,-0.452153563499451,-0.158634141087532,0.025195121765137,0.07232851,-0.1688617,9.76969,0.47524083,-0.035236433,9.75979,0,
12,985.632873535156,7.37991067580879E-05,-0.000988206476904,0.00020333181601,-8.24744606018066,23.4210586547852,-33.7553215026855,-0.435692012310028,-0.162554040551186,0.025304794311524,0.062767625,-0.15932857,9.772057,0.4684378,-0.012339562,9.762318,0,
12,985.658630371094,0.000206969270948,0.000343370949849,-6.29788846708834E-05,-7.68417167663574,23.3687133789063,-33.3001670837402,-0.438420593738556,-0.142334595322609,0.049094200134277,0.06993607,-0.16647841,9.748384,0.46877307,-0.025879502,9.738748,0,
12,985.645141601563,-5.93345030210912E-05,0.00060968491016,0.000336500117555,-8.13076019287109,23.9514198303223,-33.2654457092285,-0.431215167045593,-0.165206655859947,0.039750099182129,0.06276509,-0.16171183,9.755486,0.46180686,-0.015960693,9.7460785,0,
12,985.624877929688,-5.93221629969776E-05,0.000609682814684,0.000336505414452,-8.04896354675293,24.1335144042969,-33.5196571350098,-0.448113232851028,-0.159635201096535,0.030391693115234,0.07471335,-0.164095,9.772057,0.4704097,-0.02238983,9.762369,0,
12,985.630187988281,0.000340163824148,0.00034336495446,0.000336510653142,-8.12535285949707,24.2196884155273,-32.9740371704102,-0.441319674253464,-0.16814748942852,0.054173469543457,0.06993225,-0.15932845,9.7507515,0.46466282,-0.012364611,9.74122,0,
12,985.635375976563,7.38601665943861E-05,0.000742836797144,-0.000196115870494,-7.78545570373535,23.7996063232422,-31.6161155700684,-0.452949494123459,-0.152916386723518,0.011695861816406,0.08188051,-0.15694518,9.769689,0.47438174,-0.021934524,9.759746,0,
12,985.620056152344,0.000473346270155,0.000609676877502,0.000203363189939,-8.17103481292725,23.7551956176758,-32.477912902832,-0.421251952648163,-0.166258081793785,0.044981002807617,0.060370147,-0.15217854,9.757853,0.45273957,0.0022531152,9.748719,0,
12,985.635070800781,-0.000458747148514,-0.001387694268487,-0.000196105393115,-7.65881824493408,24.1823425292969,-32.8897743225098,-0.433164805173874,-0.174882665276527,0.021429061889649,0.06992844,-0.15217854,9.767321,0.45949864,-0.0035808384,9.757943,0,
12,985.667541503906,0.000340212718584,-0.000588748545852,-0.000462416035589,-7.56237602233887,23.5352020263672,-32.9437561035156,-0.440164536237717,-0.164777472615242,0.035743713378906,0.07470697,-0.14979525,9.762587,0.46200025,-0.0045687705,9.753084,0,
12,985.602416992188,-0.000465158751467,0.000162053096574,-0.001066732453182,-7.80124139785767,23.7328643798828,-32.7645454406738,-0.423249870538712,-0.16415373980999,0.016921043395996,0.069925904,-0.15932833,9.769688,0.45175815,-0.011753559,9.760782,0,
12,985.647399902344,-0.001397251966409,-0.000104264778201,-0.000267779512797,-8.27606582641602,24.0252075195312,-31.8616523742676,-0.435140579938889,-0.144511386752129,0.035964965820313,0.079484224,-0.16409482,9.769688,0.45615125,-0.024560168,9.760706,0,
12,985.642761230469,-0.000731450156309,-0.001569004030898,0.000664331251755,-8.15595245361328,23.6640090942383,-32.5518836975098,-0.427350133657455,-0.153306379914284,0.050299644470215,0.07728258,-0.14741652,9.764971,0.45715266,-0.008795023,9.75568,0,
12,985.634216308594,0.000332919327775,-0.000903069216292,0.000264474248979,-8.36519622802734,24.0475807189941,-32.6190757751465,-0.415527999401093,-0.166594102978706,0.031454086303711,0.0703125,-0.15218796,9.762622,0.44595808,-0.01123181,9.753864,0,
13,985.654479980469,-6.93531183060259E-05,-0.00103577284608,0.000130116881337,-8.27190589904785,24.503833770752,-32.8910942077637,-0.403062075376511,-0.161185368895531,0.041044235229492,0.060766876,-0.1593381,9.762623,0.43160257,-0.009247959,9.754564,0,
13,985.624877929688,-0.000468961399747,-0.000236803374719,0.000396375136916,-7.94072723388672,24.3926658630371,-33.1665802001953,-0.410901635885239,-0.14619816839695,0.041126251220703,0.06556064,-0.16172175,9.750788,0.43289256,-0.008947805,9.742733,0,
13,985.639709472656,-0.000202780152904,0.001094797858968,0.00039631742402,-7.82183742523193,24.6621246337891,-33.3546333312988,-0.413098812103272,-0.14555524289608,0.045969963073731,0.067964494,-0.16887195,9.760259,0.43043077,-0.012409329,9.752455,0,
13,985.617126464844,-0.000735546462238,-0.001834654947743,-0.000269530049991,-8.03996849060059,24.0364379882813,-33.2844123840332,-0.405867666006088,-0.139992520213127,0.036611557006836,0.07036838,-0.17363887,9.76026,0.4280531,-0.024752274,9.752637,0,
13,985.647155761719,0.000196424458409,0.000562209810596,-0.000269587675575,-8.14584159851074,24.042610168457,-33.1914710998535,-0.408334404230118,-0.144224390387535,0.060378074645996,0.072772264,-0.16172273,9.7578945,0.4322019,-0.015720755,9.74992,0,
13,985.624755859375,-0.00060265767388,-0.00010355807899,-0.000136487418786,-7.99885225296021,24.4965133666992,-33.5486221313477,-0.406295925378799,-0.162706092000008,0.027325630187988,0.07517612,-0.15219001,9.7697315,0.4364536,-0.0021983087,9.761453,0,
13,985.649719238281,-0.000469634513138,2.96217040158808E-05,-3.3872202038765E-06,-7.94363307952881,24.4956359863281,-33.7110481262207,-0.404158085584641,-0.142785713076592,0.017954826354981,0.065630436,-0.16172345,9.767365,0.42171538,-0.006780237,9.759816,0,
13,985.626708984375,-0.000203453091672,0.000828591233585,-3.44478758051991E-06,-7.35671806335449,23.5169677734375,-32.8204116821289,-0.39752060174942,-0.151505187153816,0.032245635986328,0.07281411,-0.16172381,9.757898,0.42604694,-0.005396351,9.750204,0,
13,985.622131347656,-0.000203587667784,0.000828613119666,0.000262813351583,-7.84124040603638,23.7484664916992,-33.3751678466797,-0.409977793693543,-0.126685813069344,0.041808128356934,0.072828114,-0.17840709,9.765,0.41799015,-0.027785838,9.757914,0,
13,985.639282226563,0.000328909460222,0.000162845302839,0.000262755725998,-7.60291814804077,23.9190979003906,-33.6528282165527,-0.383933007717133,-0.135513439774513,0.046634674072266,0.07284206,-0.17364086,9.746065,0.4169336,-0.018771142,9.738945,0,
13,985.634216308594,6.24589447397739E-05,0.000296025013085,-0.000136775837746,-8.27829170227051,23.8658065795898,-33.0067481994629,-0.41510209441185,-0.144418850541115,0.051464080810547,0.077635825,-0.16172482,9.755534,0.42333347,-0.019496366,9.747977,0,
13,985.649719238281,-0.000736623187549,-0.000236584892264,-0.000269991403911,-8.34554862976074,23.9608116149902,-32.9249610900879,-0.389059036970139,-0.148507103323936,0.042085647583008,0.06570026,-0.15457536,9.757903,0.41286469,-0.008368522,9.750608,0,
13,985.639282226563,0.000594821642153,0.000828700431157,-0.000403207086492,-8.36201477050781,24.1564407348633,-33.4727592468262,-0.38681361079216,-0.147547915577889,0.013782501220703,0.06332433,-0.15457572,9.767373,0.40863603,-0.006609395,9.760249,0,
13,985.651672363281,6.2055274611339E-05,-0.000103383266833,0.000395682931412,-8.3474760055542,24.4335479736328,-33.6451835632324,-0.385139763355255,-0.137282058596611,0.046998977661133,0.06572825,-0.1498095,9.748436,0.41005278,-0.0015516281,9.741182,0,
13,985.636474609375,-0.001003342680633,0.001095060026273,0.000262467365246,-8.05711555480957,24.4944381713867,-33.2315788269043,-0.378268361091614,-0.146273776888847,0.056550979614258,0.07291189,-0.16410948,9.760273,0.40982205,-0.01411131,9.753309,0,
13,985.613708496094,6.17861223872751E-05,-0.000902287196368,-3.90625791624188E-06,-8.2166862487793,24.5029563903809,-33.053524017334,-0.385234296321869,-0.135923787951469,0.047188758850098,0.06575611,-0.17125966,9.767378,0.3975715,-0.02753967,9.76097,0,
13,985.641540527344,0.000727441161871,-0.000369633606169,-0.000137121940497,-8.72129249572754,24.0831680297852,-33.0281867980957,-0.354817032814026,-0.139923557639122,0.033063888549805,0.049040765,-0.1617269,9.75791,0.3836195,-0.012307525,9.751823,0,
13,985.628967285156,-0.000337956967996,0.000695651688147,0.000528610136826,-8.13282489776611,24.3182373046875,-33.2865867614746,-0.358136475086212,-0.143976226449013,0.037866592407227,0.056224465,-0.15696065,9.755543,0.39051044,0.0010842234,9.749149,0,
13,985.636291503906,-0.000604407396168,0.001361463451758,-0.000137237249874,-8.14402103424072,24.6762161254883,-32.8439102172852,-0.370524406433106,-0.138561323285103,0.056884765625,0.0610182,-0.15934427,9.760279,0.3921747,-0.008143261,9.753885,0,
13,985.641479492188,-0.000205068121431,0.000429379579145,-4.13699308410287E-06,-8.32962512969971,24.133472442627,-32.4756088256836,-0.368868499994278,-0.132996007800102,0.038022041320801,0.063422084,-0.16172792,9.762648,0.39172477,-0.012699157,9.756326,0,
13,985.644287109375,6.11131836194545E-05,0.001361506991088,-0.000403668440413,-8.10614013671875,23.3948669433594,-33.0057182312012,-0.372066587209702,-0.141721680760384,0.038095474243164,0.056266367,-0.16172828,9.765017,0.3835044,-0.0064451844,9.758984,0,
13,985.644287109375,6.11131836194545E-05,0.001361506991088,-0.000403668440413,-7.91694927215576,23.572265625,-33.43017578125,-0.350764334201813,-0.131046399474144,0.038196563720703,0.056280315,-0.16172864,9.7579155,0.38081414,-0.0047058314,9.751984,0,
13,985.62353515625,0.000859926221892,0.000163107353728,0.00092785328161,-8.08521461486816,24.3099937438965,-33.0624923706055,-0.353341192007065,-0.135183826088905,0.033547401428223,0.04912454,-0.15934564,9.753182,0.37254924,0.0013680905,9.747491,0,
13,985.62353515625,0.000327159854351,-0.000768976344261,0.000395163835492,-7.95817184448242,24.2185287475586,-33.5386238098145,-0.360438317060471,-0.153517678380012,0.038394927978516,0.06561339,-0.15218998,9.769731,0.38882148,-0.0012845546,9.763396,0,
14,985.6357421875,-0.000605080276728,-0.000103164784377,-4.36772825196385E-06,-8.21462059020996,24.1361389160156,-33.0323753356934,-0.353816777467728,-0.138379618525505,0.047942161560059,0.060837448,-0.16172309,9.760263,0.37856013,-0.0032523274,9.754451,0,
14,985.65087890625,-0.000204215961276,-0.000369706394849,0.000129386142362,-7.85838747024536,24.2064666748047,-33.3223419189453,-0.347544610500336,-0.147281631827354,0.038538932800293,0.05367148,-0.15219013,9.757895,0.37359458,0.006529197,9.752073,0,
14,985.618408203125,6.2959996284917E-05,0.000295943638775,0.000129754771478,-7.86683893203735,23.9352607727051,-33.4591369628906,-0.369972407817841,-0.141821250319481,0.038603782653809,0.06562486,-0.15457352,9.757896,0.38217777,-0.00781101,9.751852,0,
14,985.632934570313,0.000462396856165,0.002027002861723,-0.00053605082212,-8.45750904083252,23.9610939025879,-32.5228004455566,-0.358763754367828,-0.136115685105324,0.052883148193359,0.060848832,-0.15457357,9.753162,0.37574586,-0.0027510524,9.747337,0,
14,985.607849121094,-0.000203429342946,0.000429113570135,-0.000536066305358,-8.02130031585693,23.5799102783203,-33.4145431518555,-0.347376853227615,-0.144622817635536,0.024561882019043,0.06563243,-0.15457372,9.7744665,0.37895638,0.0016607344,9.768559,0,
14,985.640502929688,0.000196007807972,0.000695435272064,-0.00040292419726,-7.86751937866211,24.1976318359375,-32.858512878418,-0.355410635471344,-0.129896506667137,0.034086227416992,0.06085643,-0.16410686,9.7721,0.3692769,-0.0123138875,9.766683,0,
14,985.645751953125,-0.000203502859222,0.000295967503916,-0.000802413851488,-8.1361665725708,23.6831550598145,-33.5568542480469,-0.348554939031601,-0.133965238928795,0.034168243408203,0.060860217,-0.15934043,9.7721,0.3689093,-0.005941421,9.766623,0,
14,985.625305175781,6.27765257377177E-05,0.00096176326042,-3.48180765286088E-06,-8.53623008728027,24.9942016601562,-33.4949340820312,-0.337267845869064,-0.137951120734215,0.015302658081055,0.058474183,-0.15695728,9.767366,0.36551118,-0.0013111681,9.761963,0,
14,985.632934570313,-0.000336770754075,0.000162827491295,-3.51323978975415E-06,-8.02488708496094,23.9452514648437,-33.3583831787109,-0.344951748847961,-0.146957889199257,0.029575347900391,0.05608803,-0.145041,9.767366,0.36569542,0.01073429,9.761751,0,
14,985.624938964844,-0.000603123335168,-0.000236640422372,-0.00013668689644,-7.90058994293213,24.4829788208008,-33.2550354003906,-0.32864773273468,-0.141612991690636,0.02964973449707,0.056091845,-0.15219085,9.776836,0.3613271,0.00905627,9.771499,0,
14,985.619995117188,-0.000564435205888,-0.000525580020621,-0.000143784622196,-8.24935150146484,24.314094543457,-32.6525192260742,-0.355051308870316,-0.136006996035576,0.039207458496094,0.07521486,-0.15219094,9.765,0.37634695,-0.0032102317,9.759222,0,
14,985.658264160156,0.000500791356899,-0.000259258173173,-0.00067643210059,-7.91306400299072,23.839054107666,-33.0614624023437,-0.343649566173553,-0.116202309727669,0.053483963012695,0.068048984,-0.16410746,9.757899,0.3631447,-0.009868249,9.752753,0,
14,985.667907714844,0.000633912801277,0.000140221585752,0.000255657767411,-7.99776649475098,23.7599334716797,-33.3517189025879,-0.337019920349121,-0.148745253682137,0.034622192382813,0.058493167,-0.1450413,9.753165,0.35896802,0.009548783,9.747807,0,
14,985.64794921875,-0.00029822945362,0.000406543404097,0.000388799991924,-8.18087005615234,23.5884246826172,-33.2364845275879,-0.325899809598923,-0.133760020136833,0.053623199462891,0.06088689,-0.15457453,9.750798,0.35591817,-0.0035588443,9.745716,0,
14,985.648010253906,-0.000298266415484,0.001338654896244,0.000388784334064,-7.94985866546631,24.3838272094727,-32.7027473449707,-0.328964531421661,-0.09966216981411,0.030019760131836,0.06567049,-0.16410773,9.765001,0.3556745,-0.0063657314,9.760121,0,
14,985.640075683594,0.000367486849427,-0.000126076425659,-1.07052619569004E-05,-7.85548067092896,24.1035003662109,-32.7778739929199,-0.341384530067444,-0.132062330842018,0.049037933349609,0.06806418,-0.15219142,9.755533,0.35965124,0.0034520775,9.750325,0,
14,985.654663085938,0.000633766059764,0.000273403333267,0.000388752814615,-7.92455863952637,23.5648956298828,-33.0436515808105,-0.33495220541954,-0.135983154177666,0.04437255859375,0.070457935,-0.15219156,9.765003,0.36039507,-0.0012688488,9.75979,0,
14,985.627014160156,0.000234255508985,0.000406567269238,-0.000143894751091,-8.34457015991211,24.3305740356445,-33.1007118225098,-0.328355878591537,-0.125649526715279,0.025507926940918,0.06090209,-0.1617247,9.776838,0.34644765,-0.008038893,9.7722225,0,
14,985.6376953125,0.000234218896367,-0.000259216525592,0.000122405530419,-8.19994354248047,24.5191612243652,-33.9038772583008,-0.326426684856415,-0.115430995821953,0.030313491821289,0.06329584,-0.154575,9.772104,0.34909517,0.00023946166,9.767296,0,
14,985.62646484375,-0.000165291596204,-0.00039236844168,-0.000543399888556,-7.87170267105103,23.2987022399902,-33.6520957946777,-0.329305976629257,-0.109883561730385,0.039855003356934,0.065689504,-0.16410817,9.743698,0.344785,-0.011737883,9.739192,0,
14,985.629821777344,0.003296778071672,-0.001857099821791,-0.000942889426369,-8.30236721038818,24.054069519043,-33.168025970459,-0.331234186887741,-0.117173627018929,0.021056175231934,0.060913533,-0.15934171,9.788675,0.34017307,-0.0071451515,9.784247,0,
14,985.851989746094,0.000234108767472,-0.000525514478795,0.000122358382214,-8.40283298492432,24.3285064697266,-32.7836799621582,-0.329607456922531,-0.136747732758522,0.040022850036621,0.075256765,-0.14980875,9.765004,0.35486513,-0.002550751,9.7599945,0,
14,985.578735351563,-0.002828560071066,0.000672912807204,-0.000143973215017,-7.80787181854248,24.0952606201172,-32.5537757873535,-0.309049963951111,-0.126747205853462,0.044807434082031,0.05375141,-0.16172518,9.765005,0.32903874,0.00078481436,9.760947,0,
14,985.580688476563,-0.000298596452922,0.000672918744385,-0.000143988989294,-7.72150993347168,24.2817726135254,-33.0399017333984,-0.31647914648056,-0.111215934157372,0.030694007873535,0.06292325,-0.15933241,9.769703,0.33620054,0.001350075,9.76542,0,
14,985.687805175781,0.002497683744878,-0.002123391954228,-0.000144004647154,-7.57205104827881,23.8946533203125,-32.5783729553223,-0.323241651058197,-0.120195582509041,0.054506301879883,0.06729144,-0.15693904,9.750729,0.33841142,0.0023120642,9.746349,0,
15,985.702941894531,-0.002556601073593,0.00120581057854,0.000260432076175,-8.4554443359375,23.5942726135254,-32.5016555786133,-0.312107414007187,-0.139128640294075,0.040349006652832,0.064873636,-0.14025544,9.769663,0.34151387,0.0066604465,9.764914,0,
15,985.559875488281,0.000373142480385,0.000673135160469,0.000127389386762,-8.16961860656738,24.8630065917969,-32.9278755187988,-0.315405011177063,-0.109798952937126,0.030941009521484,0.06723562,-0.16647075,9.772028,0.33263332,-0.009006575,9.768011,0,
15,985.631713867187,0.000107095576823,-0.000125856080558,0.000393820548197,-7.99942636489868,23.6525421142578,-32.5753364562988,-0.313234984874725,-0.132701620459557,0.031023025512695,0.064817876,-0.14025404,9.762556,0.3370895,0.013012752,9.757949,0,
15,985.639343261719,0.000240522611421,-0.001058005494997,-0.000538169697393,-8.26443290710449,24.4052810668945,-32.5785446166992,-0.292281985282898,-0.113061353564262,0.040555953979492,0.05284044,-0.15693633,9.755452,0.3177874,0.002506137,9.751681,0,
15,985.66162109375,-0.000691313878633,-0.000125943450257,-0.000937528151553,-8.2229118347168,24.3911514282227,-32.045223236084,-0.30954372882843,-0.11743600666523,0.050083160400391,0.067151904,-0.15455236,9.760184,0.3303118,0.0007008314,9.756049,0,
15,985.646240234375,-2.52551981247962E-05,-0.000658618984744,0.000127850624267,-8.08230876922607,24.2070274353027,-32.5180244445801,-0.30259096622467,-0.121213123202324,0.050165176391602,0.06473413,-0.15455164,9.757814,0.3255912,-0.0052721202,9.753819,0,
15,985.657165527344,0.000108171487227,-0.000126030819956,-0.000138350063935,-8.47786045074463,23.8899307250977,-33.4393157958984,-0.300901889801025,-0.111215308308601,0.064425468444824,0.05992639,-0.15931748,9.745976,0.31735098,-0.0005785972,9.742293,0,
15,985.64697265625,-2.47173011302948E-05,0.000140241405461,0.000128081126604,-7.69025993347168,23.3628196716309,-32.9909477233887,-0.271016001701355,-0.105898931622505,0.040801048278809,0.047948986,-0.16646667,9.764911,0.30293763,-0.0039845407,9.761746,0,
15,985.64697265625,-2.47173011302948E-05,0.000140241405461,0.000128081126604,-7.87694931030273,23.5566596984863,-32.8195533752441,-0.302644610404968,-0.109966471791267,0.040865898132324,0.067040265,-0.1593162,9.760174,0.32124475,0.003425479,9.756416,0,
15,985.654357910156,0.00010870967526,0.000939145451412,-0.001070224912837,-7.50976467132568,24.2694320678711,-33.2257766723633,-0.291492938995361,-0.137866362929344,0.045658111572266,0.05745274,-0.14978237,9.762539,0.3138294,0.014634863,9.758801,1,
15,985.656921386719,-2.41791130974889E-05,-0.000126161845401,0.000527785508893,-7.62767553329468,24.3697357177734,-33.2134742736816,-0.304130017757416,-0.099119618535042,0.036250114440918,0.07176423,-0.17123117,9.767271,0.3184422,-0.009661987,9.763841,1,
15,985.640686035156,0.000242405454628,6.95246853865683E-06,-4.7310022637248E-06,-7.49634218215942,24.0708541870117,-32.523365020752,-0.297890841960907,-0.126991108059883,0.022103309631348,0.062176794,-0.15216424,9.769635,0.3144241,0.007469654,9.765956,1,
15,985.6259765625,0.0005089903716,0.000140066724271,0.000394858157961,-7.88273906707764,24.1828994750977,-32.0854606628418,-0.310459434986114,-0.097670659422875,0.031634330749512,0.07409841,-0.15216364,9.760164,0.32343513,0.0008495748,9.756272,1,
15,985.620666503906,-2.33722967095673E-05,0.000539496890269,-0.000803448085207,-7.92219591140747,23.8302192687988,-32.5976333618164,-0.279977142810822,-0.115772023797035,0.031704902648926,0.062120974,-0.15931274,9.764896,0.3078677,-0.0011534095,9.76154,1,
15,985.632995605469,0.000376370619051,-0.000792126171291,0.000661404570565,-7.95996952056885,24.0052261352539,-32.063159942627,-0.316446602344513,-0.100922301411629,0.050702095031738,0.08121228,-0.15931202,9.760159,0.3238042,-0.006020859,9.756422,1,
15,985.64111328125,0.000376639538445,0.000139935698826,-0.000270585704129,-7.61455154418945,23.5390281677246,-32.9359397888184,-0.281063199043274,-0.10999496281147,0.046024322509766,0.052505523,-0.15931131,9.764891,0.2951384,-0.0009505749,9.76187,1,
15,985.670837402344,-0.000155723420903,0.000273049925454,-0.000403628277127,-8.3402795791626,24.123161315918,-31.9344749450684,-0.284457921981811,-0.109299853444099,0.03187370300293,0.06920689,-0.15216084,9.767255,0.31184655,0.0016265213,9.763708,1,
15,985.64013671875,-0.000155454326887,-0.000659099256154,0.00012911867816,-8.35120010375977,24.6929740905762,-32.8899459838867,-0.278234213590622,-0.108461394906044,0.036665916442871,0.05483958,-0.16169329,9.76962,0.29349658,-0.00067031384,9.766703,1,
15,985.691284179688,0.000111130648293,0.000672436435707,-0.000270239834208,-8.04078674316406,24.1928939819336,-31.9847030639648,-0.286142408847809,-0.112164363265038,0.031999588012695,0.066761196,-0.14739291,9.769617,0.30781332,0.0071831644,9.766105,1,
15,985.658020019531,-2.14895117096603E-05,0.000672349124216,-0.000403167272452,-7.95320129394531,23.7487449645996,-32.9730110168457,-0.269804954528809,-0.097286596894264,0.0462646484375,-0.6000494,0.06948614,9.779083,-0.24001926,0.4470212,9.784575,1,
15,985.6298828125,-0.002151747466996,0.000938621349633,-0.168182045221329,-8.10127639770508,24.0314254760742,-32.8127632141113,-0.89401125907898,0.549522876739502,0.055610656738281,0.8171346,-0.39286923,9.760143,0.9192443,-0.48408747,9.746954,1,
15,985.60888671875,-0.021992012858391,-0.008648794144392,-0.283763080835342,-8.20410537719727,24.0405349731445,-32.874439239502,-0.230699986219406,-0.315259695053101,-0.271625518798828,0.1096957,0.31258184,10.15783,0.5142629,0.4755947,10.139063,1,
15,985.545837402344,-0.21320652961731,-0.049262009561062,0.026894556358457,-8.1430721282959,23.8337173461914,-31.9479293823242,-0.783664524555206,-0.907574117183685,-0.338516235351562,0.6306665,-0.16168986,9.982655,0.8671907,-0.02171573,9.966182,1,
15,985.514831542969,-0.55102801322937,-0.029022045433521,0.160318925976753,-8.39506244659424,24.8620910644531,-32.0462532043457,-0.582607805728912,-0.622977137565613,-0.115114212036133,0.54460204,0.53184485,10.129419,1.0751381,0.9189963,10.059032,1,
16,985.520263671875,-0.715610921382904,-0.214511096477509,0.208122760057449,-8.43351745605469,25.2994728088379,-30.9111557006836,-0.107542142271996,-0.468067228794098,-0.218692779541016,-0.32296026,-1.2031811,9.96608,-0.20798409,-0.050349236,10.04136,1,
16,985.576232910156,-1.06461763381958,0.287361145019531,-0.520251095294952,-9.58009719848633,26.3854446411133,-30.4900779724121,0.270665109157562,-0.525572419166565,-1.46834468841553,-0.24651128,-1.257996,10.763824,0.17989403,0.4109316,10.8306055,1,
16,985.593505859375,-1.37247848510742,0.448881685733795,-0.621850430965424,-9.51778793334961,27.1805267333984,-29.3144569396973,-0.879511117935181,1.07056522369385,-0.48637580871582,0.47043145,-2.625997,10.5271015,0.71584123,-0.7051686,10.813294,1,
16,985.585815429688,-1.61429309844971,0.905080735683441,-0.366719752550125,-9.22737503051758,28.8739852905273,-28.1495666503906,-0.23830658197403,-0.294455289840698,-3.82735824584961,-0.99460644,-2.580714,13.871956,0.9549198,1.0192825,14.075854,1,
16,985.611450195312,-0.909221470355988,1.55063033103943,-0.416920185089111,-8.41993427276611,29.9985885620117,-27.9548759460449,-0.237796068191528,0.055653333663941,-4.12225437164307,-1.6160088,-2.7308598,13.064737,0.93949413,0.5514988,13.400359,1,
16,985.641906738281,1.25113308429718,1.88059568405151,-0.040083076804876,-6.8168158531189,28.1822891235352,-30.1742057800293,-0.468575358390808,-0.559739351272583,-1.83922576904297,-1.6710044,-1.0315818,10.4395075,1.2163818,0.44297254,10.543431,1,
16,985.656860351562,2.2424943447113,1.70775651931763,0.25046768784523,-4.28619766235352,25.496826171875,-33.6403694152832,-0.253662586212158,-0.380720853805542,0.089241981506348,-3.1193128,-0.8742847,9.459484,-0.08422327,0.3868357,9.990974,1,
16,985.626159667969,1.47457265853882,1.22013211250305,-0.111455507576466,-2.01953125,21.6152725219727,-35.8411064147949,1.0829393863678,0.552259385585785,-1.21567440032959,-4.068132,-1.2079431,10.66202,-0.5236032,-0.12029624,11.4629345,1,
16,985.62548828125,1.2142493724823,0.9440957903862,0.213316842913628,-1.24320220947266,19.3932762145996,-37.5243721008301,0.018678665161133,0.565762281417847,-1.8085412979126,-3.7670321,-0.37617803,10.7945795,0.1314199,-0.4130286,11.430972,1,
16,985.631225585938,1.59534752368927,0.832109987735748,0.429698556661606,-0.012271881103516,16.1217269897461,-38.831356048584,0.260809421539307,0.304743230342865,-1.42805480957031,-4.0729675,0.25062487,10.1578,-0.06120825,-0.46898127,10.936593,1,
16,985.633850097656,1.7873615026474,1.12186145782471,0.375902891159058,1.71609115600586,14.0006589889526,-40.0513572692871,-0.14731502532959,1.33083403110504,-0.426677703857422,-4.333495,0.03374715,8.867672,-0.7793474,-0.98936844,9.789266,1,
16,985.663635253906,1.79255509376526,1.36447536945343,0.343945115804672,4.15895462036133,10.4411687850952,-40.7584075927734,-0.3932204246521,1.24523234367371,-0.229859352111816,-4.3215733,1.0418746,8.635683,-0.2847011,-0.98261285,9.658671,1,
16,985.610778808594,1.71785378456116,0.953816175460815,0.542084276676178,6.57163238525391,6.6437520980835,-43.1405372619629,-0.052565097808838,0.752768516540527,-1.08253002166748,-5.0409617,1.9594375,9.016801,-0.3110851,-0.91661024,10.469787,1,
16,985.640563964844,1.59548199176788,1.05022239685059,0.445278525352478,8.16849327087402,3.50338554382324,-43.2798347473145,0.016798496246338,1.17276954650879,-0.738152980804443,-5.5333095,2.4241776,8.545725,-0.5548661,-0.9349718,10.408724,1,
16,985.645751953125,1.61891782283783,1.32878875732422,0.399339139461517,9.98500823974609,0.990185737609863,-43.5666618347168,0.364280223846436,0.949735641479492,-1.63835000991821,-6.4319406,2.3479133,8.046242,-1.439699,-1.1056256,10.408142,1,
16,985.64794921875,1.8641951084137,1.43891036510468,0.497343510389328,12.0220947265625,-2.9506139755249,-42.0333099365234,1.13269662857056,1.47351241111755,0.574890613555908,-6.515615,3.761198,5.522803,-1.0649214,0.51368,9.257607,1,
16,985.64013671875,1.85194480419159,1.2500923871994,1.0535444021225,14.4541664123535,-6.62633275985718,-41.5001449584961,-0.119112491607666,0.058872699737549,0.060665607452393,-5.9826946,5.0457854,5.9796705,-0.0733369,-0.13831854,9.848072,1,
16,985.665771484375,1.21877896785736,0.904014825820923,0.971918642520904,15.9475173950195,-9.49520874023438,-41.1004905700684,0.156153202056885,0.510074138641357,-0.395985126495361,-5.9349246,5.4128113,5.709807,-0.108959675,-0.37250042,9.847494,1,
16,985.614562988281,1.15632820129395,0.828381061553955,0.966192960739136,16.6088333129883,-12.5118284225464,-39.3322257995605,0.068579196929932,0.078510761260986,-1.17995405197144,-6.1428742,5.9704995,6.0175405,-0.19621617,-0.90675354,10.427456,1,
16,985.614562988281,1.15632820129395,0.828381061553955,0.966192960739136,17.1364517211914,-15.4948921203613,-38.7000846862793,0.376547336578369,0.959720134735107,-0.228981494903564,-6.2886853,5.627308,4.2231984,-0.85426366,-0.110309124,9.397214,1,
16,985.626586914063,1.10053527355194,0.938369572162628,0.804672539234161,18.5257530212402,-17.7239875793457,-37.8599281311035,0.147188663482666,0.561704158782959,-0.078853607177734,-5.6506095,6.42094,3.9793742,-0.2367365,-0.32850933,9.424932,1,
16,985.641784667969,1.28855466842651,1.00934255123138,0.886431634426117,18.6264533996582,-19.7908096313477,-35.6759300231934,-0.827471256256104,1.19337368011475,-0.357021331787109,-4.5314865,6.61397,3.6267202,0.37097418,-0.62793016,8.769273,1,
16,985.593322753906,1.07670068740845,0.718126237392426,1.19123017787933,18.350414276123,-22.5253372192383,-35.2424354553223,-0.980329036712646,0.823251724243164,-0.315284729003906,-4.5315,6.5067225,3.0396528,0.066446066,-0.6000266,8.470359,1,
16,985.575256347656,1.08801317214966,0.789501011371612,1.04728662967682,19.095344543457,-24.7262535095215,-33.3808174133301,-0.467934608459473,1.79552221298218,-0.118006229400635,-4.737045,6.3375106,1.9649417,-0.428078,-0.048158646,8.141195,1,
16,985.610961914063,1.02342927455902,0.982180953025818,0.617718100547791,19.0274810791016,-26.6874771118164,-31.2540092468262,-0.741829395294189,1.41136455535889,1.08545887470245,-4.239959,6.540089,0.7268938,-0.20777619,0.7846863,7.785852,1,
17,985.574829101562,0.943268299102783,0.890301883220673,0.745283544063568,19.6633911132813,-27.7788276672363,-29.5175018310547,-0.745196342468262,2.18684005737305,0.824334144592285,-4.039221,6.642571,1.096176,-0.22859676,0.24128449,7.844117,1,
17,985.595642089844,0.454978317022324,0.815200865268707,0.883501589298248,19.3880844116211,-29.1431655883789,-28.9333381652832,-0.599036455154419,0.901397705078125,-0.217557668685913,-3.496726,7.643548,1.8797188,0.43697107,-0.39274168,8.592968,1,
17,985.597229003906,0.046183552592993,0.468457579612732,1.13996374607086,18.4098739624023,-29.9012718200684,-28.5072860717773,-1.14087057113647,1.51105308532715,0.376589775085449,-3.0426583,7.317039,0.8949614,0.2928264,0.432226,7.957716,1,
17,985.627807617188,-0.170197978615761,0.601748645305633,1.11919105052948,18.2264747619629,-30.7049140930176,-28.8169212341309,-0.993083000183106,1.14539337158203,0.58183491230011,-2.4906044,7.893793,1.197962,0.71057844,0.26404822,8.3292,1,
17,985.599792480469,-0.152221515774727,0.720658600330353,1.02558124065399,17.2843780517578,-31.745418548584,-28.1489601135254,-1.66983795166016,0.761355400085449,0.661638021469116,-1.8071059,8.542045,0.97544384,1.1877179,0.8052527,8.66744,1,
17,985.607299804687,-0.509350955486298,0.637301743030548,1.18949866294861,16.9022521972656,-32.2610893249512,-28.3678359985352,-0.771554231643677,0.090867042541504,0.64213752746582,-2.961442,8.449097,1.7731897,0.14436963,0.14783704,9.124632,1,
17,985.563903808594,-1.37820625305176,0.984577715396881,0.208524286746979,18.0777263641357,-29.3679084777832,-30.9508094787598,0.349947214126587,1.59853172302246,0.251261711120606,-3.4776742,7.3766227,2.083292,-0.64910275,-0.24618983,8.388499,1,
17,985.591064453125,-1.27887034416199,0.803482830524445,0.6343634724617,18.316349029541,-28.5651435852051,-30.8036003112793,-0.333127975463867,0.75672721862793,0.59635853767395,-2.5982037,8.308484,2.424168,0.20282847,0.2251575,9.031408,1,
17,985.570617675781,-1.48047125339508,0.690298497676849,0.856870412826538,18.5437488555908,-27.8247013092041,-32.036735534668,-0.570665597915649,0.924631118774414,-0.026387214660645,-2.2469015,7.7007494,3.420759,0.47472823,-0.39623976,8.698812,1,
17,985.570617675781,-1.63080644607544,0.762869596481323,0.788959920406342,18.458833694458,-25.6911392211914,-33.0723037719727,-0.736591815948486,0.796330451965332,-0.072441577911377,-1.7235266,7.9414606,3.8941982,0.8837839,-0.105929375,8.967153,1,
17,985.577880859375,-1.68153965473175,0.908544361591339,0.648212015628815,19.248420715332,-24.2664566040039,-34.0471839904785,-1.64011549949646,0.648037910461426,0.267586946487427,-1.2551192,7.4385886,4.0551667,1.1993117,0.22428012,8.477244,1,
17,985.572937011719,-1.98700368404388,1.35488986968994,0.028095541521907,21.6938171386719,-21.870979309082,-34.9491004943848,-0.471534490585327,1.46989107131958,-0.245426654815674,-3.0356097,6.3637304,5.0588593,0.15255427,-1.0817292,8.608754,1,
17,985.552612304688,-2.36490559577942,1.62506723403931,-0.231429204344749,23.9579811096191,-17.3808326721191,-34.6369247436523,-0.378412008285522,1.69722461700439,0.187880039215088,-3.1383889,5.574866,4.945233,0.14619279,-0.78588986,8.046425,1,
17,985.590454101563,-2.51377630233765,1.91894698143005,-0.174970209598541,27.18603515625,-14.622371673584,-33.8330612182617,-0.459840774536133,1.49064159393311,0.531696319580078,-3.3439338,5.241207,5.8116274,0.66924024,-0.7681639,8.449213,1,
17,985.5908203125,-2.74174237251282,1.60669147968292,-0.02916220203042,29.7864837646484,-10.6072654724121,-33.9298286437988,-2.0709958076477,1.12329530715942,-0.966314792633056,-2.6269767,4.790768,6.673288,1.767787,-0.18395042,8.439569,1,
17,985.584716796875,-2.6246964931488,1.66221833229065,-0.192147448658943,32.2139129638672,-7.59732484817505,-33.4792175292969,-1.28063130378723,0.391873359680176,0.734119415283203,-3.807602,4.5166907,6.3773866,0.72660494,-0.069845796,8.662363,1,
17,985.599792480469,-2.76624321937561,1.13185024261475,-0.220510050654411,33.7784957885742,-3.07812690734863,-31.9831581115723,-0.580976009368897,1.64199280738831,-0.33701229095459,-4.579553,2.9580274,7.291125,1.1341999,-0.958982,8.982019,1,
17,985.595520019531,-2.89314293861389,1.12212955951691,-0.360725283622742,35.1685256958008,0.434439659118652,-29.8624076843262,-1.63587617874146,0.596944332122803,-0.1574387550354,-3.7359316,2.7196999,7.492336,1.6584959,0.34092635,8.638415,1,
17,985.581787109375,-2.67676091194153,1.12426006793976,-0.365119457244873,36.8818626403809,4.40859508514404,-29.1272239685059,-2.01799273490906,0.847408056259155,-0.276469230651856,-4.1374483,1.666291,7.4662957,1.6710818,0.07161242,8.534808,1,
17,985.57666015625,-2.2618408203125,0.949423611164093,-0.493350505828857,38.0479736328125,7.92171382904053,-26.2021598815918,-1.37647342681885,1.2208080291748,0.702298641204834,-5.287005,0.57474995,6.32767,0.7362449,-0.8726989,8.186483,1,
17,985.576477050781,-2.02828145027161,0.960608899593353,-0.684298992156982,38.9158210754395,10.7344388961792,-23.7290382385254,-0.61492395401001,1.232342004776,0.972772121429443,-5.5139713,-0.07350369,6.4081616,0.89779687,-0.75275993,8.372641,1,
17,985.591430664062,-2.02188992500305,0.808276236057282,-0.557931959629059,39.2538986206055,14.0522165298462,-21.5887565612793,-2.57161378860474,0.923688590526581,0.507045745849609,-4.309381,-0.805172,6.2258945,1.7060921,-0.1540463,7.419322,1,
17,985.585998535156,-1.87754821777344,0.910408616065979,-0.815992712974548,39.9888572692871,15.9500894546509,-18.6567039489746,-1.60341310501099,1.57526326179504,1.50747346878052,-5.9823184,-2.0444765,5.3500295,1.0449747,-1.4732363,8.082602,1,
17,985.583190917969,-1.94852137565613,0.854349076747894,-1.1074755191803,39.6901779174805,19.3034133911133,-15.8814907073975,-0.79132080078125,1.18963158130646,0.433221340179443,-6.0611916,-2.4615502,6.334785,1.4503158,-0.4930606,8.97665,1,
17,985.613891601563,-2.19193410873413,0.673920094966888,-0.922119617462158,39.2429809570312,22.2013626098633,-12.6718254089355,-1.39560222625732,0.765607833862305,-1.06973648071289,-6.699302,-2.828575,7.3905563,1.4472604,0.509603,10.254147,1,
18,985.58056640625,-1.96902763843536,0.883377492427826,-1.12305498123169,39.0267486572266,24.2621536254883,-9.67971611022949,0.585906982421875,0.496824502944946,-1.20201396942139,-8.073502,-3.5769243,6.287439,0.49284315,-0.12492514,10.828167,1,
18,985.639282226563,-1.65970158576965,1.53398728370667,-1.2121376991272,38.1588134765625,26.5555877685547,-6.67778015136719,0.381088256835937,0.327215671539307,-0.735885143280029,-8.302938,-3.8557677,5.9086866,0.276891,0.3850212,10.885468,1,
18,985.608703613281,-1.46063041687012,1.36274611949921,-0.990695834159851,37.0843963623047,29.0237121582031,-2.49948310852051,0.805435180664063,0.10402250289917,-1.3605318069458,-8.608852,-4.3014407,5.255338,0.09725785,0.5102215,10.952787,1,
18,985.625427246094,-1.12480592727661,1.47672939300537,-0.93170690536499,35.6443023681641,30.3602294921875,0.184709548950195,0.667882442474365,0.525047302246094,-0.784671545028687,-8.56584,-5.0450234,4.346332,0.2655598,0.17519379,10.845057,1,
18,985.6103515625,-0.866479575634003,1.19576609134674,-0.649412035942078,34.8192138671875,30.9025268554687,3.59044551849365,0.511277198791504,0.132506370544434,-0.907112836837769,-8.3818245,-4.944926,4.133283,0.25003123,0.65988827,10.549565,1,
18,985.6103515625,-0.866479575634003,1.19576609134674,-0.649412035942078,33.5868377685547,31.8539962768555,6.41912841796875,0.357212543487549,0.883074760437012,-1.5179717540741,-8.365101,-5.962585,4.0764694,0.98684514,0.54722524,10.994162,1,
18,985.623168945313,-0.683520495891571,0.911074221134186,-0.438889235258102,32.6914291381836,32.0680541992188,8.23823738098145,0.335144996643066,0.348933696746826,-0.564678907394409,-8.243223,-5.185636,3.0680406,0.17671931,0.4394529,10.199513,1,
18,985.651306152344,-0.418536067008972,0.824521601200104,-0.331963419914246,31.7708587646484,33.2069549560547,9.69916915893555,-0.078187465667725,0.170070648193359,-1.45475125312805,-8.140463,-5.683741,3.7190206,0.8923094,1.0953538,10.507481,1,
18,985.636047363281,-0.30308809876442,0.841033279895783,-0.339686512947083,31.4135055541992,32.6609420776367,10.8639659881592,0.640249252319336,0.28522253036499,-1.07051801681519,-8.6304,-5.459713,2.7176936,0.11710441,0.57745636,10.551348,1,
18,985.63037109375,-0.104016922414303,0.670990526676178,-0.230497017502785,31.0672454833984,32.8633003234863,11.2134189605713,0.640215873718262,0.27064847946167,-0.160687923431396,-8.647135,-5.6670575,1.9507191,0.006100297,0.17185676,10.519707,1,
18,985.660217285156,0.30411222577095,1.01453804969788,-0.256063312292099,29.6491394042969,33.9580688476562,12.214714050293,0.289718627929687,0.217113971710205,-0.881532907485962,-8.240858,-5.347698,2.2513535,0.24919522,0.69666207,10.051407,1,
18,985.60986328125,0.249517515301704,1.03464484214783,-0.350871741771698,28.4760894775391,33.7547225952148,13.1002330780029,0.062685966491699,-0.559963703155518,-1.04584562778473,-8.075962,-4.8472095,2.5306828,0.32203066,1.2474226,9.667534,1,
18,985.629821777344,0.426085025072098,0.747955799102783,-0.039681605994701,28.7134323120117,33.555591583252,12.9983263015747,-0.479385375976563,-0.066398620605469,-1.23228132724762,-7.562139,-5.481162,2.1566641,0.939667,0.5184697,9.52515,1,
18,985.612487792969,0.497191429138184,0.829048931598663,0.08921530097723,28.0625686645508,34.0520858764648,13.5314769744873,-0.775562286376953,0.519877433776856,0.674487471580505,-7.495228,-5.8863187,0.16584635,0.12179322,-1.2158232,9.45313,1,
18,985.657470703125,0.796131074428558,0.768595218658447,-0.056326296180487,27.589111328125,33.8196907043457,13.2331142425537,0.056818008422852,0.3138108253479,0.466728866100311,-8.530062,-5.7266393,0.883108,-0.06574476,-0.10934001,10.311157,1,
18,985.660034179688,0.79000586271286,1.01347279548645,-0.311856359243393,26.5461807250977,34.7400856018066,12.4161567687988,0.814969062805176,0.470715045928955,-0.552753269672394,-8.764278,-5.8934684,1.0914214,0.13036704,0.12976176,10.616162,1,
18,985.657470703125,0.384140491485596,0.605210423469543,-0.241282641887665,25.8317794799805,35.0721588134766,12.275857925415,0.24943733215332,0.006073951721191,0.371031790971756,-8.479887,-5.547893,0.5943082,-0.14921033,-0.017037421,10.149791,1,
18,985.665222167969,0.469228506088257,0.594690918922424,0.030759101733565,25.207633972168,35.8575477600098,12.0181446075439,0.516793251037598,1.20456647872925,-0.565843522548676,-8.599388,-6.6418176,1.0014665,0.7437311,-0.41093272,10.878609,1,
18,985.623901367188,0.414900183677673,0.298148185014725,0.085353881120682,25.1704063415527,35.6642608642578,12.651065826416,0.661873817443848,0.744604587554931,0.259031176567078,-8.993729,-6.115113,0.48541576,-0.028492004,-0.23223713,10.884054,1,
18,985.623901367188,0.102778032422066,0.500814497470856,-0.038882449269295,24.990348815918,35.4957046508789,12.6116905212402,0.385558128356934,0.556233882904053,-0.751864075660706,-8.37714,-5.895851,1.2216151,0.80262226,0.25822258,10.281975,1,
18,985.635986328125,-0.303087323904037,0.285498172044754,0.127964481711388,24.8602600097656,35.5842208862305,13.242431640625,0.432435035705566,1.36462068557739,-0.698987007141113,-8.707678,-6.75143,1.0132344,1.1072403,-0.20969337,11.007368,1,
18,985.630981445313,-0.095224238932133,0.191887587308884,0.078697554767132,24.8010177612305,35.2123870849609,13.7352256774902,-0.136699676513672,0.32371997833252,-0.325730472803116,-7.871248,-5.0736012,0.59660345,0.25606385,0.19372657,9.378209,1,
18,985.626159667969,0.234342038631439,0.091222189366818,0.247945889830589,25.0951042175293,35.0138511657715,13.3935852050781,-0.476667881011963,-0.225329875946045,-0.904150068759918,-7.761348,-5.6646533,1.0795095,1.0313932,0.07752979,9.613656,1,
18,985.622680664063,0.290135562419891,0.256870597600937,-0.03195196390152,25.129150390625,35.098274230957,13.6143522262573,-0.184465408325195,0.910417079925537,0.55656635761261,-8.4783535,-5.9125133,-1.1219919,-0.77391,-1.2741349,10.289646,1,
19,985.637451171875,0.691873490810394,0.385101646184921,-0.259385585784912,24.4953079223633,35.8228073120117,11.8989925384521,1.22457122802734,0.488594055175781,2.03970098495483,-8.992218,-5.485906,-0.8331966,-1.0951383,-0.43028396,10.500708,1,
19,985.658569335937,-0.227182358503342,-0.136478051543236,-0.04833010211587,25.1309509277344,35.3115768432617,12.1388931274414,-0.063982963562012,-0.786043167114258,-0.300012171268463,-8.652889,-5.0306983,0.24861169,-0.31940836,0.40066588,9.998984,1,
19,985.668151855469,-0.528118908405304,0.010661413893104,-0.049528367817402,24.7269668579102,35.1435699462891,12.9038333892822,1.50390148162842,1.02108430862427,-0.210425764322281,-9.2026005,-5.7647476,0.42378142,0.13473767,0.34895477,10.860931,1,
19,985.681213378906,-0.694299638271332,-0.137676581740379,0.282301366329193,25.0247993469238,35.1059150695801,13.6299858093262,-0.057869911193848,-0.491917610168457,-2.67875123023987,-8.036364,-5.071213,2.670253,2.003315,1.6867197,9.516951,1,
19,985.661071777344,-0.262734472751617,-0.264842480421066,0.375778406858444,25.7164993286133,34.8576583862305,14.2307815551758,-0.078850746154785,0.237731456756592,-0.032273665070534,-8.320799,-5.7123137,0.47348619,0.6291541,-0.12456924,10.083602,1,
19,985.677917480469,0.192000210285187,0.281238168478012,0.161127924919128,25.6594619750977,34.224925994873,14.0456409454346,-0.174138069152832,0.062865734100342,-0.776140451431274,-8.227629,-5.271406,0.1562778,0.25651896,-0.06841005,9.769112,1,
19,985.657958984375,0.319832175970078,0.634506165981293,-0.143670454621315,25.0228424072266,34.3663902282715,13.9814968109131,0.31074333190918,0.441084384918213,0.421015560626984,-8.404516,-5.564549,-0.19170415,0.16512993,-0.18537706,10.078452,1,
19,985.647521972656,0.06323716044426,0.391626000404358,-0.205855056643486,24.4175262451172,35.2214584350586,14.7175998687744,-0.896203994750977,-0.719502925872803,-1.33181440830231,-7.2932467,-4.444407,0.13970092,0.18361339,0.27769566,8.53539,1,
19,985.596374511719,-0.005871464964002,-0.190141096711159,0.226642087101936,24.99169921875,34.1790008544922,14.305196762085,0.35316276550293,1.27841091156006,0.363097369670868,-9.30558,-6.968298,-0.3905557,0.4562762,-1.015027,11.578645,1,
19,985.572143554688,-0.298685431480408,-0.558589160442352,-0.064840510487557,25.4627990722656,34.1460800170898,14.1575469970703,0.022004127502442,-0.180809497833252,-1.11421883106232,-7.854945,-4.6350675,0.50661075,0.22081152,0.52453506,9.116839,1,
19,985.572143554688,0.124757155776024,0.022778341546655,-0.090273529291153,24.864933013916,34.482292175293,13.3831729888916,-0.602014541625977,-0.003805637359619,0.398785710334778,-8.091581,-5.5502453,0.0994487,0.3295834,-0.29171646,9.802811,1,
19,985.575378417969,0.179485410451889,-0.107982806861401,0.166854605078697,25.37548828125,34.8020629882812,13.7476940155029,0.732492446899414,0.590569019317627,-0.898810267448425,-9.43713,-5.6408095,0.61549556,0.35345092,0.45899153,10.996427,1,
19,985.547241210938,0.102120988070965,0.374980956315994,0.060062080621719,25.3736686706543,34.16845703125,13.4001274108887,1.67697620391846,0.774847507476806,0.096609555184841,-10.120678,-6.081715,-0.15621565,-0.08266655,0.08285197,11.807881,1,
19,985.554138183594,0.082813434302807,0.572320997714996,0.104137510061264,24.8277015686035,34.2890129089355,14.016095161438,2.45688819885254,0.932014465332031,1.74906980991364,-8.932934,-4.9639564,-0.78116035,-0.46547753,-0.05133623,10.238608,1,
19,985.626220703125,-0.457141667604446,0.827451586723328,0.65128368139267,25.25244140625,34.0539779663086,14.9651937484741,-2.53022336959839,-0.33076286315918,-2.79458856582642,-6.373383,-4.816192,-0.14201891,1.0108682,-0.5230999,7.9082484,1,
19,985.628112792969,0.309315770864487,1.10828161239624,0.175510466098785,25.192756652832,32.9440841674805,15.7321949005127,-2.96504306793213,0.101373672485352,0.718003690242767,-6.1917863,-4.8376412,-1.3492955,0.20723748,-1.271615,7.8677597,1,
19,985.64794921875,0.245000839233398,0.39069339632988,-0.001189984963276,24.9672088623047,34.0495147705078,16.2411556243896,0.336402893066406,-0.360795497894287,-1.1903338432312,-8.911531,-4.349068,0.54919755,0.9204792,1.4841961,9.776569,1,
19,985.64794921875,0.245000839233398,0.39069339632988,-0.001189984963276,24.513557434082,34.2565689086914,16.7608528137207,0.14567756652832,-0.503290176391602,-1.36235415935516,-7.891078,-4.5492625,-0.82615024,0.39387733,0.38550803,9.129276,1,
19,985.594909667969,0.114106923341751,0.79296350479126,-0.176292538642883,23.6135597229004,34.0458984375,16.9888515472412,-0.119452476501465,0.207405090332031,2.1906144618988,-8.204191,-5.50734,-4.1591744,-1.7079935,-1.2944291,10.504547,1,
19,985.642456054688,0.213176757097244,1.55009949207306,-0.325296103954315,21.7460632324219,34.7200012207031,17.8530540466309,-1.15482187271118,-0.555252552032471,-0.987653315067291,-6.818083,-5.0235333,-0.6864918,1.0916667,0.10941532,8.425539,1,
19,985.620178222656,0.357520312070847,1.00348615646362,-0.553262293338776,20.6472282409668,35.9036560058594,17.7991542816162,-0.245529651641846,0.528090000152588,-1.50939357280731,-8.510168,-6.2390046,-0.7267375,1.3336515,0.52728176,10.4794855,1,
19,985.612182617188,0.346601724624634,0.17111574113369,-0.54846853017807,19.2624645233154,36.9249038696289,17.7988166809082,2.03449249267578,0.273383617401123,0.345899820327759,-8.450615,-5.7837934,-2.807526,-0.53879046,0.23511732,10.601971,1,
19,985.59130859375,0.34806677699089,0.679113268852234,-0.636752068996429,18.6093769073486,37.2620010375977,17.1868705749512,-0.355930328369141,0.182502269744873,0.972815990447998,-7.497087,-6.455877,-3.4111664,-0.6217768,-0.7991303,10.416119,1,
19,985.59423828125,0.097328655421734,0.919332504272461,-0.275624066591263,17.3837471008301,37.5366821289062,17.2826766967773,-0.071430206298828,0.271042346954346,0.614410400390625,-7.136254,-5.9315543,-2.353031,-0.025043488,-0.16413063,9.571763,1,
19,985.634704589844,0.166571378707886,0.299082726240158,-0.417170733213425,16.356164932251,37.7857666015625,17.888355255127,-0.181025981903076,-0.095953464508057,-0.383689880371094,-7.5736475,-6.37246,-1.8109455,0.30112445,0.12919259,10.056867,1,
20,985.637329101563,0.387480795383453,-0.40505650639534,-0.37815523147583,16.310510635376,38.5335350036621,17.3127460479736,0.607526302337647,-0.40946102142334,-0.544519662857056,-7.255832,-6.019734,-0.9800613,0.6012944,0.60092926,9.440452,1,
20,985.669677734375,0.419838607311249,-0.395735532045364,-0.60319197177887,15.3806228637695,38.7170753479004,16.2905330657959,-0.923584461212158,0.667139530181885,-0.009670972824097,-6.3835597,-7.1017413,-1.6949601,0.33436275,-0.79327375,9.66004,1,
20,985.680053710938,0.361782163381576,-0.458319842815399,-0.575628101825714,14.8536033630371,38.5929412841797,15.3782119750977,0.130048751831055,-0.438957214355469,-0.402778148651123,-6.476808,-6.558353,-1.3540869,0.1275419,-0.0037543774,9.315487,1,
20,985.700927734375,0.395471483469009,-0.056049760431051,-0.72729480266571,14.1040725708008,39.5771789550781,14.8202457427979,-0.931400299072266,0.954841136932373,-0.065887451171875,-6.503139,-8.176599,-1.5316308,0.214064,-0.70256454,10.533472,1,
20,985.757263183594,0.581094443798065,-0.152189910411835,-1.04674053192139,10.5881443023682,41.0802307128906,12.6566219329834,-0.402954578399658,-0.842453002929688,-1.29701364040375,-5.516151,-6.8824763,0.3857992,1.3820192,0.34641117,8.712936,1,
20,985.825805664063,0.385619014501572,-0.11423996835947,-0.947537541389465,9.32585525512695,42.0055999755859,12.4120674133301,-0.10349178314209,0.469354152679443,0.328685164451599,-5.757573,-7.9001355,-1.7565229,-0.4866202,-0.51905286,9.906612,1,
20,985.789794921875,0.2901451587677,0.218654811382294,-1.05140066146851,7.49346923828125,41.6072387695313,11.8709125518799,-0.605682373046875,0.086709499359131,-0.452307820320129,-4.8159933,-8.200428,-0.8498881,0.4441538,-0.6973152,9.512076,1,
20,985.822692871094,0.184018701314926,-0.064838506281376,-0.906524538993835,5.43140411376953,43.0479278564453,11.7964324951172,-0.574553489685059,0.476466178894043,0.836031019687653,-5.0550256,-8.519786,-1.2570508,-0.09033322,-0.5481997,9.970534,1,
20,985.809753417969,0.164711207151413,-0.322099715471268,-0.766974866390228,4.19177913665772,42.6772232055664,12.1631145477295,-0.438925743103027,-0.459378719329834,-1.85186219215393,-4.3524365,-8.638949,0.040172286,1.1019382,-0.42181116,9.60128,1,
20,985.90771484375,0.187881082296371,-0.090538136661053,-0.71530944108963,3.78432655334473,42.5601768493652,10.4621105194092,-1.28466129302979,1.27638339996338,1.9334032535553,-4.3118496,-9.113221,-1.1363312,-0.04385674,-0.97129846,10.0989485,1,
20,985.940368652344,0.25685727596283,-0.528228342533112,-0.484413385391235,2.73984146118164,42.266845703125,10.7941951751709,0.736974716186523,-0.120341300964355,-1.80021214485168,-5.052761,-8.82961,0.5727852,0.9388844,0.61555874,10.127194,1,
20,986.083557128906,0.088812373578549,-0.075091935694218,-0.750729024410248,1.60277462005615,42.4671401977539,9.72594356536865,-0.638531923294067,0.463117599487305,0.495874583721161,-3.9916863,-8.801009,-0.83333683,-0.074750185,-0.57513934,9.682428,1,
20,986.001586914063,-0.005329873878509,0.224113896489143,-0.562044084072113,0.542962074279785,43.2654190063477,10.458420753479,-0.280080556869507,-0.345823287963867,-0.223831862211227,-3.7144995,-8.462583,-0.66526926,0.065701544,-0.36123738,9.258543,1,
