Timestamp,P,Gx,Gy,Gz,Mx,My,Mz,LiAx,LiAy,LiAz,Ax,Ay,Az,earthAx,earthAy,earthAz,Value,Type
0,985.8909912109375,0.07592679560184479,-0.00970597192645073,0.013696961104869843,1.39019775390625,2.74367618560791,-47.96469497680664,1.1013123989105225,0.4005272388458252,-1.083888053894043,0.061151147,-0.16429006,9.746744,1.1480825,-4.883492,8.358419,1
0,985.8909912109375,0.07592679560184479,-0.00970597192645073,0.013696961104869843,-8.439895629882812,21.081928253173828,-35.05149459838867,-0.32870379090309143,0.06549256294965744,0.04772186279296875,0.07311332,-0.17144014,9.758582,0.26338083,-0.20661694,9.754621,1
0,985.7144165039062,-5.255850846879184E-4,9.831757051870227E-5,3.282538673374802E-4,-8.07314682006836,21.056655883789062,-35.18351364135742,-0.32215356826782227,0.06988667696714401,0.052498817443847656,0.07312602,-0.1571408,9.75148,0.27034965,-0.18862575,9.747447,1
0,985.7350463867188,5.395563202910125E-4,-5.674523417837918E-4,-3.375881933607161E-4,-8.627969741821289,21.380210876464844,-35.50187301635742,-0.3256756365299225,0.06504925340414047,0.052529335021972656,0.07791847,-0.1595244,9.746748,0.26930055,-0.19665812,9.74266,1
0,985.7643432617188,4.062760272063315E-4,6.30989030469209E-4,6.183324148878455E-5,-8.946130752563477,21.767009735107422,-35.321510314941406,-0.33410730957984924,0.06913376599550247,0.052550315856933594,0.08271098,-0.16190796,9.751483,0.270497,-0.20183802,9.747336,1
0,985.7465209960938,-0.0014580574352294207,7.641666452400386E-4,3.2809676486067474E-4,-8.835148811340332,21.39696502685547,-35.54791259765625,-0.32322958111763,0.06396117061376572,0.047844886779785156,0.08033374,-0.16429158,9.751484,0.26435083,-0.20463744,9.747469,1
0,985.7518310546875,-5.260740290395916E-4,2.3155473172664642E-4,3.280443779658526E-4,-8.874743461608887,20.938365936279297,-35.36100769042969,-0.3168158531188965,0.058565616607666016,0.047878265380859375,0.070786834,-0.14999224,9.76569,0.26165035,-0.18550521,9.76183,1
0,985.7774047851562,-2.5988026754930615E-4,-3.010571235790849E-4,-7.148180156946182E-5,-8.846781730651855,21.01689910888672,-34.83102035522461,-0.33000144362449646,0.05857570469379425,0.04790687561035156,0.0803591,-0.15714236,9.751488,0.26611513,-0.19515564,9.747499,1
0,985.7518310546875,6.72103080432862E-4,3.6475236993283033E-4,7.274134550243616E-4,-8.64210319519043,20.62889862060547,-34.53192138671875,-0.3284164071083069,0.07715550810098648,0.05741119384765625,0.08515158,-0.16429253,9.749121,0.26694846,-0.20146391,9.74514,1
0,985.755126953125,-5.264406208880246E-4,3.6477233516052365E-4,3.278873045928776E-4,-8.748382568359375,21.10927963256836,-35.236515045166016,-0.31303465366363525,0.057868629693984985,0.03849506378173828,0.07321477,-0.14760984,9.763325,0.2610072,-0.18305519,9.759509,1
0,985.75537109375,2.7238490292802453E-4,0.0011637397110462189,1.9467697711661458E-4,-8.711585998535156,20.564502716064453,-35.59523010253906,-0.3116423487663269,0.052761271595954895,0.06219673156738281,0.06844765,-0.14761023,9.751491,0.25830948,-0.17570142,9.747845,1
0,985.7655639648438,-6.598429172299802E-4,-5.672936677001417E-4,-4.7116511268541217E-4,-8.466472625732422,20.89896011352539,-34.95970916748047,-0.32459065318107605,0.07149365544319153,0.05274009704589844,0.078296185,-0.16906674,9.753884,0.2532094,-0.20326066,9.750258,1
0,985.7534790039062,2.708187676034868E-4,-5.670592072419822E-4,-3.386259195394814E-4,-9.067521095275879,21.126312255859375,-34.88039016723633,-0.32292771339416504,0.05202113837003708,0.062244415283203125,0.083099425,-0.15000112,9.751518,0.26422465,-0.18720666,9.747649,1
0,985.7337036132812,-1.2754002818837762E-4,-1.6801364836283028E-4,3.2548396848142147E-4,-8.892189025878906,20.764232635498047,-35.73305130004883,-0.3119211792945862,0.05166003108024597,0.052803993225097656,0.07356322,-0.15000172,9.756256,0.25655875,-0.17935409,9.752665,1
0,985.7337036132812,-1.2754002818837762E-4,-1.6801364836283028E-4,3.2548396848142147E-4,-8.805122375488281,21.108680725097656,-34.99678039550781,-0.30991655588150024,0.06572283804416656,0.04811382293701172,0.07836646,-0.15715213,9.763359,0.25436598,-0.18950686,9.759788,1
0,985.7514038085938,5.392299499362707E-6,-7.00608768966049E-4,-8.730340050533414E-4,-8.672428131103516,20.285049438476562,-35.50792694091797,-0.32320839166641235,0.06068027764558792,0.033931732177734375,0.08555958,-0.15238614,9.758627,0.26326412,-0.18573289,9.754872,1
0,985.7617797851562,-2.6114931097254157E-4,-0.0011000459780916572,-2.073412761092186E-4,-8.672971725463867,20.653343200683594,-35.60637664794922,-0.3121442198753357,0.06043272465467453,0.038697242736816406,0.07841331,-0.15953656,9.765731,0.25658143,-0.18295008,9.762264,1
0,985.741455078125,-1.2821733253076673E-4,0.001163675682619214,-8.732277201488614E-4,-8.334160804748535,20.969844818115234,-34.44535446166992,-0.3015331029891968,0.050595082342624664,0.048187255859375,0.07365689,-0.14762072,9.75153,0.25433844,-0.17166615,9.748097,1
0,985.7470092773438,-7.690221536904573E-5,-1.9887590315192938E-4,-2.58780550211668E-4,-8.594900131225586,21.094871520996094,-35.105350494384766,-0.29079023003578186,0.05963066965341568,0.062412261962890625,0.07607025,-0.1547711,9.749165,0.25128388,-0.18012367,9.745787,1
0,985.747314453125,3.2234610989689827E-4,0.0012658981140702963,1.4059641398489475E-4,-8.888984680175781,21.29340362548828,-34.76371383666992,-0.298530638217926,0.07851336896419525,0.034043312072753906,0.07131386,-0.17145465,9.7633705,0.23888025,-0.19215679,9.760324,1
0,985.7726440429688,-3.436693223193288E-4,-3.319605893921107E-4,0.0010726054897531867,-8.736343383789062,21.01514434814453,-35.155879974365234,-0.2923629879951477,0.06381824612617493,0.05774211883544922,0.07372719,-0.15715559,9.75627,0.24697945,-0.17758147,9.753071,1
0,985.7556762695312,5.5352807976305485E-5,4.670604248531163E-4,7.148366421461105E-6,-8.71142578125,21.09072494506836,-34.47127914428711,-0.30536481738090515,0.06815411150455475,0.048297882080078125,0.08331019,-0.16668923,9.761007,0.25020814,-0.1900911,9.757728,1
0,985.753173828125,-2.1118868608027697E-4,-1.9869266543537378E-4,-1.2610608246177435E-4,-8.518104553222656,20.53448486328125,-34.85344314575195,-0.2895579934120178,0.05808074772357941,0.043590545654296875,0.07138407,-0.15239014,9.763376,0.24378172,-0.17169248,9.760274,1
0,985.7713012695312,-6.108880043029785E-4,-1.986560528166592E-4,2.732708817347884E-4,-7.993851184844971,20.867515563964844,-35.18466567993164,-0.3021553158760071,0.04336991161108017,0.03888988494873047,0.06901762,-0.14762421,9.761011,0.24659051,-0.1585588,9.757969,1
0,985.7535400390625,-3.447978524491191E-4,-7.312512025237083E-4,-3.926155623048544E-4,-8.6757173538208,21.282535552978516,-35.02689743041992,-0.2818647027015686,0.06672137975692749,0.057847023010253906,0.066651136,-0.16192438,9.753912,0.23428716,-0.17455333,9.751108,1
1,985.7362670898438,-6.113398121669888E-4,-1.9858271116390824E-4,6.761401891708374E-6,-8.718217849731445,20.926910400390625,-35.384456634521484,-0.2850085496902466,0.0662858635187149,0.06734657287597656,0.071454346,-0.16430826,9.742077,0.23457444,-0.17959683,9.739245,1
1,985.7462158203125,-3.452495438978076E-4,-6.53881870675832E-5,-2.596513368189335E-4,-8.302337646484375,20.89486312866211,-35.369686126708984,-0.28383955359458923,0.05637763440608978,0.05789756774902344,0.07386765,-0.15239246,9.761019,0.24404086,-0.16498332,9.758042,1
1,985.7515258789062,1.871566055342555E-4,0.0012662280350923538,-6.592217832803726E-4,-8.708244323730469,21.199588775634766,-35.32496643066406,-0.2872771620750427,0.046752482652664185,0.04372119903564453,0.06911129,-0.15477635,9.761021,0.23576728,-0.16710961,9.758215,1
1,985.7669067382812,1.869309926405549E-4,-9.9742051679641E-4,6.722609978169203E-4,-8.448347091674805,20.810714721679688,-35.188289642333984,-0.29015955328941345,0.06089088320732117,0.04376029968261719,0.076304376,-0.1619267,9.761023,0.23833963,-0.17476027,9.758189,1
1,985.7643432617188,7.19337142072618E-4,-3.315942012704909E-4,2.7269049314782023E-4,-8.586203575134277,20.365650177001953,-35.29497528076172,-0.29380378127098083,0.06056377291679382,0.04851341247558594,0.07393795,-0.15239419,9.75629,0.23675388,-0.16764471,9.753448,1
1,985.7447509765625,-4.7931040171533823E-4,6.791634950786829E-5,2.7259369380772114E-4,-8.745338439941406,21.112228393554688,-35.3911247253418,-0.28268343210220337,0.05579858273267746,0.053279876708984375,0.066791624,-0.16669436,9.763393,0.22431806,-0.1751899,9.760897,1
1,985.7447509765625,4.5256956946104765E-4,-3.315208596177399E-4,8.051287150010467E-4,-8.977273941040039,21.579620361328125,-34.99781036376953,-0.2815092206001282,0.060368143022060394,0.04383277893066406,0.07876456,-0.16669495,9.765762,0.2342296,-0.17953372,9.763043,1
1,985.7424926757812,7.186599541455507E-4,7.33779335860163E-4,1.3924227096140385E-4,-8.575794219970703,21.376388549804688,-35.50969314575195,-0.28509917855262756,0.045860253274440765,0.06279277801513672,0.06922835,-0.15239592,9.742092,0.23184635,-0.15915337,9.7394705,1
1,985.7454223632812,3.189604030922055E-4,-3.314476343803108E-4,1.3914552982896566E-4,-8.306903839111328,20.890445709228516,-35.13776779174805,-0.28370559215545654,0.050440363585948944,0.039147377014160156,0.0764215,-0.15477975,9.765766,0.2372455,-0.16283835,9.763053,1
1,985.7403564453125,-2.1389697212725878E-4,4.6753667993471026E-4,-7.93056795373559E-4,-8.736343383789062,21.01514434814453,-35.15587615966797,-0.27767109870910645,0.0502014085650444,0.039168357849121094,0.0692752,-0.15478028,9.761035,0.22712702,-0.16263786,9.758511,1
1,985.7658081054688,-2.1412305068224669E-4,3.3441546838730574E-4,2.721099881455302E-4,-8.346060752868652,21.169891357421875,-35.22507095336914,-0.2810535430908203,0.06909047812223434,0.053397178649902344,0.07699281,-0.16909344,9.7563505,0.23012322,-0.17387167,9.753858,1
1,985.7484130859375,3.182830987498164E-4,-9.97127266600728E-4,5.69736585021019E-6,-8.605415344238281,21.190475463867188,-35.2632942199707,-0.2807554602622986,0.05454409867525101,0.06279373168945312,0.07518268,-0.1691076,9.751669,0.22547194,-0.17460617,9.749254,1
1,985.7794189453125,7.125679985620081E-4,-1.9860389875248075E-4,2.578524290584028E-4,-8.409730911254883,20.899555206298828,-35.199440002441406,-0.2842664420604706,0.06395857036113739,0.04860877990722656,0.080028415,-0.16195942,9.751675,0.23214512,-0.16874191,9.749125,1
1,985.7440795898438,-2.2143073147162795E-4,4.67493140604347E-4,1.2388313189148903E-4,-8.283231735229492,21.17638397216797,-35.77402114868164,-0.2689519226551056,0.053969599306583405,0.02968311309814453,0.06814489,-0.1595778,9.763517,0.21985987,-0.16348441,9.761215,1
1,985.734130859375,-8.890830213204026E-5,0.0012665439862757921,-9.547336958348751E-6,-8.805123329162598,21.108680725097656,-34.99678039550781,-0.2822524309158325,0.0727311447262764,0.03443145751953125,0.08255032,-0.16672917,9.772992,0.23143354,-0.1724338,9.7705,1
1,985.7443237304688,-3.558603930287063E-4,-6.493221735581756E-5,-2.7613562997430563E-4,-8.492071151733398,21.08575439453125,-35.043678283691406,-0.2762521505355835,0.053363002836704254,0.04864978790283203,0.08500618,-0.1524312,9.761162,0.2376747,-0.16031416,9.758513,1
1,985.7392578125,3.0929368222132325E-4,2.0148680778220296E-4,-1.009239349514246E-5,-8.542861938476562,20.985130310058594,-34.41408920288086,-0.28428277373313904,0.05334760248661041,0.05341148376464844,0.080292284,-0.1548161,9.7564335,0.22997285,-0.16116558,9.753949,1
1,985.7543334960938,1.754998811520636E-4,-5.973575171083212E-4,-2.766805700957775E-4,-8.468973159790039,20.527725219726562,-34.70664978027344,-0.27332445979118347,0.0532178059220314,0.048697471618652344,0.07557851,-0.15958424,9.761175,0.22402675,-0.16078167,9.758878,1
1,985.7498779296875,0.0013732854276895523,-6.462255259975791E-5,2.556784893386066E-4,-8.487504959106445,21.090171813964844,-35.27559280395508,-0.26727181673049927,0.06273964792490005,0.043984413146972656,0.07086465,-0.16196914,9.756445,0.21720532,-0.16081485,9.754303,1
1,985.7496337890625,-3.584034857340157E-4,-1.976772618945688E-4,5.217217258177698E-4,-8.696748733520508,21.47374725341797,-35.342777252197266,-0.27093935012817383,0.0766296535730362,0.03926277160644531,0.08288011,-0.16673733,9.765921,0.22271886,-0.17289819,9.763626,1
1,985.762939453125,-9.272369788959622E-5,3.3505773171782494E-4,3.882913733832538E-4,-8.861045837402344,20.951629638671875,-36.0567512512207,-0.26925763487815857,0.05230732262134552,0.053488731384277344,0.078166306,-0.1572058,9.758825,0.22521484,-0.1550654,9.756574,1
1,985.77001953125,-2.265171497128904E-4,-0.0013958923518657684,0.0010538086062297225,-8.507558822631836,21.651145935058594,-35.767234802246094,-0.27237170934677124,0.06643816828727722,0.04877948760986328,0.08779186,-0.16435729,9.75173,0.22307836,-0.17327929,9.749419,1
1,985.7453002929688,4.386366927064955E-4,-5.968414479866624E-4,-1.172744669020176E-5,-9.267091751098633,21.150440216064453,-35.312957763671875,-0.2756490707397461,0.033132798969745636,0.05353832244873047,0.08785781,-0.14767595,9.754103,0.23091955,-0.15475836,9.751656,1
1,985.7659301757812,5.711585399694741E-4,-0.0011293699499219656,-1.4515803195536137E-4,-8.815095901489258,20.83599853515625,-35.056270599365234,-0.26452603936195374,0.04719771444797516,0.04882621765136719,0.08314401,-0.15244408,9.751741,0.22529289,-0.15320127,9.749481,1
1,985.7659301757812,5.711585399694741E-4,-0.0011293699499219656,-1.4515803195536137E-4,-8.80552864074707,21.5828857421875,-35.794307708740234,-0.2632283568382263,0.03249458968639374,0.05357646942138672,0.07604027,-0.14052941,9.754116,0.22379825,-0.13664085,9.7519,1
2,985.7584228515625,-3.615824389271438E-4,2.0231265807524323E-4,-2.785882679745555E-4,-8.137657165527344,20.52246856689453,-35.681209564208984,-0.2572576403617859,0.060857996344566345,0.05359172821044922,0.07610619,-0.16674705,9.761223,0.20775986,-0.16600527,9.75932,1
2,985.7659301757812,-3.62218648660928E-4,-3.3021593117155135E-4,-9.446503827348351E-4,-8.651395797729492,20.093841552734375,-35.192039489746094,-0.26533517241477966,0.03220256417989731,0.03941154479980469,0.073782325,-0.14291589,9.765963,0.21893857,-0.13594495,9.763886,1
2,985.7711181640625,4.3609325075522065E-4,-3.301126998849213E-4,-1.4597538392990828E-4,-8.170866012573242,20.701900482177734,-35.3786506652832,-0.254410982131958,0.06066763401031494,0.034694671630859375,0.07384825,-0.15960045,9.765969,0.21161455,-0.14985898,9.764111,1
2,985.7889404296875,5.686155636794865E-4,-3.3000949770212173E-4,3.863839083351195E-4,-8.21611213684082,20.975460052490234,-35.156734466552734,-0.2578456997871399,0.04630673676729202,0.04891777038574219,0.07630408,-0.1500689,9.758873,0.21429646,-0.14438161,9.756904,1
2,985.7813720703125,4.348215297795832E-4,-4.630642361007631E-4,1.1979561531916261E-4,-8.440874099731445,20.712169647216797,-34.87574005126953,-0.2612423002719879,0.046145327389240265,0.02526378631591797,0.08592972,-0.15722038,9.77545,0.2142961,-0.1609008,9.7734165,1
2,985.7769165039062,-9.844574378803372E-5,-7.292768568731844E-4,1.1952302884310484E-4,-8.973442077636719,20.213851928710938,-35.38039016723633,-0.26018190383911133,0.07473127543926239,0.0820913314819336,0.07643604,-0.173905,9.728111,0.20184699,-0.16500746,9.726473,1
2,985.7846069335938,6.57278171274811E-4,7.461697096005082E-4,4.3657058267854154E-4,-8.30470085144043,20.62954330444336,-35.81570053100586,-0.27755194902420044,0.05082066357135773,0.09632015228271484,0.0693323,-0.16437341,9.697345,0.19753063,-0.15199071,9.695784,1
2,985.7392578125,-4.0862098103389144E-4,-5.2674993639811873E-5,1.699822605587542E-4,-8.857160568237305,21.218414306640625,-35.688045501708984,-0.276424378156662,0.059712380170822144,0.05371856689453125,0.0741781,-0.16914167,9.747062,0.19842824,-0.15939043,9.745489,1
2,985.7618408203125,2.5653239572420716E-4,-8.515192312188447E-4,-8.9555379236117E-4,-8.52612018585205,21.00133514404297,-35.26444625854492,-0.27040332555770874,0.03593681752681732,0.01586151123046875,0.08858347,-0.14769383,9.768372,0.22109064,-0.14310935,9.766339,1
2,985.7720947265625,-2.7673476142808795E-4,-3.1878420850262046E-4,-2.3003650130704045E-4,-8.839715003967285,21.392547607421875,-35.31599807739258,-0.27422043681144714,0.030864380300045013,0.03954124450683594,0.08864939,-0.14531209,9.766011,0.22048505,-0.14148001,9.763981,1
2,985.7572631835938,-1.4421279774978757E-4,-5.236509605310857E-5,5.686385557055473E-4,-8.609981536865234,21.186058044433594,-35.03137969970703,-0.26766031980514526,0.03520995378494263,0.034827232360839844,0.09292328,-0.1524495,9.765965,0.22083187,-0.1472884,9.76399,1
2,985.7903442382812,-8.079165709204972E-4,-1.858616597019136E-4,-0.001028362661600113,-8.262636184692383,20.247116088867188,-35.18392562866211,-0.24126984179019928,0.06294747442007065,0.07281970977783203,0.082823455,-0.1691192,9.751712,0.20318057,-0.15774676,9.750139,1
2,985.7855224609375,-2.643049811013043E-4,-4.573521437123418E-4,7.014664588496089E-4,-8.514379501342773,20.275062561035156,-35.60868453979492,-0.23566152155399323,0.05815720558166504,0.05862998962402344,0.07328412,-0.1595866,9.754082,0.19614941,-0.14679815,9.752586,1
2,985.7886352539062,5.344467354007065E-4,3.416274266783148E-4,5.682245828211308E-4,-9.087873458862305,21.055152893066406,-35.796905517578125,-0.2439286708831787,0.06260250508785248,0.03497314453125,0.07569438,-0.15720387,9.763552,0.19721979,-0.1464718,9.762021,1
2,985.8034057617188,2.6793527649715543E-4,-3.2413058215752244E-4,8.344566449522972E-4,-8.945886611938477,20.766582489013672,-35.64793014526367,-0.24302197992801666,0.053270354866981506,0.06339645385742188,0.08527428,-0.1500545,9.754086,0.20789704,-0.14377208,9.7523365,1
2,985.7680053710938,-1.3173435581848025E-4,3.416909312363714E-4,-9.773281635716558E-5,-9.069884300231934,20.860992431640625,-35.326412200927734,-0.24593637883663177,0.03879416733980179,0.04448699951171875,0.08051473,-0.15720482,9.765923,0.19877504,-0.14776342,9.764378,1
2,985.751220703125,2.675436553545296E-4,-9.898567805066705E-4,-9.78167518042028E-5,-8.286275863647461,21.17343521118164,-35.61941146850586,-0.2302897572517395,0.053022198379039764,0.05397319793701172,0.06380579,-0.154822,9.751721,0.18824118,-0.13098137,9.750463,1
2,985.7885131835938,9.331376641057432E-4,-5.90351119171828E-4,3.015732509084046E-4,-8.356034278869629,20.89720916748047,-35.28456115722656,-0.23385852575302124,0.033930473029613495,0.04925727844238281,0.07816547,-0.1452895,9.746989,0.20305237,-0.1288436,9.7454195,1
2,985.7764282226562,4.003102076239884E-4,3.4178627538494766E-4,1.6833131667226553E-4,-8.354512214660645,20.898681640625,-35.36186599731445,-0.24201719462871552,0.034006454050540924,0.035076141357421875,0.08296561,-0.15243979,9.761194,0.20357884,-0.13672014,9.759657,1
2,985.7760009765625,5.332725704647601E-4,-8.566034957766533E-4,3.50894988514483E-5,-9.143635749816895,21.42431640625,-35.73292922973633,-0.23559029400348663,0.06679738312959671,0.049297332763671875,0.08059603,-0.16435666,9.758829,0.19202206,-0.14983696,9.757507,1
2,985.7841186523438,-7.985028787516057E-4,-0.0011228875955566764,-7.639419636689126E-4,-8.809551239013672,21.21017837524414,-35.46394348144531,-0.23436951637268066,0.028790660202503204,0.05405235290527344,0.07822639,-0.14290763,9.754097,0.19885424,-0.12704957,9.752604,1
2,985.7741088867188,9.323546546511352E-4,-3.239081706851721E-4,1.680796849541366E-4,-8.698707580566406,20.734222412109375,-34.991268157958984,-0.22834943234920502,0.0525992289185524,0.05880451202392578,0.08063662,-0.16197433,9.751731,0.19151759,-0.14559284,9.750443,1
2,985.7741088867188,6.658430793322623E-4,3.4191334270872176E-4,1.6799586592242122E-4,-8.786453247070312,20.652149200439453,-35.12691116333008,-0.227250337600708,0.05713728815317154,0.049347877502441406,0.07826704,-0.16197492,9.749367,0.18766513,-0.1449064,9.748143,1
2,985.7922973632812,1.330156228505075E-4,2.0878712530247867E-4,-9.840395068749785E-5,-8.33942985534668,20.8074951171875,-35.43584060668945,-0.22648169100284576,0.037899941205978394,0.04935646057128906,0.07828736,-0.15482558,9.758837,0.19306663,-0.1338809,9.757551,1
3,985.7891235351562,1.3282004510983825E-4,0.0010077666956931353,-2.3164571030065417E-4,-8.612344741821289,20.920738220214844,-35.477394104003906,-0.23005811870098114,0.05694325268268585,0.04937267303466797,0.083087444,-0.16197588,9.758839,0.1923351,-0.14342748,9.757587,1
3,985.757080078125,6.652557640336454E-4,-1.9062307546846569E-4,-3.648875863291323E-4,-8.555741310119629,20.815418243408203,-35.01804733276367,-0.23361682891845703,0.03770703077316284,0.044655799865722656,0.075938046,-0.15005995,9.765942,0.18852645,-0.13069558,9.764695,1
3,985.7593383789062,1.324283075518906E-4,-5.900651449337602E-4,1.6766029875725508E-4,-8.657889366149902,20.562156677246094,-35.68034744262695,-0.23229478299617767,0.05662407726049423,0.04940509796142578,0.07356846,-0.15959354,9.749374,0.18493955,-0.13235623,9.748306,1
3,985.7847900390625,2.653906703926623E-4,4.7523013199679554E-4,5.670501850545406E-4,-8.089069366455078,20.883995056152344,-35.63286590576172,-0.2216646671295166,0.05620720982551575,0.05888557434082031,0.078368545,-0.16436066,9.754109,0.18549924,-0.13948162,9.753049,1
3,985.784912109375,-2.674369025044143E-4,-5.900015821680427E-4,1.6749248607084155E-4,-8.529706954956055,21.366676330566406,-35.20828628540039,-0.2300828993320465,0.051012344658374786,0.025754928588867188,0.0783889,-0.15959461,9.765947,0.18323487,-0.13895038,9.764859,1
3,985.790283203125,-8.002643589861691E-4,-5.7338038459420204E-5,-4.983811522834003E-4,-8.982137680053711,20.943069458007812,-35.190765380859375,-0.20492146909236908,0.05545730143785477,0.04944038391113281,0.07362938,-0.16436161,9.756481,0.17773941,-0.13792092,9.75555,1
3,985.7600708007812,-1.5126424841582775E-6,-1.904642122099176E-4,5.667984951287508E-4,-8.699250221252441,21.10251235961914,-35.089717864990234,-0.22301684319972992,0.03632268309593201,0.068389892578125,0.07125977,-0.14529593,9.751748,0.18316755,-0.11777426,9.75066,1
3,985.7728881835938,-1.3506197137758136E-4,-3.235586336813867E-4,3.39990365318954E-5,-9.02792739868164,21.584915161132812,-35.067298889160156,-0.21155117452144623,0.06468328088521957,0.04000663757324219,0.068890214,-0.16674586,9.77779,0.1696838,-0.13727883,9.77702,1
3,985.790771484375,7.96847918536514E-4,-4.566847928799689E-4,-4.987166612409055E-4,-8.85273265838623,21.116920471191406,-35.22087860107422,-0.23401132225990295,0.0311923548579216,0.05422782897949219,0.08324993,-0.15483008,9.758854,0.18645272,-0.13227955,9.757761,1
3,985.790771484375,7.96847918536514E-4,-4.566847928799689E-4,-4.987166612409055E-4,-8.85273265838623,21.116920471191406,-35.22087860107422,-0.2094588726758957,0.04529073089361191,0.05423450469970703,0.068930805,-0.15959705,9.751753,0.17186058,-0.12778446,9.750951,1
3,985.790771484375,7.96847918536514E-4,-4.566847928799689E-4,-4.987166612409055E-4,-8.155241012573242,20.242420196533203,-35.35417556762695,-0.21747981011867523,0.030773840844631195,0.040050506591796875,0.0785107,-0.154831,9.763591,0.18179502,-0.12583494,9.76263,1
3,985.7734985351562,-4.0176924085244536E-4,-8.56126775033772E-4,-3.6564253969118E-4,-8.496499061584473,21.18724822998047,-35.510841369628906,-0.21675904095172882,0.030496761202812195,0.05424976348876953,0.07623649,-0.14768402,9.7565,0.18229344,-0.11701337,9.755512,1
3,985.8062744140625,-4.019651678390801E-4,-1.9030536350328475E-4,-3.657264751382172E-4,-8.54465103149414,21.56377410888672,-35.83339309692383,-0.2303190380334854,0.05873086303472519,0.049521446228027344,0.08343026,-0.1691341,9.761236,0.17823626,-0.14109822,9.760411,1
3,985.7787475585938,-1.8567079678177834E-6,0.001405992079526186,1.64564058650285E-4,-8.613729476928711,21.025177001953125,-36.09917068481445,-0.20999731123447418,0.03477101773023605,0.03059864044189453,0.07150486,-0.15245177,9.765972,0.1728699,-0.120712206,9.765148,1
3,985.7658081054688,-2.423184923827648E-6,2.0766264060512185E-4,1.6432121628895402E-4,-8.757375717163086,21.206356048583984,-35.47175979614258,-0.20383232831954956,0.05352406203746796,0.044814109802246094,0.07391882,-0.15245236,9.77071,0.17507944,-0.11924775,9.769882,1
3,985.7781982421875,5.299762124195695E-4,-0.0011238791048526764,1.6422179760411382E-4,-8.327391624450684,20.713363647460938,-35.35520553588867,-0.21260027587413788,0.03895082324743271,0.04955482482910156,0.078722715,-0.15245293,9.761244,0.17840852,-0.1210473,9.76037,1
3,985.7738647460938,-5.35519327968359E-4,-1.9173580221831799E-4,4.304381727706641E-4,-8.671012878417969,21.392868041992188,-35.957881927490234,-0.2257942259311676,0.034095555543899536,0.049567222595214844,0.08591652,-0.15245356,9.763613,0.18586639,-0.12055209,9.762667,1
3,985.7813110351562,3.96121758967638E-4,7.465539965778589E-5,4.302392480894923E-4,-8.41788387298584,21.260482788085938,-34.91136932373047,-0.2007656991481781,0.04355756193399429,0.044844627380371094,0.069211304,-0.16198726,9.758881,0.16490254,-0.12343611,9.758298,1
3,985.7691650390625,5.29047567397356E-4,3.4100899938493967E-4,1.6382377361878753E-4,-8.848846435546875,21.383712768554688,-34.852169036865234,-0.2231650948524475,0.057677604258060455,0.054329872131347656,0.0835748,-0.16675438,9.7588825,0.17330983,-0.13552642,9.758185,1
3,985.7714233398438,1.3352956739254296E-4,6.708744331263006E-5,-4.846660885959864E-6,-9.242035865783691,21.33193588256836,-35.32743835449219,-0.21291357278823853,0.06217484176158905,0.035396575927734375,0.078819096,-0.15960516,9.770721,0.16899464,-0.12907675,9.770029,1
3,985.7638549804688,-2.661763865035027E-4,-3.3234863076359034E-4,2.6136968517675996E-4,-8.649981498718262,21.20166015625,-35.64200210571289,-0.20297449827194214,0.0477779284119606,0.04960060119628906,0.07645327,-0.1691388,9.754153,0.16507417,-0.13310719,9.753615,1
3,985.7666015625,3.9938106783665717E-4,0.0016650580801069736,2.6127026649191976E-4,-8.597262382507324,20.829544067382812,-35.551368713378906,-0.20703551173210144,0.03829833120107651,0.059078216552734375,0.07647735,-0.1476899,9.754155,0.17251988,-0.113978535,9.753381,1
3,985.76708984375,3.9914881926961243E-4,9.99306095764041E-4,2.6117078959941864E-4,-8.931485176086426,20.937774658203125,-35.121273040771484,-0.20606566965579987,0.042927294969558716,0.05435466766357422,0.07889134,-0.15245707,9.756525,0.17065087,-0.12068315,9.755796,1
3,985.7844848632812,6.652325391769409E-4,-3.322355914860964E-4,3.9422919508069754E-4,-8.673514366149902,21.021636962890625,-35.70482635498047,-0.20000196993350983,0.03807492554187775,0.044898033142089844,0.07413572,-0.15960746,9.761261,0.16373202,-0.12265449,9.760704,1
3,985.7720947265625,6.650002906098962E-4,-5.985137540847063E-4,1.2781383702531457E-4,-8.585224151611328,20.735416412353516,-35.47072982788086,-0.1986854374408722,0.047554850578308105,0.04491233825683594,0.069379926,-0.15960805,9.758896,0.15800181,-0.120343536,9.758427,1
4,985.7852172851562,-4.004953370895237E-4,-3.3216027077287436E-4,7.935038884170353E-4,-8.406549453735352,21.008419036865234,-36.053131103515625,-0.21207305788993835,0.028089657425880432,0.07332515716552734,0.0861333,-0.15007554,9.742327,0.17757773,-0.115666546,9.741559,1
4,985.7874755859375,-1.3441158807836473E-4,2.0050918101333082E-4,3.9393058978021145E-4,-8.2234468460083,21.179927825927734,-36.16836166381836,-0.20169615745544434,0.03275943547487259,0.06386280059814453,0.071817994,-0.1476929,9.754166,0.16595453,-0.10558826,9.753564,1
4,985.797607421875,2.648299850989133E-4,2.0054701599292457E-4,-2.719585900194943E-4,-8.642807006835938,20.470970153808594,-35.75432205200195,-0.20077043771743774,0.027878284454345703,0.04493427276611328,0.0790118,-0.15007673,9.756535,0.16755475,-0.11508019,9.755891,1
4,985.7725219726562,2.645978529471904E-4,6.000583525747061E-4,-4.0521606570109725E-4,-8.857160568237305,21.21841812133789,-35.68804168701172,-0.19027569890022278,0.041894249618053436,0.040205955505371094,0.071866214,-0.1596104,9.763639,0.1570898,-0.119316384,9.763217,1
4,985.803466796875,-1.3510810094885528E-4,-7.314832182601094E-4,-8.047893061302602E-4,-8.820067405700684,21.3057861328125,-35.621891021728516,-0.18920405209064484,0.0511649027466774,0.044948577880859375,0.0742802,-0.159611,9.756539,0.15867692,-0.11914697,9.75611,1
4,985.7929077148438,-5.348142003640532E-4,4.6697587822563946E-4,5.266906227916479E-4,-8.212632179260254,21.71645736694336,-35.58555221557617,-0.19760797917842865,0.036457791924476624,0.044956207275390625,0.081474006,-0.15484507,9.758909,0.16991875,-0.11153579,9.758363,1
4,985.7677001953125,-2.687305386643857E-4,-4.6509201638400555E-4,6.597490282729268E-4,-8.365028381347656,20.994285583496094,-35.51980972290039,-0.1870136857032776,0.04580942541360855,0.04022979736328125,0.0671587,-0.1572289,9.770748,0.15304352,-0.110531546,9.77042,1
4,985.7830810546875,1.305111509282142E-4,6.757743540219963E-5,-2.724561491049826E-4,-9.03181266784668,21.31812286376953,-35.436012268066406,-0.1811632513999939,0.04559033364057541,0.05917549133300781,0.07674235,-0.15961279,9.754179,0.15727596,-0.1192899,9.753788,1
4,985.8064575195312,1.3027901877649128E-4,-6.55428011668846E-5,6.595499580726027E-4,-8.777864456176758,21.029273986816406,-35.6891975402832,-0.19936630129814148,0.035638920962810516,0.0355072021484375,0.07437652,-0.15008028,9.758916,0.15897535,-0.10805704,9.75846,1
4,985.7860107421875,-0.0010683747241273522,-3.3182103652507067E-4,-6.339221727102995E-6,-8.59726333618164,20.829551696777344,-35.551368713378906,-0.1744672954082489,0.05431227385997772,0.07338809967041016,0.06723094,-0.16438054,9.749449,0.14658545,-0.116386205,9.7492695,1
4,985.7932739257812,-4.0281712426804006E-4,3.3400635584257543E-4,-2.7275452157482505E-4,-8.71267318725586,21.30108642578125,-35.79212951660156,-0.18780432641506195,0.04909486323595047,0.030782699584960938,0.074487984,-0.15723287,9.7731285,0.15626071,-0.11100141,9.772797,1
4,985.7808837890625,-5.363579839468002E-4,-8.643529145047069E-4,6.591868586838245E-4,-8.634057998657227,21.37432098388672,-35.19265365600586,-0.19117000699043274,0.03937675803899765,0.06392478942871094,0.07696897,-0.1596184,9.749466,0.15447523,-0.11543365,9.749169,1
4,985.7913208007812,6.655676988884807E-4,-6.034395191818476E-4,2.554066013544798E-4,-8.873902320861816,21.20221710205078,-34.83768844604492,-0.18566781282424927,0.039471931755542755,0.030792236328125,0.07460827,-0.15246926,9.770773,0.15429458,-0.10836387,9.770428,1
4,985.7534790039062,7.984443800523877E-4,6.239573122002184E-5,6.547599332407117E-4,-8.873220443725586,20.939842224121094,-35.43831253051758,-0.18447107076644897,0.03944455832242966,0.04500579833984375,0.072247505,-0.15485324,9.75894,0.14968258,-0.10938228,9.758674,1
4,985.7565307617188,5.318471230566502E-4,3.2875730539672077E-4,-2.7746614068746567E-4,-8.923874855041504,20.94513702392578,-35.5078010559082,-0.1980678141117096,0.048751309514045715,0.04974174499511719,0.0866161,-0.15962051,9.766045,0.16179149,-0.11705453,9.765692,1
4,985.7738647460938,-1.3422357733361423E-4,-3.369867627043277E-4,3.882029850501567E-4,-8.85479736328125,21.483734130859375,-35.24202346801758,-0.18749187886714935,0.0388064980506897,0.059215545654296875,0.08186549,-0.1596212,9.747108,0.15731455,-0.11317598,9.746832,1
4,985.7943725585938,-0.001066610449925065,-2.037831291090697E-4,2.5492452550679445E-4,-8.641529083251953,21.472869873046875,-35.50520706176758,-0.20528480410575867,0.024270065128803253,0.04502105712890625,0.09145424,-0.14770557,9.763681,0.16920327,-0.10630546,9.763182,1
4,985.7969970703125,2.646878419909626E-4,-3.3689552219584584E-4,5.211199168115854E-4,-8.694546699523926,21.212844848632812,-36.02070999145508,-0.17573308944702148,0.03847920149564743,0.06869983673095703,0.07714397,-0.15962262,9.744747,0.1494199,-0.11229192,9.744568,1
4,985.7844848632812,-1.909298589453101E-6,5.952557548880577E-4,-1.1632393579930067E-5,-8.765827178955078,20.93514633178711,-35.608558654785156,-0.18889933824539185,0.02859136462211609,0.035564422607421875,0.07956308,-0.15009023,9.766054,0.15479627,-0.10374408,9.765755,1
4,985.7671508789062,-4.016642633359879E-4,-0.0010025938972830772,7.871947600506246E-4,-8.540116310119629,20.355937957763672,-34.99357223510742,-0.18791800737380981,0.04252605140209198,0.04977130889892578,0.07959226,-0.16200735,9.754221,0.14962353,-0.11317277,9.754087,1
4,985.7671508789062,-4.016642633359879E-4,-0.0010025938972830772,7.871947600506246E-4,-8.740772247314453,21.11663818359375,-35.62303924560547,-0.18709620833396912,0.052011579275131226,0.04977703094482422,0.08440125,-0.16439132,9.756592,0.15185052,-0.117529534,9.756453,1
4,985.7794799804688,1.3068635598756373E-4,6.271529127843678E-5,-1.1873431503772736E-5,-8.767349243164062,20.933670043945312,-35.531253814697266,-0.18609242141246796,0.03264395892620087,0.040312767028808594,0.086820334,-0.15962549,9.766062,0.1546635,-0.11429864,9.765859,1
4,985.7999877929688,1.3040498015470803E-4,5.953926593065262E-4,-4.114677431061864E-4,-8.705636024475098,20.4644775390625,-35.20536804199219,-0.18015657365322113,0.03231930732727051,0.045052528381347656,0.07728988,-0.15724291,9.763699,0.14658132,-0.1066227,9.763588,1
4,985.7872314453125,1.3012383715249598E-4,-6.029831129126251E-4,-8.110620547086E-4,-8.613324165344238,20.55097198486328,-35.301639556884766,-0.1648523509502411,0.032170578837394714,0.04032421112060547,0.06297964,-0.15724362,9.758966,0.13378361,-0.09870647,9.75902,1
5,985.7826538085938,-1.364730705972761E-4,6.285222480073571E-5,2.5408092187717557E-4,-8.527642250061035,20.999862670898438,-35.187137603759766,-0.1784907877445221,0.05097901076078415,0.04979419708251953,0.08212805,-0.15962763,9.758969,0.15066244,-0.106829256,9.758873,1
5,985.77001953125,2.62719375314191E-4,-4.6973390271887183E-4,-5.449872696772218E-4,-8.377066612243652,21.088420867919922,-35.6004524230957,-0.17270109057426453,0.031643882393836975,0.049798011779785156,0.07737744,-0.1524785,9.766073,0.14794935,-0.09825847,9.765955,1
5,985.7827758789062,-0.0010691413190215826,3.292593464720994E-4,-1.2475880794227123E-5,-8.6384859085083,21.475814819335938,-35.65981674194336,-0.1667824536561966,0.02217290550470352,0.05454254150390625,0.0821864,-0.14771266,9.751873,0.15207404,-0.09686728,9.751672,1
5,985.8031616210938,6.613496225327253E-4,-4.6959688188508153E-4,1.204408472403884E-4,-8.445302963256836,20.81366729736328,-35.342899322509766,-0.184736430644989,0.026885829865932465,0.06402015686035156,0.084605455,-0.15009667,9.751875,0.1528583,-0.098584026,9.7517,1
5,985.790771484375,3.9475239464081824E-4,-2.032353513641283E-4,0.001052425941452384,-8.650959968566895,20.831897735595703,-35.46624755859375,-0.16454623639583588,0.05065345764160156,0.03561973571777344,0.07746497,-0.16916372,9.768448,0.13708788,-0.11375389,9.768595,1
5,985.78369140625,1.281552540604025E-4,-7.003176142461598E-5,2.5335774989798665E-4,-8.733055114746094,20.017662048339844,-35.636905670166016,-0.16844442486763,0.04093556106090546,0.04509258270263672,0.07510424,-0.1596313,9.768452,0.13605921,-0.10610532,9.768523,1
5,985.7835693359375,-1.3844177010469139E-4,-2.0314406719990075E-4,7.858690223656595E-4,-8.042301177978516,20.611907958984375,-35.93208694458008,-0.1722012460231781,0.04542578011751175,0.054566383361816406,0.08708286,-0.16201527,9.76372,0.14942418,-0.10674449,9.763725,1
5,985.7966918945312,-5.564972525462508E-6,-6.994044815655798E-5,-1.319916918873787E-5,-8.281709671020508,21.1778564453125,-35.8513298034668,-0.1667928397655487,0.031039878726005554,0.04510021209716797,0.07277268,-0.15724944,9.761354,0.13743326,-0.096543156,9.761447,1
5,985.7789306640625,-3.743130946531892E-5,-8.288901881314814E-6,-5.830147420056164E-4,-8.14885425567627,20.880451202392578,-35.238521575927734,-0.16577503085136414,0.04033723473548889,0.04983711242675781,0.075191796,-0.16678329,9.758991,0.13520035,-0.10555489,9.759198,1
5,985.7611694335938,9.544548811390996E-5,-8.24322341941297E-6,8.265441283583641E-5,-7.947626113891602,20.963714599609375,-35.582340240478516,-0.17909997701644897,0.04451180249452591,0.045104026794433594,0.082390666,-0.16678397,9.758993,0.14215739,-0.10598849,9.759155,1
5,985.779052734375,-0.0011032572947442532,1.2496041017584503E-4,2.15691834455356E-4,-8.090889930725098,20.250381469726562,-35.98042678833008,-0.16458448767662048,0.04420103877782822,0.035628318786621094,0.07525015,-0.16678469,9.770832,0.13365915,-0.10538957,9.771063,1
5,985.7841186523438,2.2804102627560496E-4,0.0011902693659067154,-5.0744565669447184E-5,-8.28366756439209,20.43832778930664,-35.49981689453125,-0.1680861860513687,0.03458401560783386,0.049869537353515625,0.077320576,-0.15486039,9.751865,0.13871431,-0.09553605,9.751948,1
5,985.7492065429688,-3.6888697650283575E-5,5.24254865013063E-4,-0.001115413848310709,-8.436851501464844,21.084877014160156,-35.20610427856445,-0.17185717821121216,0.03897429257631302,0.06881046295166016,0.08211553,-0.15247752,9.747131,0.1442214,-0.09422341,9.747147,1
5,985.7792358398438,2.336750621907413E-4,2.54227255936712E-4,2.1596872829832137E-4,-8.07216739654541,21.426414489746094,-35.35927200317383,-0.1667637825012207,0.029301509261131287,0.04513740539550781,0.077351004,-0.15009464,9.761337,0.14202404,-0.08640975,9.761382,1
5,985.7792358398438,1.0037043830379844E-4,0.0011863566469401121,2.1590586402453482E-4,-8.387720108032227,21.078109741210938,-35.05931091308594,-0.16175144910812378,0.01952541619539261,0.049869537353515625,0.074976325,-0.150095,9.766073,0.13812736,-0.08776516,9.766144,1
5,985.7698974609375,-4.3240824015811086E-4,5.20590809173882E-4,-7.162626716308296E-4,-8.270650863647461,20.713958740234375,-35.59493637084961,-0.16093719005584717,0.05749860405921936,0.03567028045654297,0.074991554,-0.16916163,9.763706,0.12982574,-0.10511597,9.76403,1
5,985.7877807617188,-5.657129804603755E-4,6.537725566886365E-4,-5.0535949412733316E-5,-8.098201751708984,20.875152587890625,-35.16903305053711,-0.1603940725326538,0.028343699872493744,0.06880760192871094,0.07739669,-0.15962888,9.756607,0.13636059,-0.095205404,9.756803,1
5,985.76220703125,-2.995440154336393E-4,-1.1993281077593565E-5,2.1571709658019245E-4,-7.988986968994141,21.504070281982422,-34.9917106628418,-0.16418325901031494,0.023380808532238007,0.05934429168701172,0.07741195,-0.15009613,9.744772,0.140295,-0.08380187,9.744864,1
5,985.7631225585938,6.324148853309453E-4,5.206623463891447E-4,-1.8381973495706916E-4,-8.126843452453613,21.059001922607422,-35.098392486572266,-0.15372571349143982,0.032939933240413666,0.040413856506347656,0.070257485,-0.1477132,9.766077,0.13289359,-0.08020492,9.766214,1
5,985.76220703125,9.963632328435779E-5,-1.1945594451390207E-5,-4.5019848039373755E-4,-8.161436080932617,21.342872619628906,-35.41761016845703,-0.16253817081451416,0.04710811376571655,0.03094768524169922,0.08222222,-0.16201325,9.770814,0.13828313,-0.09706775,9.771043,1
5,985.7650756835938,-3.3668417017906904E-5,1.2123618216719478E-4,-1.8394546350464225E-4,-7.7609357833862305,20.769878387451172,-35.75373458862305,-0.15688537061214447,0.04223816096782684,0.06882762908935547,0.07745764,-0.15486382,9.742409,0.13527817,-0.088678055,9.742605,1
5,985.7854614257812,9.934272384271026E-5,-1.1897922377102077E-5,3.486233181320131E-4,-8.04741096496582,20.97577667236328,-35.79862594604492,-0.1515265703201294,0.028005987405776978,0.05462837219238281,0.07269311,-0.14771433,9.761348,0.13201815,-0.08190967,9.761499,1
5,985.7758178710938,2.323537482880056E-4,6.539156311191618E-4,-3.172293654642999E-4,-8.180839538574219,20.429214477539062,-35.43814468383789,-0.1511237621307373,0.03261662274599075,0.06409740447998047,0.07509822,-0.15963112,9.763716,0.1306398,-0.09159306,9.764006,1
5,985.75048828125,-1.6726675676181912E-4,2.5446555810049176E-4,4.8165544285438955E-4,-8.061108589172363,20.962520599365234,-35.10287857055664,-0.15515977144241333,0.05121353268623352,0.026221275329589844,0.07033363,-0.1620148,9.763718,0.12497041,-0.091059886,9.7640915,1
5,985.7738037109375,-1.6756035620346665E-4,-1.4496048970613629E-4,-0.001116365659981966,-8.109804153442383,21.70734405517578,-35.52387619018555,-0.15863032639026642,0.017631739377975464,0.04989814758300781,0.075128615,-0.14771546,9.75425,0.13427168,-0.07817622,9.75442,1
6,985.7738037109375,-1.6756035620346665E-4,-1.4496048970613629E-4,-0.001116365659981966,-8.109804153442383,21.70734405517578,-35.52387619018555,-0.1484854817390442,0.04129056632518768,0.049900054931640625,0.06558427,-0.16439874,9.7613535,0.11693704,-0.09181803,9.761826,1
6,985.7431030273438,-4.340231535024941E-4,-1.4493672642856836E-4,4.814666754100472E-4,-8.238122940063477,20.796905517578125,-35.2968635559082,-0.1432625949382782,0.017346039414405823,0.04990100860595703,0.07037932,-0.13818313,9.768456,0.13134232,-0.068867385,9.768561,1
6,985.7632446289062,3.647776902653277E-4,3.8771890103816986E-4,-5.838598008267581E-4,-8.265243530273438,20.982227325439453,-35.303524017333984,-0.1567639708518982,0.02687235176563263,0.045172691345214844,0.07517433,-0.15963297,9.763723,0.12709747,-0.08964272,9.764079,1
6,985.7709350585938,4.97788714710623E-4,-1.4488905435428023E-4,-3.1760678393766284E-4,-7.999258041381836,20.599246978759766,-35.47607421875,-0.1462528556585312,0.017214611172676086,0.05464649200439453,0.070409775,-0.15010022,9.749521,0.12586579,-0.07775197,9.749808,1
6,985.7538452148438,-5.676214932464063E-4,9.203983354382217E-4,8.180411532521248E-5,-7.943197727203369,20.862220764160156,-35.115177154541016,-0.15563341975212097,0.045479848980903625,0.04517364501953125,0.07520482,-0.162017,9.756624,0.12544593,-0.090775855,9.75703,1
6,985.7666625976562,2.3117923410609365E-4,2.546324394643307E-4,-3.177327453158796E-4,-8.177358627319336,21.170211791992188,-35.86696243286133,-0.13553893566131592,0.02181398868560791,0.054650306701660156,0.06088066,-0.15010099,9.763727,0.11496085,-0.075340204,9.764102,1
6,985.7666625976562,2.3117923410609365E-4,2.546324394643307E-4,-3.177327453158796E-4,-8.102928161621094,20.344512939453125,-36.06106948852539,-0.14455798268318176,0.036086052656173706,0.05465221405029297,0.06328583,-0.16201772,9.756628,0.112786844,-0.08601235,9.757149,1
6,985.7437744140625,2.3103243438526988E-4,-1.165963476523757E-5,3.479940933175385E-4,-7.994692325592041,20.603660583496094,-35.70798873901367,-0.12501615285873413,0.03069479763507843,0.05464649200439453,0.06330103,-0.1477185,9.754261,0.116939805,-0.07383136,9.754604,1
6,985.7616577148438,2.3088575107976794E-4,5.209960509091616E-4,6.142471102066338E-4,-8.52612018585205,21.00133514404297,-35.26444625854492,-0.1431293785572052,0.025118321180343628,0.04990673065185547,0.08004558,-0.15486865,9.761364,0.12909631,-0.08562671,9.761693,1
6,985.7570190429688,-9.678293135948479E-4,1.2156982847955078E-4,-1.8482637824490666E-4,-8.267745018005371,20.610992431640625,-35.05046463012695,-0.16600385308265686,0.02019822597503662,0.054645538330078125,0.08962041,-0.15486903,9.756632,0.13748737,-0.088781506,9.756902,1
6,985.7570190429688,-9.678293135948479E-4,1.2156982847955078E-4,-1.8482637824490666E-4,-8.267745018005371,20.610992431640625,-35.05046463012695,-0.151437908411026,0.04379342496395111,0.08304882049560547,0.08057618,-0.15964822,9.7401085,0.12835136,-0.08680342,9.740518,1
6,985.7796020507812,-1.6902870265766978E-4,1.215936936205253E-4,8.142652222886682E-5,-8.26480770111084,21.72027587890625,-35.57773208618164,-0.15682275593280792,0.01959310472011566,0.059281349182128906,0.088291705,-0.15966164,9.766197,0.13555676,-0.08892152,9.766557,1
6,985.7752685546875,-4.388527595438063E-4,0.0010484118247404695,7.6013442594558E-5,-8.046867370605469,20.60749053955078,-35.70016860961914,-0.15107186138629913,0.009419038891792297,0.04033660888671875,0.07878786,-0.15251322,9.763836,0.12790412,-0.07903205,9.764188,1
6,985.7576904296875,-7.069050916470587E-4,6.492198444902897E-4,-7.236784440465271E-4,-8.041597366333008,20.76983642578125,-34.70969009399414,-0.15098783373832703,0.04254128038883209,0.04979896545410156,0.08362347,-0.15251453,9.759106,0.1325706,-0.0801698,9.759426,1
6,985.7850952148438,-1.7481116810813546E-4,0.0014482547994703054,-7.239088299684227E-4,-7.994691848754883,20.603668212890625,-35.70798873901367,-0.1510380357503891,0.01873031258583069,0.04979419708251953,0.07889944,-0.15013267,9.754376,0.12892117,-0.07642389,9.754702,1
6,985.7755126953125,9.09671070985496E-5,0.0017146579921245575,7.480836939066648E-5,-7.826127529144287,20.498069763183594,-35.65080261230469,-0.14576968550682068,0.03269699215888977,0.04505443572998047,0.07895523,-0.16205032,9.768585,0.12471652,-0.08614386,9.769072,1
6,985.7810668945312,-8.416759665124118E-4,-2.826238051056862E-4,-1.9173795590177178E-4,-8.183446884155273,21.164321899414062,-35.557743072509766,-0.14463284611701965,0.032020509243011475,0.06398677825927734,0.0814009,-0.15966846,9.747285,0.12648995,-0.08442838,9.7477455,1
6,985.7579956054688,-9.753717458806932E-4,-8.151683141477406E-4,-4.5828422298654914E-4,-8.710309028625488,21.56640625,-35.34611129760742,-0.14338502287864685,0.04123833775520325,0.05451679229736328,0.08145666,-0.16681965,9.752025,0.12150481,-0.09200367,9.752601,1
6,985.7529296875,3.556701703928411E-4,-9.482389432378113E-4,-5.904084537178278E-5,-8.451391220092773,20.80777359008789,-35.0336799621582,-0.14738568663597107,0.0314037948846817,0.049777984619140625,0.07195282,-0.15252139,9.766233,0.11768053,-0.074668385,9.766695,1
6,985.7785034179688,-8.43288900796324E-4,5.165856564417481E-4,7.388676749542356E-5,-8.594900131225586,21.094863891601562,-35.105350494384766,-0.13263916969299316,0.026509374380111694,0.049774169921875,0.07200861,-0.15967257,9.749668,0.114294164,-0.08122181,9.750233,1
6,985.7938842773438,8.827884448692203E-5,-1.4911680773366243E-4,-4.5897538075223565E-4,-8.380248069763184,20.97956085205078,-34.746761322021484,-0.13196001946926117,0.02136009931564331,0.05923938751220703,0.067284584,-0.15967394,9.749672,0.109985754,-0.077946685,9.750279,1
6,985.7992553710938,-3.805201267823577E-4,-2.009017625823617E-4,3.7099586916156113E-4,-8.35505485534668,21.266971588134766,-35.4603157043457,-0.14969420433044434,0.03546777367591858,0.04503822326660156,0.08167982,-0.16682513,9.759146,0.119868785,-0.088590614,9.759775,1
6,985.7716674804688,-1.1474185157567263E-4,-9.99762094579637E-4,-5.613401299342513E-4,-8.252226829528809,21.257858276367188,-35.39864730834961,-0.14881694316864014,0.002213507890701294,0.045040130615234375,0.08173558,-0.14776029,9.761519,0.12662092,-0.0701767,9.761908,1
6,985.7869262695312,6.836680695414543E-4,-6.756925722584128E-5,-6.947286892682314E-4,-8.353670120239258,21.16252899169922,-34.83854675292969,-0.12914113700389862,0.021192029118537903,0.049770355224609375,0.07223177,-0.15491147,9.75679,0.11414008,-0.073565036,9.757343,1
6,985.7938842773438,-3.821330610662699E-4,4.651498165912926E-4,2.3714668350294232E-4,-8.207959175109863,20.614532470703125,-35.44480895996094,-0.1381222903728485,0.020695149898529053,0.05449676513671875,0.07467741,-0.15491284,9.763897,0.115811236,-0.07415832,9.764443,1
7,985.8046264648438,-5.158286076039076E-4,-7.331844535656273E-4,-6.951893446967006E-4,-8.702156066894531,21.205482482910156,-35.63418960571289,-0.14195503294467926,0.0254296213388443,0.05449867248535156,0.07951301,-0.1596808,9.7568,0.11663644,-0.081253156,9.757394,1
7,985.7796630859375,1.626566518098116E-5,-2.0046543795615435E-4,-2.9629969503730536E-5,-8.509515762329102,20.91162109375,-35.41572189331055,-0.13194844126701355,0.03008769452571869,0.04976081848144531,0.077178895,-0.15968211,9.7662735,0.114411354,-0.07960637,9.76689,1
7,985.7852783203125,6.815176457166672E-4,7.317275158129632E-4,3.6961337900720537E-4,-8.600711822509766,21.300811767578125,-36.19428634643555,-0.13625821471214294,0.015733301639556885,0.04502391815185547,0.07962459,-0.15730031,9.759178,0.117274076,-0.07786819,9.759754,1
7,985.7571411132812,2.815061016008258E-4,7.318147108890116E-4,-1.6324874013662338E-4,-8.723869323730469,21.65906524658203,-35.34944534301758,-0.14986880123615265,0.029801174998283386,0.054488182067871094,0.089239955,-0.15491833,9.74498,0.12640545,-0.07884489,9.745482,1
7,985.77001953125,-2.516631502658129E-4,1.9927026005461812E-4,-4.2979512363672256E-4,-8.53000545501709,20.734542846679688,-35.633155822753906,-0.13012263178825378,0.03453758358955383,0.049752235412597656,0.077346206,-0.16445284,9.761555,0.11062326,-0.08345825,9.762263,1
7,985.7930297851562,1.472729491069913E-4,1.9935757154598832E-4,-1.6370962839573622E-4,-8.37127685546875,20.462173461914062,-36.334537506103516,-0.12034488469362259,0.020259663462638855,0.054485321044921875,0.067842424,-0.16207083,9.763927,0.102719426,-0.07724454,9.764662,1
7,985.79052734375,-2.527385950088501E-4,9.983924683183432E-4,-8.297298336401582E-4,-8.400056838989258,20.540103912353516,-35.564823150634766,-0.14356841146945953,0.034516945481300354,0.05921649932861328,0.0822376,-0.1716054,9.761565,0.11138053,-0.09153433,9.762356,1
7,985.74755859375,9.451452642679214E-4,1.995321363210678E-4,-1.6417040023952723E-4,-8.531527519226074,20.733070373535156,-35.555850982666016,-0.1142277717590332,0.024795010685920715,0.049744606018066406,0.058394372,-0.147774,9.756836,0.09941899,-0.057914317,9.757452,1
7,985.76025390625,1.456600148230791E-4,-6.669654976576567E-5,-5.638747243210673E-4,-8.219018936157227,21.07843017578125,-35.70119857788086,-0.12813347578048706,0.01504586637020111,0.049739837646484375,0.068009794,-0.15492518,9.749739,0.1034804,-0.07041143,9.750404,1
7,985.7802734375,-6.538252346217632E-4,7.32338463421911E-4,-2.97789229080081E-4,-8.628406524658203,20.64215850830078,-35.2276725769043,-0.12292322516441345,0.019571557641029358,0.04500007629394531,0.07284534,-0.14777674,9.761581,0.11101356,-0.064485446,9.762127,1
7,985.780517578125,-2.548892516642809E-4,-1.996798673644662E-4,3.677698550745845E-4,-8.452095031738281,20.64984130859375,-36.25608444213867,-0.13157035410404205,0.028787240386009216,0.0639333724975586,0.07957882,-0.15491582,9.756805,0.11425561,-0.072009526,9.757425,1
7,985.8114013671875,-6.525589851662517E-4,-5.994465318508446E-4,5.017010262235999E-4,-8.502449035644531,21.287273406982422,-35.900699615478516,-0.11079585552215576,0.028334245085716248,0.04981422424316406,0.06477362,-0.16443755,9.7685995,0.09540031,-0.07577374,9.76944,1
7,985.78076171875,1.5780696412548423E-4,5.975761450827122E-5,1.0241131531074643E-4,-8.857160568237305,21.21841812133789,-35.68804168701172,-0.12416679412126541,0.018506035208702087,0.030877113342285156,0.07195985,-0.15967132,9.768601,0.10378319,-0.07266978,9.76935,1
7,985.8087768554688,-5.081416456960142E-4,-2.0653242245316505E-4,6.349749746732414E-4,-8.587289810180664,21.10222625732422,-35.491878509521484,-0.11425481736660004,0.03289631009101868,0.040348052978515625,0.062416732,-0.16682164,9.768602,0.091187224,-0.07622345,9.769503,1
7,985.7913208007812,1.5748903388157487E-4,3.261251258663833E-4,-1.6404088819399476E-4,-8.555060386657715,20.55303955078125,-35.61867904663086,-0.11365768313407898,0.027806341648101807,0.05454730987548828,0.06960297,-0.15967216,9.761502,0.099753276,-0.072590806,9.762278,1
7,985.7913208007812,1.5748903388157487E-4,3.261251258663833E-4,-1.6404088819399476E-4,-8.726669311523438,20.65569305419922,-35.52125930786133,-0.13701921701431274,0.018270060420036316,0.05928325653076172,0.07917905,-0.16443913,9.76387,0.10698574,-0.07940013,9.7646675,1
7,985.7636108398438,-1.089859870262444E-4,-7.332279346883297E-5,-4.304249887354672E-4,-8.699112892150879,21.20842742919922,-35.788795471191406,-0.14110618829727173,0.01351405680179596,0.06875419616699219,0.083975375,-0.15252317,9.752037,0.11421834,-0.0719706,9.752658,1
7,985.777099609375,2.903288113884628E-4,8.588086348026991E-4,-3.1019269954413176E-5,-8.759333610534668,20.466827392578125,-35.1202507019043,-0.1214940994977951,0.022924646735191345,0.04981517791748047,0.06726259,-0.15967341,9.75914,0.09632824,-0.07043402,9.75995,1
7,985.7945556640625,2.901697880588472E-4,5.9886835515499115E-5,2.352283918298781E-4,-8.625362396240234,20.645103454589844,-35.38227844238281,-0.12089013308286667,0.017878666520118713,0.03561115264892578,0.07683867,-0.14775743,9.76861,0.11039564,-0.06117928,9.769214,1
7,985.8047485351562,1.5685282414779067E-4,-4.7271925723180175E-4,2.3516040528193116E-4,-8.711692810058594,21.670852661132812,-35.9678840637207,-0.12510612607002258,0.008252829313278198,0.045081138610839844,0.07924509,-0.14299126,9.756775,0.11263231,-0.05987536,9.757312,1
7,985.7623291015625,-7.754118996672332E-4,0.0011252019321545959,-4.306976334191859E-4,-9.08398723602295,21.321945190429688,-35.42819595336914,-0.11930018663406372,0.04164360463619232,0.045083045959472656,0.074481785,-0.16682447,9.768613,0.09915666,-0.07744143,9.769511,1
7,985.8153686523438,2.8969248523935676E-4,-6.058255094103515E-4,2.3502396652475E-4,-8.7518310546875,21.580535888671875,-35.87942886352539,-0.12788067758083344,0.013110071420669556,0.04982185363769531,0.07927811,-0.15967502,9.759146,0.10549712,-0.07225947,9.759935,1
7,985.7828369140625,4.226915189065039E-4,-8.721155463717878E-4,-4.308338393457234E-4,-8.457202911376953,21.013717651367188,-36.122615814208984,-0.11753277480602264,0.027289211750030518,0.045088768005371094,0.074514806,-0.15729214,9.759148,0.10065069,-0.068812326,9.759937,1
7,985.7777709960938,-5.097323446534574E-4,1.9319966668263078E-4,-2.9781233752146363E-4,-8.781452178955078,21.39461898803711,-35.63303756713867,-0.13650256395339966,0.022364020347595215,0.045085906982421875,0.09126061,-0.15729256,9.76625,0.11628176,-0.07473654,9.766965,1
8,985.7827758789062,-1.1041754623875022E-4,0.001125331036746502,3.6790917511098087E-4,-9.170212745666504,21.241344451904297,-35.641143798828125,-0.11687547713518143,0.017333626747131348,0.040348052978515625,0.07215789,-0.15252633,9.76862,0.099083595,-0.06418939,9.769363,1
8,985.7705078125,-1.1057656956836581E-4,4.595671780407429E-4,-5.64264424610883E-4,-9.215458869934082,21.514907836914062,-35.41922378540039,-0.12113763391971588,0.007735878229141235,0.06875419616699219,0.07934415,-0.15252687,9.747316,0.10518782,-0.0667478,9.748036,1
8,985.7808227539062,2.8873811243101954E-4,6.011920049786568E-5,5.009308224543929E-4,-9.147658348083496,21.05160903930664,-35.40256118774414,-0.11556588113307953,0.02179892361164093,0.04034709930419922,0.0769707,-0.15252723,9.766254,0.102205746,-0.06559809,9.766994,1
8,985.7908935546875,2.22632079385221E-5,-7.388026569969952E-4,-3.176910104230046E-5,-9.355923652648926,21.804946899414062,-35.645503997802734,-0.11949106305837631,0.026303142309188843,0.049813270568847656,0.0745973,-0.15729417,9.763889,0.09772651,-0.067886055,9.764718,1
8,985.7757568359375,-7.768435752950609E-4,-3.393030201550573E-4,-1.6499526100233197E-4,-9.332826614379883,21.246917724609375,-35.308475494384766,-0.10908231139183044,0.02127663791179657,0.040345191955566406,0.0722239,-0.1549113,9.759155,0.09523576,-0.06504653,9.75997,1
8,985.7833862304688,-2.4437083629891276E-4,-3.392772632651031E-4,-3.1905423384159803E-5,-8.967056274414062,20.851882934570312,-35.26473617553711,-0.12283631414175034,0.021385639905929565,0.06402015686035156,0.07224041,-0.16682811,9.749689,0.09019818,-0.0751541,9.750677,1
8,985.7763671875,1.5494407853111625E-4,4.5969628263264894E-4,-4.3144734809175134E-4,-9.446309089660645,21.245723724365234,-34.82901382446289,-0.10339037328958511,0.02105921506881714,0.04507732391357422,0.069867015,-0.15729539,9.763893,0.09110451,-0.06597978,9.764763,1
8,985.7787475585938,-5.110047641210258E-4,9.923537727445364E-4,-2.98357626888901E-4,-8.770393371582031,20.93073272705078,-35.376644134521484,-0.12198463827371597,0.020787179470062256,0.06401252746582031,0.07705325,-0.15967901,9.749691,0.097612634,-0.06876525,9.750572,1
8,985.8019409179688,-1.1168996570631862E-4,-4.723576712422073E-4,-6.978997844271362E-4,-8.835989952087402,21.133121490478516,-36.071231842041016,-0.11178195476531982,0.01596161723136902,0.04033946990966797,0.0770697,-0.15252961,9.759163,0.10004167,-0.061724253,9.759951,1
8,985.7666625976562,2.8762471629306674E-4,-8.718057069927454E-4,-5.648098303936422E-4,-8.826995849609375,21.03604507446289,-35.83598709106445,-0.11534823477268219,0.02565629780292511,0.02614307403564453,0.07947615,-0.15729658,9.775734,0.0992394,-0.06663443,9.776592,1
8,985.7741088867188,3.1489942921325564E-4,-5.185381742194295E-4,2.2406218340620399E-4,-8.963032722473145,21.224586486816406,-35.5951042175293,-0.10502637922763824,0.035276323556900024,0.04508209228515625,0.072322935,-0.15968032,9.768635,0.091139376,-0.06615429,9.769559,1
8,985.7973022460938,8.473720517940819E-4,4.1359319584444165E-4,-3.086376818828285E-4,-9.453781127929688,21.344276428222656,-35.14155960083008,-0.1288173496723175,0.0019963085651397705,0.06400394439697266,0.08687049,-0.14776899,9.75445,0.10738238,-0.0628926,9.755162,1
8,985.7825317382812,-8.367997361347079E-5,2.7758098440244794E-4,3.5511807072907686E-4,-9.145156860351562,21.42284393310547,-35.6556282043457,-0.10925006121397018,0.02545081079006195,0.04979419708251953,0.072555184,-0.15253617,9.752085,0.09290665,-0.059480943,9.752925,1
8,985.7672119140625,-8.435914060100913E-5,-2.5494053261354566E-4,-4.4412066927179694E-4,-9.034313201904297,20.946884155273438,-35.18294906616211,-0.10405810177326202,0.01608167588710785,0.04506206512451172,0.06779951,-0.1668364,9.763924,0.08213781,-0.07077853,9.764982,1
8,985.7672119140625,4.48040256742388E-4,6.772026536054909E-4,2.2156949853524566E-4,-8.97811508178711,21.315773010253906,-35.52113342285156,-0.10350798815488815,0.011175349354743958,0.04979419708251953,0.06782365,-0.1477708,9.756824,0.089891165,-0.052317217,9.757624,1
8,985.78564453125,4.83341864310205E-5,2.777666668407619E-4,-1.780040911398828E-4,-9.39842414855957,21.449317932128906,-36.00306701660156,-0.09819108247756958,0.025493338704109192,0.05926322937011719,0.06784767,-0.1644543,9.759193,0.081743665,-0.06856947,9.760232,1
8,985.8005981445312,4.475756431929767E-4,-2.548273769207299E-4,-4.494556924328208E-5,-9.019636154174805,21.329910278320312,-36.05445098876953,-0.1259784996509552,0.016005441546440125,0.059264183044433594,0.084601104,-0.1525385,9.756828,0.10189209,-0.06302118,9.757651,1
8,985.8295288085938,4.78695728816092E-5,-6.542634801007807E-4,8.811283623799682E-5,-9.171192169189453,20.87158203125,-35.465389251708984,-0.09658931195735931,0.006373569369316101,0.04032611846923828,0.0702858,-0.15015586,9.754463,0.08769425,-0.05694122,9.755313,1
8,985.8134155273438,4.471110296435654E-4,-2.5475199799984694E-4,7.538030040450394E-4,-9.407854080200195,20.80834197998047,-35.964107513427734,-0.1246333196759224,0.006575688719749451,0.06400012969970703,0.084649324,-0.15015645,9.749731,0.1010921,-0.06119328,9.750539,1
8,985.7924194335938,8.463526028208435E-4,-1.2155633885413408E-4,-3.1156017212197185E-4,-8.953495979309082,20.759220123291016,-35.26140594482422,-0.09524929523468018,0.02082720398902893,0.03559398651123047,0.0751138,-0.15492357,9.775772,0.09037355,-0.06049502,9.776683,1
8,985.80419921875,4.717259434983134E-5,-7.873083231970668E-4,2.2097217151895165E-4,-8.937435150146484,21.037796020507812,-35.51113510131836,-0.10357930511236191,0.03531743586063385,0.054535865783691406,0.0703581,-0.15969075,9.761571,0.082565285,-0.06302567,9.762578,1
8,985.8220825195312,3.1325622694566846E-4,-0.0011867444263771176,-3.117592423222959E-4,-9.273584365844727,21.618751525878906,-35.801265716552734,-0.1073271632194519,0.020941808819770813,0.04033184051513672,0.07994184,-0.15730803,9.766308,0.09097848,-0.06478754,9.767264,1
8,985.7813110351562,4.670809721574187E-5,-9.203909430652857E-4,-3.1185889383777976E-4,-9.192224502563477,21.062793731689453,-35.78126907348633,-0.11649098992347717,0.00610467791557312,0.0639963150024414,0.0823558,-0.14300899,9.752108,0.099729545,-0.05044073,9.752864,1
8,985.7813110351562,-6.193140870891511E-4,1.449104747734964E-4,0.0011527789756655693,-8.646393775939941,20.83631134033203,-35.69816207885742,-0.10138733685016632,0.02509923279285431,0.04032325744628906,0.0704304,-0.16207577,9.759211,0.08100445,-0.062262557,9.760277,1
8,985.7943725585938,-8.691445691511035E-5,-6.539995665661991E-4,3.537317970767617E-4,-8.570685386657715,21.01251983642578,-35.64315414428711,-0.10537125170230865,0.02022138237953186,0.04505634307861328,0.075234294,-0.15730982,9.761581,0.08584597,-0.060377203,9.762574,1
9,985.7943725585938,-8.691445691511035E-5,-6.539995665661991E-4,3.537317970767617E-4,-8.805964469909668,20.844833374023438,-35.52009963989258,-0.09534689038991928,0.024930596351623535,0.030851364135742188,0.07047862,-0.15969367,9.773418,0.07936225,-0.0613762,9.774462,1
9,985.8094482421875,-2.2053701104596257E-4,1.4502351405099034E-4,8.861646056175232E-4,-9.331304550170898,21.248390197753906,-35.385780334472656,-0.11362895369529724,0.02973105013370514,0.06399345397949219,0.084842116,-0.16446085,9.761584,0.09016552,-0.0707238,9.762665,1
9,985.8094482421875,-2.2053701104596257E-4,1.4502351405099034E-4,8.861646056175232E-4,-8.825068473815918,20.563312530517578,-35.11576461791992,-0.1033964604139328,0.010263636708259583,0.040314674377441406,0.08008641,-0.14777853,9.754486,0.09324767,-0.05087533,9.755356,1
9,985.766357421875,5.781783838756382E-4,-7.870443514548242E-4,-7.118303910829127E-4,-8.780472755432129,21.764381408691406,-35.80878829956055,-0.0931411013007164,0.019567549228668213,0.04504585266113281,0.075330704,-0.15969546,9.754487,0.08220422,-0.06159649,9.755545,1
9,985.812255859375,-4.873175057582557E-4,-3.875328693538904E-4,3.533335984684527E-4,-8.875722885131836,20.568603515625,-35.18525314331055,-0.10251253098249435,0.03377072513103485,0.0639810562133789,0.08013463,-0.15492947,9.754489,0.089756384,-0.05691635,9.755468,1
9,985.8045654296875,-8.807581616565585E-5,1.4513666974380612E-4,4.8639197484590113E-4,-8.925503730773926,22.050010681152344,-35.80315399169922,-0.09734053164720535,0.02433989942073822,0.0639810562133789,0.08254862,-0.1596966,9.747391,0.088933446,-0.06330805,9.748435,1
9,985.7872314453125,3.1116552418097854E-4,5.446479772217572E-4,-4.458131152205169E-4,-8.907675743103027,21.329627990722656,-36.456607818603516,-0.10137658566236496,0.024282723665237427,0.0639791488647461,0.08018279,-0.15969719,9.756861,0.085774586,-0.062431164,9.75792,1
9,985.7847900390625,-8.854042971506715E-5,1.2054166290909052E-5,-3.127545933239162E-4,-8.693460464477539,20.47626495361328,-35.82381057739258,-0.0957925021648407,0.033627212047576904,0.059243202209472656,0.075427085,-0.1668476,9.756863,0.07794718,-0.06646234,9.758042,1
9,985.7774047851562,4.415289731696248E-5,-6.536601576954126E-4,-5.792697775177658E-4,-8.946428298950195,21.134872436523438,-35.74637985229492,-0.0999302938580513,0.014466747641563416,0.049770355224609375,0.07306132,-0.1549318,9.759233,0.080037266,-0.05418028,9.760257,1
9,985.7699584960938,5.765522946603596E-4,6.779567920602858E-4,8.642033208161592E-5,-8.7518310546875,21.580535888671875,-35.87942886352539,-0.09958337992429733,0.019403919577598572,0.04030323028564453,0.082645,-0.1549324,9.761602,0.08932538,-0.056611307,9.762609,1
9,985.7802124023438,4.4316198909655213E-4,-2.54110898822546E-4,3.5263673635199666E-4,-8.548130989074707,20.822776794433594,-35.40457534790039,-0.09865904599428177,0.01958705484867096,0.04504108428955078,0.07296747,-0.15731283,9.763958,0.07831253,-0.055188276,9.765029,1
9,985.7671508789062,8.427424472756684E-4,-3.8728618528693914E-4,8.636648999527097E-5,-8.428155899047852,20.35565948486328,-35.395729064941406,-0.1075645163655281,0.03390184044837952,0.06873798370361328,0.08479053,-0.16207625,9.7592125,0.08672653,-0.0644011,9.76033,1
9,985.7977905273438,5.786276306025684E-4,2.781461807899177E-4,8.730991976335645E-5,-8.313288688659668,20.252410888671875,-35.253421783447266,-0.09253087639808655,0.029237806797027588,0.054535865783691406,0.072853684,-0.1620766,9.754479,0.07522154,-0.05933702,9.755628,1
9,985.7930297851562,5.785053945146501E-4,1.1850206647068262E-5,-1.7905834829434752E-4,-8.913061141967773,21.481666564941406,-34.92498779296875,-0.09234552085399628,8.070617914199829E-4,0.04980278015136719,0.07525623,-0.14062746,9.747379,0.08539024,-0.040952943,9.748224,1
9,985.8010864257812,-8.74065444804728E-5,4.1134393541142344E-4,-4.454267327673733E-4,-8.835990905761719,21.13312530517578,-36.071231842041016,-0.10130954533815384,0.019974976778030396,0.03560161590576172,0.084828556,-0.1620772,9.768685,0.08510538,-0.064308695,9.769815,1
9,985.8114013671875,7.114189793355763E-4,-2.544260350987315E-4,-3.123211790807545E-4,-9.004692077636719,21.13280487060547,-35.42934799194336,-0.0864960253238678,0.010291293263435364,0.04506874084472656,0.07528162,-0.1501611,9.766319,0.08033337,-0.04981567,9.767306,1
9,985.7860717773438,-4.871247219853103E-4,1.4506763545796275E-4,-1.792155089788139E-4,-8.342473983764648,20.804550170898438,-35.28123092651367,-0.09557419270277023,0.02454759180545807,0.054535865783691406,0.0705145,-0.16922764,9.754484,0.069177225,-0.06376951,9.7557535,1
9,985.8065185546875,5.780166829936206E-4,-5.207022186368704E-4,6.196797476150095E-4,-8.198827743530273,20.623371124267578,-35.90863800048828,-0.10484198480844498,0.009753972291946411,0.049793243408203125,0.08486658,-0.1596949,9.75922,0.08618818,-0.05958891,9.760334,1
9,985.8192749023438,-6.20527018327266E-4,1.4510727487504482E-4,-4.61623421870172E-5,-8.132549285888672,20.15859603881836,-35.81467056274414,-0.0942733958363533,0.014451652765274048,0.049793243408203125,0.08487925,-0.15016206,9.756854,0.08862691,-0.05081994,9.757844,1
9,985.81689453125,4.514044849202037E-5,1.4512718189507723E-4,-4.621484549716115E-5,-8.123555183410645,20.061519622802734,-35.57942581176758,-0.09382747113704681,0.033463820815086365,0.04032421112060547,0.08011216,-0.1668453,9.76869,0.07741139,-0.0641055,9.769925,1
9,985.796630859375,-4.876134335063398E-4,-3.874847898259759E-4,-4.6267115976661444E-5,-7.790992259979248,19.845905303955078,-35.233131408691406,-0.09817564487457275,0.014146164059638977,0.04505443572998047,0.0825147,-0.14777942,9.768692,0.08718033,-0.046097822,9.769661,1
9,985.8016357421875,-3.5457772901281714E-4,5.446406430564821E-4,3.5315443528816104E-4,-7.640959739685059,20.302757263183594,-35.74489212036133,-0.09277280420064926,0.02345655858516693,0.04978466033935547,0.07774758,-0.15731277,9.761591,0.079388775,-0.051634528,9.762709,1
9,985.7763671875,4.4424779480323195E-4,-6.537609733641148E-4,6.194179295562208E-4,-7.807703971862793,21.041969299316406,-35.45450973510742,-0.09236898273229599,0.013922780752182007,0.04031658172607422,0.07776028,-0.15492983,9.76396,0.08015141,-0.048816256,9.765048,1
9,985.764404296875,2.9984937282279134E-4,6.875871913507581E-4,8.070413023233414E-4,-8.243232727050781,21.16077423095703,-35.16339874267578,-0.1009783074259758,0.0190160870552063,0.05452442169189453,0.08494264,-0.1525469,9.75686,0.08585033,-0.050599046,9.757914,1
10,985.8097534179688,3.3411255571991205E-5,-0.001842393772676587,-3.914325498044491E-4,-7.992328643798828,20.86898422241211,-35.26197052001953,-0.09567759186029434,0.02829483151435852,0.021378517150878906,0.08017552,-0.1739967,9.787635,0.073626675,-0.06748815,9.789,1
10,985.8097534179688,1.6644707648083568E-4,2.8815295081585646E-4,-5.246427608653903E-4,-7.938631057739258,20.86663818359375,-35.34709167480469,-0.1089964359998703,0.023511603474617004,0.05925464630126953,0.08974779,-0.16684718,9.752127,0.08413026,-0.0642093,9.753392,1
10,985.8027954101562,4.3264072155579925E-4,-0.0010434065479785204,-1.2522132601588964E-4,-7.938876152038574,21.8670654296875,-35.02067947387695,-0.08927649259567261,0.028061628341674805,0.05925178527832031,0.08020088,-0.16208096,9.761598,0.07660315,-0.055672444,9.7628145,1
10,985.7893676757812,-2.3327110102400184E-4,5.545085296034813E-4,8.068318711593747E-4,-7.880505561828613,20.76279067993164,-34.96505355834961,-0.0938115045428276,0.01832769811153412,0.06871604919433594,0.08021355,-0.16208123,9.7402935,0.07640402,-0.055549726,9.741515,1
10,985.8133544921875,1.6608048463240266E-4,6.876863772049546E-4,-1.253262162208557E-4,-7.807160377502441,20.673675537109375,-35.35606002807617,-0.08426295965909958,0.02301211655139923,0.054511070251464844,0.07544643,-0.14778192,9.7497635,0.07714617,-0.040463045,9.750785,1
10,985.7955322265625,-2.335155731998384E-4,1.550744054839015E-4,4.072532756254077E-4,-7.932544231414795,20.87253189086914,-35.656314849853516,-0.06886399537324905,0.02297261357307434,0.04030609130859375,0.07067931,-0.15254875,9.756866,0.07083011,-0.041312873,9.757971,1
10,985.7881469726562,-2.3363769287243485E-4,-9.101692703552544E-4,7.727183401584625E-6,-7.621556282043457,21.216415405273438,-35.724361419677734,-0.10179276764392853,0.02750033140182495,0.04977130889892578,0.08264148,-0.15969889,9.763969,0.07943337,-0.05128652,9.765168,1
10,985.7855834960938,-1.0060198837891221E-4,2.882720436900854E-4,-1.2548326049000025E-4,-7.541419982910156,21.291122436523438,-35.20219039916992,-0.08254875987768173,0.02248348295688629,0.04976654052734375,0.06592482,-0.16208248,9.766338,0.06295109,-0.047397852,9.767589,1
10,985.7933349609375,1.6559177311137319E-4,8.209237130358815E-4,5.402541137300432E-4,-7.5412821769714355,21.39704132080078,-35.901268005371094,-0.08707406371831894,0.017613649368286133,0.04503154754638672,0.08744663,-0.16446604,9.749767,0.08180341,-0.057374284,9.751035,1
10,985.7984008789062,4.3178541818633676E-4,-2.443200210109353E-4,8.065176662057638E-4,-7.407883644104004,20.731342315673828,-35.19001007080078,-0.08650018274784088,0.022446975111961365,0.03556060791015625,0.077899694,-0.1644664,9.773442,0.071123235,-0.055324286,9.774721,1
10,985.790771484375,1.6534730093553662E-4,4.214895307086408E-4,-3.9195618592202663E-4,-7.824743747711182,20.39362335205078,-35.029029846191406,-0.07649761438369751,0.02221037447452545,0.04502677917480469,0.07074267,-0.15731688,9.76634,0.06767517,-0.044317886,9.767529,1
10,985.7988891601562,-6.337224622257054E-4,2.2035499569028616E-5,-1.256926916539669E-4,-7.464624881744385,20.73074722290039,-34.95028305053711,-0.08146283030509949,0.012783735990524292,0.06392669677734375,0.07355785,-0.15494396,9.764013,0.070962474,-0.04296124,9.765168,1
10,985.7988891601562,-6.337224622257054E-4,2.2035499569028616E-5,-1.256926916539669E-4,-7.589166641235352,21.19344711303711,-34.72720718383789,-0.08553840965032578,0.017355740070343018,0.04971790313720703,0.08075675,-0.15494467,9.754547,0.07726085,-0.04477103,9.755704,1
10,985.7814331054688,4.294452373869717E-4,1.5553360572084785E-4,6.723567494191229E-4,-7.306577205657959,20.72075653076172,-35.05103302001953,-0.10409250110387802,-0.00632612407207489,0.0260467529296875,0.08317581,-0.14302899,9.778221,0.083040476,-0.03421688,9.779209,1
10,985.7786254882812,4.309354699216783E-4,-6.475606351159513E-4,-5.28404547367245E-4,-7.261330604553223,20.44719696044922,-35.272953033447266,-0.0848744735121727,0.003224387764930725,0.05445098876953125,0.083204985,-0.15256299,9.754552,0.0797318,-0.04311323,9.75568,1
10,985.78662109375,3.118038875982165E-5,2.8459064196795225E-4,-1.290513318963349E-4,-7.329132080078125,20.91049575805664,-35.28961181640625,-0.08901394158601761,0.0365382581949234,0.05444812774658203,0.08084428,-0.16448005,9.754555,0.07239492,-0.053883,9.755859,1
10,985.78662109375,2.97214777674526E-4,4.177941009402275E-4,1.371440594084561E-4,-7.5393548011779785,20.92430877685547,-35.1810417175293,-0.08342540264129639,0.012536570429801941,0.06391239166259766,0.07848358,-0.15256436,9.754557,0.07314485,-0.042231515,9.755699,1
10,985.7968139648438,-5.020140088163316E-4,-0.0011800554348155856,2.701814519241452E-4,-7.979991912841797,21.40699005126953,-34.756465911865234,-0.06832309067249298,0.01247471570968628,0.054439544677734375,0.06656325,-0.15733163,9.75456,0.059049524,-0.042847186,9.755784,1
10,985.7970581054688,-2.3597927065566182E-4,-6.473780376836658E-4,1.369029632769525E-4,-8.114805221557617,20.96487045288086,-35.017757415771484,-0.07765009254217148,-0.002032339572906494,0.049698829650878906,0.07615203,-0.14541598,9.759298,0.07233265,-0.03473273,9.760349,1
10,985.8070678710938,-2.3654178949072957E-4,2.8481887420639396E-4,3.5040429793298244E-6,-7.880505561828613,20.76279067993164,-34.96505355834961,-0.0914338156580925,0.026730716228485107,0.04023170471191406,0.08096102,-0.16686617,9.759299,0.06854959,-0.05614862,9.76066,1
10,985.8174438476562,6.95282535161823E-4,-2.477671951055527E-4,6.691731396131217E-4,-7.767023086547852,20.76398468017578,-35.444515228271484,-0.09104834496974945,0.012645542621612549,0.054434776306152344,0.08576995,-0.1525672,9.754568,0.077948436,-0.044305027,9.755727,1
10,985.8023071289062,4.2868551099672914E-4,-1.1456361971795559E-4,8.022105321288109E-4,-8.042407989501953,21.718250274658203,-36.304744720458984,-0.09524999558925629,0.03645382821559906,0.049696922302246094,0.088189065,-0.17401744,9.768774,0.072274625,-0.06450495,9.770243,1
10,985.8026123046875,2.8930429834872484E-5,2.8495583683252335E-4,4.0261622052639723E-4,-8.07605266571045,21.159622192382812,-35.72798538208008,-0.04711396247148514,0.012241244316101074,0.04022026062011719,0.05475962,-0.15495189,9.766409,0.04721926,-0.034844607,9.767616,1
10,985.77490234375,-3.70824767742306E-4,1.8685648683458567E-5,3.021908923983574E-6,-8.440736770629883,20.818084716796875,-35.5748176574707,-0.0849079117178917,0.021779105067253113,0.044953346252441406,0.07629791,-0.15733589,9.761678,0.064985245,-0.046185046,9.7629175,1
10,985.7822265625,2.946837921626866E-4,-3.8074259646236897E-4,2.901360858231783E-6,-8.663403511047363,21.40023422241211,-36.34441375732422,-0.08445140719413757,0.021691232919692993,0.049681663513183594,0.0811069,-0.16210316,9.759314,0.0672043,-0.052152187,9.760626,1
11,985.7975463867188,1.612447085790336E-4,2.8509285766631365E-4,-2.6353512657806277E-4,-8.679464340209961,21.121658325195312,-36.09468460083008,-0.09344717860221863,0.011911079287528992,0.05914592742919922,0.09069568,-0.14542095,9.754581,0.08176563,-0.040465668,9.755661,1
11,985.7728881835938,-3.7166831316426396E-4,-3.806512104347348E-4,-5.299714975990355E-4,-8.370978355407715,21.094310760498047,-35.909664154052734,-0.07347214967012405,0.03112652897834778,0.044940948486328125,0.07399553,-0.1549548,9.75695,0.06273155,-0.041662544,9.758172,1
11,985.778076171875,2.938401303254068E-4,-3.8060557562857866E-4,-3.9693404687568545E-4,-8.578157424926758,21.111068725585938,-35.95570755004883,-0.08289507776498795,0.026288866996765137,0.05440711975097656,0.07880449,-0.1621053,9.756954,0.06356315,-0.05058852,9.758281,1
11,985.7955932617188,8.261906332336366E-4,2.852297620847821E-4,-1.3073865557089448E-4,-8.696748733520508,21.47374725341797,-35.34278106689453,-0.07322317361831665,0.007109344005584717,0.04019927978515625,0.0692741,-0.15257294,9.768793,0.058463126,-0.037723407,9.769982,1
11,985.7880859375,-3.7251197500154376E-4,2.852754550985992E-4,2.686145599000156E-4,-8.692481994628906,20.846031188964844,-35.99956130981445,-0.06794657558202744,0.016715213656425476,0.04493236541748047,0.07647294,-0.15495689,9.759327,0.06317422,-0.043357417,9.760557,1
11,985.7857666015625,2.92996468488127E-4,-1.1415270273573697E-4,-3.972956328652799E-4,-9.053823471069336,21.139572143554688,-35.576141357421875,-0.0820147693157196,0.021500423550605774,0.044930458068847656,0.07889205,-0.1573409,9.761696,0.06375054,-0.046974167,9.762962,1
11,985.78564453125,4.2587326606735587E-4,1.9050901755690575E-5,5.346894613467157E-4,-8.923874855041504,20.94513702392578,-35.5078010559082,-0.07187126576900482,0.012118160724639893,0.049663543701171875,0.07892123,-0.15257503,9.775902,0.065233976,-0.042198703,9.777103,1
11,985.798583984375,4.2559189023450017E-4,-2.472193737048656E-4,1.350950333289802E-4,-8.723188400268555,21.396690368652344,-35.950069427490234,-0.0810086727142334,0.021669596433639526,0.05912971496582031,0.08134031,-0.15972556,9.7522335,0.06483638,-0.048832998,9.753544,1
11,985.8137817382812,6.916267448104918E-4,1.914217136800289E-5,1.8166610971093178E-6,-8.960531234741211,21.5958251953125,-35.84816360473633,-0.07588651776313782,0.016762003302574158,0.025983810424804688,0.0765897,-0.15257646,9.7711735,0.062771186,-0.040267885,9.772381,1
11,985.7781982421875,-3.739181556738913E-4,5.518196849152446E-4,-3.977778251282871E-4,-8.603755950927734,21.297866821289062,-36.039676666259766,-0.07582303881645203,0.012054339051246643,0.03545093536376953,0.08617848,-0.16211028,9.766441,0.06823358,-0.052231014,9.767789,1
11,985.8114013671875,2.915904042311013E-4,-2.4708244018256664E-4,-3.9789819857105613E-4,-8.511878967285156,20.646297454833984,-35.86174392700195,-0.07040964812040329,0.02630390226840973,0.059119224548339844,0.08152163,-0.15973003,9.761719,0.06386946,-0.04848823,9.763038,1
11,985.79150390625,-1.0816467693075538E-4,4.1875295573845506E-4,-1.3170280726626515E-4,-9.001105308532715,20.767459869384766,-35.485504150390625,-0.07519236207008362,0.021462127566337585,0.0401611328125,0.07687053,-0.16688307,9.764097,0.05676149,-0.05295606,9.765516,1
11,985.8016967773438,4.270835779607296E-4,4.588932788465172E-4,4.661907732952386E-4,-8.45970344543457,20.642478942871094,-35.86955642700195,-0.07446661591529846,0.02575656771659851,0.054352760314941406,0.084077,-0.16211735,9.757,0.06470089,-0.050712228,9.758364,1
11,985.7843627929688,-3.724433481693268E-4,-0.0014052237384021282,3.327845479361713E-4,-8.445302963256836,20.81366729736328,-35.34290313720703,-0.07868984341621399,0.0018263906240463257,0.044879913330078125,0.07933402,-0.14781864,9.759369,0.064927116,-0.03613797,9.760527,1
11,985.7966918945312,-9.054295951500535E-4,-7.358691073022783E-5,-5.994730163365602E-4,-9.172277450561523,21.60816192626953,-35.662288665771484,-0.08812841773033142,0.016109123826026917,0.040142059326171875,0.08415055,-0.16450252,9.76174,0.062487714,-0.053356886,9.763144,1
11,985.7744140625,2.9263726901263E-4,8.585762698203325E-4,4.6563861542381346E-4,-8.89052963256836,20.871627807617188,-36.50943374633789,-0.07805365324020386,0.01593223214149475,0.04013538360595703,0.07940757,-0.15020369,9.771212,0.06349608,-0.037803143,9.77241,1
11,985.76708984375,4.250860074535012E-4,3.260596713516861E-4,-6.7297019995749E-5,-9.014228820800781,21.598167419433594,-35.76304244995117,-0.07296351343393326,0.020812049508094788,0.049599647521972656,0.0746645,-0.1645043,9.747543,0.05364981,-0.048920035,9.748947,1
11,985.76708984375,4.250860074535012E-4,3.260596713516861E-4,-6.7297019995749E-5,-9.014228820800781,21.598167419433594,-35.76304244995117,-0.06810272485017776,0.0018236637115478516,0.049597740173339844,0.0723114,-0.15020554,9.754648,0.056341115,-0.035284683,9.755847,1
11,985.7749633789062,8.24205344542861E-4,5.980132846161723E-5,6.570888217538595E-5,-9.044692039489746,21.14841079711914,-36.03996658325195,-0.06768544018268585,0.011443689465522766,0.04486370086669922,0.07712796,-0.1525897,9.757019,0.05922092,-0.039478406,9.758258,1
11,985.797607421875,-1.0825460776686668E-4,-4.727729537989944E-4,7.313466630876064E-4,-9.306111335754395,21.535804748535156,-36.09933853149414,-0.07148292660713196,0.0017736852169036865,0.04485607147216797,0.0771648,-0.15259065,9.757023,0.05844812,-0.038860217,9.75827,1
11,985.7925415039062,2.4548731744289398E-5,-3.395574167370796E-4,1.9856297876685858E-4,-9.0160493850708,20.964561462402344,-36.1106071472168,-0.07141928374767303,0.011327102780342102,0.0543212890625,0.08437127,-0.15020819,9.754659,0.06653424,-0.038501278,9.7558775,1
11,985.7576293945312,-5.08437748067081E-4,4.594477650243789E-4,4.647269379347563E-4,-8.684030532836914,21.11724090576172,-35.86276626586914,-0.07581283897161484,0.02533106505870819,0.0448455810546875,0.08679795,-0.17165865,9.759397,0.059731223,-0.05920537,9.760929,1
11,985.7576293945312,-5.08437748067081E-4,4.594477650243789E-4,4.647269379347563E-4,-9.052845001220703,21.50933074951172,-35.751895904541016,-0.08972320705652237,0.02014946937561035,0.05430412292480469,0.08444479,-0.1645097,9.747564,0.0607163,-0.05054298,9.749,1
11,985.7802734375,-1.0931852739304304E-4,-2.0628438505809754E-4,-6.006885087117553E-4,-8.575113296508789,21.114013671875,-36.11031723022461,-0.06557883322238922,0.020184874534606934,0.05430126190185547,0.07970181,-0.1621273,9.747568,0.056574337,-0.046937853,9.748964,1
11,985.7675170898438,2.8980092611163855E-4,-2.0622684678528458E-4,-6.008405471220613E-4,-8.629790306091309,20.746604919433594,-35.84943771362305,-0.08424714207649231,0.020128458738327026,0.049561500549316406,0.08929816,-0.1573617,9.749938,0.06708704,-0.045696035,9.751279,1
12,985.7656860351562,4.2260438203811646E-4,6.014658720232546E-5,6.479723379015923E-5,-8.7052001953125,21.202537536621094,-35.47957992553711,-0.06018652021884918,0.029394298791885376,0.040085792541503906,0.07021576,-0.15974583,9.77598,0.047680173,-0.04094526,9.777334,1
12,985.768310546875,-0.0010424874490126967,3.2652003574185073E-4,-4.679864505305886E-4,-9.250349044799805,21.166641235351562,-36.16331100463867,-0.0686434656381607,0.01018381118774414,0.05428123474121094,0.07981217,-0.15736349,9.757047,0.056577962,-0.042033,9.758388,1
12,985.78564453125,1.5557929873466492E-4,-3.3921218710020185E-4,5.971251521259546E-4,-8.944364547729492,20.76805877685547,-35.72523880004883,-0.0874297022819519,0.028799518942832947,0.059006690979003906,0.09896818,-0.16928078,9.75705,0.069858566,-0.059279874,9.75859,1
12,985.7711181640625,-6.437228294089437E-4,-0.0014044181443750858,-7.346061756834388E-4,-8.936454772949219,21.407554626464844,-35.686893463134766,-0.08233421295881271,0.019255608320236206,0.030595779418945312,0.08944535,-0.15736528,9.766521,0.06541766,-0.044415623,9.767879,1
12,985.7509765625,8.203054312616587E-4,-7.385133067145944E-4,6.403750739991665E-5,-8.740335464477539,21.854694366455078,-35.89724349975586,-0.07221181690692902,0.03364942967891693,0.0305938720703125,0.08470231,-0.16689934,9.77836,0.05764414,-0.05001737,9.779854,1
12,985.77587890625,-3.784706350415945E-4,-6.0529779875651E-4,-3.3558811992406845E-4,-9.348450660705566,21.70639419555664,-35.332950592041016,-0.08134353905916214,0.005054071545600891,0.04005718231201172,0.087129,-0.15498377,9.77363,0.062857926,-0.041480005,9.774958,1
12,985.7814331054688,-1.1250923853367567E-4,0.0012589709367603064,-6.942427717149258E-5,-9.112629890441895,21.50579071044922,-35.3575553894043,-0.04756235331296921,0.01909060776233673,0.0779256820678711,0.072826385,-0.15975125,9.745227,0.047729887,-0.039822802,9.74661,1
12,985.7665405273438,2.029421739280224E-5,-8.714984869584441E-4,-2.0273413974791765E-4,-9.054367065429688,21.507858276367188,-35.674591064453125,-0.07582689821720123,0.01407739520072937,0.058979034423828125,0.08959246,-0.15736888,9.757067,0.06414647,-0.04368104,9.758438,1
12,985.7637329101562,-3.795342054218054E-4,5.932964850217104E-4,-3.3604411873966455E-4,-8.882651329040527,20.298866271972656,-35.399356842041016,-0.06613636761903763,0.018713265657424927,0.04950523376464844,0.08006966,-0.15975304,9.7547035,0.053486805,-0.04263428,9.7561,1
12,985.7891235351562,-2.467308659106493E-4,6.072214455343783E-5,-6.988015957176685E-5,-8.35589599609375,21.00312042236328,-35.983642578125,-0.07064229995012283,0.01825512945652008,0.03055858612060547,0.08966607,-0.16452058,9.7760105,0.0620076,-0.04793845,9.777492,1
12,985.7947387695312,-5.134012317284942E-4,1.9393765251152217E-4,4.625996807590127E-4,-8.891752243041992,21.502288818359375,-36.007259368896484,-0.06058657541871071,0.023160412907600403,0.049492835998535156,0.07746744,-0.15974782,9.7499485,0.051311966,-0.039923772,9.7513485,1
12,985.7788696289062,5.528683541342616E-4,-0.0010046471143141389,-2.0275881979614496E-4,-8.811477661132812,21.682907104492188,-36.184165954589844,-0.0638391524553299,0.013607755303382874,0.04480743408203125,0.081981,-0.15497471,9.768862,0.056741837,-0.036264062,9.770203,1
12,985.7921752929688,2.904171124100685E-4,-6.058007711544633E-4,1.9837130093947053E-4,-8.850528717041016,20.85601806640625,-35.898807525634766,-0.04920125752687454,0.003938913345336914,0.03533458709716797,0.058095932,-0.15259184,9.76413,0.03493228,-0.025307506,9.765399,1
12,985.7922973632812,-5.086648743599653E-4,-7.314709364436567E-5,-3.343181451782584E-4,-8.844985008239746,21.230201721191406,-36.30648422241211,-0.08262604475021362,0.004001230001449585,0.04953575134277344,0.09395844,-0.14782567,9.761763,0.06989856,-0.034768164,9.763023,1
12,985.7595825195312,2.3832079023122787E-5,4.595065547619015E-4,-2.0121794659644365E-4,-9.071269035339355,20.965438842773438,-35.948184967041016,-0.06326267123222351,0.01808585226535797,0.03532886505126953,0.07485318,-0.15735908,9.764132,0.047944255,-0.036414623,9.765501,1
12,985.7922973632812,1.5685544349253178E-4,4.5952838263474405E-4,6.504030898213387E-5,-9.033196449279785,21.422561645507812,-36.05778121948242,-0.0773194432258606,0.013156592845916748,0.05426311492919922,0.08920658,-0.16689248,9.7593975,0.057493147,-0.050174043,9.760933,1
12,985.8028564453125,-7.753846002742648E-4,7.25866062566638E-4,6.49825669825077E-5,-9.083551406860352,22.05999755859375,-35.7024040222168,-0.05359244719147682,0.012874379754066467,0.05899238586425781,0.06771141,-0.16212632,9.754665,0.040184572,-0.036831126,9.756095,1
12,985.7724609375,-3.7604535464197397E-4,0.001391677651554346,3.312408516649157E-4,-8.830583572387695,21.401390075683594,-35.77982711791992,-0.06339913606643677,0.017109960317611694,0.044780731201171875,0.0796749,-0.15736009,9.766502,0.053490717,-0.036547333,9.76788,1
12,985.7753295898438,-2.430221065878868E-4,7.259097183123231E-4,-6.829074118286371E-5,-8.86683464050293,21.57787322998047,-35.32265853881836,-0.05836499482393265,-0.0066138505935668945,0.044780731201171875,0.07251915,-0.14544408,9.757034,0.05122062,-0.022837162,9.758225,1
12,985.790283203125,2.3159198462963104E-5,8.590897778049111E-4,-2.0150630734860897E-4,-8.611366271972656,21.290496826171875,-35.65315246582031,-0.04876455292105675,0.017258748412132263,0.04477882385253906,0.07253313,-0.15021099,9.757036,0.049477987,-0.026982784,9.758299,1
12,985.772705078125,2.3024622350931168E-5,1.9332169904373586E-4,3.3106780028901994E-4,-8.723731994628906,21.764984130859375,-36.048519134521484,-0.07724201679229736,0.02219754457473755,0.0495147705078125,0.0892764,-0.16212766,9.75467,0.06029659,-0.044286728,9.75614,1
12,985.7779541015625,5.555216921493411E-4,6.0185702750459313E-5,3.3101008739322424E-4,-8.797375679016113,21.221961975097656,-36.0823860168457,-0.06738992035388947,-0.006467714905738831,0.044777870178222656,0.07973075,-0.15497823,9.771241,0.053746983,-0.033998802,9.77259,1
12,985.7860717773438,-2.4356041103601456E-4,4.5968135236762464E-4,3.30952403601259E-4,-8.495956420898438,20.81896209716797,-35.412391662597656,-0.05748505890369415,0.007581591606140137,0.04003715515136719,0.0797447,-0.15497853,9.759407,0.053478777,-0.033804014,9.7607565,1
12,985.770263671875,-6.431689253076911E-4,-3.392444923520088E-4,-3.348950995132327E-4,-8.585630416870117,21.209625244140625,-36.26826095581055,-0.06182984262704849,0.011860117316246033,0.04002857208251953,0.079758644,-0.16451202,9.759409,0.049499545,-0.042119175,9.760903,1
13,985.7860717773438,-7.76461442001164E-4,1.934091269504279E-4,6.452103843912482E-5,-8.9981689453125,21.876750946044922,-36.01277160644531,-0.07119107991456985,0.011897265911102295,0.044762611389160156,0.08455247,-0.15497918,9.761776,0.05704191,-0.03567846,9.763142,1
13,985.7682495117188,2.548439661040902E-4,1.442946377210319E-4,7.475190795958042E-5,-8.93881893157959,21.14223861694336,-36.13290786743164,-0.06097894161939621,0.021447375416755676,0.049492835998535156,0.08217651,-0.16689594,9.761778,0.049599685,-0.04536113,9.763319,1
13,985.7587280273438,3.8786744698882103E-4,-0.001054104883223772,-5.910954787395895E-4,-9.061976432800293,21.50049591064453,-35.28806686401367,-0.05120820552110672,0.002358943223953247,0.044757843017578125,0.07502073,-0.14306356,9.757045,0.052279253,-0.020393059,9.758221,1
13,985.7714233398438,2.545746974647045E-4,4.1065423283725977E-4,-1.9167916616424918E-4,-9.085914611816406,21.794677734375,-36.14841842651367,-0.07458370923995972,0.011868610978126526,0.05895805358886719,0.09415394,-0.15498026,9.752312,0.06441867,-0.039202645,9.753706,1
13,985.7688598632812,6.53914175927639E-4,-1.2195570161566138E-4,-5.8578967582434416E-5,-9.300704002380371,21.80406951904297,-35.80792999267578,-0.06453771889209747,0.0071073174476623535,0.016345977783203125,0.08460826,-0.15259732,9.775986,0.05639772,-0.032422066,9.7773285,1
13,985.7684936523438,-4.114842740818858E-4,-1.2193384463898838E-4,-1.917946501635015E-4,-8.81648063659668,20.94043731689453,-35.678043365478516,-0.06444863229990005,0.021211102604866028,0.0684194564819336,0.084622264,-0.15259765,9.742846,0.05671048,-0.031902328,9.744191,1
13,985.761474609375,-6.77934498526156E-4,1.4440389350056648E-4,-7.244839216582477E-4,-8.82503890991211,21.775569915771484,-36.1875,-0.06393980234861374,-0.007408708333969116,0.06841564178466797,0.08702612,-0.14544816,9.745214,0.060583726,-0.027349591,9.746463,1
13,985.761474609375,-6.77934498526156E-4,1.4440389350056648E-4,-7.244839216582477E-4,-9.16869068145752,21.242820739746094,-35.718448638916016,-0.04923076927661896,0.021153524518013,0.06841373443603516,0.07509059,-0.15736492,9.754684,0.044818826,-0.032798022,9.756084,1
13,985.7838134765625,1.2087833601981401E-4,-1.218901015818119E-4,7.440586341544986E-5,-9.18127155303955,21.705238342285156,-35.89753341674805,-0.058739252388477325,0.006714865565299988,0.03527069091796875,0.087054044,-0.14783217,9.759419,0.06018554,-0.02726525,9.760704,1
13,985.7816162109375,-1.2413947843015194E-5,2.776055480353534E-4,3.4066406078636646E-4,-8.517531394958496,21.378456115722656,-35.826725006103516,-0.05377738177776337,0.01128871738910675,0.03526592254638672,0.072728574,-0.15259902,9.773624,0.044873443,-0.026170865,9.774948,1
13,985.7637939453125,1.2060930021107197E-4,8.102591382339597E-4,2.074484364129603E-4,-8.581201553344727,21.10811996459961,-35.80109786987305,-0.06292876601219177,0.015995949506759644,0.05419921875,0.07752237,-0.16689904,9.754688,0.043273814,-0.041416556,9.75624,1
13,985.7792358398438,-4.1215692181140184E-4,1.1333380825817585E-5,-5.892507033422589E-5,-8.938520431518555,21.774375915527344,-35.708038330078125,-0.05780808627605438,0.025533035397529602,0.06366825103759766,0.08231586,-0.16928269,9.749954,0.046479728,-0.045353696,9.751554,1
13,985.751220703125,-2.791337901726365E-4,-2.549606724642217E-4,4.7364894999191165E-4,-8.796533584594727,21.485809326171875,-35.55906295776367,-0.05727224051952362,0.006380707025527954,0.058928489685058594,0.07277024,-0.16213317,9.752323,0.039704297,-0.03504227,9.753798,1
13,985.7796020507812,2.556613180786371E-4,-3.91092908103019E-4,-1.9276997772976756E-4,-9.01727294921875,21.59522247314453,-35.60843276977539,-0.052658602595329285,0.024976879358291626,0.04945182800292969,0.08234376,-0.16690011,9.764161,0.046665616,-0.04301387,9.765729,1
13,985.7669067382812,-1.4394649770110846E-4,1.4156059478409588E-4,7.34884524717927E-5,-9.311357498168945,21.79376220703125,-35.26679611206055,-0.05720704793930054,0.02004849910736084,0.039978981018066406,0.082357734,-0.16690038,9.759428,0.047636997,-0.04157637,9.760998,1
13,985.7573852539062,-1.4421564992517233E-4,-1.2471157242543995E-4,2.0653125829994678E-4,-8.772862434387207,21.771747589111328,-36.195316314697266,-0.06143995374441147,0.01997913420200348,0.044709205627441406,0.08237171,-0.1597509,9.771265,0.049665622,-0.034791797,9.772729,1
13,985.7771606445312,-4.1066575795412064E-4,-5.241635954007506E-4,7.331575034186244E-5,-8.933274269104004,21.51641845703125,-36.54057693481445,-0.05137479305267334,0.024599701166152954,0.05417442321777344,0.075215936,-0.16928439,9.761797,0.038536035,-0.04113002,9.763391,1
13,985.7520141601562,5.213052500039339E-4,2.74805846856907E-4,-4.593736375682056E-4,-9.056730270385742,21.242538452148438,-36.12060546875,-0.04628453403711319,6.42731785774231E-4,0.04470062255859375,0.07045007,-0.14783521,9.771267,0.04240919,-0.019696727,9.772527,1
13,985.7847900390625,-4.109347937628627E-4,-3.909619408659637E-4,-3.2627343898639083E-4,-8.64443588256836,21.575836181640625,-36.04967498779297,-0.036445870995521545,5.840212106704712E-4,0.035228729248046875,0.06807411,-0.15260209,9.764168,0.038239926,-0.022051811,9.765499,1
13,985.7503051757812,-2.7791131287813187E-4,-7.904139929451048E-4,2.0630069775506854E-4,-8.806507110595703,21.213123321533203,-35.61855697631836,-0.04553680121898651,0.029063060879707336,0.04942798614501953,0.068088084,-0.16451885,9.7547,0.03291298,-0.03336203,9.756212,1
13,985.7730102539062,-1.4488794840872288E-4,-3.909183433279395E-4,7.308513158932328E-5,-8.397011756896973,20.543045043945312,-35.71943283081055,-0.05483841150999069,3.33636999130249E-4,0.0494232177734375,0.07766163,-0.15736939,9.759436,0.044492535,-0.029957518,9.760865,1
13,985.7430419921875,2.544515300542116E-4,1.4173521776683629E-4,-1.932883751578629E-4,-8.912922859191895,21.58758544921875,-35.62406539916992,-0.04523490369319916,0.028945311903953552,0.05889129638671875,0.072895825,-0.16928612,9.754703,0.035318397,-0.039311126,9.7563,1
13,985.7860107421875,-1.1999043636023998E-5,0.0013401785399764776,3.392857906874269E-4,-8.828083038330078,21.772624969482422,-36.03288650512695,-0.05016595125198364,0.014560237526893616,0.039951324462890625,0.07529968,-0.16213657,9.759438,0.0406825,-0.033286676,9.760934,1
13,985.7710571289062,5.204983754083514E-4,9.407266043126583E-4,-5.928774480707943E-4,-8.837214469909668,21.76378631591797,-35.569061279296875,-0.06446123868227005,-0.004550516605377197,0.054152488708496094,0.07531363,-0.14307074,9.7499695,0.047881443,-0.015764385,9.751179,1
13,985.7482299804688,1.2088997755199671E-4,2.749587001744658E-4,-6.0303311329334974E-5,-9.136706352233887,21.694053649902344,-35.51883316040039,-0.05444806069135666,-0.00896976888179779,0.035218238830566406,0.07293767,-0.14068778,9.766542,0.045917775,-0.01315397,9.767711,1
14,985.7787475585938,-1.4556036330759525E-4,-5.239670863375068E-4,-1.9351887749508023E-4,-8.7518310546875,21.580535888671875,-35.879432678222656,-0.04005745053291321,0.024118080735206604,0.04941558837890625,0.072951615,-0.15975438,9.764175,0.03888699,-0.029920876,9.765631,1
14,985.7660522460938,2.5377911515533924E-4,6.744761485606432E-4,7.273926166817546E-5,-8.840801239013672,22.129127502441406,-35.51289749145508,-0.04006379842758179,0.019657716155052185,0.058887481689453125,0.06818578,-0.16213794,9.745239,0.03355687,-0.03068769,9.746719,1
14,985.7484741210938,6.531181279569864E-4,1.4186630141921341E-4,-4.599501262418926E-4,-8.228991508483887,20.805744171142578,-35.76069259643555,-0.054134905338287354,4.973411560058594E-4,0.07782268524169922,0.07536942,-0.1621383,9.747608,0.04010423,-0.03302841,9.749109,1
14,985.7867431640625,3.866679035127163E-4,-2.575856924522668E-4,-8.594815735705197E-4,-8.473806381225586,21.103424072265625,-35.97134017944336,-0.03475411236286163,0.010333269834518433,0.03994941711425781,0.061043978,-0.15737207,9.761812,0.028141145,-0.02338235,9.763205,1
14,985.7510375976562,5.196915008127689E-4,2.7506795595400035E-4,8.715140866115689E-4,-8.90933609008789,21.222240447998047,-35.68022537231445,-0.04882238432765007,0.01512385904788971,0.03521251678466797,0.07778728,-0.15737243,9.77365,0.04294015,-0.030122682,9.775087,1
14,985.784423828125,2.532409271225333E-4,-5.238580051809549E-4,7.250875933095813E-5,-8.826858520507812,21.141963958740234,-36.53506851196289,-0.0678250715136528,0.015109285712242126,0.04941368103027344,0.0873608,-0.1645226,9.757081,0.048852034,-0.040541917,9.758652,1
14,985.7714233398438,-4.1268300265073776E-4,0.001606691163033247,-6.070680683478713E-5,-8.607885360717773,22.031494140625,-36.081966400146484,-0.053259678184986115,0.010030075907707214,0.04467296600341797,0.08498487,-0.15260656,9.754715,0.0519247,-0.027244464,9.7561035,1
14,985.7640991210938,-1.465019304305315E-4,1.4197544078342617E-4,-5.93396311160177E-4,-9.000669479370117,21.505512237548828,-35.759708404541016,-0.052876122295856476,0.010155752301216125,0.05414104461669922,0.06826949,-0.15260692,9.752349,0.035429858,-0.021720454,9.753695,1
14,985.7638549804688,9.186272509396076E-4,-9.232662850990891E-4,-1.9397999858483672E-4,-8.946971893310547,21.50316619873047,-35.84483337402344,-0.05260496586561203,0.015080317854881287,0.03520393371582031,0.082622826,-0.1573738,9.773655,0.046476487,-0.0315136,9.77511,1
14,985.7748413085938,-1.3612792827188969E-5,1.4201909652911127E-4,7.227814057841897E-5,-9.0845308303833,21.690235137939453,-35.52664566040039,-0.056866928935050964,0.024253368377685547,0.04939842224121094,0.080246896,-0.16214071,9.759454,0.042059116,-0.034615114,9.760979,1
14,985.77197265625,-6.795370718464255E-4,-6.569067481905222E-4,2.0537845557555556E-4,-9.024883270263672,21.587860107421875,-35.22190475463867,-0.03778395429253578,0.028913378715515137,0.05886650085449219,0.071174145,-0.16930248,9.750029,0.031134432,-0.037562028,9.7516365,1
14,985.7597045898438,-1.5009893104434013E-5,8.080356055870652E-4,-5.941102863289416E-4,-8.85479736328125,21.48373794555664,-35.24202346801758,-0.05281345173716545,0.014595955610275269,0.05877494812011719,0.083639026,-0.15501545,9.757177,0.04798524,-0.028816149,9.758607,1
14,985.7776489257812,-1.8172140698879957E-5,-1.293547684326768E-4,3.332002670504153E-4,-8.875829696655273,21.674945831298828,-35.55791091918945,-0.042811255902051926,2.3117661476135254E-4,0.049297332763671875,0.07413137,-0.15263347,9.75955,0.039821193,-0.022464484,9.760919,1
14,985.772216796875,1.1448486475273967E-4,-5.287472158670425E-4,-6.648828275501728E-5,-8.853679656982422,21.95941925048828,-36.11685562133789,-0.04725044593214989,0.014439940452575684,0.035086631774902344,0.07179347,-0.1645511,9.761922,0.03218233,-0.032988563,9.763464,1
14,985.7673950195312,-5.42563502676785E-5,9.659334318712354E-5,-2.4351384490728378E-4,-9.082465171813965,21.32341766357422,-35.50550079345703,-0.04222569614648819,0.023825958371162415,0.035079002380371094,0.07184544,-0.16931896,9.766662,0.03032955,-0.03690879,9.768278,1
14,985.7574462890625,-7.205472211353481E-4,-4.3595710303634405E-4,6.883770693093538E-4,-9.20078182220459,21.897926330566406,-36.29072952270508,-0.041919879615306854,0.013695940375328064,0.06347274780273438,0.07667723,-0.16693692,9.752462,0.03576567,-0.03594348,9.754062,1
14,985.7548828125,-5.878900992684066E-4,-0.0011016654316335917,8.21320281829685E-4,-8.89784049987793,21.49639892578125,-35.69804000854492,-0.03655737638473511,0.013724297285079956,0.04452800750732422,0.06716961,-0.16217168,9.761936,0.028317994,-0.027467132,9.763435,1
14,985.7852783203125,-1.889174454845488E-4,9.683734970167279E-5,-1.1100003030151129E-4,-8.903790473937988,21.596420288085938,-36.087894439697266,-0.04125487804412842,-0.005760863423347473,0.06345462799072266,0.06722161,-0.15025653,9.754839,0.03302186,-0.01606752,9.756159,1
14,985.7852783203125,-1.889174454845488E-4,9.683734970167279E-5,-1.1100003030151129E-4,-8.945992469787598,21.8729248046875,-36.02058792114258,-0.03165741264820099,-9.875446557998657E-4,0.03030872344970703,0.06488365,-0.14787458,9.773781,0.031626053,-0.012946278,9.775056,1
14,985.7597045898438,-3.2257643761113286E-4,-3.623918746598065E-5,-3.77530581317842E-4,-9.063360214233398,21.604938507080078,-35.90983200073242,-0.045799896121025085,0.017898038029670715,0.0681753158569336,0.074495256,-0.15740891,9.740644,0.036383048,-0.025863782,9.742099,1
14,985.7523193359375,-3.2307737274095416E-4,-1.6931584104895592E-4,2.1728454157710075E-5,-9.327824592590332,21.989391326904297,-35.81459426879883,-0.026101291179656982,0.012754544615745544,0.039755821228027344,0.06737754,-0.15502696,9.77379,0.030523106,-0.019664511,9.775184,1
14,985.7730102539062,-9.893679525703192E-4,-5.687083466909826E-4,-1.1164427269250154E-4,-9.077058792114258,21.59168243408203,-35.21409225463867,-0.054369792342185974,0.017504602670669556,0.0397491455078125,0.08415878,-0.162178,9.77853,0.043163165,-0.032009795,9.780089,1
14,985.7755126953125,-5.776347825303674E-5,-4.3546909000724554E-4,-2.450167667120695E-4,-8.838736534118652,21.762313842773438,-35.491756439208984,-0.02520192414522171,0.017299383878707886,0.05867767333984375,0.0627017,-0.16694589,9.747761,0.0208725,-0.028434142,9.74933,1
14,985.7733764648438,-5.8264529798179865E-5,-3.591395216062665E-5,4.205581499263644E-4,-8.761804580688477,21.30785369873047,-35.93892288208008,-0.030253317207098007,0.012316718697547913,0.0255279541015625,0.06275368,-0.1550308,9.771439,0.02574254,-0.017139688,9.772821,1
15,985.7556762695312,-5.876534851267934E-5,-8.347802795469761E-4,-2.454463392496109E-4,-9.240077018737793,22.071460723876953,-35.678951263427734,-0.04409419000148773,0.02652144432067871,0.04445838928222656,0.06997535,-0.16694845,9.75724,0.027618483,-0.030501083,9.758832,1
15,985.7531127929688,4.7286407789215446E-4,-8.34617530927062E-4,-2.4587579537183046E-4,-8.845664978027344,21.492576599121094,-35.70585250854492,-0.03417622670531273,0.016625910997390747,0.06811904907226562,0.077197045,-0.16933294,9.743041,0.03289628,-0.035382763,9.744697,1
15,985.7508544921875,-0.001391847850754857,-7.013783324509859E-4,-3.7924840580672026E-4,-8.754034042358398,21.84143829345703,-35.201499938964844,-0.028822142630815506,-0.007485419511795044,0.06337261199951172,0.0629096,-0.15265132,9.757249,0.025823848,-0.013527513,9.758602,1
15,985.7635498046875,2.0554655930027366E-4,-3.01823194604367E-4,-5.1262101624161E-4,-8.7208251953125,21.662010192871094,-35.50405502319336,-0.03864763304591179,0.006788387894630432,0.04916572570800781,0.07491106,-0.16218571,9.764356,0.033546645,-0.026870683,9.765895,1
15,985.776123046875,4.713613889180124E-4,6.303637637756765E-4,-3.79677745513618E-4,-8.964118957519531,21.961166381835938,-35.7920036315918,-0.04840564727783203,0.0021007657051086426,0.05389690399169922,0.07735294,-0.15265383,9.750156,0.03937637,-0.01950492,9.751559,1
15,985.7561645507812,2.0454457262530923E-4,7.636030786670744E-4,-3.7989241536706686E-4,-9.170755386352539,21.609634399414062,-35.739593505859375,-0.033841170370578766,0.016425564885139465,0.04442310333251953,0.07262516,-0.17172135,9.757263,0.026985165,-0.035514057,9.758944,1
15,985.768798828125,2.0404340466484427E-4,2.3105257423594594E-4,-1.1379120405763388E-4,-8.557668685913086,21.28814697265625,-35.73827362060547,-0.04800688475370407,0.016647592186927795,0.04915428161621094,0.07984683,-0.1621895,9.769104,0.0376935,-0.028806448,9.770662,1
15,985.760986328125,2.0354246953502297E-4,-1.6833993140608072E-4,-2.471640473231673E-4,-8.610822677612305,20.922210693359375,-35.55470275878906,-0.047567930072546005,0.011694803833961487,0.05861473083496094,0.07511902,-0.15742426,9.75964,0.03451324,-0.022692338,9.761111,1
15,985.7669067382812,6.988359382376075E-5,-4.34574467362836E-4,-2.4737860076129436E-4,-8.903386116027832,21.122215270996094,-35.29037094116211,-0.042450763285160065,-0.007384762167930603,0.04913902282714844,0.06800127,-0.15027569,9.75491,0.03021159,-0.013527751,9.756249,1
15,985.7693481445312,6.938254227861762E-5,-7.008090033195913E-4,1.8722552340477705E-5,-8.732320785522461,21.387855529785156,-35.48624038696289,-0.02784017100930214,-0.0028165727853775024,0.030193328857421875,0.06327343,-0.14074384,9.769118,0.029448286,-0.0020350218,9.770293,1
15,985.7672119140625,-4.637501551769674E-4,-7.007276872172952E-4,-3.809661138802767E-4,-8.99069595336914,21.778194427490234,-35.70022201538086,-0.04191272705793381,-0.0024710893630981445,0.03966045379638672,0.07766482,-0.1574281,9.759655,0.03584631,-0.023427665,9.76114,1
15,985.7744750976562,3.3469655318185687E-4,9.83012723736465E-5,2.846089191734791E-4,-9.184858322143555,22.070587158203125,-35.841373443603516,-0.045100826770067215,0.030749455094337463,0.06345176696777344,0.08110157,-0.17407806,9.747695,0.03226331,-0.040188372,9.749451,1
15,985.7819213867188,-1.917635672725737E-4,-3.021744196303189E-4,-1.1221983004361391E-4,-9.209370613098145,21.520797729492188,-35.72844696044922,-0.049325764179229736,0.016279205679893494,0.049243927001953125,0.09065735,-0.1621616,9.761898,0.044955708,-0.032782823,9.763506,1
15,985.7318725585938,-1.8033027299679816E-4,3.558811731636524E-4,4.2233336716890335E-4,-8.9515380859375,21.498741149902344,-35.612918853759766,-0.039622072130441666,0.01603163778781891,0.05397510528564453,0.06436461,-0.1693113,9.750061,0.01821258,-0.028622553,9.751683,1
15,985.7547607421875,8.602216257713735E-5,8.95593548193574E-5,1.5603320207446814E-4,-8.759876251220703,20.835121154785156,-35.21870040893555,-0.02032240852713585,0.0016443431377410889,0.04923820495605469,0.06197095,-0.15262823,9.761898,0.022336656,-0.012066543,9.763255,1
15,985.757080078125,0.00354816485196352,-0.0021741315722465515,-5.09740668348968E-4,-9.006757736206055,21.499618530273438,-35.45048904418945,-0.04314007610082626,0.02722756564617157,0.039793968200683594,0.07869643,-0.1621613,9.764264,0.032383986,-0.028474808,9.765831,1
15,985.9381713867188,8.850432932376862E-4,-8.425581036135554E-4,1.560646342113614E-4,-8.938520431518555,21.774375915527344,-35.70803451538086,-0.019801735877990723,0.002093866467475891,0.06344795227050781,0.066743135,-0.1573946,9.757162,0.024371164,-0.018389583,9.758612,1
15,985.7850952148438,-0.004174921661615372,0.0020869106519967318,6.887121126055717E-4,-8.50908088684082,21.649673461914062,-35.6899299621582,-0.038888461887836456,0.0063615888357162476,0.06344032287597656,0.07629892,-0.15739454,9.750061,0.033673868,-0.021177664,9.75155,1
15,985.7015991210938,-4.464629164431244E-4,2.226934884674847E-4,-1.1021981481462717E-4,-8.765528678894043,21.567283630371094,-35.18368911743164,-0.033398643136024475,0.011532142758369446,0.05871009826660156,0.0739052,-0.15977772,9.761896,0.029530108,-0.022783816,9.763412,1
15,985.7526245117188,0.002083574654534459,-0.0011088917963206768,-5.096778040751815E-4,-8.963277816772461,22.225013732910156,-35.26868438720703,-0.03343876078724861,-0.0028015822172164917,0.03977203369140625,0.07629129,-0.15262784,9.750059,0.034527548,-0.017148942,9.751476,1
15,985.8342895507812,-0.0019111268920823932,0.002086892956867814,1.5612738206982613E-4,-8.822813034057617,21.934974670410156,-35.04240798950195,-0.052791520953178406,0.024887800216674805,0.04922676086425781,0.07628751,-0.17646049,9.754794,0.025673838,-0.03868717,9.756578,1
15,985.6837768554688,-0.0012453004019334912,-3.099561436101794E-4,2.2985332179814577E-5,-9.056570053100586,21.76876449584961,-34.99665832519531,-0.0239550918340683,8.513778448104858E-4,0.05395984649658203,0.06672406,-0.15024437,9.754793,0.027026813,-0.010378778,9.756136,1
15,985.7168579101562,-5.794740281999111E-4,2.226696815341711E-4,2.8931687120348215E-4,-8.756534576416016,21.470199584960938,-34.94843673706055,-0.023665528744459152,0.005800321698188782,0.06816387176513672,0.0643304,-0.15262754,9.745325,0.023679115,-0.011624694,9.746698,1
15,985.7704467773438,0.0019505633972585201,-4.365216591395438E-5,6.888065254315734E-4,-8.75014877319336,22.108234405517578,-34.83279037475586,-0.03323782607913017,0.006088048219680786,0.04923057556152344,0.07149628,-0.15739395,9.761894,0.02835695,-0.018949717,9.763366,1
15,985.7634887695312,-1.7992701032198966E-4,-1.7681607278063893E-4,-1.1012551840394735E-4,-9.038145065307617,22.312660217285156,-34.80037307739258,-0.03758218139410019,-0.008439481258392334,0.03975868225097656,0.07388237,-0.15262736,9.771362,0.032198027,-0.014658958,9.772771,1
16,985.77587890625,-8.456797804683447E-4,-3.099799796473235E-4,1.5620619524270296E-4,-8.49109172821045,21.45551300048828,-35.21943664550781,-0.03253767639398575,0.005210116505622864,0.04448127746582031,0.07865834,-0.15501048,9.761894,0.035391565,-0.018746406,9.76336,1
16,985.7557373046875,-9.78801166638732E-4,-5.76301827095449E-4,-5.095676751807332E-4,-9.0338773727417,21.684940338134766,-35.4571533203125,-0.022348176687955856,-0.0041179656982421875,0.05395221710205078,0.06670505,-0.15501048,9.766627,0.023971574,-0.013565958,9.768045,1
16,985.7637329101562,3.528147644829005E-4,-4.431497654877603E-4,0.0012215011520311236,-8.553783416748047,21.55493927001953,-35.369564056396484,-0.04146626219153404,0.010051846504211426,0.05868339538574219,0.076260805,-0.16216017,9.757158,0.029638184,-0.024502546,9.758729,1
16,985.7634887695312,-2.995530376210809E-4,3.8899455103091896E-4,9.957717265933752E-4,-8.95860481262207,21.123092651367188,-35.1279411315918,-0.027062520384788513,0.005434244871139526,0.044483184814453125,0.06908733,-0.15739347,9.757158,0.02485481,-0.017342374,9.758625,1
16,985.7659912109375,7.65747157856822E-4,-2.7680114726535976E-4,7.294716779142618E-4,-8.688190460205078,20.638614654541016,-34.83332443237305,-0.027046162635087967,0.005543902516365051,0.044486045837402344,0.06669366,-0.1597767,9.759525,0.022157893,-0.018075213,9.761018,1
16,985.7659912109375,7.65747157856822E-4,-2.7680114726535976E-4,7.294716779142618E-4,-8.491772651672363,21.717891693115234,-34.61880874633789,-0.03186414763331413,0.01519775390625,0.039752960205078125,0.07624942,-0.15501006,9.766626,0.03286633,-0.017041937,9.768084,1
16,985.768798828125,4.994678311049938E-4,0.0010547724086791277,4.631714546121657E-4,-8.366251945495605,21.624954223632812,-35.017635345458984,-0.036623265594244,-0.00347881019115448,0.025556564331054688,0.076245636,-0.15024342,9.77136,0.034335084,-0.013176888,9.772743,1
16,985.7529907226562,4.99504734762013E-4,3.8897673948667943E-4,-6.944459164515138E-5,-8.58104133605957,21.634342193603516,-34.67715072631836,-0.03179730102419853,0.005804345011711121,0.05395984649658203,0.06907207,-0.16930951,9.768992,0.02036168,-0.028207079,9.770642,1
16,985.7463989257812,2.3326207883656025E-4,1.226488675456494E-4,-4.6888686483725905E-4,-8.333181381225586,21.33960723876953,-34.62111282348633,-0.050698623061180115,0.010253414511680603,0.0728921890258789,0.08101785,-0.16454293,9.747688,0.033635825,-0.028082386,9.749316,1
16,985.7463989257812,2.3326207883656025E-4,1.226488675456494E-4,-4.6888686483725905E-4,-8.333181381225586,21.33960723876953,-34.62111282348633,-0.040966104716062546,-0.004069924354553223,0.03975105285644531,0.07623422,-0.15024312,9.764257,0.034251988,-0.012261212,9.765643,1
16,985.7561645507812,-4.3249072041362524E-4,3.88958869734779E-4,1.969185541383922E-4,-8.128365516662598,21.057525634765625,-35.02109146118164,-0.035934705287218094,0.020109504461288452,0.03028583526611328,0.07933992,-0.16932692,9.771425,0.029229399,-0.03189768,9.773117,1
16,985.7540283203125,6.328091258183122E-4,-1.0520947398617864E-5,7.295659161172807E-4,-8.561691284179688,20.915443420410156,-35.40790939331055,-0.01836778223514557,0.005500912666320801,0.06802177429199219,0.06098032,-0.16457902,9.75019,0.014748402,-0.020191446,9.751738,1
16,985.7565307617188,-7.052685832604766E-4,3.84162412956357E-4,4.5772542944177985E-4,-8.639602661132812,21.000137329101562,-34.78498458862305,-0.02290598675608635,0.005251601338386536,0.0301361083984375,0.06103486,-0.16219704,9.780968,0.015058773,-0.017565653,9.782475,1
16,985.7968139648438,-1.7488771118223667E-4,-2.812619204632938E-4,1.9044469809159636E-4,-8.4293794631958,20.986328125,-34.893550872802734,-0.027656950056552887,0.00992894172668457,0.03959846496582031,0.05869952,-0.15504853,9.757301,0.015638584,-0.010197133,9.758692,1
16,985.7667846679688,2.2406014613807201E-4,3.846132312901318E-4,3.2337737502530217E-4,-8.862406730651855,21.47637176513672,-34.85550308227539,-0.022996969521045685,0.009891152381896973,0.05379676818847656,0.073093474,-0.15743317,9.750204,0.027970674,-0.018183082,9.751693,1
16,985.7918701171875,2.2353429812937975E-4,-1.4793325681239367E-4,1.899940543808043E-4,-8.671151161193848,21.286956787109375,-35.25880813598633,-0.027307551354169846,0.024471133947372437,0.030120849609375,0.070758104,-0.16220112,9.780983,0.023558285,-0.021142125,9.782533,1
16,985.7821655273438,2.230085665360093E-4,-9.467955096624792E-4,1.8976867431774735E-4,-8.31299114227295,20.884552001953125,-34.828548431396484,-0.03639915585517883,0.010136887431144714,0.0206451416015625,0.07081267,-0.15981908,9.78809,0.024212653,-0.018416256,9.789602,1
16,985.7769165039062,3.556407755240798E-4,-2.809204743243754E-4,-0.001275193877518177,-8.881075859069824,21.932903289794922,-34.72536849975586,0.6313832402229309,-0.18957263231277466,0.03485584259033203,-0.629374,-0.083555594,9.773891,-0.5942495,0.31558087,9.771354,1
16,985.7821044921875,-0.001775412238202989,0.0019828500226140022,-0.3650629222393036,-8.964554786682129,21.223114013671875,-35.51780319213867,-1.5014886856079102,0.2524251639842987,0.02061176300048828,0.82374084,-0.23132022,9.783365,0.68657464,-0.37815273,9.789378,1
16,985.7616577148438,-0.002708043437451124,0.0029150405898690224,-0.2588030993938446,-8.792105674743652,21.38431167602539,-35.09189987182617,0.07503645122051239,0.03173060715198517,-0.031490325927734375,0.061416745,-0.12884055,10.1124115,0.027144399,0.021484181,10.11336,1
16,985.7590942382812,-0.03533226624131203,0.005977759137749672,-0.04069061949849129,-9.194426536560059,21.323692321777344,-35.103336334228516,0.24507933855056763,-0.8350434303283691,-0.6288843154907227,0.21920478,0.43361187,10.252081,0.4665808,0.5021018,10.240676,1
16,985.6724853515625,-0.17861074209213257,0.25325214862823486,-0.12458033859729767,-8.677644729614258,21.755271911621094,-35.74711990356445,-0.5824484825134277,0.20206472277641296,0.6552248001098633,0.2240392,-0.7341959,9.570332,0.14396025,-0.5328156,9.585191,1
16,985.6929321289062,-0.35105079412460327,0.2295500934123993,-0.12071900069713593,-8.589897155761719,21.83734130859375,-35.61147689819336,-0.41863876581192017,0.02841690182685852,-0.2658357620239258,0.099818826,-0.04542981,10.576397,0.47590327,0.284993,10.56241,1
16,985.6903076171875,-0.3968576490879059,0.2647038996219635,-0.048547614365816116,-8.889090538024902,22.399742126464844,-35.13637161254883,-0.6869275569915771,-1.4140101671218872,-1.3413324356079102,0.29584533,0.25724524,10.817858,1.1381426,0.5461801,10.751098,1
16,985.713623046875,-0.6357435584068298,0.8511316180229187,-0.4496195614337921,-7.858441352844238,22.57390594482422,-34.07363510131836,-0.7855942249298096,0.031742751598358154,-0.6060171127319336,-0.7269781,-1.051176,10.5409,0.1974597,-0.10882422,10.615707,1
17,985.7109985351562,-0.6832814812660217,1.4161207675933838,-0.8612109422683716,-6.493431568145752,22.74576187133789,-34.14006423950195,0.7120795249938965,0.5730869770050049,-1.8645048141479492,-1.6685449,-1.6374639,11.260534,-0.09567118,-0.26053765,11.497302,1
17,985.7037963867188,-0.003244347870349884,1.5415555238723755,-0.6024852991104126,-5.306821823120117,22.8564453125,-35.02225112915039,-1.4184014797210693,-0.6573155522346497,-1.0097484588623047,-1.0256069,-0.45774227,10.609558,1.2203314,-0.04956065,10.5987015,1
17,985.7499389648438,0.6277905702590942,0.9178439974784851,-0.21739280223846436,-4.4716339111328125,21.900794982910156,-36.17280960083008,0.8134970664978027,-0.15419960021972656,-1.885101318359375,-3.1669042,-0.64125603,11.068801,-0.40753984,0.50058705,11.512696,1
17,985.7442016601562,0.921669602394104,0.8812255859375,-0.435505747795105,-4.040724754333496,20.145004272460938,-36.983299255371094,0.6783478260040283,0.305084764957428,-0.3704042434692383,-3.3771613,-0.39577973,9.537226,-0.59612393,0.33298326,10.102192,1
17,985.7619018554688,1.1818596124649048,1.3133232593536377,-0.36493220925331116,-2.066023826599121,17.727718353271484,-38.06996536254883,0.1582167148590088,0.5849140286445618,0.45308399200439453,-3.642386,-0.56022733,8.962001,-0.8066938,-0.11212504,9.655825,1
17,985.7596435546875,0.8319201469421387,1.2906863689422607,-0.24375872313976288,-1.1516780853271484,16.477008819580078,-38.5225944519043,1.419564962387085,0.3523096442222595,-0.959782600402832,-5.057153,0.111855835,10.406,-0.8167312,0.42803788,11.533511,1
17,985.7596435546875,0.6935684680938721,1.1147849559783936,0.020426398143172264,0.9779195785522461,15.153136253356934,-39.92805862426758,0.6858000755310059,0.38737526535987854,-1.2022666931152344,-4.617357,0.14760365,9.480428,-0.51857877,-0.2574737,10.530199,1
17,985.7672119140625,1.0616165399551392,1.6008113622665405,0.24586255848407745,3.2774658203125,13.619223594665527,-40.65456771850586,-0.12957525253295898,0.6335517168045044,0.40705394744873047,-4.6746597,0.82921994,8.140596,-0.32257652,0.0067174435,9.418345,1
17,985.75244140625,1.1172760725021362,1.393351435661316,0.30644920468330383,4.69013786315918,11.043931007385254,-40.87553024291992,0.5509052276611328,0.21970093250274658,-0.7860040664672852,-6.1085467,1.3678396,9.478071,-0.42779183,-5.078316E-4,11.350602,1
17,985.762451171875,0.8718653917312622,1.195212483406067,0.153184175491333,7.359882354736328,9.013480186462402,-41.091129302978516,0.15678167343139648,-0.017319083213806152,-0.9430403709411621,-5.336553,1.784912,8.150075,0.13515258,-0.30823398,9.898241,1
17,985.7522583007812,1.3309935331344604,1.7109333276748657,0.28021660447120667,9.651679992675781,7.366286277770996,-40.73203659057617,-0.011601448059082031,0.6233643293380737,-0.052727699279785156,-6.3354783,1.9851061,7.9394,-0.3764441,-0.35991335,10.33643,1
17,985.7669067382812,1.3917129039764404,1.1201117038726807,0.32482433319091797,12.355857849121094,4.525744438171387,-41.75236892700195,-0.3183612823486328,-0.11226701736450195,-1.6508111953735352,-5.5371966,3.34834,8.107476,0.92650867,-0.7546325,10.304134,1
17,985.7348022460938,1.7709463834762573,0.9870868921279907,0.47768938541412354,13.341014862060547,1.6024227142333984,-41.271217346191406,-0.9180793762207031,0.007634162902832031,-0.25218820571899414,-5.986443,3.5533004,6.3344464,0.29833674,-0.09232855,9.406972,1
17,985.734130859375,1.888391137123108,1.318117618560791,-0.08583521842956543,15.038066864013672,-2.0242109298706055,-40.396705627441406,-0.07602453231811523,-0.3175828456878662,0.6446423530578613,-6.9925375,4.2396836,5.1082406,0.09783703,0.7998023,9.608089,1
17,985.734130859375,1.888391137123108,1.318117618560791,-0.08583521842956543,17.626121520996094,-5.343100547790527,-39.98543930053711,0.3023514747619629,-0.030376911163330078,0.31734371185302734,-7.683164,3.946539,4.9520106,-0.3632769,0.4623413,9.938957,1
17,985.7496337890625,1.406491994857788,1.3803023099899292,-0.22884707152843475,19.77069091796875,-6.443777084350586,-38.942771911621094,0.6368017196655273,0.019788265228271484,-0.798311710357666,-8.18021,4.1872487,5.9817486,-0.18050778,-0.5843644,10.947883,1
17,985.7366943359375,0.763338565826416,1.2050665616989136,-0.3324441909790039,21.037841796875,-6.732590675354004,-38.5052604675293,0.5778336524963379,-0.06645345687866211,-0.8142023086547852,-7.8312287,4.447025,4.888106,-0.006119907,-0.23373938,10.244174,1
17,985.757080078125,0.5825095176696777,0.8880177736282349,0.10098469257354736,22.493038177490234,-8.531947135925293,-36.54563903808594,-0.22529125213623047,-0.0034284591674804688,-0.34163856506347656,-7.70451,4.7925987,4.1637473,0.09483868,-0.044525385,9.9827,1
17,985.757080078125,0.8301827311515808,1.1454120874404907,0.4830145835876465,23.71363067626953,-10.761366844177246,-35.0635871887207,0.8575186729431152,-0.39233875274658203,0.0827491283416748,-8.64234,4.8498216,3.2073069,-0.63354874,0.68035364,10.37465,1
17,985.7413940429688,0.8359079957008362,0.7838883996009827,0.41869908571243286,25.1470947265625,-12.52744197845459,-34.642250061035156,0.6432986259460449,-0.4309377670288086,-0.25957536697387695,-7.7638907,5.250238,4.485502,0.06015736,-0.8120432,10.358557,1
17,985.7463989257812,0.40713897347450256,0.7339542508125305,0.4976615011692047,25.36337661743164,-13.747621536254883,-33.98830795288086,0.025117874145507812,1.4777860641479492,-2.368781566619873,-7.4054136,4.5185714,5.0394263,-0.46208048,-1.9795594,9.824524,1
17,985.7261962890625,0.7943820953369141,0.7757626175880432,0.9979443550109863,25.913955688476562,-17.39463233947754,-32.32006072998047,-0.23255062103271484,-0.3652620315551758,-0.5282371044158936,-7.123414,6.446644,2.8639662,0.48802564,-0.10735369,10.012735,1
17,985.7033081054688,1.3953239917755127,1.1624531745910645,1.0139232873916626,26.587608337402344,-19.87325096130371,-30.046287536621094,-0.6203885078430176,0.4977741241455078,0.03554129600524902,-6.4877086,5.6601624,1.5454335,-0.056120157,0.18321621,8.745253,1
17,985.7158203125,1.035664439201355,1.372177004814148,0.7482733726501465,28.232398986816406,-21.969417572021484,-27.713592529296875,0.07105445861816406,0.9928221702575684,0.03661370277404785,-7.288334,5.6625457,1.4602137,-0.75609684,-0.23342562,9.310762,1
18,985.7492065429688,0.6190133094787598,1.041412591934204,0.6828927993774414,28.287452697753906,-23.288471221923828,-26.105205535888672,-0.06731081008911133,1.0882630348205566,-0.489082932472229,-6.7840734,5.748344,1.3181807,-0.6086909,-0.49835837,8.954655,1
18,985.74853515625,0.5578938722610474,0.7934725880622864,0.9536029696464539,27.79346466064453,-24.910205841064453,-25.549266815185547,-0.43608951568603516,1.1796398162841797,-0.11538833379745483,-6.0097537,6.060554,0.81159866,-0.22724974,-0.28122336,8.565947,1
