Timestamp,P,Gx,Gy,Gz,Mx,My,Mz,LiAx,LiAy,LiAz,Ax,Ay,Az,earthAx,earthAy,earthAz,Value,Type
0,985.7261352539062,-0.01385615672916174,0.19927577674388885,-0.13481329381465912,2.5025901794433594,5.838839530944824,-46.777530670166016,0.005609750747680664,0.056509800255298615,0.04873943328857422,0.04937166,-0.14690767,9.767806,-0.01568908,-0.05476714,9.76887,0
0,985.5071411132812,0.002619912615045905,0.0022460201289504766,7.486699614673853E-4,-5.358155250549316,23.124114990234375,-34.491111755371094,0.001042056828737259,0.061183929443359375,0.03926563262939453,0.051765442,-0.14929105,9.767807,-0.0138875395,-0.05753559,9.768907,0
0,985.5426025390625,8.98748985491693E-5,-2.839745138771832E-4,-1.834512804634869E-4,-5.364350318908691,24.224563598632812,-34.55455017089844,0.02505066990852356,0.06563460826873779,0.043997764587402344,0.0350399,-0.15405764,9.770174,-0.030734733,-0.058430687,9.771228,0
0,985.5336303710938,2.2299605188891292E-4,-6.834423984400928E-4,2.1600676700472832E-4,-5.633540630340576,24.07837677001953,-35.351341247558594,-0.003742765635251999,0.06562980264425278,0.039261817932128906,0.056552827,-0.15882434,9.767809,-0.011411717,-0.0675533,9.769024,0
0,985.5386962890625,-4.3356441892683506E-5,2.486692392267287E-4,-3.1664076959714293E-4,-5.625387191772461,23.717453002929688,-35.6394157409668,0.00104600191116333,0.06972438842058182,0.04872608184814453,0.04938692,-0.15405785,9.767807,-0.017377108,-0.06059976,9.768944,0
0,985.5587158203125,-5.7602470042184E-4,2.4867505999282E-4,8.28173360787332E-5,-5.3153791427612305,23.691577911376953,-35.53170394897461,0.010473530739545822,0.05507873743772507,0.04398822784423828,0.049390733,-0.1397583,9.765442,-0.01369267,-0.04646015,9.766448,0
0,985.5823974609375,-5.760617204941809E-4,1.155231730081141E-4,-7.161459070630372E-4,-5.4327473640441895,23.42359161376953,-35.420955657958984,-0.003635171800851822,0.05010915547609329,0.029781341552734375,0.05895412,-0.14929147,9.774911,-0.0058029704,-0.057622693,9.776056,0
0,985.5647583007812,8.969142800197005E-5,-9.497344144620001E-4,-5.037203663960099E-5,-4.989883899688721,23.100311279296875,-34.700439453125,-0.0038711391389369965,0.06893929839134216,0.043982505798339844,0.05417815,-0.1588247,9.765442,-0.012583729,-0.06579627,9.766654,0
0,985.56689453125,-4.350306699052453E-5,7.813247502781451E-4,7.485598907805979E-4,-5.202876091003418,23.323013305664062,-35.83540725708008,9.076409041881561E-4,0.059135518968105316,0.03451251983642578,0.05896175,-0.14929165,9.772544,-0.0057874657,-0.057169482,9.773694,0
0,985.5848999023438,-1.766979694366455E-4,1.1554104276001453E-4,-5.0403468776494265E-5,-5.132712364196777,23.125030517578125,-35.372737884521484,-0.018089480698108673,0.06358890235424042,0.043975830078125,0.06374538,-0.15644158,9.772545,-0.0031259656,-0.06481886,9.773789,0
0,985.5706176757812,8.958147373050451E-5,-1.7610960640013218E-5,-5.0419068429619074E-5,-5.4046478271484375,23.6080322265625,-35.59004592895508,0.005704984068870544,0.054061681032180786,0.04871177673339844,0.051799655,-0.14929189,9.758341,-0.013540043,-0.055295996,9.759455,0
0,985.5799560546875,0.0011548082111403346,-2.839209046214819E-4,-1.8359284149482846E-4,-5.651123523712158,23.798328399658203,-35.02431106567383,-0.0033607929944992065,0.06353304535150528,0.043972015380859375,0.05180341,-0.15644176,9.767811,-0.015455214,-0.06203936,9.768992,0
0,985.548095703125,8.95079574547708E-5,-5.502307321876287E-4,6.153390859253705E-4,-5.545388221740723,23.686241149902344,-34.41817092895508,-0.013008330017328262,0.06837938725948334,0.039238929748535156,0.06853661,-0.15405862,9.763077,0.0011393651,-0.06360933,9.764326,0
0,985.58056640625,7.552610477432609E-4,-1.7593090888112783E-5,8.269160753116012E-5,-5.662480354309082,23.630084991455078,-35.70557403564453,-0.0032944045960903168,0.05885651707649231,0.06764602661132812,0.056590855,-0.14690883,9.75124,-0.009306198,-0.05396042,9.752357,0
0,985.5430297851562,4.889086121693254E-4,-1.5074509428814054E-4,-5.0482049118727446E-5,-5.972190856933594,24.288097381591797,-35.38841247558594,-0.012974467128515244,0.049098990857601166,0.04397010803222656,0.058984637,-0.14690895,9.76071,-0.0062057637,-0.054309346,9.76184,0
0,985.5913696289062,4.888715920969844E-4,3.8189260521903634E-4,-4.4997158693149686E-4,-5.666749000549316,24.25780487060547,-35.04878616333008,-0.008227121084928513,0.053611963987350464,0.04870319366455078,0.058988363,-0.14929236,9.763077,-0.0055918414,-0.056484513,9.764232,0
0,985.5584106445312,-1.7695460701361299E-4,-1.757522113621235E-5,-5.831452435813844E-4,-5.031949043273926,23.48273468017578,-35.332210540771484,0.0016594119369983673,0.05838000029325485,0.039231300354003906,0.049432576,-0.15167566,9.760712,-0.016493253,-0.056608416,9.761837,0
0,985.5687866210938,3.5564060090109706E-4,-6.833590450696647E-4,2.1578662563115358E-4,-5.461932182312012,23.975727081298828,-35.44876480102539,-0.007944874465465546,0.0628189966082573,0.03922748565673828,0.06377578,-0.15644236,9.774915,-0.0033456013,-0.06392827,9.776165,0
0,985.5742797851562,-1.770281232893467E-4,-2.838791988324374E-4,-4.500188515521586E-4,-5.412801265716553,23.96895980834961,-35.30196762084961,0.0013255365192890167,0.06723927706480026,0.0439605712890625,0.05660993,-0.1492926,9.765446,-0.008898888,-0.055150166,9.766592,0
0,985.5628051757812,-4.433805006556213E-4,0.0010477062314748764,8.25973111204803E-5,-5.609464168548584,23.890113830566406,-35.190067291259766,-0.01302015408873558,0.05255558341741562,0.053424835205078125,0.06139353,-0.15167601,9.748876,-0.0047908183,-0.058335476,9.750073,0
0,985.5628051757812,-4.433805006556213E-4,0.0010477062314748764,8.25973111204803E-5,-5.634519577026367,23.708614349365234,-35.17558670043945,-0.00847645103931427,0.04293760657310486,0.03922080993652344,0.059007406,-0.14690955,9.76308,-0.005839398,-0.052971132,9.76422,0
0,985.5388793945312,-1.7710134852677584E-4,-1.755141420289874E-5,2.1573941921815276E-4,-5.636041641235352,23.707141876220703,-35.0982780456543,-0.0036250166594982147,0.07160250097513199,0.039221763610839844,0.056574225,-0.16359134,9.760708,-0.0127514135,-0.06861413,9.761993,0
0,985.5517578125,6.218095659278333E-4,0.0011808760464191437,7.483555236831307E-4,-5.907433986663818,23.821853637695312,-35.21714401245117,0.01562359556555748,0.05231262743473053,0.06290149688720703,0.042188644,-0.14929058,9.758337,-0.022789318,-0.05135996,9.759409,0
0,985.5653686523438,-3.095666761510074E-4,-1.5082184108905494E-4,-3.1659548403695226E-4,-5.240787506103516,23.392101287841797,-34.601863861083984,8.555576205253601E-4,0.06120247393846512,0.04869365692138672,0.061307847,-0.15882368,9.763071,-0.0049697068,-0.06446357,9.764343,0
1,985.5371704101562,-8.420860976912081E-4,2.4863373255357146E-4,-7.160212262533605E-4,-5.459867477416992,23.608909606933594,-35.427616119384766,0.0011164769530296326,0.04674815386533737,0.05815887451171875,0.05652803,-0.15167387,9.741766,-0.008648727,-0.05641924,9.742943,0
1,985.532958984375,3.563353675417602E-4,3.817916731350124E-4,-0.0012486528139561415,-5.386116981506348,23.04558563232422,-35.02109909057617,-0.013218954205513,0.051241032779216766,0.05815601348876953,0.063697755,-0.14929058,9.7465,-0.001216501,-0.055358976,9.747695,0
1,985.5474853515625,3.563353675417602E-4,1.1547579197213054E-4,-5.023152334615588E-5,-5.470926284790039,24.072803497314453,-35.68400955200195,-0.00855371356010437,0.05600906163454056,0.039218902587890625,0.05891794,-0.1540571,9.774907,-0.00655807,-0.05870255,9.776122,0
1,985.5662231445312,3.563353675417602E-4,2.4863373255357146E-4,-5.0231406930834055E-5,-5.892894744873047,24.098957061767578,-35.38956832885742,0.005790196359157562,0.051245637238025665,0.04868888854980469,0.051748246,-0.14929058,9.763071,-0.013364529,-0.05240617,9.764201,0
1,985.5402221679688,9.001948637887836E-5,-1.5084008919075131E-4,-5.023152334615588E-5,-5.484922409057617,23.427413940429688,-35.41313934326172,-0.022826720029115677,0.06044892966747284,0.05341911315917969,0.063697755,-0.15167387,9.765438,-0.0017125905,-0.057173647,9.766655,0
1,985.5427856445312,2.2317742696031928E-4,6.481075542978942E-4,6.155582959763706E-4,-5.367554664611816,23.695396423339844,-35.52389144897461,7.629059255123138E-4,0.0602417066693306,0.04868507385253906,0.054138154,-0.15644039,9.755969,-0.011288015,-0.059735477,9.757183,0
1,985.5487670898438,9.001948637887836E-5,1.1547579197213054E-4,-8.491791668348014E-4,-5.755474090576172,23.80596923828125,-35.00867462158203,-0.0038308538496494293,0.050869233906269073,0.05341911315917969,0.05891794,-0.14929058,9.741766,-0.0060411803,-0.05397512,9.742936,0
1,985.5693969726562,7.55809189286083E-4,-5.503139109350741E-4,-5.023152334615588E-5,-5.971349716186523,24.55194091796875,-34.86509323120117,0.005636557936668396,0.0648297518491745,0.029745101928710938,0.05652803,-0.16359024,9.767805,-0.011681993,-0.06673025,9.769103,0
1,985.5263061523438,-1.762963947840035E-4,6.481075542978942E-4,-1.8338934751227498E-4,-5.447829246520996,23.51477813720703,-35.346981048583984,0.010748367756605148,0.05991563946008682,0.05341339111328125,0.044578522,-0.1540571,9.75597,-0.020717971,-0.054830097,9.757112,0
1,985.551513671875,4.894933081232011E-4,-0.0010829456150531769,7.487162365578115E-4,-5.463592529296875,23.868335723876953,-34.67238235473633,-0.0036427974700927734,0.05055133253335953,0.05814933776855469,0.063697755,-0.15167387,9.765438,-0.001418503,-0.05681303,9.766658,0
1,985.5645141601562,0.0012884410098195076,2.4863373255357146E-4,4.8240035539492965E-4,-5.025860786437988,23.488624572753906,-35.64142608642578,-0.022663477808237076,0.059797920286655426,0.04867839813232422,0.061307847,-0.1659735,9.758337,-0.0058617666,-0.07011302,9.759689,0
1,985.5343627929688,-4.4261227594688535E-4,-1.768214860931039E-5,-4.4970534509047866E-4,-5.45790958404541,24.348434448242188,-35.77912902832031,-0.003486502915620804,0.05952305346727371,0.05814361572265625,0.054138154,-0.15882368,9.753603,-0.012018919,-0.061302856,9.754846,0
1,985.5494384765625,6.226512487046421E-4,-4.1715597035363317E-4,-1.833894639275968E-4,-6.045834064483643,23.745079040527344,-35.42227554321289,-0.003580968827009201,0.06879105418920517,0.0344696044921875,0.05652806,-0.15644045,9.765438,-0.010788016,-0.058831193,9.766671,0
1,985.5475463867188,-4.313845420256257E-5,7.812654948793352E-4,6.155582959763706E-4,-5.554788589477539,24.257526397705078,-35.45094680786133,0.005662497133016586,0.05476661026477814,0.048676490783691406,0.04696843,-0.1540571,9.772539,-0.017924605,-0.05491925,9.773697,0
1,985.5823974609375,0.0012884410098195076,6.481075542978942E-4,-5.0231406930834055E-5,-5.43663215637207,23.156795501708984,-35.7896614074707,-0.013586781919002533,0.04968394339084625,0.048675537109375,0.07086748,-0.14929058,9.765438,0.0063586775,-0.055333003,9.766677,0
1,985.5402221679688,-3.094543353654444E-4,3.817916731350124E-4,-5.828632856719196E-4,-5.495438575744629,23.52301788330078,-35.57107925415039,0.00536968931555748,0.05418635159730911,0.043938636779785156,0.051748246,-0.15167384,9.755969,-0.012510855,-0.053265758,9.757132,0
1,985.5325317382812,9.001948637887836E-5,-5.503139109350741E-4,-5.828632856719196E-4,-5.322309494018555,23.421844482421875,-35.74580764770508,9.422041475772858E-4,0.053808584809303284,0.058135986328125,0.051748246,-0.15167384,9.753603,-0.012809794,-0.052835412,9.754767,0
1,985.5629272460938,-3.4662915277294815E-4,1.9268266623839736E-4,2.909655449911952E-4,-5.454758644104004,23.245040893554688,-35.56108474731445,9.698048233985901E-4,0.06790420413017273,0.05813407897949219,0.063697755,-0.15644045,9.755969,-0.0017878395,-0.05994264,9.757247,0
1,985.5564575195312,-4.7978709335438907E-4,-6.062649772502482E-4,-3.7482427433133125E-4,-5.358560562133789,23.598323822021484,-35.288639068603516,0.005817055702209473,0.06274233013391495,0.058129310607910156,0.054138124,-0.15882368,9.758337,-0.01222115,-0.05965081,9.759589,0
1,985.5487670898438,4.523184907156974E-4,4.589985474012792E-4,2.909655449911952E-4,-5.629953384399414,23.713035583496094,-35.40750503540039,-0.008558239787817001,0.05788898468017578,0.05339336395263672,0.05891794,-0.15167387,9.758337,-0.0060773473,-0.053674653,9.759544,0
1,985.55126953125,3.191605501342565E-4,-3.3994909608736634E-4,-1.085083931684494E-4,-5.741776466369629,23.819229125976562,-35.70441818237305,-0.003943201154470444,0.048470377922058105,0.0628652572631836,0.05891794,-0.14929058,9.753601,-0.005655648,-0.051526785,9.754783,0
1,985.55419921875,-8.03132716100663E-5,5.9524725656956434E-5,4.2412348557263613E-4,-5.4366326332092285,23.15679931640625,-35.7896614074707,9.724646806716919E-4,0.048159465193748474,0.043923377990722656,0.05652803,-0.15167387,9.772539,-0.007768851,-0.05286596,9.773732,0
1,985.55419921875,-8.03132716100663E-5,5.9524725656956434E-5,4.2412348557263613E-4,-5.4366326332092285,23.15679931640625,-35.7896614074707,0.014117114245891571,0.05741244554519653,0.043816566467285156,0.04332626,-0.1493185,9.772644,-0.020466732,-0.047201738,9.773747,0
1,985.556396484375,-6.156655726954341E-4,-3.3950741635635495E-4,-3.75990173779428E-4,-5.65943717956543,23.633033752441406,-35.86017990112305,0.004466649144887924,0.047685787081718445,0.05801582336425781,0.052931488,-0.1469364,9.756077,-0.009447239,-0.047292106,9.757208,0
1,985.541748046875,3.1080670305527747E-4,5.9072847943753E-4,1.5102361794561148E-4,-5.139205455780029,23.593345642089844,-35.86104202270508,-5.254298448562622E-4,0.04272758960723877,0.03907203674316406,0.050587296,-0.15647061,9.767918,-0.0150649585,-0.055458196,9.769133,0
2,985.5494384765625,4.405059735290706E-5,-3.413056838326156E-4,-2.4863891303539276E-4,-5.852214813232422,23.82097625732422,-35.37956619262695,0.004696141928434372,0.05214919149875641,0.053267478942871094,0.050632954,-0.15408842,9.758453,-0.014297599,-0.053195722,9.759645,0
2,985.5396728515625,3.0992619576863945E-4,-0.0010070239659398794,-1.156696816906333E-4,-5.451714515686035,23.24798583984375,-35.715694427490234,-0.009636376053094864,0.05672001093626022,0.048526763916015625,0.055458426,-0.1517063,9.75609,-0.0094332285,-0.051711947,9.757287,0
2,985.5592651367188,4.317020648159087E-5,-6.07478606980294E-4,0.0010825631907209754,-5.716177940368652,23.632431030273438,-35.62044906616211,-0.00937708094716072,0.06156591325998306,0.04378700256347656,0.06267381,-0.14932407,9.767931,-0.0023285616,-0.05092892,9.769141,0
2,985.5474853515625,0.0011079935356974602,-4.7424924559891224E-4,-1.1604698374867439E-4,-5.659031867980957,23.158828735351562,-35.062652587890625,0.005224727094173431,0.042277052998542786,0.05324745178222656,0.04599017,-0.15409185,9.758467,-0.02007418,-0.051418006,9.759636,0
2,985.5570678710938,-6.234999746084213E-4,-3.4101976780220866E-4,-3.825515741482377E-4,-5.795068740844727,23.347366333007812,-34.821773529052734,-0.004572886973619461,0.0513388067483902,0.06270885467529297,0.057985365,-0.1517096,9.756103,-0.005974859,-0.051765658,9.757317,0
2,985.5401000976562,-2.2446629009209573E-4,7.243151776492596E-4,2.830496523529291E-4,-5.226654052734375,24.143409729003906,-35.57181167602539,-0.009653914719820023,0.05116553604602814,0.04850006103515625,0.06281084,-0.1517107,9.758474,-0.0021837708,-0.052585825,9.759713,0
2,985.5324096679688,7.071990985423326E-4,3.2491280580870807E-4,-1.1661287862807512E-4,-5.521472930908203,22.971755981445312,-35.38084030151367,0.00929386168718338,0.050834983587265015,0.04849433898925781,0.043737292,-0.16124494,9.763212,-0.021917945,-0.05746918,9.764447,0
2,985.5529174804688,-4.916626494377851E-4,5.8668345445767045E-5,-2.499595284461975E-4,-5.165377140045166,22.93616485595703,-34.97172927856445,0.00414995476603508,0.05526849627494812,0.06269168853759766,0.05334255,-0.14217986,9.751381,-0.0075031836,-0.040893055,9.752475,0
2,985.5529174804688,-4.916626494377851E-4,5.8668345445767045E-5,-2.499595284461975E-4,-5.101133346557617,24.050472259521484,-35.970638275146484,0.004189543426036835,0.06491822749376297,0.034282684326171875,0.05099833,-0.1636305,9.770323,-0.015692573,-0.060966626,9.771624,0
2,985.5254516601562,-3.589448460843414E-4,7.24529498256743E-4,-2.5014812126755714E-4,-5.540004730224609,23.534202575683594,-35.94978713989258,-7.589198648929596E-4,0.05047883838415146,0.04374504089355469,0.053433925,-0.15648179,9.770327,-0.0110943075,-0.054536834,9.771566,0
2,985.5433349609375,3.059643495362252E-4,5.888278246857226E-5,-2.5052553974092007E-4,-5.081921577453613,23.22565460205078,-36.002323150634766,0.003998052328824997,0.0406157523393631,0.04373741149902344,0.053479582,-0.14218329,9.758495,-0.007563563,-0.04045298,9.759592,0
2,985.5478515625,-3.6026546149514616E-4,-3.4051958937197924E-4,1.4875968918204308E-4,-5.6490583419799805,23.43151092529297,-35.0031623840332,-0.01461096853017807,0.04524523764848709,0.04846382141113281,0.06786466,-0.15886728,9.758499,0.0012129303,-0.059565395,9.759846,0
2,985.561279296875,1.71926076291129E-4,-8.730798726901412E-4,1.4857097994536161E-4,-5.558566093444824,22.88439178466797,-35.446998596191406,-0.019377917051315308,0.059094369411468506,0.04371929168701172,0.055960834,-0.15648516,9.756136,-0.009854695,-0.05406727,9.757397,0
2,985.5386962890625,-9.483008761890233E-5,3.254130424465984E-4,2.815403277054429E-4,-5.326874256134033,23.41741943359375,-35.513893127441406,-4.1368603706359863E-4,0.06867586076259613,0.048450469970703125,0.05600649,-0.16125281,9.76561,-0.009979818,-0.058832347,9.766918,0
2,985.5414428710938,5.705194780603051E-4,5.9168582083657384E-5,1.5035737305879593E-5,-5.398155212402344,23.13971710205078,-35.10173416137695,-1.4611706137657166E-4,0.044475167989730835,0.04844188690185547,0.05605215,-0.14218773,9.760879,-0.0062222946,-0.03982757,9.7619915,0
2,985.5545043945312,-9.57104202825576E-5,-0.0010060234926640987,-0.0010504164965823293,-5.710228443145752,23.53240966796875,-35.230594635009766,-0.004653364419937134,0.03457600623369217,0.048431396484375,0.06087765,-0.14457212,9.765617,-0.0026779845,-0.042723715,9.766783,0
2,985.5165405273438,-7.619404932484031E-4,-8.727940730750561E-4,4.1413228609599173E-4,-5.234561920166016,23.50391387939453,-35.610164642333984,0.009459562599658966,0.0628158450126648,0.0389556884765625,0.0489738,-0.15648963,9.765621,-0.015769746,-0.051564656,9.766849,0
2,985.54248046875,1.6972507000900805E-4,3.2569884206168354E-4,-5.181620363146067E-4,-5.140727519989014,23.591873168945312,-35.78373336791992,-1.6901642084121704E-4,0.05797566473484039,0.05788898468017578,0.05618918,-0.15172423,9.75379,-0.007403545,-0.04854743,9.755008,0
2,985.5341186523438,1.692848454695195E-4,-2.0686144125647843E-4,4.137549549341202E-4,-5.2577972412109375,23.95602035522461,-35.248111724853516,0.004433285444974899,0.04359450936317444,0.03894615173339844,0.05145508,-0.14934207,9.767998,-0.011512905,-0.044996493,9.769165,0
2,985.5595703125,3.0200250330381095E-4,8.584735915064812E-4,8.130400674417615E-4,-5.226408958435059,23.142982482910156,-35.89823532104492,-0.010053936392068863,0.03847191482782364,0.06261157989501953,0.06345022,-0.15172644,9.746696,-3.4183264E-4,-0.049762957,9.747957,0
2,985.5377197265625,-3.642273077275604E-4,-7.356057176366448E-5,-1.1925410944968462E-4,-5.551200866699219,23.892181396484375,-35.50710678100586,-6.149709224700928E-5,0.042901188135147095,0.034193992614746094,0.051546395,-0.14934425,9.77274,-0.01220661,-0.044059485,9.7739105,0
2,985.5552978515625,-9.83516511041671E-5,-3.3980494481511414E-4,2.800310030579567E-4,-5.376005172729492,23.42418670654297,-35.66068649291992,-0.019374769181013107,0.056746356189250946,0.05312347412109375,0.06832141,-0.1517287,9.753807,0.0040615425,-0.049907565,9.755097,0
2,985.5252075195312,-2.319498744327575E-4,-6.060494342818856E-4,6.793161737732589E-4,-5.695550918579102,23.915428161621094,-36.10209655761719,-0.01810332015156746,0.03754337877035141,0.053188323974609375,0.0651744,-0.14456029,9.758472,0.0017195717,-0.04195676,9.75967,0
2,985.5474853515625,-2.2762597654946148E-4,-2.0727748051285744E-4,-2.509363694116473E-4,-5.816643714904785,23.90686798095703,-35.236106872558594,-0.008548445999622345,0.046979762613773346,0.05791950225830078,0.060408562,-0.15647699,9.763207,-0.005897563,-0.0522962,9.764506,0
3,985.5196533203125,5.739883054047823E-4,-3.4086828236468136E-4,-2.497934037819505E-4,-5.507476806640625,23.617149353027344,-35.65171432495117,-0.013024657964706421,0.04687514901161194,0.03424263000488281,0.065202296,-0.15171076,9.756107,1.138784E-4,-0.04877042,9.757382,0
3,985.5355224609375,7.070117862895131E-4,-4.7400445328094065E-4,-7.824829081073403E-4,-4.993876934051514,23.939857482910156,-35.44180679321289,0.0013211779296398163,0.03739186376333237,0.029509544372558594,0.05565667,-0.13979478,9.772678,-0.005811574,-0.034940585,9.773771,0
3,985.525146484375,4.4056129991076887E-4,-4.7398265451192856E-4,-2.4990877136588097E-4,-5.455301284790039,23.613327026367188,-35.6595344543457,0.0018186531960964203,0.03285061568021774,0.034241676330566406,0.058060527,-0.14217837,9.770313,-0.0052853376,-0.03779564,9.771445,0
3,985.5303344726562,9.730585152283311E-4,-0.0015392241766676307,1.6349484212696552E-5,-5.448372840881348,23.88306427001953,-35.445430755615234,0.0019545778632164,0.046733394265174866,0.03896903991699219,0.05329469,-0.15886162,9.772682,-0.013532028,-0.052586935,9.773968,0
3,985.5436401367188,-8.91287112608552E-4,3.2500867382623255E-4,4.15765680372715E-4,-5.183067321777344,23.76245880126953,-35.01735305786133,0.0017466023564338684,0.051184363663196564,0.04369926452636719,0.06047833,-0.15886201,9.77505,-0.0057521984,-0.05391769,9.77638,0
3,985.5567626953125,1.7384192324243486E-4,7.245044689625502E-4,8.151817601174116E-4,-5.654029369354248,23.90129852294922,-35.56877517700195,-0.012452509254217148,0.04155343025922775,0.048431396484375,0.05810237,-0.15409581,9.753746,-0.00822049,-0.04871255,9.7550125,0
3,985.5311279296875,8.202329627238214E-5,-3.4657452488318086E-4,-6.806963356211782E-4,-5.7614240646362305,23.90599822998047,-35.39853286743164,-0.012100670486688614,0.05101226270198822,0.043692588806152344,0.05333656,-0.15171282,9.758482,-0.012250304,-0.045199163,9.759696,0
3,985.5491333007812,7.476784521713853E-4,-0.001012342283502221,1.1819362407550216E-4,-5.576799392700195,24.07897186279297,-35.5910758972168,0.0166214220225811,0.050602421164512634,0.0436859130859375,0.05335051,-0.158863,9.772686,-0.0143346265,-0.051458582,9.773978,0
3,985.5343627929688,-8.503514109179378E-4,5.294295260682702E-5,1.1813605669885874E-4,-5.716177940368652,23.632434844970703,-35.62044906616211,-0.007634274661540985,0.05502178519964218,0.038949012756347656,0.055754364,-0.15648009,9.767954,-0.010574354,-0.04958965,9.769235,0
3,985.5394897460938,-1.8469613860361278E-4,8.519123657606542E-4,-1.4823756646364927E-4,-5.552722930908203,23.890708923339844,-35.4297981262207,0.00663863867521286,0.03552035987377167,0.03894329071044922,0.048598588,-0.1493306,9.767955,-0.0154789295,-0.040749148,9.76912,0
3,985.51416015625,-7.17462389729917E-4,-7.459609769284725E-4,-2.814530162140727E-4,-5.344021797180176,23.87542724609375,-35.461063385009766,0.012032762169837952,0.06852009147405624,0.038933753967285156,0.046222687,-0.16839717,9.767956,-0.022505265,-0.05833862,9.769316,0
3,985.5491333007812,3.476665879134089E-4,-0.001012254972010851,-8.141425205394626E-4,-5.262660980224609,23.31946563720703,-35.44106674194336,0.016829561442136765,0.03987858444452286,0.043666839599609375,0.053406328,-0.14456473,9.763223,-0.011326723,-0.036336362,9.764366,0
3,985.5590209960938,4.8068995238281786E-4,3.1934620346874E-4,-6.810423219576478E-4,-5.963495254516602,23.558883666992188,-35.57803726196289,-0.0024462714791297913,0.053775399923324585,0.0341949462890625,0.06775972,-0.16124798,9.767958,6.4187497E-4,-0.055585407,9.769365,0
3,985.5369262695312,-1.852342684287578E-4,-2.1326373098418117E-4,-2.816262422129512E-4,-5.242578029632568,23.970752716064453,-36.02116394042969,-0.026577752083539963,0.058238886296749115,0.048394203186035156,0.072553456,-0.16363163,9.765593,0.0051176697,-0.05869569,9.7670555,0
3,985.5296630859375,-5.848425207659602E-4,0.0011183375027030706,-1.4852581080049276E-4,-5.259181022644043,24.060462951660156,-35.8698844909668,-0.007611207664012909,0.05809734761714935,0.05312538146972656,0.06300783,-0.1588654,9.753758,-0.0033481997,-0.052052952,9.755116,0
3,985.5068359375,8.081269334070385E-5,7.188855088315904E-4,-5.48057141713798E-4,-5.417229652404785,24.070453643798828,-35.76913070678711,-0.0032613277435302734,0.03362280875444412,0.053119659423828125,0.053462178,-0.15886576,9.756126,-0.013617335,-0.049050063,9.757433,0
3,985.5427856445312,-7.182694971561432E-4,8.520654519088566E-4,-1.5483121387660503E-5,-6.129695892333984,23.929798126220703,-35.189205169677734,-0.008178748190402985,0.047452062368392944,0.038909912109375,0.06781554,-0.15886606,9.770331,0.0018243622,-0.05193104,9.771719,0
3,985.532470703125,-1.8577234004624188E-4,-8.001843525562435E-5,0.0010497227776795626,-5.488371849060059,23.898670196533203,-36.05605697631836,-0.007991425693035126,0.056740663945674896,0.04364013671875,0.05587995,-0.1540999,9.770332,-0.008478001,-0.04446592,9.771604,0
3,985.5556030273438,3.467250207904726E-4,-2.1315456251613796E-4,6.501913303509355E-4,-5.238149166107178,23.86925506591797,-35.55400085449219,0.006493072956800461,0.042334817349910736,0.04363536834716797,0.046334326,-0.15886678,9.763231,-0.019581363,-0.04680165,9.7645035,0
3,985.5353393554688,-5.855150520801544E-4,-2.1313272009138018E-4,-4.151299363002181E-4,-5.594244480133057,23.904842376708984,-35.96311950683594,0.006363697350025177,0.04655376821756363,0.04836463928222656,0.053517967,-0.15410058,9.767967,-0.010961551,-0.043284193,9.769228,0
3,985.5353393554688,-5.855150520801544E-4,-2.1313272009138018E-4,-4.151299363002181E-4,-5.3961968421936035,23.879241943359375,-35.4532470703125,0.0012912899255752563,0.04599159210920334,0.05782604217529297,0.053531945,-0.14933436,9.746664,-0.009661851,-0.0383571,9.747874,0
3,985.5331420898438,-4.52491658506915E-4,4.5267888344824314E-4,-1.4887179713696241E-4,-5.461389064788818,23.607437133789062,-35.35031509399414,-0.008601248264312744,0.045401595532894135,0.043616294860839844,0.063105464,-0.14933471,9.760868,7.94325E-5,-0.03979812,9.762135,0
3,985.52294921875,-8.522344287484884E-4,5.858804215677083E-4,-6.81618694216013E-4,-5.43176794052124,23.793350219726562,-35.59670639038086,0.004684615880250931,0.044637441635131836,0.05299854278564453,0.051597178,-0.16602845,9.765643,-0.014681382,-0.052928694,9.767037,0
3,985.5206909179688,-9.855269454419613E-4,1.8642848590388894E-4,-5.485183792188764E-4,-5.190837860107422,23.228878021240234,-35.7547721862793,-0.014537818729877472,0.025466717779636383,0.06719970703125,0.061623693,-0.13744058,9.749115,0.0019442718,-0.02719497,9.750239,0
3,985.5287475585938,-3.2415392342954874E-4,3.1601605587638915E-4,1.107718562707305E-4,-5.330461502075195,23.78276824951172,-35.457733154296875,0.009061478078365326,0.034981317818164825,0.05772590637207031,0.05211228,-0.14935811,9.753855,-0.009690452,-0.0367717,9.755064,0
4,985.5235595703125,4.743293975479901E-4,5.824073450639844E-4,-2.8890115208923817E-4,-5.708569049835205,23.639801025390625,-36.00697708129883,-2.883933484554291E-4,0.025626927614212036,0.048254966735839844,0.05455035,-0.14459275,9.76096,-0.00713899,-0.032556184,9.762127,0
4,985.5360717773438,8.733386057429016E-4,-6.159386830404401E-4,6.430054199881852E-4,-4.974526882171631,23.22095489501953,-36.17256546020508,0.004781980067491531,0.039646461606025696,0.015103340148925781,0.049818754,-0.1493605,9.779902,-0.01221092,-0.03585516,9.7810955,0
4,985.518798828125,3.402424044907093E-4,-7.490211864933372E-4,1.1017464566975832E-4,-5.247441291809082,23.33419418334961,-36.214115142822266,-0.00489385798573494,0.034732311964035034,0.043503761291503906,0.05703661,-0.14221187,9.765704,-0.0038569272,-0.030342117,9.766858,0
4,985.5344848632812,-3.260117955505848E-4,4.494756867643446E-4,-4.226560704410076E-4,-5.528646469116211,23.70244598388672,-35.268524169921875,0.0044313035905361176,0.04887186735868454,0.048233985900878906,0.047525227,-0.15889598,9.77281,-0.016907545,-0.04424607,9.774103,0
4,985.5447387695312,-5.927920574322343E-4,4.495510656852275E-4,-8.223289623856544E-4,-5.500004768371582,23.518600463867188,-35.339168548583984,0.004064697772264481,0.02916940301656723,0.057692527770996094,0.049963295,-0.14221425,9.753876,-0.010321965,-0.028211236,9.754993,0
4,985.5396728515625,-5.932563217356801E-4,4.4962644460611045E-4,5.090513732284307E-4,-5.763489246368408,24.272811889648438,-35.419681549072266,0.013460468500852585,0.03834470361471176,0.04821586608886719,0.047621578,-0.15413179,9.76335,-0.015245374,-0.038806617,9.764594,0
4,985.5597534179688,-7.268788176588714E-4,5.0228030886501074E-5,-4.232532810419798E-4,-5.929987907409668,24.011592864990234,-35.45572280883789,-0.015084493905305862,0.0378991961479187,0.057674407958984375,0.05722934,-0.14459987,9.756252,-0.0040639024,-0.03128691,9.757441,0
4,985.5171508789062,-6.155353912618011E-5,-8.285454532597214E-5,2.4233735166490078E-4,-5.577778339385986,23.709209442138672,-35.41531753540039,-0.0012043006718158722,0.023663535714149475,0.038735389709472656,0.05727756,-0.13983454,9.77046,-0.0022456627,-0.026673786,9.771591,0
4,985.5171508789062,7.113990432117134E-5,9.824843145906925E-4,2.421382232569158E-4,-4.912378311157227,23.489822387695312,-36.12089157104492,0.008121974766254425,0.042097315192222595,0.04819202423095703,0.052545965,-0.16366847,9.760996,-0.010639001,-0.04866142,9.7623825,0
4,985.5380859375,-0.0015272196615114808,5.830858135595918E-4,3.750972682610154E-4,-5.300595283508301,22.96825408935547,-36.030548095703125,-0.016052663326263428,0.04150078445672989,0.043448448181152344,0.062153697,-0.14936997,9.768102,0.0012005102,-0.03598363,9.769375,0
4,985.5274658203125,-7.287364569492638E-4,1.8368748715147376E-4,-2.4575507268309593E-5,-5.695987701416016,23.17737579345703,-35.827884674072266,-0.006325073540210724,0.03157917410135269,0.052906036376953125,0.062201917,-0.14222135,9.751535,0.0023288503,-0.02884335,9.752728,0
4,985.5282592773438,-6.341123662423342E-5,-8.255297143477947E-5,-6.905645132064819E-4,-5.181163311004639,22.869426727294922,-36.120155334472656,-0.0014721304178237915,0.02195919305086136,0.038697242736816406,0.05986017,-0.14698906,9.770478,-6.040856E-4,-0.03258962,9.771713,0
4,985.5252075195312,6.928238144610077E-5,5.068033351562917E-5,-2.497364766895771E-5,-5.398453235626221,22.507583618164062,-35.526607513427734,0.008028097450733185,0.040840283036231995,0.052893638610839844,0.055128574,-0.15414007,9.756279,-0.0071789846,-0.038456835,9.757574,0
4,985.5508422851562,-3.306558937765658E-4,-3.487180802039802E-4,-2.517271786928177E-5,-5.674518585205078,23.724220275878906,-35.78621292114258,-0.011470943689346313,0.03105274587869644,0.05762290954589844,0.05995655,-0.14699148,9.761019,-4.6007708E-4,-0.03237416,9.762256,0
4,985.5184936523438,-1.9796231936197728E-4,0.0016487264074385166,-2.5371671654284E-5,-5.632316589355469,23.447715759277344,-35.853519439697266,-0.011821143329143524,0.035672202706336975,0.057618141174316406,0.06239468,-0.15890901,9.751554,-5.085841E-4,-0.044577852,9.752946,0
4,985.5333862304688,7.336788112297654E-4,5.090652848593891E-5,-2.557074185460806E-5,-5.377528190612793,23.422718048095703,-35.58338165283203,-0.0023051947355270386,0.03552689403295517,0.062346458435058594,0.055273086,-0.16129346,9.756292,-0.007508602,-0.0451373,9.757675,0
4,985.5236206054688,-6.573308201041073E-5,1.8413978978060186E-4,5.068620666861534E-4,-5.318722248077393,23.056495666503906,-35.80196762084961,-0.017031922936439514,0.04968930035829544,0.029201507568359375,0.062491,-0.15414484,9.777601,0.0019944943,-0.039394006,9.778937,0
4,985.5287475585938,2.0011830201838166E-4,0.0013826367212459445,-5.58600528165698E-4,-5.012300491333008,23.395965576171875,-35.63809585571289,-0.007774673402309418,0.040065355598926544,0.04340076446533203,0.067319006,-0.15176274,9.758669,0.0070461836,-0.038348943,9.760003,0
4,985.5087890625,6.649586430285126E-5,4.506065452005714E-4,-2.924839500337839E-4,-5.283012390136719,23.24829864501953,-36.35758590698242,-0.007852878421545029,0.04943317174911499,0.04812908172607422,0.060197473,-0.16129704,9.768141,-0.0025767311,-0.04579653,9.76955,0
4,985.5467529296875,1.3649536413140595E-4,-2.815714105963707E-4,-4.3696718057617545E-4,-5.842103958129883,24.199581146240234,-36.0191535949707,-0.0029806606471538544,0.03488551080226898,0.05758953094482422,0.060245663,-0.14938183,9.749208,9.813346E-5,-0.034185708,9.750478,0
4,985.5322265625,-1.3028495595790446E-4,-5.478118546307087E-4,2.2862356854602695E-4,-5.73362398147583,23.45830535888672,-35.992496490478516,0.0019958242774009705,0.034397341310977936,0.03864002227783203,0.050734222,-0.15891613,9.76815,-0.010949168,-0.040622473,9.7694845,0
4,985.5113525390625,-2.6390739367343485E-4,-1.4826262486167252E-4,4.94740204885602E-4,-5.388044357299805,23.518321990966797,-35.7413215637207,-0.012036994099617004,0.048444606363773346,0.043364524841308594,0.07468146,-0.16130061,9.761053,0.011724029,-0.04794672,9.7625475,0
4,985.5350341796875,-3.975296567659825E-4,-9.471348603256047E-4,-7.038802723400295E-4,-5.298094749450684,23.339488983154297,-36.28361129760742,-0.011648178100585938,0.05302281677722931,0.04809093475341797,0.06278014,-0.16368507,9.765792,-1.2177229E-4,-0.04735394,9.76725,0
4,985.5372924804688,-1.3167821452952921E-4,-5.47585659660399E-4,3.611844149418175E-4,-4.943521499633789,23.30242919921875,-35.79718780517578,0.026709243655204773,0.043169282376766205,0.033878326416015625,0.0437091,-0.15653642,9.782366,-0.018330209,-0.035495862,9.783635,0
4,985.5018920898438,1.3417316949926317E-4,-5.475102225318551E-4,-1.716466504149139E-4,-5.669112205505371,23.99248504638672,-35.49480438232422,-0.015974555164575577,0.033459462225437164,0.043338775634765625,0.06526643,-0.15415432,9.758699,0.002864141,-0.038107097,9.76006,0
5,985.5304565429688,-1.3260720879770815E-4,-2.811189624480903E-4,2.2762815933674574E-4,-5.7197651863098145,23.997779846191406,-35.564292907714844,0.0030593499541282654,0.03342840075492859,0.057537078857421875,0.05575499,-0.14938898,9.751602,-0.005040521,-0.031401277,9.752855,0
5,985.5385131835938,5.327180260792375E-4,-5.473594646900892E-4,-1.7204467440024018E-4,-5.575277328491211,24.0804443359375,-35.66837692260742,0.0032939575612545013,0.02861694246530533,0.03859233856201172,0.05580318,-0.15415664,9.772911,-0.0061044954,-0.035723418,9.7742195,0
5,985.532470703125,2.659376768860966E-4,-1.478102058172226E-4,9.407202014699578E-5,-5.344021797180176,23.87542724609375,-35.461063385009766,-0.0062227919697761536,0.04728582501411438,0.029114723205566406,0.051071554,-0.1589243,9.784752,-0.012033479,-0.038727924,9.786092,0
5,985.51025390625,-6.66632317006588E-4,-6.803665892221034E-4,-3.9284874219447374E-5,-5.446169853210449,23.622169494628906,-36.12336349487305,-0.001140408217906952,0.028007298707962036,0.04330921173095703,0.063069224,-0.15415896,9.77292,5.553402E-4,-0.036595717,9.774271,0
5,985.5336303710938,-1.3446496450342238E-4,-4.1397532913833857E-4,-3.0579970916733146E-4,-5.4604105949401855,23.97719955444336,-35.52606964111328,-0.010835520923137665,0.03252005577087402,0.05750465393066406,0.063117474,-0.1541601,9.756353,6.237179E-4,-0.03659825,9.757708,0
5,985.495849609375,-1.3492946163751185E-4,5.182056338526309E-4,6.2610674649477E-4,-5.5708489418029785,23.97895050048828,-35.20121383666992,0.008238274604082108,0.023037627339363098,0.06223583221435547,0.04643634,-0.14701147,9.751624,-0.014301928,-0.025890127,9.752798,0
5,985.495849609375,-1.3492946163751185E-4,5.182056338526309E-4,6.2610674649477E-4,-5.707183837890625,23.535358428955078,-35.38520431518555,-0.011232491582632065,0.03276657313108444,0.05750083923339844,0.060823917,-0.14939596,9.749261,-3.289841E-4,-0.031839326,9.750543,0
5,985.5289306640625,6.635537138208747E-4,-1.4750863192602992E-4,9.32759721763432E-5,-5.363424777984619,22.961761474609375,-35.48159408569336,0.007882162928581238,0.03228547424077988,0.05275440216064453,0.051312476,-0.15178038,9.746899,-0.009746915,-0.03169027,9.74816,0
5,985.5060424804688,-0.0010684283915907145,-1.4199933502823114E-5,9.287794819101691E-5,-5.317743301391602,23.42626190185547,-35.97772216796875,-0.006632421165704727,0.032270647585392,0.06222057342529297,0.05493635,-0.1565186,9.758629,-0.007259745,-0.036925167,9.759967,0
5,985.516357421875,6.621604552492499E-4,3.853492671623826E-4,2.2583670215681195E-4,-5.259181022644043,24.060462951660156,-35.86989212036133,-0.008899681270122528,0.03227949142456055,0.05770587921142578,0.053730667,-0.14933921,9.756151,-0.0067593325,-0.0297838,9.757395,0
5,985.5018310546875,0.0010787288192659616,-9.490051306784153E-4,-3.315292997285724E-5,-5.723649978637695,23.730987548828125,-35.93300247192383,-0.00840219110250473,0.0370902493596077,0.04823589324951172,0.056102514,-0.1493388,9.763251,-0.0055912603,-0.03001614,9.764506,0
5,985.5347900390625,5.520442500710487E-4,-5.504967994056642E-4,0.0010346593335270882,-6.179369926452637,24.304855346679688,-35.434452056884766,-0.008479278534650803,0.02283204346895218,0.034035682678222656,0.06325418,-0.14457186,9.765616,0.002199486,-0.02708897,9.766854,0
5,985.5450439453125,1.9586383132264018E-5,-1.789329689927399E-5,6.352600757963955E-4,-5.450735092163086,23.61774444580078,-35.89144515991211,0.010499637573957443,0.03712179511785507,0.06244468688964844,0.041726947,-0.15648772,9.749044,-0.020611564,-0.034140646,9.750308,0
5,985.5173950195312,6.855501560494304E-4,7.810260285623372E-4,2.3586099268868566E-4,-5.354400157928467,24.076942443847656,-36.318084716796875,0.015172019600868225,0.032016582787036896,0.048239707946777344,0.044098824,-0.15172069,9.760878,-0.016841624,-0.029697329,9.762096,0
5,985.530029296875,-6.45854976028204E-4,-2.842656977009028E-4,2.3593573132529855E-4,-5.547178268432617,24.264892578125,-35.837467193603516,0.005714230239391327,0.05086694657802582,0.038768768310546875,0.056030303,-0.17078657,9.767979,-0.009610638,-0.050486654,9.769498,0
5,985.5074462890625,1.5326656284742057E-4,2.483379212208092E-4,6.354840588755906E-4,-5.392472267150879,23.619815826416016,-36.2084846496582,-0.017929691821336746,0.03169114142656326,0.04823780059814453,0.06318191,-0.1469533,9.751406,0.0024401266,-0.02885878,9.752674,0
5,985.5462036132812,4.1975665953941643E-4,-6.837960099801421E-4,-2.965470193885267E-4,-5.597288131713867,23.901893615722656,-35.80850601196289,0.0011567622423171997,0.03170949965715408,0.06717872619628906,0.055994153,-0.15171938,9.753772,-0.0057617184,-0.031904325,9.755057,0
5,985.5156860351562,4.199308168608695E-4,-2.843504771590233E-4,3.6931742215529084E-4,-5.266110420227051,23.790725708007812,-36.083988189697266,-0.0036299191415309906,0.03640592843294144,0.052974700927734375,0.055976093,-0.15886874,9.753771,-0.006857032,-0.038893893,9.755144,0
5,985.5079956054688,2.8694674256257713E-4,-1.8062914023175836E-5,-1.6323995077982545E-4,-5.471362590789795,23.334754943847656,-35.40980529785156,-0.008257586508989334,0.031450264155864716,0.05297279357910156,0.065517604,-0.1564851,9.763239,0.0023685396,-0.03828357,9.764637,0
5,985.510986328125,-7.781428284943104E-4,-2.844069676939398E-4,1.0315055260434747E-4,-5.948114395141602,24.099834442138672,-35.22713851928711,0.00602523609995842,0.011879362165927887,0.05296802520751953,0.051160157,-0.14456828,9.763237,-0.00904049,-0.02287063,9.764411,0
5,985.53662109375,-2.4533664691261947E-4,6.476701819337904E-4,-8.288805256597698E-4,-5.323830604553223,23.420372009277344,-35.66849899291992,-0.003606412559747696,0.03093310445547104,0.0435028076171875,0.060701728,-0.15886743,9.760867,-0.0023075547,-0.039108932,9.762271,0
5,985.5234985351562,5.537848919630051E-4,-1.8147664377465844E-5,-5.62489905860275E-4,-5.561036586761475,23.72541046142578,-36.26567459106445,0.006094265729188919,0.0499105304479599,0.03876686096191406,0.051124036,-0.16601686,9.760866,-0.013611451,-0.04379788,9.762306,0
5,985.5318603515625,1.5448496560566127E-4,-1.5133374836295843E-4,-2.9609951889142394E-4,-5.8259358406066895,23.371810913085938,-35.89622497558594,-0.00857190415263176,0.04491940885782242,0.06717681884765625,0.063055456,-0.16124989,9.760863,-0.0011304487,-0.04167615,9.762309,0
5,985.552001953125,2.8781735454685986E-4,7.807434885762632E-4,5.029230960644782E-4,-5.396059513092041,23.98516082763672,-36.15232467651367,-0.003734719008207321,0.0400625541806221,0.04823780059814453,0.060647517,-0.15648286,9.765596,-0.0015103593,-0.036359236,9.766972,0
6,985.5494384765625,2.879912208300084E-4,5.143993184901774E-4,1.0352378012612462E-4,-5.17629861831665,23.5059814453125,-35.92720031738281,9.86643135547638E-4,0.011515617370605469,0.03877067565917969,0.048679948,-0.13979949,9.76086,-0.00944238,-0.017665595,9.761963,0
6,985.5448608398438,5.544810555875301E-4,1.148973242379725E-4,-2.9559654649347067E-5,-5.172956466674805,24.141063690185547,-35.65693664550781,-0.008390944451093674,0.03049015998840332,0.03403759002685547,0.06539118,-0.14933215,9.758491,0.0049203094,-0.030388206,9.759804,0
6,985.5576782226562,-1.111342862714082E-4,-0.0010835523717105389,-6.952747353352606E-4,-5.627452373504639,24.084266662597656,-35.66056442260742,0.001069970428943634,0.025538481771945953,0.05297374725341797,0.053423643,-0.14456518,9.763226,-0.006035436,-0.022955075,9.764413,0
6,985.5405883789062,-6.43592095002532E-4,6.474725087173283E-4,1.0374741395935416E-4,-5.354973793029785,23.23297882080078,-35.34479904174805,9.298063814640045E-4,0.029962293803691864,0.038768768310546875,0.060575336,-0.15409781,9.758489,-0.0010730401,-0.03359112,9.759835,0
6,985.5582275390625,-5.102602299302816E-4,6.474442197941244E-4,1.0382203618064523E-4,-5.573212146759033,23.71363067626953,-35.64723205566406,0.005384825170040131,0.024827778339385986,0.04823780059814453,0.050997585,-0.14933081,9.770323,-0.009089902,-0.026305169,9.771558,0
6,985.5403442382812,-1.1061222176067531E-4,3.811001661233604E-4,1.038967166095972E-4,-5.732644557952881,23.82806396484375,-36.16825485229492,-0.008903183043003082,0.0343552827835083,0.05297279357910156,0.06531897,-0.16124673,9.756119,0.0023531672,-0.041361913,9.757582,0
6,985.515380859375,4.221937560942024E-4,3.8107187720015645E-4,-2.9186659958213568E-5,-5.48948860168457,23.422988891601562,-35.18122100830078,-0.008764136582612991,0.02955511212348938,0.05297279357910156,0.058131218,-0.15886305,9.758484,-0.00410687,-0.037348926,9.759878,0
6,985.5484619140625,5.555255338549614E-4,-8.173778187483549E-4,3.7036166759207845E-4,-5.287035942077637,22.875595092773438,-36.027217864990234,-0.008687511086463928,0.03884104639291763,0.05770587921142578,0.07006264,-0.15886258,9.753748,0.007543156,-0.03979802,9.755208,0
6,985.521240234375,-1.9903722568415105E-4,5.903821438550949E-4,-6.119265453889966E-4,-5.3232879638671875,23.052078247070312,-35.57005310058594,-0.00378982350230217,0.04358048737049103,0.024565696716308594,0.058095098,-0.16601194,9.767949,-0.005730642,-0.043899894,9.769432,0
6,985.5416870117188,4.6692663454450667E-4,3.2403809018433094E-4,7.197275990620255E-4,-5.266546249389648,23.05267333984375,-35.80978012084961,-0.003508705645799637,0.029424235224723816,0.06717872619628906,0.056406587,-0.14696299,9.749075,-0.0033296589,-0.025295287,9.750311,0
6,985.553955078125,9.9802459590137E-4,-8.741344208829105E-4,5.328049883246422E-5,-5.357582092285156,23.96808624267578,-35.46439743041992,-0.009841982275247574,0.03430881351232529,0.05757904052734375,0.061930895,-0.15651427,9.756245,-4.541874E-4,-0.035811022,9.75763,0
6,985.54443359375,7.211457705125213E-4,-7.52510386519134E-5,8.459285600110888E-4,-5.785362243652344,24.200176239013672,-36.258888244628906,-0.00504181906580925,0.029601827263832092,0.06230926513671875,0.052410603,-0.14698227,9.749147,-0.0075928364,-0.024492368,9.7503605,0
6,985.5596313476562,3.212926385458559E-4,1.9112630980089307E-4,-8.852872997522354E-4,-5.672996997833252,23.725692749023438,-35.8635139465332,-0.0049520619213581085,0.029277466237545013,0.04336357116699219,0.06439942,-0.15174975,9.768089,0.0032925978,-0.031237736,9.76943,0
6,985.52197265625,-8.775079622864723E-4,-2.0828588458243757E-4,-3.5281782038509846E-4,-5.226408958435059,23.142982482910156,-35.89823532104492,-4.054419696331024E-4,0.03838223218917847,0.05755901336669922,0.050099373,-0.15413399,9.753889,-0.011304706,-0.030127734,9.755182,0
6,985.5292358398438,-4.7841333434917033E-4,1.9124947721138597E-4,3.1280925031751394E-4,-5.621800899505615,23.35211181640625,-35.69557571411133,0.014020431786775589,0.03337216377258301,0.04808235168457031,0.045358896,-0.14936839,9.768095,-0.014454005,-0.024226457,9.769302,0
6,985.5347290039062,5.383932148106396E-5,-3.413207596167922E-4,1.7948885215446353E-4,-5.167304515838623,23.40890121459961,-35.691951751708984,-0.005106333643198013,0.023689202964305878,0.05754566192626953,0.054957867,-0.14698608,9.749161,-0.004499847,-0.024032086,9.750393,0
6,985.547607421875,1.8661798094399273E-4,-7.49432947486639E-5,4.616833757609129E-5,-5.1929030418396,23.59569549560547,-35.77592086791992,0.004418730735778809,0.023578114807605743,0.06227588653564453,0.052607268,-0.14222045,9.751533,-0.0058503114,-0.01871486,9.752691,0
6,985.547607421875,1.8661798094399273E-4,-7.49432947486639E-5,4.616833757609129E-5,-5.344021797180176,23.87542724609375,-35.461063385009766,0.013776205480098724,0.028408274054527283,0.038600921630859375,0.052646577,-0.14937122,9.768106,-0.0076700635,-0.025455534,9.769355,0
6,985.5506591796875,-4.795507702510804E-4,1.9143411191180348E-4,3.1232176115736365E-4,-5.720606803894043,23.733932495117188,-36.087615966796875,0.004493966698646545,0.02353455126285553,0.0670003890991211,0.05029607,-0.14460577,9.751539,-0.009034591,-0.020351455,9.752715,0
6,985.5328369140625,5.853336770087481E-4,5.833772593177855E-5,4.58433642052114E-5,-5.768054962158203,24.268394470214844,-35.18776321411133,-9.294599294662476E-5,0.018790893256664276,0.04805946350097656,0.055115223,-0.14937325,9.756277,-0.0056614727,-0.02599679,9.75754,0
6,985.5056762695312,-8.12144426163286E-5,-3.410129575058818E-4,3.1183427199721336E-4,-5.60185432434082,23.897476196289062,-35.57659149169922,-0.004758551716804504,0.03747144341468811,0.0669870376586914,0.055154562,-0.14699091,9.746813,-0.0050481874,-0.023420393,9.748049,0
6,985.5358276367188,-3.479095466900617E-4,-2.0779346232302487E-4,-4.8727577086538076E-4,-5.064476013183594,23.39978790283203,-35.63027572631836,-0.004608374089002609,0.02304999530315399,0.038573265075683594,0.062363565,-0.14937516,9.765754,0.0017088111,-0.026917279,9.767058,0
6,985.5436401367188,-4.814465355593711E-4,-6.072057294659317E-4,-8.796446491032839E-5,-5.3297810554504395,23.52039337158203,-36.0583610534668,-0.014110531657934189,0.03233305364847183,0.033832550048828125,0.062402904,-0.15175937,9.768124,9.177625E-4,-0.028971553,9.769459,0
6,985.5311279296875,5.0806120270863175E-5,5.8645528042688966E-5,-2.2128492128103971E-4,-5.326331615447998,23.04913330078125,-35.41543960571289,0.014413025230169296,0.027447424829006195,0.048030853271484375,0.05288267,-0.1517603,9.758659,-0.008328725,-0.026908427,9.759942,0
6,985.5752563476562,5.042695556767285E-5,1.9186496501788497E-4,4.4868444092571735E-5,-5.600875377655029,24.26723861694336,-35.75234603881836,0.004760656505823135,0.026959605515003204,0.048020362854003906,0.05531186,-0.15176125,9.753928,-0.005938094,-0.027162611,9.755227,0
7,985.5393676757812,-6.157419411465526E-4,1.9192654872313142E-4,-8.845201227813959E-5,-5.811397552490234,23.64891815185547,-36.06864929199219,0.009512625634670258,0.02227485179901123,0.0480194091796875,0.045791626,-0.14461245,9.74683,-0.013757182,-0.017951071,9.747984,0
7,985.5219116210938,1.828264503274113E-4,-4.738015995826572E-4,-3.5493029281497E-4,-5.475790977478027,23.43625259399414,-35.8769645690918,-0.004527334123849869,0.03623303771018982,0.05747795104980469,0.060170352,-0.1565298,9.765772,-0.002498811,-0.032274127,9.767158,0
7,985.5526123046875,-2.1702641970477998E-4,-4.737400449812412E-4,-4.8825074918568134E-4,-5.329780578613281,23.520389556884766,-36.0583610534668,0.004652578383684158,0.02678634226322174,0.02907085418701172,0.057819784,-0.14938094,9.772877,-0.0027299114,-0.02486208,9.774158,0
7,985.532470703125,5.815421463921666E-4,4.584270645864308E-4,-2.2209750022739172E-4,-5.759657859802246,22.907039642333984,-35.8022575378418,0.004868421703577042,0.03612509369850159,0.04326629638671875,0.055469245,-0.15414847,9.758678,-0.0069159865,-0.028797716,9.760008,0
7,985.5760498046875,4.853119025938213E-5,-2.0730108371935785E-4,3.103718627244234E-4,-5.231518268585205,23.506858825683594,-35.7647705078125,1.4398619532585144E-4,0.021826937794685364,0.06693458557128906,0.05789846,-0.14938284,9.746844,-0.0027808715,-0.024983332,9.748129,0
7,985.53759765625,1.813098497223109E-4,-3.403974405955523E-4,3.10209346935153E-4,-5.353994369506836,23.602741241455078,-35.52055740356445,2.565234899520874E-4,0.03137819468975067,0.052727699279785156,0.0579378,-0.16368346,9.751583,-0.006117914,-0.038856983,9.753049,0
7,985.5430908203125,5.804045358672738E-4,1.9229587633162737E-4,-4.88900812342763E-4,-5.439240455627441,23.89190673828125,-35.90925979614258,-0.014093577861785889,0.026536941528320312,0.03378582000732422,0.060367018,-0.14700146,9.768156,-1.9862689E-4,-0.022795603,9.769422,0
7,985.5533447265625,3.137096355203539E-4,-4.734323301818222E-4,4.356855060905218E-5,-5.655008316040039,23.531536102294922,-35.39302062988281,0.004829384386539459,0.036152854561805725,0.04325294494628906,0.0556266,-0.15176906,9.770527,-0.006061049,-0.026423633,9.771827,0
7,985.543701171875,3.1333029619418085E-4,5.926104495301843E-5,3.097217995673418E-4,-5.420709133148193,23.32946014404297,-35.34031677246094,-0.004661194980144501,0.045636847615242004,0.052715301513671875,0.058055818,-0.168453,9.756329,-0.007254673,-0.043396413,9.757855,0
7,985.5361938476562,3.1295124790631235E-4,5.9322541346773505E-5,4.4271728256717324E-4,-5.136597633361816,22.858238220214844,-35.7414436340332,-0.004921451210975647,0.026543214917182922,0.057410240173339844,0.0656172,-0.13986321,9.746895,0.0064912774,-0.017216876,9.748103,0
7,985.5567016601562,4.465717065613717E-4,-7.732535596005619E-5,-3.5943445982411504E-4,-5.319265365600586,23.424785614013672,-35.90041732788086,-4.437938332557678E-5,0.017052248120307922,0.03846931457519531,0.05372101,-0.13986452,9.758736,-0.0053237695,-0.014499694,9.759874,0
7,985.5438842773438,4.448285617399961E-4,-6.096741417422891E-4,-2.2702355636283755E-4,-5.599108695983887,23.268287658691406,-36.156070709228516,-0.009875208139419556,0.0361093133687973,0.03372955322265625,0.06333396,-0.15893205,9.7753105,-4.0190853E-4,-0.035000026,9.776746,0
7,985.5269165039062,3.1115676392801106E-4,7.219887338578701E-4,3.907206701114774E-5,-5.543591499328613,23.899547576904297,-35.89362716674805,-0.019656512886285782,0.02664344012737274,0.05740165710449219,0.063387215,-0.15178348,9.756378,0.0017519277,-0.028411746,9.757722,0
7,985.5221557617188,3.1064319773577154E-4,7.220720872282982E-4,-2.2746383910998702E-4,-5.390407085418701,23.25299835205078,-36.18734359741211,0.003988325595855713,0.021443799138069153,0.03845500946044922,0.05388093,-0.15893467,9.770586,-0.008844692,-0.032702744,9.771969,0
7,985.5496826171875,-0.001154608093202114,5.889976164326072E-4,-2.2768409689888358E-4,-5.773898601531982,23.26207733154297,-35.20496368408203,0.003641698509454727,0.021118223667144775,0.062119483947753906,0.05154434,-0.15178616,9.754021,-0.009343497,-0.025113836,9.755301,0
7,985.524169921875,4.3299602111801505E-5,1.896070607472211E-4,4.378853482194245E-4,-5.69126033782959,23.70801544189453,-34.93585205078125,-0.001007281243801117,0.02109813690185547,0.038440704345703125,0.061157256,-0.15893732,9.7658615,-0.0019369088,-0.034050673,9.767286,0
7,985.5523681640625,7.085754768922925E-4,-2.0978329121135175E-4,-6.275983178056777E-4,-5.6604156494140625,23.263267517089844,-35.684425354003906,-7.279515266418457E-4,0.04961365461349487,0.052636146545410156,0.056430727,-0.1589386,9.751663,-0.0063282344,-0.03308229,9.753063,0
7,985.5377197265625,4.227212048135698E-5,-2.096999087370932E-4,-6.278184591792524E-4,-5.416686058044434,23.702163696289062,-35.67068099975586,0.003646712750196457,0.03999131917953491,0.05263233184814453,0.056484044,-0.15417339,9.756403,-0.00452907,-0.028427094,9.757741,0
7,985.5406494140625,4.17583214584738E-5,4.561732348520309E-4,0.0011030144523829222,-5.087029457092285,23.589523315429688,-35.86885452270508,-0.006323833018541336,0.025802507996559143,0.062099456787109375,0.05653739,-0.15417464,9.761143,-0.0043794457,-0.028522328,9.762481,0
7,985.5431518554688,5.73876197449863E-4,8.557303808629513E-4,-7.614169153384864E-4,-5.495546340942383,24.62936019897461,-35.9437370300293,-0.0014656931161880493,0.035009726881980896,0.06208992004394531,0.05420074,-0.15894254,9.7540455,-0.0078746695,-0.032394245,9.755433,0
7,985.5535888671875,4.0730839828029275E-5,-3.4260761458426714E-4,7.031003478914499E-4,-5.466498374938965,23.97130584716797,-35.21684646606445,-0.0015068426728248596,0.02054251730442047,0.04314422607421875,0.054254085,-0.15894385,9.763519,-0.0074885804,-0.032189503,9.764908,0
7,985.5487060546875,-2.1198335161898285E-4,3.629162674769759E-4,-3.328185994178057E-5,-4.992109298706055,22.940902709960938,-35.84553146362305,0.007822979241609573,0.0346425324678421,0.057341575622558594,0.051917434,-0.15894513,9.751688,-0.010360172,-0.03144592,9.753066,0
7,985.546142578125,5.381873052101582E-5,-3.027901111636311E-4,4.991296445950866E-4,-5.757837295532227,23.540653228759766,-35.45469284057617,0.0034744925796985626,0.029729381203651428,0.03839397430419922,0.059140503,-0.15417989,9.763529,-0.0028103553,-0.02807188,9.764886,0
7,985.5487060546875,-4.793267580680549E-4,-8.353384910151362E-4,0.0010315412655472755,-5.923219680786133,23.755107879638672,-36.36556625366211,0.008170358836650848,0.02457892894744873,0.05732250213623047,0.04963416,-0.1517979,9.763534,-0.010668013,-0.02345118,9.764805,0
8,985.5469970703125,-8.036669169086963E-5,-4.35781228588894E-4,3.6553130485117435E-4,-5.2456207275390625,23.967803955078125,-35.86655044555664,-0.006254423409700394,0.04801730811595917,0.052577972412109375,0.059247077,-0.16609888,9.756437,-0.0050127283,-0.03906651,9.757951,0
8,985.546630859375,-4.8035435611382127E-4,2.3009185679256916E-4,6.316270446404815E-4,-5.698052406311035,23.54419708251953,-35.84903335571289,-0.006009269505739212,0.02880948781967163,0.03836631774902344,0.056910485,-0.15656705,9.763544,-0.005223183,-0.028970614,9.764922,0
8,985.559814453125,8.501975680701435E-4,7.628904422745109E-4,9.855494135990739E-5,-5.613211631774902,23.729232788085938,-36.25786209106445,-0.011009179055690765,0.019552811980247498,0.06677055358886719,0.06652337,-0.15418513,9.749346,0.004949989,-0.029136807,9.750748,0
8,985.559814453125,8.501975680701435E-4,7.628904422745109E-4,9.855494135990739E-5,-5.613211631774902,23.729232788085938,-36.25786209106445,0.0031990818679332733,0.024421855807304382,0.03836250305175781,0.052237332,-0.14941986,9.773022,-0.007980499,-0.021252483,9.774278,0
8,985.549560546875,3.1705194851383567E-4,9.718420915305614E-5,-3.4823198802769184E-5,-5.5415263175964355,23.532730102539062,-35.87248229980469,-0.0063360631465911865,0.019247591495513916,0.06676006317138672,0.057070404,-0.15895428,9.756456,-0.0050097257,-0.031505004,9.757866,0
8,985.5477905273438,-4.8240949399769306E-4,-3.0220625922083855E-4,-3.5043456591665745E-5,-5.218095779418945,23.30828094482422,-35.06236267089844,-0.01118490844964981,0.01925167441368103,0.06675529479980469,0.05951363,-0.15180574,9.754094,-0.0011473261,-0.02508311,9.755424,0
8,985.5477905273438,-4.8240949399769306E-4,-3.0220625922083855E-4,-3.5043456591665745E-5,-5.3585615158081055,23.59832000732422,-35.288639068603516,-0.006436623632907867,0.009523332118988037,0.05254364013671875,0.057177007,-0.1351241,9.754099,1.1134148E-4,-0.008101121,9.7552,0
8,985.583740234375,1.8286639533471316E-4,2.3050885647535324E-4,9.789434261620045E-5,-5.594680309295654,23.166793823242188,-35.68891143798828,-0.0015924274921417236,0.023655205965042114,0.04780101776123047,0.057230324,-0.14942507,9.751736,-0.0028064493,-0.021924064,9.753024,0
8,985.5732421875,4.8680914915166795E-5,-3.01956053590402E-4,2.3061188403517008E-4,-5.5451130867004395,23.8980712890625,-35.81632614135742,-0.0015688203275203705,0.033113569021224976,0.04779529571533203,0.05728367,-0.15419294,9.763578,-0.0041093305,-0.026300117,9.764927,0
8,985.5585327148438,1.8132505647372454E-4,-3.0187261290848255E-4,-1.6908219549804926E-4,-5.596309661865234,24.27165985107422,-35.9842643737793,0.003169797360897064,0.018833890557289124,0.038321495056152344,0.057178468,-0.15419038,9.763569,-0.004190903,-0.026295483,9.764917,0
8,985.596923828125,4.4712709495797753E-4,9.768459131009877E-5,-3.024602774530649E-4,-5.775825500488281,23.73480987548828,-35.92518615722656,-0.006015900522470474,0.033013686537742615,0.057280540466308594,0.059453636,-0.15895416,9.754089,-0.0034608822,-0.031403646,9.755516,0
8,985.573974609375,3.2055185874924064E-4,-4.188762977719307E-5,4.945882828906178E-4,-5.646855354309082,23.170608520507812,-35.681095123291016,0.008123092353343964,0.013796553015708923,0.04780769348144531,0.05471444,-0.149422,9.761194,-0.0056841243,-0.02081944,9.762467,0
8,985.5584716796875,-3.4562888322398067E-4,2.2449175594374537E-4,-5.708427634090185E-4,-5.203962326049805,24.059593200683594,-36.03231430053711,0.003278058022260666,0.02764357626438141,0.043064117431640625,0.054754972,-0.1589561,9.765932,-0.006963929,-0.029794112,9.76733,0
8,985.52587890625,-0.0010118096834048629,-1.7491863400209695E-4,-1.7153657972812653E-4,-5.163281440734863,23.78160858154297,-36.022315979003906,-0.015866391360759735,0.03689961135387421,0.043056488037109375,0.061965257,-0.16372366,9.761202,-8.7027065E-4,-0.035744086,9.762707,0
8,985.5668334960938,-8.009521116036922E-5,3.577767056412995E-4,-3.0486215837299824E-4,-5.147357940673828,23.954269409179688,-35.572967529296875,-0.0064808279275894165,0.03651419281959534,0.0572509765625,0.05961597,-0.1565748,9.763573,-0.0014196523,-0.027884662,9.764972,0
8,985.5875244140625,-6.131179397925735E-4,8.904719143174589E-4,4.939179052598774E-4,-5.216436386108398,23.415672302246094,-35.8387451171875,-0.0019775666296482086,0.012141138315200806,0.05250740051269531,0.05009687,-0.15419258,9.744638,-0.010027951,-0.02330561,9.745955,0
8,985.5491333007812,-0.0010129829170182347,3.5790359834209085E-4,-7.046711398288608E-4,-5.072926998138428,23.12857437133789,-35.76707458496094,0.007241390645503998,0.02633833885192871,0.04777050018310547,0.057307184,-0.14942698,9.756477,-0.001617521,-0.019990817,9.757771,0
8,985.562255859375,5.845213891007006E-4,4.911251016892493E-4,9.410892380401492E-5,-5.308748722076416,23.329177856445312,-35.74247360229492,-0.021473456174135208,0.026143938302993774,0.05249786376953125,0.069297254,-0.14466144,9.758849,0.010994248,-0.017717332,9.760145,0
8,985.602783203125,-6.142911734059453E-4,3.5803060745820403E-4,2.2709916811436415E-4,-5.828543663024902,24.106918334960938,-36.01581954956055,0.002311442047357559,0.0018412023782730103,0.038285255432128906,0.06216812,-0.13274606,9.765955,0.0067354552,-0.0040865988,9.767052,0
8,985.57275390625,-0.0012804717989638448,-3.076956782024354E-4,-3.9384118281304836E-5,-5.396495819091797,23.247108459472656,-35.878116607666016,-0.011973172426223755,0.01563015580177307,0.07141494750976562,0.06459859,-0.1470467,9.737552,0.0060530696,-0.018392786,9.738857,0
8,985.5654907226562,-0.0010145470732823014,-4.1316263377666473E-5,-1.7270981334149837E-4,-5.270133018493652,23.418014526367188,-35.75362014770508,-0.002566676586866379,0.020102500915527344,0.04300212860107422,0.062249243,-0.15658082,9.76833,0.0019201227,-0.026449963,9.769748,0
8,985.5731811523438,-3.4914823481813073E-4,7.576948846690357E-4,3.5975442733615637E-4,-5.827159881591797,24.00247573852539,-35.39405059814453,0.0023735128343105316,0.02003428339958191,0.042995452880859375,0.052730203,-0.14704867,9.765965,-0.0057503656,-0.014915705,9.767201,0
8,985.5634765625,4.4940831139683723E-4,-5.738211330026388E-4,4.927448462694883E-4,-5.592424392700195,24.5384521484375,-35.61555099487305,-0.0017425455152988434,0.034173354506492615,0.04771995544433594,0.059940517,-0.15419953,9.76597,-7.1089156E-4,-0.023239836,9.767344,0
8,985.5660400390625,-4.8308836994692683E-4,-0.0017721790354698896,9.310338646173477E-5,-5.5405473709106445,23.902496337890625,-36.04823684692383,-0.006880082190036774,0.019330903887748718,0.0524444580078125,0.062370956,-0.15420051,9.756505,0.0020245723,-0.023456663,9.757896,0
8,985.6094970703125,-0.0015487427590414882,6.247272831387818E-4,2.260936889797449E-4,-5.390544891357422,23.14708709716797,-35.48826217651367,0.007539317011833191,0.0048081278800964355,0.05717277526855469,0.04807216,-0.13990183,9.754141,-0.008806864,-0.0061217993,9.755258,0
9,985.5584106445312,1.8191929848399013E-4,-3.0731482547707856E-4,-4.0389830246567726E-5,-5.315379619598389,23.691577911376953,-35.53170394897461,-0.016145408153533936,0.01439674198627472,0.06190299987792969,0.07440162,-0.15896912,9.749411,0.012608295,-0.030542403,9.750936,0
9,985.5744018554688,5.810020375065506E-4,-1.7409332212992013E-4,-1.737152924761176E-4,-5.888329029083252,24.103378295898438,-35.62147903442383,-0.0018163993954658508,0.018915951251983643,0.024019241333007812,0.057712853,-0.14228709,9.7683525,-3.2378733E-4,-0.010137707,9.769555,0
9,985.5670166015625,-2.1833648497704417E-4,-8.398195495828986E-4,-5.733566358685493E-4,-5.290186405181885,23.978992462158203,-36.24526596069336,-0.0061686038970947266,0.014127910137176514,0.05241870880126953,0.055363536,-0.14228813,9.754152,-0.0027840268,-0.009735584,9.755342,0
9,985.5927124023438,-4.850435070693493E-4,-5.734402220696211E-4,-7.066822145134211E-4,-5.1958088874816895,23.69866180419922,-36.32039260864258,0.00815676525235176,0.0233335942029953,0.06661510467529297,0.057793975,-0.16135533,9.756523,-0.004926946,-0.02843687,9.757987,0
9,985.5850219726562,-7.517504272982478E-4,2.2557092597708106E-4,2.2525578970089555E-4,-5.691123008728027,23.813934326171875,-35.63492965698242,0.01322251558303833,0.018228158354759216,0.04766654968261719,0.048274994,-0.15420641,9.758894,-0.012729535,-0.018910572,9.760205,0
9,985.5699462890625,4.680616257246584E-5,-0.0012391027994453907,6.245620315894485E-4,-5.574733734130859,23.712158203125,-35.56992721557617,-0.015607114881277084,0.008515939116477966,0.047661781311035156,0.069824696,-0.15182425,9.761264,0.009054637,-0.021210387,9.762668,0
9,985.5751953125,-4.862166242673993E-4,6.251716404221952E-4,2.2492068819701672E-4,-5.489894390106201,23.897201538085938,-35.9787483215332,-0.010636921972036362,0.02717798948287964,0.042916297912597656,0.06508541,-0.1518252,9.766003,0.004008895,-0.019713,9.767379,0
9,985.5684204101562,-7.52923428080976E-4,9.2603440862149E-5,6.242268718779087E-4,-5.924581527709961,24.27985382080078,-35.164310455322266,-0.010506760329008102,0.02186766266822815,0.03816986083984375,0.06751591,-0.15659268,9.7707405,0.005157532,-0.024289772,9.772196,0
9,985.5725708007812,-0.0012859463458880782,-0.001105754403397441,9.142747148871422E-5,-5.82205057144165,23.63860321044922,-35.52751541137695,0.003928568214178085,0.012161791324615479,0.05710029602050781,0.053217083,-0.15659375,9.763643,-0.008936403,-0.020772383,9.765018,0
9,985.5936889648438,4.524200630839914E-5,-4.042757791467011E-5,-4.1898107156157494E-5,-5.993659019470215,23.741256713867188,-35.43008804321289,-0.004671748727560043,0.017205774784088135,0.042980194091796875,0.06189722,-0.15418889,9.76593,-2.0005926E-4,-0.02076757,9.767322,0
9,985.5584716796875,0.0013639660319313407,5.420715024229139E-5,-1.5361892292276025E-4,-6.093581676483154,23.647403717041016,-34.94729232788086,0.004970744252204895,0.007708489894866943,0.042980194091796875,0.05473137,-0.13988931,9.761196,-0.003571745,-0.0053189844,9.76235,0
9,985.5917358398438,3.0404177960008383E-4,-7.456072489731014E-4,-2.8448860393837094E-4,-5.542069435119629,23.901020050048828,-35.9709358215332,-0.004127219319343567,0.0029358118772506714,0.03824329376220703,0.061904877,-0.13750614,9.770664,0.0034834333,-0.0043345243,9.771826,0
9,985.587158203125,1.7084716819226742E-4,-7.456012535840273E-4,5.14443323481828E-4,-5.4793782234191895,23.801597595214844,-35.8208122253418,4.254579544067383E-4,0.022101417183876038,0.05718231201171875,0.061908722,-0.15657239,9.749361,-8.2086585E-4,-0.023378804,9.750786,0
9,985.5637817382812,-2.286635572090745E-4,8.52299970574677E-4,-1.8204213120043278E-5,-5.931373119354248,24.11603546142578,-36.07749557495117,0.005141597241163254,0.012272477149963379,0.03824138641357422,0.052352875,-0.15180598,9.782501,-0.008753017,-0.015843645,9.783802,0
9,985.5718383789062,-3.6185799399390817E-4,-2.12957602343522E-4,2.4809595197439194E-4,-5.457664489746094,23.348011016845703,-36.10554885864258,0.010012496262788773,0.01208522915840149,0.02876758575439453,0.049966812,-0.14942284,9.777767,-0.010283722,-0.013094783,9.779023,0
9,985.6019897460938,-3.618948394432664E-4,-6.124254432506859E-4,1.1492223711684346E-4,-4.910994529724121,23.3853759765625,-35.49911880493164,-0.018336020410060883,0.01655803620815277,0.047699928283691406,0.06669992,-0.16133924,9.763565,0.0028598476,-0.028057367,9.765085,0
9,985.6019897460938,-3.618948394432664E-4,-6.124254432506859E-4,1.1492223711684346E-4,-5.540684700012207,23.79657745361328,-35.34916305541992,0.010125845670700073,0.02608811855316162,0.0287628173828125,0.059534073,-0.15180631,9.773034,-0.0015061311,-0.017102748,9.77438,0
9,985.5897216796875,4.3701607501134276E-4,-7.978775829542428E-5,5.143804010003805E-4,-4.976048469543457,23.219486236572266,-36.09526062011719,-0.004925712943077087,0.011537536978721619,0.038231849670410156,0.059537828,-0.14942308,9.7683,-2.0479225E-4,-0.014741674,9.769615,0
9,985.5896606445312,-9.565229993313551E-5,9.854817762970924E-4,2.480486873537302E-4,-5.020315647125244,23.862804412841797,-36.04909896850586,-0.0049868300557136536,0.03043152391910553,0.07136917114257812,0.057151765,-0.15657301,9.742261,-0.0043642204,-0.021385297,9.743663,0
9,985.5621337890625,1.7059006495401263E-4,4.528618883341551E-4,-1.829856773838401E-5,-5.214807033538818,22.31079864501953,-35.543392181396484,-0.004959374666213989,0.0016448646783828735,0.0666341781616211,0.059545457,-0.14942332,9.754097,-3.8832054E-4,-0.014601961,9.755412,0
9,985.5678100585938,-2.289203112013638E-4,-3.460797597654164E-4,7.80633301474154E-4,-5.6519646644592285,23.534481048583984,-35.547630310058594,-0.0052868276834487915,0.03448353707790375,0.028751373291015625,0.057159364,-0.16848959,9.765934,-0.0067865252,-0.031991214,9.767501,0
9,985.5930786132812,-2.289570984430611E-4,3.197158221155405E-4,1.1482782429084182E-4,-5.162196159362793,23.045032501220703,-35.82541275024414,0.004646874964237213,0.005953282117843628,0.04768848419189453,0.059553027,-0.14942347,9.754097,-1.9916147E-4,-0.014150023,9.755413,0
9,985.5758056640625,-9.58359451033175E-5,-4.7922582598403096E-4,2.479700488038361E-4,-5.101569175720215,23.312423706054688,-35.69643783569336,8.613988757133484E-5,0.020098641514778137,0.05715179443359375,0.052387178,-0.15180682,9.763567,-0.007845452,-0.014641717,9.764873,0
9,985.5809326171875,-4.953463212586939E-4,-3.4606194822117686E-4,-2.8467742959037423E-4,-5.248420238494873,22.964431762695312,-36.03836441040039,-0.004857704043388367,0.005565807223320007,0.038211822509765625,0.059560657,-0.14704038,9.758833,2.7707033E-4,-0.011364862,9.760116,0
9,985.5936889648438,-2.2906734375283122E-4,1.865757949417457E-4,7.805703789927065E-4,-6.001673698425293,24.20809555053711,-35.84109115600586,-0.004643559455871582,-0.00875680148601532,0.0524139404296875,0.06195438,-0.13512404,9.7612,0.0050060526,-2.52828E-4,9.76233,0
10,985.5990600585938,-9.594601579010487E-5,-2.1289206051733345E-4,6.47396722342819E-4,-5.334048271179199,24.148109436035156,-35.401573181152344,0.00441361591219902,0.010223358869552612,0.038211822509765625,0.052398562,-0.14942385,9.758834,-0.0068485495,-0.012127891,9.760108,0
10,985.5811157226562,-3.622985095717013E-4,0.0013850091490894556,3.810650669038296E-4,-5.454598426818848,23.771259307861328,-34.437129974365234,-1.3449788093566895E-4,0.02431735396385193,0.057145118713378906,0.0595721,-0.15180714,9.7541,-6.477684E-4,-0.015792385,9.75545,0
10,985.5768432617188,4.366122302599251E-4,-0.0010118278441950679,-2.847402938641608E-4,-5.421252250671387,23.69774627685547,-35.43876266479492,0.004727121442556381,0.024193137884140015,0.0240020751953125,0.0547961,-0.15895708,9.77067,-0.006962007,-0.021334574,9.77209,0
10,985.5897216796875,-6.286879652179778E-4,5.344166129361838E-5,2.4787563597783446E-4,-5.381114959716797,23.788063049316406,-35.5272216796875,-0.004612289369106293,0.014421477913856506,0.05713653564453125,0.064359546,-0.15419067,9.746999,0.0033559743,-0.01884526,9.748413,0
10,985.5820922851562,3.706524148583412E-5,-0.0012781318509951234,-1.5161390183493495E-4,-5.1779584884643555,23.398590087890625,-35.150814056396484,0.004867024719715118,0.009473830461502075,0.04766654968261719,0.057193637,-0.15657403,9.763569,-0.003992941,-0.019230992,9.764972,0
10,985.5594482421875,-4.956034827046096E-4,5.345359386410564E-5,3.810021444223821E-4,-5.455301284790039,23.613327026367188,-35.6595344543457,-0.009193308651447296,0.02379666268825531,0.04293060302734375,0.06675705,-0.15419085,9.758836,0.0054126196,-0.019015878,9.760263,0
10,985.5723266601562,4.364654887467623E-4,5.345956014934927E-5,-2.848031581379473E-4,-5.235540866851807,23.13414764404297,-35.43440628051758,-0.004238467663526535,0.014156162738800049,0.033458709716796875,0.06676084,-0.16134073,9.773039,0.0037660096,-0.025614649,9.774566,0
10,985.6102294921875,3.695505438372493E-5,-7.969241414684802E-5,-1.5166105004027486E-4,-5.4418792724609375,23.414752960205078,-34.95711898803711,0.005374304950237274,0.028453722596168518,0.042926788330078125,0.050035357,-0.16134085,9.761204,-0.012717767,-0.022076473,9.762632,0
10,985.5748291015625,3.691815072670579E-5,-3.4600228536874056E-4,2.4779699742794037E-4,-5.363669395446777,23.962188720703125,-35.15517807006836,-0.00428275391459465,0.023529812693595886,0.03818988800048828,0.05242905,-0.15895768,9.754103,-0.009811141,-0.02034232,9.755511,0
10,985.5570678710938,4.36355359852314E-4,-3.459963481873274E-4,5.140971625223756E-4,-5.359402656555176,23.334476470947266,-35.81196212768555,-0.008887752890586853,0.018557190895080566,0.06659317016601562,0.061992466,-0.15657447,9.749368,8.462928E-5,-0.019898117,9.750801,0
10,985.5679321289062,-2.294708974659443E-4,-2.1283248497638851E-4,-6.843399605713785E-4,-5.757156848907471,23.278274536132812,-36.05531692504883,2.2029131650924683E-4,0.018464460968971252,0.028717994689941406,0.054826587,-0.15895785,9.768307,-0.007373005,-0.020247102,9.769731,0
10,985.5723876953125,3.0312384478747845E-4,0.0011187528725713491,-1.8566090147942305E-5,-5.862188339233398,23.548294067382812,-35.43906021118164,7.710233330726624E-5,0.018464669585227966,0.04765605926513672,0.059610188,-0.14942484,9.761205,2.6958063E-5,-0.012261525,9.762524,0
10,985.56591796875,-3.627023543231189E-4,0.0011187588097527623,2.477340749464929E-4,-5.128689289093018,23.49774169921875,-35.70309829711914,1.1799857020378113E-4,0.03716045618057251,0.04765129089355469,0.054834187,-0.16134135,9.758838,-0.0070965253,-0.02257967,9.760296,0
10,985.5782470703125,-3.627390833571553E-4,-0.0010117621859535575,6.471921224147081E-4,-5.406468391418457,22.97442626953125,-35.9376106262207,-0.0046899691224098206,0.02753467857837677,0.0523834228515625,0.059970498,-0.16135012,9.765972,-0.0025596917,-0.02342023,9.767461,0
10,985.5885009765625,-9.645993122830987E-5,1.8666520190890878E-4,5.140185239724815E-4,-5.731122016906738,23.82953643798828,-36.24555969238281,0.009253744035959244,0.013280302286148071,0.047580718994140625,0.055565,-0.14944293,9.75417,-0.0043621045,-0.010964036,9.755467,0
10,985.5863647460938,5.654112319462001E-4,-7.478220504708588E-4,5.090708145871758E-4,-5.607262134552002,23.62921142578125,-35.86800003051758,-0.004997223615646362,0.003775268793106079,0.038109779357910156,0.055592597,-0.14944352,9.756539,-0.004520856,-0.0109104365,9.757834,0
10,985.5609130859375,2.988295746035874E-4,-3.4830509684979916E-4,-1.5683274250477552E-4,-5.677020072937012,23.352985382080078,-35.53314971923828,0.004793204367160797,0.02764718234539032,0.04757499694824219,0.053230256,-0.16374387,9.751808,-0.009907771,-0.024517864,9.753293,0
10,985.5761108398438,3.22481500916183E-5,-4.8141993465833366E-4,-2.378865610808134E-5,-5.214914321899414,23.417144775390625,-35.91604995727539,0.009171079844236374,0.0228671133518219,0.05704212188720703,0.050867915,-0.1542115,9.763647,-0.010060379,-0.014443859,9.764981,0
10,985.5607299804688,6.975064752623439E-4,3.176139434799552E-4,-4.234900698065758E-4,-5.63286018371582,23.816001892089844,-35.951969146728516,-7.294155657291412E-4,0.01822948455810547,0.04283905029296875,0.058065176,-0.15182881,9.761282,-0.002228044,-0.013991475,9.762627,0
10,985.5607299804688,6.975064752623439E-4,3.176139434799552E-4,-4.234900698065758E-4,-5.63286018371582,23.816001892089844,-35.951969146728516,-0.005463939160108566,0.00867791473865509,0.02390003204345703,0.055702835,-0.15182953,9.770754,-0.0046456493,-0.013268828,9.772084,0
10,985.5947875976562,6.97240699082613E-4,3.17657133564353E-4,-1.572881592437625E-4,-5.701777458190918,23.803619384765625,-35.09379196166992,0.004170961678028107,0.027623862028121948,0.042832374572753906,0.055730402,-0.15898006,9.761288,-0.0061961506,-0.02027084,9.762718,0
10,985.5643920898438,-3.682882525026798E-4,-4.812474362552166E-4,3.752298071049154E-4,-5.630496501922607,24.081321716308594,-35.50595474243164,-0.005366921424865723,0.013258233666419983,0.038094520568847656,0.06292769,-0.14944763,9.76129,0.0030706879,-0.012482852,9.7626295,0
10,985.5822143554688,-1.0223826393485069E-4,-8.173045353032649E-5,-1.5751586761325598E-4,-5.128146171569824,23.12944793701172,-35.60464859008789,-0.010103777050971985,0.02318313717842102,0.04756641387939453,0.058175445,-0.15183152,9.7683935,-0.0021997727,-0.014069721,9.769737,0
10,985.5545043945312,0.0013484549708664417,-1.949902652995661E-4,3.728375304490328E-6,-5.087871551513672,23.32567596435547,-36.39217758178711,-5.201473832130432E-4,-6.570965051651001E-4,0.05703163146972656,0.06059289,-0.14706571,9.758927,0.0010892954,-0.010043219,9.76022,0
11,985.5874633789062,-3.8286391645669937E-4,3.376845852471888E-4,2.699303440749645E-4,-5.383179664611816,24.154876708984375,-35.54836654663086,0.02316887676715851,-0.0010206997394561768,0.057025909423828125,0.027161837,-0.14468314,9.751828,-0.03078841,-7.112324E-5,9.752892,0
11,985.5828857421875,-3.831295180134475E-4,-6.174607551656663E-5,-1.2965727364644408E-4,-5.4086713790893555,23.235328674316406,-35.25967788696289,0.0228925459086895,0.013419285416603088,0.04282379150390625,0.04391873,-0.14468373,9.766033,-0.014277048,-0.0037950575,9.767193,0
11,985.5828857421875,-3.831295180134475E-4,-6.174607551656663E-5,-1.2965727364644408E-4,-5.543591499328613,23.899547576904297,-35.89362716674805,0.0039067454636096954,0.023211732506752014,0.019151687622070312,0.05111599,-0.15660079,9.78024,-0.010136407,-0.01702781,9.781607,0
11,985.5880126953125,8.15026112832129E-4,-1.9486081146169454E-4,1.365446951240301E-4,-5.467339992523193,23.70745849609375,-35.740169525146484,-5.272515118122101E-4,0.023322030901908875,0.05702400207519531,0.05831325,-0.15421827,9.758938,-0.0029099882,-0.01664102,9.760316,0
11,985.58544921875,6.816026871092618E-4,7.149811426643282E-5,1.364309573546052E-4,-5.474811553955078,23.806011199951172,-36.0527229309082,0.009054996073246002,0.0042723119258880615,0.057021141052246094,0.04639131,-0.15183564,9.756573,-0.013970148,-0.011837885,9.757847,0
11,985.5751953125,1.4870509039610624E-4,-0.0013931960565969348,6.689487490803003E-4,-5.243556022644043,23.600982666015625,-35.84540557861328,0.00893496721982956,0.013544276356697083,0.052280426025390625,0.04163912,-0.14706971,9.761311,-0.017467292,-0.0058624595,9.762489,0
11,985.5679931640625,-2.5130005087703466E-4,-1.9468834216240793E-4,2.6924721896648407E-4,-5.336166858673096,22.882362365722656,-36.17401123046875,0.018270093947649002,0.023163527250289917,0.042812347412109375,0.044056565,-0.151837,9.766047,-0.01607592,-0.010919914,9.767308,0
11,985.5679931640625,4.142240504734218E-4,6.043024477548897E-4,1.3597554061561823E-4,-6.0231428146362305,23.6612548828125,-35.88277053833008,0.008925877511501312,0.013583987951278687,0.042807579040527344,0.044084102,-0.14707108,9.75658,-0.015313841,-0.006006956,9.757775,0
11,985.5505981445312,-5.181471351534128E-4,-5.940759438090026E-4,-3.9677019231021404E-4,-6.073497772216797,24.298683166503906,-35.52739334106445,0.023199159651994705,0.013219475746154785,0.042799949645996094,0.029772222,-0.15183829,9.770786,-0.03023376,-0.0067187697,9.771962,0
11,985.5505981445312,-0.0011842024978250265,-4.6087487135082483E-4,4.020636260975152E-4,-5.707726955413818,23.903644561767578,-35.4836540222168,0.008741941303014755,0.008188754320144653,0.033324241638183594,0.04891908,-0.15183903,9.76132,-0.011362327,-0.011328384,9.762611,0
11,985.5735473632812,-1.1920469114556909E-4,2.049579779850319E-4,-2.638399600982666E-4,-5.714656352996826,23.6339111328125,-35.697757720947266,0.01832931488752365,0.00816740095615387,0.04279136657714844,0.041776896,-0.15660627,9.751854,-0.019458525,-0.014392614,9.753171,0
11,985.54345703125,5.463192937895656E-4,7.184316928032786E-5,-1.3079593190923333E-4,-5.513426780700684,23.717174530029297,-36.04157638549805,0.003622915595769882,0.02739870548248291,0.03805732727050781,0.048974156,-0.15184031,9.761326,-0.010981424,-0.0116163045,9.762616,0
11,985.5514526367188,8.123696316033602E-4,3.3820216776803136E-4,-2.640676684677601E-4,-5.506498336791992,23.98691177368164,-35.82746887207031,0.01299581304192543,0.027187779545783997,0.042786598205566406,0.044221938,-0.15899085,9.763695,-0.016977705,-0.017365292,9.76506,0
11,985.54638671875,-1.2000184506177902E-4,-1.9438641902524978E-4,-3.973395796492696E-4,-5.3870649337768555,23.888080596923828,-35.91707992553711,-0.0016842745244503021,0.022148236632347107,0.03331565856933594,0.053809106,-0.14945848,9.773166,-0.005135881,-0.009860203,9.774449,0
11,985.5746459960938,-2.5342521257698536E-4,0.0011372361332178116,2.0205043256282806E-6,-5.491851806640625,23.157669067382812,-35.62723922729492,0.008491098880767822,0.012794509530067444,0.04755973815917969,0.04380983,-0.15421422,9.766024,-0.016118787,-0.012317792,9.767319,0
11,985.5771484375,1.4296791050583124E-5,-8.603613241575658E-4,-5.300084594637156E-4,-5.390109062194824,23.88513946533203,-35.76247024536133,0.003948293626308441,0.017460331320762634,0.05228996276855469,0.053378284,-0.15659772,9.7612915,-0.007505186,-0.016910017,9.762675,0
11,985.5823974609375,2.852311299648136E-4,-5.967725301161408E-4,-9.299575467593968E-4,-5.0387396812438965,23.31890869140625,-36.24538803100586,0.01829894259572029,-0.0016445964574813843,0.03335094451904297,0.0462175,-0.13514842,9.766026,-0.009932637,0.0055973977,9.767064,0
11,985.58740234375,1.5198756591416895E-4,-4.636006779037416E-4,-5.305205122567713E-4,-5.335325717926025,23.146209716796875,-35.65068435668945,0.008349217474460602,-0.00616125762462616,0.057028770446777344,0.051006168,-0.1446817,9.75419,-0.0069427267,-0.0051218867,9.755393,0
11,985.5475463867188,5.513757932931185E-4,3.353608772158623E-4,6.678643403574824E-4,-5.46763801574707,23.07532501220703,-36.165042877197266,0.009070709347724915,0.013138413429260254,0.0522918701171875,0.053404927,-0.16136487,9.758926,-0.009193383,-0.0218599,9.76038,0
11,985.5751953125,4.181322001386434E-4,-7.298886775970459E-4,4.015117883682251E-4,-5.728216171264648,23.72657012939453,-35.70109176635742,0.01819755509495735,0.017824649810791016,0.04282188415527344,0.046244144,-0.15659855,9.763661,-0.014715916,-0.015528992,9.765004,0
11,985.5449829101562,1.5173081192187965E-4,3.353887004777789E-4,2.683171187527478E-4,-5.54525089263916,23.792160034179688,-35.11724853515625,0.004094753414392471,0.0034636110067367554,0.05702400207519531,0.055812627,-0.14468242,9.754192,-0.0028263126,-0.0061438233,9.755423,0
11,985.5803833007812,1.8487247871235013E-5,-9.96176851913333E-4,-1.311933738179505E-4,-5.420708656311035,23.329456329345703,-35.34031677246094,0.023483823984861374,0.031741365790367126,0.04281425476074219,0.039092153,-0.16374888,9.766029,-0.023595998,-0.020458281,9.767429,0
11,985.5527954101562,-1.1475625797174871E-4,-3.3037323737517E-4,5.345597164705396E-4,-5.500845909118652,23.25475311279297,-35.86248779296875,0.004221286624670029,0.017398178577423096,0.047547340393066406,0.051050603,-0.15183266,9.763663,-0.009185053,-0.011489868,9.764965,0
11,985.557861328125,-2.4799982202239335E-4,2.0227233471814543E-4,8.008388103917241E-4,-5.28355598449707,23.616592407226562,-36.456031799316406,0.0043656714260578156,0.0032850950956344604,0.047547340393066406,0.051059455,-0.15421613,9.763664,-0.009731587,-0.0140821785,9.765001,0
11,985.5631103515625,9.502503089606762E-4,6.91422465024516E-5,-2.6449799770489335E-4,-5.574872016906738,23.606239318847656,-34.870849609375,0.004647932946681976,0.013361796736717224,0.061756134033203125,0.05584812,-0.15183304,9.754196,-0.0047752503,-0.013056397,9.7555275,0
12,985.5631103515625,9.502503089606762E-4,6.91422465024516E-5,-2.6449799770489335E-4,-5.574872016906738,23.606239318847656,-34.870849609375,-9.685009717941284E-5,0.008255183696746826,0.038079261779785156,0.05824691,-0.1565999,9.763666,-0.0033302698,-0.01812613,9.76508,0
12,985.5784912109375,1.80593051481992E-5,-4.63475618744269E-4,-1.3137684436514974E-4,-5.153010368347168,24.686431884765625,-35.5379524230957,-3.406889736652374E-4,-0.0010832399129867554,0.05702018737792969,0.05825579,-0.14468373,9.751831,-8.742418E-4,-0.0068496317,9.753076,0
12,985.5816040039062,5.506053566932678E-4,4.6864384785294533E-4,-3.9772939635440707E-4,-5.641012191772461,24.176925659179688,-35.66389465332031,-3.197677433490753E-4,0.018057122826576233,0.042817115783691406,0.0487051,-0.15183379,9.77787,-0.012066508,-0.011172727,9.779156,0
12,985.5564575195312,-1.1526994057931006E-4,2.0234186376910657E-4,2.68023693934083E-4,-5.982163906097412,24.015411376953125,-35.44790267944336,-0.005385894328355789,0.013075366616249084,0.05228233337402344,0.058273554,-0.15421723,9.763668,-0.0026655123,-0.015897915,9.765046,0
12,985.5974731445312,-1.1535550584085286E-4,3.3551373053342104E-4,-1.314868568442762E-4,-5.427202224731445,23.797771453857422,-35.82862091064453,0.008881792426109314,0.0034332722425460815,0.052280426025390625,0.048722833,-0.14706759,9.7542,-0.010465382,-0.0066516697,9.755423,0
12,985.5564575195312,-1.1544107110239565E-4,6.921168824192137E-5,-3.978394088335335E-4,-5.993520736694336,23.847171783447266,-36.12916946411133,0.023361481726169586,0.027154892683029175,0.061745643615722656,0.04156202,-0.1589842,9.749467,-0.0203479,-0.016474217,9.750817,0
12,985.57177734375,1.507891865912825E-4,-3.3024814911186695E-4,4.010715347249061E-4,-5.995723724365234,24.108074188232422,-35.451236724853516,0.004066411405801773,-0.0015241950750350952,0.01913738250732422,0.048740596,-0.14468478,9.780241,-0.009751344,-0.0040694326,9.781429,0
12,985.5440063476562,4.1701950249262154E-4,-3.3023429568856955E-4,-5.310705746524036E-4,-5.042762756347656,22.946205139160156,-35.91501998901367,-0.005498688668012619,0.04640181362628937,0.04281139373779297,0.05591917,-0.16136797,9.766039,-0.006474182,-0.022294983,9.767505,0
12,985.5878295898438,1.506180560681969E-4,-6.390448834281415E-5,-2.6479148073121905E-4,-5.391088485717773,23.51537322998047,-35.58671188354492,0.004203431308269501,0.012901395559310913,0.052275657653808594,0.051148295,-0.15898491,9.761305,-0.010665581,-0.018855348,9.76271,0
12,985.54638671875,2.836903149727732E-4,-4.6336447121575475E-4,-5.311441491357982E-4,-5.316220760345459,23.427730560302734,-36.05502700805664,0.004182346165180206,0.017437517642974854,0.0570068359375,0.055936933,-0.14945199,9.751837,-0.0039388128,-0.010474354,9.753136,0
12,985.5598754882812,-3.8218501140363514E-4,4.6875502448529005E-4,8.003986440598965E-4,-5.6269097328186035,23.715980529785156,-35.56211471557617,0.00915054976940155,0.013032615184783936,0.061743736267089844,0.051165998,-0.15660198,9.749471,-0.010513764,-0.016670316,9.750843,0
12,985.5726928710938,0.0013487826799973845,-5.9649464674294E-4,2.677302109077573E-4,-5.662481307983398,23.630088806152344,-35.705570220947266,-4.590339958667755E-4,0.01793685555458069,0.03333854675292969,0.04878503,-0.1494524,9.75894,-0.011142056,-0.009242862,9.760196,0
12,985.5751953125,3.748956951312721E-4,2.1540411398746073E-4,-1.2805918231606483E-4,-5.533074378967285,23.803939819335938,-35.73568344116211,0.009514618664979935,0.01796792447566986,0.06174278259277344,0.046403974,-0.15183593,9.754208,-0.014364291,-0.011088476,9.755483,0
12,985.5726928710938,-2.4663808289915323E-5,-0.0012493194080889225,-6.60727615468204E-4,-5.539705753326416,24.166339874267578,-35.52492141723633,0.009039130061864853,0.027279973030090332,0.07120990753173828,0.047147572,-0.16377057,9.747173,-0.016280849,-0.022506222,9.748623,0
12,985.5527954101562,-5.573810776695609E-4,2.1543187904171646E-4,2.71341297775507E-4,-6.170238494873047,24.31369400024414,-35.898284912109375,0.0026220977306365967,-0.0015182197093963623,0.05213165283203125,0.055105537,-0.14949025,9.75198,-0.004950123,-0.0103043765,9.753274,0
12,985.5527954101562,-5.573810776695609E-4,2.1543187904171646E-4,2.71341297775507E-4,-6.093443870544434,23.753318786621094,-35.6463737487793,0.0075417086482048035,0.021644234657287598,0.0284423828125,0.04561439,-0.16140829,9.770924,-0.016597709,-0.019041061,9.772331,0
12,985.5888061523438,-2.9897058266215026E-4,3.4664064878597856E-4,5.296898307278752E-4,-5.356901168823242,23.705711364746094,-36.06502151489258,0.016853690147399902,0.012262925505638123,0.05684661865234375,0.048072755,-0.144727,9.74489,-0.010427199,-0.003724277,9.746078,0
12,985.5785522460938,9.566973312757909E-5,3.47425346262753E-4,-1.381714246235788E-4,-5.021838188171387,23.86133575439453,-35.9717903137207,0.011826366186141968,0.02166830003261566,0.047369956970214844,0.052921057,-0.15664504,9.763834,-0.007825624,-0.016297892,9.765217,0
12,985.5606079101562,-5.707797827199101E-4,3.475323901511729E-4,5.273355054669082E-4,-5.326193809509277,23.155048370361328,-36.11452102661133,0.016198936849832535,0.011889487504959106,0.05209541320800781,0.041040003,-0.15188025,9.761475,-0.018283827,-0.008750975,9.762723,0
12,985.5609741210938,2.2750793141312897E-4,8.802712545730174E-4,7.933685556054115E-4,-5.430544853210449,23.162689208984375,-36.0988883972168,-0.007873516529798508,0.007211223244667053,0.05209159851074219,0.060227662,-0.14949866,9.759113,9.990465E-4,-0.010803252,9.760438,0
12,985.5405883789062,-1.726258487906307E-4,-1.848850370151922E-4,-6.716515053994954E-4,-5.515928268432617,23.34593963623047,-35.788516998291016,0.0013144537806510925,0.01157572865486145,0.0473480224609375,0.053126454,-0.15426685,9.756752,-0.006627366,-0.013554409,9.758104,0
12,985.5790405273438,-3.064436896238476E-4,8.804855751805007E-4,-6.144808139652014E-6,-5.349130630493164,24.239295959472656,-35.32760238647461,0.0014573484659194946,0.011266142129898071,0.05206871032714844,0.060364604,-0.14473544,9.761494,0.0025170203,-0.005451426,9.762752,0
12,985.5614624023438,-5.734195001423359E-4,-3.178287297487259E-4,2.598883002065122E-4,-5.564080238342285,23.722469329833984,-36.11106491088867,-0.003442373126745224,0.006417810916900635,0.061532020568847656,0.05087346,-0.14950366,9.747295,-0.0077730212,-0.008144304,9.748569,0
12,985.5590209960938,-5.740794586017728E-4,2.1491014922503382E-4,-6.710237357765436E-6,-5.564080238342285,23.722469329833984,-36.11106491088867,-0.0038416944444179535,0.030219510197639465,0.047324180603027344,0.060501516,-0.16618825,9.766239,-0.0018619616,-0.026316866,9.767805,0
13,985.5620727539062,7.568401051685214E-4,6.14491174928844E-4,2.5932269636541605E-4,-5.82813835144043,23.632713317871094,-35.218292236328125,0.005452007055282593,0.006487905979156494,0.052051544189453125,0.048620462,-0.14950709,9.761511,-0.009560946,-0.007178709,9.76277,0
13,985.5665283203125,-1.759253500495106E-4,3.482823958620429E-4,3.921978350263089E-4,-5.647941589355469,23.907188415527344,-35.877994537353516,-0.004276510328054428,0.001733824610710144,0.04731559753417969,0.05824858,-0.14712547,9.761517,4.922878E-4,-0.0074844062,9.762797,0
13,985.5416259765625,4.892043070867658E-4,4.815474385395646E-4,2.587570925243199E-4,-5.802540302276611,23.4459228515625,-35.13431930541992,0.00542764738202095,0.011234864592552185,0.04730701446533203,0.05353725,-0.15427692,9.759157,-0.006054448,-0.01327239,9.760513,0
13,985.5728759765625,-1.7724515055306256E-4,-5.83608984015882E-4,6.579480832442641E-4,-5.50801944732666,23.98543930053711,-35.75016784667969,3.3452361822128296E-4,0.005908757448196411,0.056763648986816406,0.053605676,-0.14236225,9.754429,-0.0027605388,-0.001350522,9.755615,0
13,985.5723266601562,-8.436947828158736E-4,2.1544577612075955E-4,-5.407560965977609E-4,-5.231517791748047,23.506858825683594,-35.764774322509766,0.001012701541185379,-0.0034660547971725464,0.05675506591796875,0.051284254,-0.13521408,9.761536,-0.00427028,0.0062229335,9.762605,0
13,985.5548095703125,-4.540712689049542E-5,-0.002181289717555046,-8.407281711697578E-6,-5.237606048583984,23.500961303710938,-35.45555114746094,0.010679874569177628,-0.003347143530845642,0.06148242950439453,0.056132525,-0.15189867,9.752074,-0.0032696836,-0.011330143,9.753412,0
13,985.5550537109375,2.2024897043593228E-4,-5.065585719421506E-5,1.244678278453648E-4,-5.092437267303467,23.321258544921875,-36.1602668762207,-0.003724444657564163,0.020123913884162903,0.047267913818359375,0.05620098,-0.15666695,9.76865,-0.0041223355,-0.0154134035,9.770056,0
13,985.5175170898438,8.643112960271537E-5,8.260922913905233E-5,-8.972885552793741E-6,-5.418208122253418,23.700695037841797,-35.593379974365234,0.010409630835056305,0.020120441913604736,0.033059120178222656,0.046709836,-0.15428539,9.763922,-0.012870427,-0.011064276,9.765239,0
13,985.54833984375,8.577122935093939E-5,-3.167574177496135E-4,9.228498674929142E-4,-5.4688615798950195,23.70598602294922,-35.66286849975586,-0.00388915091753006,0.02467159926891327,0.06145668029785156,0.0587278,-0.16143687,9.759194,-0.0028009564,-0.020507619,9.760684,0
13,985.55322265625,-4.475203750189394E-4,-5.033446359448135E-5,2.5677733356133103E-4,-5.210891246795654,23.789852142333984,-36.24641799926758,8.897222578525543E-4,-0.013486772775650024,0.037776947021484375,0.05640638,-0.13283922,9.771037,0.0010797791,0.008128285,9.772099,0
13,985.540771484375,-1.818643359001726E-4,-1.8338527297601104E-4,-9.821320418268442E-6,-5.111105918884277,23.777786254882812,-36.03013229370117,8.898153901100159E-4,0.02440628409385681,0.04723548889160156,0.056474835,-0.16620673,9.75684,-0.0062143784,-0.024382323,9.758387,0
13,985.5509643554688,-1.825243525672704E-4,6.156694726087153E-4,5.225276108831167E-4,-5.567124366760254,23.719520568847656,-35.95645523071289,-0.004301954060792923,0.00987917184829712,0.04249382019042969,0.0589332,-0.1566753,9.754478,-0.0012857523,-0.015540332,9.755902,0
13,985.5660400390625,-3.163421351928264E-4,4.8261863412335515E-4,1.227709581144154E-4,-5.227089881896973,23.405357360839844,-35.297611236572266,-0.013867642730474472,0.019438952207565308,0.04248809814453125,0.070951164,-0.16144358,9.768688,0.009334667,-0.022646368,9.770249,0
13,985.5611572265625,2.1562978508882225E-4,-4.4937978964298964E-4,-5.433016340248287E-4,-5.471905708312988,23.703041076660156,-35.50825881958008,4.678070545196533E-4,0.028974324464797974,0.04721546173095703,0.054290324,-0.16382857,9.773429,-0.007251881,-0.0212885,9.774926,0
13,985.5687866210938,3.481278254184872E-4,8.335908933077008E-5,-8.099000551737845E-4,-4.986159324645996,22.84088134765625,-35.4556770324707,3.592297434806824E-5,0.005064725875854492,0.05194377899169922,0.06087774,-0.15189789,9.756805,0.0020313468,-0.011269614,9.75817,0
13,985.56689453125,-3.1677712104283273E-4,8.82163061760366E-4,-5.432051257230341E-4,-5.316901206970215,23.690105438232422,-35.454402923583984,-0.008087124675512314,0.005064427852630615,0.05205821990966797,0.057866573,-0.1423495,9.752014,9.912178E-4,-0.0013557374,9.753226,0
13,985.5795288085938,4.926045658066869E-4,-5.842680693604052E-4,-6.101618055254221E-6,-5.18887996673584,23.968402862548828,-36.10628890991211,0.00616801530122757,-0.004569217562675476,0.033118247985839844,0.055493176,-0.14473318,9.763851,-0.0017960481,-0.0029122978,9.765081,0
13,985.5391845703125,-1.733441895339638E-4,3.4786330070346594E-4,-6.169837433844805E-6,-5.405190467834473,23.976322174072266,-35.68849563598633,9.801201522350311E-4,0.009762868285179138,0.047324180603027344,0.060289472,-0.14950015,9.768587,0.0020520817,-0.008686513,9.769915,0
13,985.5570678710938,-4.3981921044178307E-4,0.001546310493722558,-6.720276433043182E-4,-5.880856513977051,24.004825592041016,-35.308929443359375,0.010435424745082855,0.018891632556915283,0.061519622802734375,0.057916075,-0.15903367,9.747284,-0.0022182018,-0.01735957,9.748738,0
13,985.5698852539062,-9.726099669933319E-4,-1.8471675866749138E-4,-2.7262192452326417E-4,-5.719222068786621,23.629493713378906,-35.46583938598633,0.005580209195613861,0.013708055019378662,0.056777000427246094,0.057932556,-0.1542675,9.756754,-9.7251125E-4,-0.012190461,9.758139,0
13,985.5676879882812,-3.069792583119124E-4,8.162492304109037E-5,-6.374146323651075E-6,-5.692102432250977,23.444171905517578,-35.45917510986328,-0.023111674934625626,0.00881776213645935,0.03783607482910156,0.07228851,-0.14711805,9.763858,0.014844941,-0.0080207735,9.76522,0
13,985.5394287109375,-4.0822516893967986E-5,2.1480869327206165E-4,1.2671545846387744E-4,-5.227632999420166,23.773651123046875,-35.396060943603516,8.662417531013489E-4,0.01849237084388733,0.028367996215820312,0.05557567,-0.16380145,9.77096,-0.0054239593,-0.020736933,9.772469,0
13,985.5498657226562,6.248081335797906E-4,4.8115040408447385E-4,6.592790596187115E-4,-5.508998870849609,23.615676879882812,-35.57441329956055,0.005054406821727753,0.027648121118545532,0.07097244262695312,0.048422515,-0.15665202,9.749657,-0.010036867,-0.012316167,9.751022,0
13,985.5806884765625,-8.400882361456752E-4,8.806498954072595E-4,-6.723685073666275E-4,-5.455844879150391,23.981616973876953,-35.75798416137695,-0.00933169201016426,0.008488565683364868,0.04730033874511719,0.06277841,-0.15188582,9.75676,0.0048643555,-0.010691345,9.758139,0
13,985.570068359375,-4.4077352504245937E-4,-5.142972804605961E-5,-6.646907422691584E-6,-5.882379531860352,24.00334930419922,-35.231624603271484,0.004971716552972794,0.013027176260948181,0.05202770233154297,0.0460656,-0.16141938,9.75913,-0.013344994,-0.01595226,9.760551,0
14,985.5579223632812,-3.1228215084411204E-4,6.238067871890962E-4,-2.7350103482604027E-4,-5.464433193206787,23.604488372802734,-35.19570541381836,0.009157724678516388,0.013010770082473755,0.05203056335449219,0.048471987,-0.15903647,9.744927,-0.009872798,-0.014496535,9.74633,0
14,985.5579223632812,-3.1228215084411204E-4,6.238067871890962E-4,-2.7350103482604027E-4,-5.481037139892578,23.69420623779297,-35.0444221496582,-0.00507020577788353,0.017759516835212708,0.05202674865722656,0.0676077,-0.15665366,9.754398,0.009249387,-0.016188264,9.755873,0
14,985.5707397460938,6.196643225848675E-4,6.238325731828809E-4,-2.735690213739872E-4,-5.367554664611816,23.69540023803711,-35.52389144897461,-0.010187365114688873,0.008105501532554626,0.03308868408203125,0.062844425,-0.1495042,9.766235,0.00643692,-0.007966757,9.767576,0
14,985.5785522460938,2.2003144840709865E-4,9.122666961047798E-5,-2.736372407525778E-4,-5.500547885894775,23.886890411376953,-35.437618255615234,0.003683004528284073,-0.0012952536344528198,0.037825584411621094,0.041351795,-0.14712133,9.766237,-0.013592618,-0.0010241419,9.767423,0
14,985.5709838867188,3.5287122591398656E-4,4.907521652057767E-4,-4.0693150367587805E-4,-5.471768379211426,23.8089599609375,-36.207332611083984,0.00376906618475914,-0.0016543418169021606,0.052021026611328125,0.06048751,-0.13758864,9.756769,0.007183589,0.004173577,9.757925,0
14,985.5741577148438,-7.125514093786478E-4,-4.1853796574287117E-5,-7.525901310145855E-6,-5.414620876312256,23.335350036621094,-35.6495361328125,-0.005272224545478821,0.0030935704708099365,0.052016258239746094,0.05811411,-0.14712219,9.759138,0.002274694,-0.004459992,9.760419,0
14,985.5892944335938,2.1939512225799263E-4,-0.0011070914333686233,-2.7390988543629646E-4,-5.664003372192383,23.628616333007812,-35.62826919555664,0.00435309112071991,-0.0066979676485061646,0.04727649688720703,0.0509609,-0.13758947,9.766241,-0.0026016347,0.0068537444,9.767343,0
14,985.5562744140625,-7.12869456037879E-4,-1.7496009240858257E-4,-7.662223652005196E-6,-5.2133917808532715,23.41861343383789,-35.993350982666016,-0.005465850234031677,-0.001980498433113098,0.03780651092529297,0.055757225,-0.1495062,9.770978,-3.4301914E-4,-0.0057855844,9.77228,0
14,985.5745849609375,-7.130284793674946E-4,2.2453955898527056E-4,-2.7404632419347763E-4,-5.363425254821777,22.96176528930664,-35.48159408569336,0.013604458421468735,0.007368415594100952,0.06621074676513672,0.053383827,-0.15427323,9.754408,-0.0036783628,-0.0099812,9.755767,0
14,985.5799560546875,-4.7397828893736005E-5,3.5772332921624184E-4,-1.4095648657530546E-4,-5.52255916595459,23.708335876464844,-35.5777473449707,-0.010231848806142807,0.016850367188453674,0.052002906799316406,0.06295991,-0.15665685,9.759144,0.0050512888,-0.014306709,9.760593,0
14,985.567138671875,2.1875891252420843E-4,-1.7488261801190674E-4,1.252911170013249E-4,-5.486987113952637,23.794227600097656,-35.43428421020508,0.008520212024450302,0.011800393462181091,0.05199909210205078,0.048637033,-0.15665726,9.766247,-0.008580219,-0.010949671,9.767614,0
14,985.5516967773438,-3.1403187313117087E-4,6.240908405743539E-4,5.24696777574718E-4,-5.831045150756836,23.73568344116211,-35.762760162353516,0.008576065301895142,0.011756062507629395,0.03779411315917969,0.05104345,-0.15189113,9.759148,-0.0052365754,-0.006675571,9.760461,0
14,985.6027221679688,8.528298349119723E-5,-1.7483100236859173E-4,-4.0747690945863724E-4,-5.466796875,23.33917236328125,-35.641719818115234,0.013378128409385681,0.007470071315765381,0.052002906799316406,0.05344987,-0.15427475,9.754415,-0.0034883302,-0.010127768,9.7557745,0
14,985.5801391601562,7.50913517549634E-4,-4.164724668953568E-5,-1.4122924767434597E-4,-5.643268585205078,22.805267333984375,-35.73725509643555,-0.005531877279281616,-0.007184520363807678,0.061463356018066406,0.060636044,-0.14712544,9.7662525,0.0049035456,-0.004261166,9.767548,0
14,985.5980834960938,-7.139828521758318E-4,-9.737270302139223E-4,-8.139410056173801E-6,-5.057302474975586,22.669097900390625,-35.74259567260742,-0.00946170836687088,0.016483798623085022,0.05202198028564453,0.060268342,-0.16141604,9.759117,0.0011608042,-0.017878816,9.760622,0
14,985.5781860351562,-4.4599754619412124E-4,-3.082082839682698E-4,-5.400556838139892E-4,-5.836153984069824,24.099552154541016,-35.629295349121094,-0.009838853031396866,0.006810858845710754,0.04255390167236328,0.060269654,-0.15188293,9.754382,0.0034477208,-0.008652985,9.755747,0
14,985.5579223632812,-1.7790202400647104E-4,4.904504166916013E-4,-1.398191088810563E-4,-5.842103958129883,24.19957733154297,-36.0191535949707,-0.009949851781129837,0.0015743523836135864,0.042548179626464844,0.060270905,-0.14949967,9.763851,0.0042029843,-0.005754322,9.76518,0
14,985.5833129882812,-5.773882148787379E-4,4.904524539597332E-4,-1.3982458040118217E-4,-5.621364593505859,24.090160369873047,-35.96977996826172,0.013659168034791946,0.006387427449226379,0.042550086975097656,0.048322678,-0.14473318,9.775687,-0.00608279,0.0016779602,9.776876,0
14,985.56298828125,-4.4424241059459746E-4,0.001023086137138307,-6.671762093901634E-6,-5.317743301391602,23.42626190185547,-35.97772216796875,-0.005423545837402344,0.0015137642621994019,0.042548179626464844,0.05788353,-0.14949979,9.759117,0.0022210907,-0.0052440315,9.760433,0
14,985.5684204101562,8.837712812237442E-5,4.904564120806754E-4,-6.677000783383846E-6,-5.307226657867432,23.33065414428711,-35.81978225708008,-0.005862098187208176,0.001470416784286499,0.042550086975097656,0.055494875,-0.14234997,9.766218,0.0018692985,0.002311334,9.767412,0
14,985.5813598632812,2.215227868873626E-4,2.2414246632251889E-4,-5.393138853833079E-4,-5.662481307983398,23.630088806152344,-35.705570220947266,-0.00610356405377388,0.010814577341079712,0.04254722595214844,0.060275972,-0.1566496,9.75675,0.0035513993,-0.012746438,9.758186,0
14,985.6014404296875,-7.105949334800243E-4,7.567762513644993E-4,1.2647052062675357E-4,-5.523537635803223,23.338577270507812,-35.4019889831543,0.008457008749246597,0.01083645224571228,0.04254722595214844,0.05310756,-0.15664966,9.761485,-0.0036220457,-0.011002764,9.762879,0
14,985.596923828125,4.878142790403217E-4,-5.748011753894389E-4,1.2646522372961044E-4,-5.458345413208008,23.610382080078125,-35.50492477416992,-0.005884051322937012,0.015558421611785889,0.06621742248535156,0.05549872,-0.16141628,9.759117,-0.0022763684,-0.016193897,9.760595,0
14,985.5565795898438,-4.443035286385566E-4,2.2414843260776252E-4,5.25933806784451E-4,-5.866318225860596,24.28192901611328,-35.48134994506836,0.003666538745164871,-0.008582770824432373,0.06147956848144531,0.05549997,-0.14711662,9.75675,9.780619E-4,-0.0019961745,9.758017,0
14,985.5872192382812,-7.106316043063998E-4,-1.7532338097225875E-4,5.259285680949688E-4,-5.651666641235352,24.16661834716797,-35.12276077270508,0.0036361180245876312,-0.0040159523487091064,0.05200672149658203,0.053111315,-0.14949991,9.763853,-0.001766812,-0.0035128146,9.765141,0
15,985.5670166015625,-4.4854095904156566E-5,3.573104040697217E-4,1.264495076611638E-4,-5.222087860107422,24.1478271484375,-35.80373001098633,-0.015468176454305649,0.010469406843185425,0.04254150390625,0.06745201,-0.16141637,9.763851,0.009548249,-0.018421099,9.765396,0
15,985.5702514648438,2.2144961985759437E-4,-3.084773779846728E-4,-5.39345433935523E-4,-5.488914966583252,24.26696014404297,-36.15450668334961,0.003741007298231125,0.019550815224647522,0.033064842224121094,0.048334062,-0.14950003,9.76622,-0.0065356363,-0.0020748526,9.767482,0
15,985.594970703125,-3.1119430786930025E-4,-4.215950320940465E-5,-1.3987685088068247E-4,-5.6448974609375,23.910137176513672,-36.0326042175293,0.008650019764900208,4.4749677181243896E-4,0.061470985412597656,0.048335314,-0.1447335,9.75675,-0.005515076,0.002562791,9.757942,0
15,985.5924682617188,-5.775224417448044E-4,-3.0847341986373067E-4,-2.730400301516056E-4,-6.0116472244262695,23.935409545898438,-35.90058517456055,-0.010644681751728058,0.004766419529914856,0.05672931671142578,0.060286105,-0.15426655,9.749649,0.004119046,-0.009270504,9.751051,0
15,985.5801391601562,-0.00111016642767936,4.904762608930469E-4,1.2642861111089587E-4,-5.661257266998291,22.999420166015625,-36.2077522277832,-0.006039366126060486,0.009192094206809998,0.042522430419921875,0.05789745,-0.15664996,9.761486,0.0015930124,-0.0105256885,9.762909,0
15,985.5619506835938,-8.438627701252699E-4,2.2416234423872083E-4,-6.7345681600272655E-6,-5.504432678222656,23.620094299316406,-35.80632400512695,0.00364077091217041,0.0041020214557647705,0.04251575469970703,0.05789876,-0.1447336,9.768587,0.004178703,0.0016067624,9.76983,0
15,985.5702514648438,-4.492732114158571E-5,-4.416253650560975E-4,-5.393715109676123E-4,-5.21157169342041,24.052223205566406,-35.64578628540039,-8.221641182899475E-4,0.003993108868598938,0.03777790069580078,0.06028989,-0.14950015,9.763853,0.0052258093,-0.0034880936,9.7651825,0
15,985.57275390625,0.0011534696677699685,-4.2147585190832615E-5,-6.750284228473902E-6,-5.64892053604126,23.537429809570312,-35.702239990234375,-0.005581088364124298,0.018556147813796997,0.03304767608642578,0.06268108,-0.15188344,9.761486,0.006674137,-0.006857991,9.762865,0
15,985.57275390625,0.0011534696677699685,-4.2147585190832615E-5,-6.750284228473902E-6,-5.64892053604126,23.537429809570312,-35.702239990234375,-8.689351379871368E-4,0.009251132607460022,0.056723594665527344,0.057902515,-0.14950027,9.754385,0.002822604,-0.0036375672,9.755702,0
15,985.6116333007812,3.545098297763616E-4,9.101226169150323E-5,-6.725452840328217E-4,-5.428182125091553,23.42801284790039,-35.652870178222656,0.003883097320795059,0.0187777578830719,0.04252052307128906,0.05551392,-0.15903337,9.761486,-0.0017938744,-0.012260437,9.762931,0
15,985.5811157226562,7.539715152233839E-4,3.573301946744323E-4,-2.7307658456265926E-4,-5.785799026489258,23.462127685546875,-35.984676361083984,-0.005575221031904221,-0.009670376777648926,0.047257423400878906,0.057905078,-0.14235045,9.759119,0.004287189,0.0033019185,9.760327,0
15,985.5965576171875,-1.7814637976698577E-4,-3.084575291723013E-4,-2.730818232521415E-4,-5.430109024047852,23.900741577148438,-36.37309265136719,0.008865591138601303,0.014261245727539062,0.023584365844726562,0.050736636,-0.16141663,9.768589,-0.0072490517,-0.013536841,9.770041,0
15,985.5862426757812,4.8763115773908794E-4,-1.7529759497847408E-4,1.2638670159503818E-4,-5.879335403442383,24.006298065185547,-35.386234283447266,0.004366539418697357,0.004931345582008362,0.05199241638183594,0.050737917,-0.14950038,9.763855,-0.0047575794,-0.0021591932,9.76513,0
15,985.5862426757812,4.8763115773908794E-4,-1.7529759497847408E-4,1.2638670159503818E-4,-5.852214813232422,23.820980072021484,-35.37957000732422,-0.005194425582885742,0.005007460713386536,0.056728363037109375,0.055692434,-0.1542712,9.761503,-0.0010296851,-0.008080959,9.762877,0
15,985.5990600585938,3.699155058711767E-4,-2.550140197854489E-4,-2.673068083822727E-4,-5.692644119262695,23.812461853027344,-35.5576286315918,0.0041976310312747955,-0.009247735142707825,0.05196094512939453,0.053487718,-0.14712591,9.749683,-0.001701694,-7.9755485E-4,9.75094,0
15,985.5845947265625,3.665224649012089E-4,-2.5446320069022477E-4,-6.682348903268576E-4,-5.629272937774658,23.450664520263672,-36.00812911987305,-0.015104979276657104,0.009955987334251404,0.06616592407226562,0.06306249,-0.1518928,9.752051,0.006643826,-0.00777705,9.753433,0
15,985.5845947265625,3.665224649012089E-4,-2.5446320069022477E-4,-6.682348903268576E-4,-5.629272937774658,23.450664520263672,-36.00812911987305,-0.010417196899652481,6.686300039291382E-4,0.042496681213378906,0.05112824,-0.1566598,9.761522,-0.0058608074,-0.009896517,9.762906,0
15,985.5845947265625,8.98860627785325E-4,2.782162046059966E-4,-5.352027947083116E-4,-5.609762668609619,23.257980346679688,-35.61493682861328,-0.005744684487581253,7.006824016571045E-4,0.023558616638183594,0.0607031,-0.14951028,9.787562,0.004920263,-0.004665911,9.78889,0
15,985.597412109375,-1.6654975479468703E-4,1.192418858408928E-5,1.305239857174456E-4,-5.617234230041504,23.356525421142578,-35.927494049072266,-7.032155990600586E-4,-0.01348695158958435,0.05196380615234375,0.055938512,-0.13282777,9.75679,0.0039073974,0.012136117,9.757847,0
15,985.5927124023438,-1.666966127231717E-4,-3.8752579712308943E-4,5.299349431879818E-4,-5.123037338256836,22.765579223632812,-35.73810958862305,0.008816346526145935,0.005215838551521301,0.03775310516357422,0.05595374,-0.14712776,9.76626,7.2843395E-4,-0.0012721419,9.767529,0
15,985.5875244140625,-3.000012366101146E-4,2.7828768361359835E-4,-2.6907550636678934E-4,-5.558130264282227,23.622447967529297,-35.72120666503906,-0.010315801948308945,0.010213777422904968,0.03775501251220703,0.06313869,-0.14712812,9.761528,0.0076702014,-0.0032016188,9.762838,0
15,985.5957641601562,7.651153719052672E-4,1.1995667591691017E-5,-4.0229654405266047E-4,-5.292144775390625,23.239463806152344,-35.89375305175781,-0.010392073541879654,0.015104532241821289,0.05195903778076172,0.06554383,-0.15427835,9.76153,0.00850868,-0.010780364,9.762959,0
15,985.5906982421875,9.917881106957793E-5,-1.2113840784877539E-4,-1.3604352716356516E-4,-4.783408164978027,22.925621032714844,-35.87679672241211,0.003843192011117935,0.010078400373458862,0.04722118377685547,0.055999458,-0.15427871,9.754429,-4.8555806E-4,-0.00858286,9.755807,0
15,985.5829467773438,-6.999156321398914E-4,4.1151721961796284E-4,-2.6926444843411446E-4,-5.670932292938232,23.358875274658203,-35.84237289428711,-0.0010390989482402802,-0.008994877338409424,0.05668830871582031,0.056014687,-0.14712925,9.759165,9.862576E-4,-0.0015517026,9.760435,0
16,985.5882568359375,2.3204315220937133E-4,1.2067146599292755E-5,-4.024852532893419E-4,-5.528646469116211,23.70244598388672,-35.268524169921875,0.008587177842855453,0.005244463682174683,0.03774738311767578,0.048860252,-0.14712961,9.766268,-0.00605298,2.4989247E-4,9.767498,0
16,985.6087036132812,2.3189635248854756E-4,4.1156483348459005E-4,2.6324158534407616E-4,-5.668025970458984,23.255905151367188,-35.29790115356445,-0.010590184479951859,0.015044942498207092,0.04248523712158203,0.067994654,-0.15904643,9.766269,0.009744093,-0.016018197,9.767782,0
16,985.5958862304688,0.0010306970216333866,-6.536748260259628E-4,7.958103669807315E-4,-5.54815673828125,23.895130157470703,-35.661712646484375,-0.010215133428573608,0.0010142922401428223,0.05668926239013672,0.06084022,-0.14713041,9.749701,0.005204659,-0.003133595,9.750997,0
16,985.5861206054688,-3.471318632364273E-5,-2.5417713914066553E-4,-1.3635808136314154E-4,-5.286194801330566,23.139442443847656,-35.5038948059082,0.003939386457204819,0.005584999918937683,0.0566864013671875,0.056075633,-0.15904711,9.754436,-0.0018507801,-0.013465747,9.755884,0
16,985.606689453125,-3.486004425212741E-5,-1.2099533341825008E-4,-9.353687055408955E-4,-5.346820831298828,22.872051239013672,-35.632877349853516,-0.01476634293794632,-0.003640785813331604,0.061420440673828125,0.060870707,-0.15189768,9.744968,0.003895091,-0.007916778,9.746338,0
16,985.609130859375,8.970986818894744E-4,-5.204454064369202E-4,1.2983189662918448E-4,-5.2935285568237305,23.343910217285156,-36.515525817871094,-0.00522034615278244,0.0012727081775665283,0.042484283447265625,0.05610609,-0.15666462,9.761539,-0.0018103793,-0.011385649,9.762951,0
16,985.59130859375,3.64320061635226E-4,-1.2094771955162287E-4,-6.691786693409085E-4,-5.917705535888672,22.917030334472656,-35.70150375366211,-0.005022883415222168,0.015505731105804443,0.05194854736328125,0.058511198,-0.15666498,9.759174,-1.0125339E-5,-0.01184082,9.7606,0
16,985.5865478515625,9.785749716684222E-5,-5.20397734362632E-4,-1.366098877042532E-4,-4.974121570587158,22.746749877929688,-35.37503433227539,-2.0752474665641785E-4,0.010621324181556702,0.03774261474609375,0.05374664,-0.15428205,9.771011,-0.003767524,-0.008190706,9.772373,0
16,985.594482421875,-7.012370624579489E-4,1.454157754778862E-4,2.6280106976628304E-4,-5.4441046714782715,23.255348205566406,-36.10221862792969,-0.004901506006717682,0.005803436040878296,0.04720878601074219,0.058541656,-0.14713265,9.761545,0.0023228861,-0.0023210347,9.76283,0
16,985.6016235351562,9.756378130987287E-5,-2.5403418112546206E-4,2.6273808907717466E-4,-5.7190842628479,23.73540496826172,-36.164920806884766,-3.475695848464966E-5,-0.013391464948654175,0.05667400360107422,0.058556914,-0.14236642,9.759178,0.0033598132,0.002407536,9.760391,0
16,985.5867919921875,-7.015306618995965E-4,-7.866420783102512E-4,3.9583316538482904E-4,-5.4666595458984375,23.445091247558594,-36.34080123901367,-0.00464906170964241,6.068944931030273E-4,0.04719734191894531,0.053792357,-0.15666647,9.761547,-0.004712105,-0.010021731,9.762946,0
16,985.584716796875,2.3042806424200535E-4,-1.20828568469733E-4,3.9577018469572067E-4,-5.78938627243042,23.827468872070312,-35.92851638793945,4.5454129576683044E-4,0.014842748641967773,0.05192756652832031,0.04902777,-0.16143341,9.761549,-0.010970101,-0.013242215,9.762992,0
16,985.5947875976562,-3.023504978045821E-4,-6.534365238621831E-4,-6.695560878142715E-4,-6.122926712036133,23.673316955566406,-36.099056243896484,0.014638625085353851,0.01938842236995697,0.0377197265625,0.049043,-0.14951743,9.766285,-0.007779829,-0.0016649961,9.76755,0
16,985.6072998046875,-3.024972975254059E-4,1.2377015082165599E-5,-1.3698742259293795E-4,-5.3639678955078125,23.330055236816406,-35.580047607421875,5.960017442703247E-4,-0.009109899401664734,0.056656837463378906,0.061007768,-0.13760139,9.763918,0.006288888,0.0071723163,9.765074,0
16,985.585205078125,-5.689599202014506E-4,-6.53388851787895E-4,2.624235348775983E-4,-5.708705902099609,23.533885955810547,-35.307899475097656,-2.0736455917358398E-4,0.005253583192825317,0.04238414764404297,0.06417385,-0.16145326,9.763989,0.0037566666,-0.016828224,9.76552,0
16,985.6082763671875,8.929074974730611E-4,1.4602468581870198E-4,7.938253693282604E-4,-5.902868270874023,23.826271057128906,-35.44905471801758,-0.014197956770658493,0.014760032296180725,0.056580543518066406,0.064219534,-0.15430449,9.752157,0.005204823,-0.009935051,9.753583,0
16,985.56005859375,3.590871929191053E-4,-3.8946789572946727E-4,7.894196314737201E-4,-5.67992639541626,23.455955505371094,-36.07761764526367,0.009678289294242859,4.913657903671265E-4,0.03763866424560547,0.052315712,-0.1471558,9.7711,-0.0047848746,5.4493546E-5,9.7723465,0
16,985.577880859375,-1.7398479394614697E-4,-2.5623844703659415E-4,-2.760326606221497E-4,-5.860230445861816,24.287818908691406,-35.79056930541992,0.004782170057296753,6.285011768341064E-4,0.032901763916015625,0.061921,-0.1495402,9.771103,0.0040571596,-0.004624799,9.772443,0
16,985.6033935546875,4.9136474262923E-4,-1.230090856552124E-4,3.895684494636953E-4,-5.703161239624023,23.908065795898438,-35.715572357177734,-0.00964520126581192,0.03402024507522583,0.051835060119628906,0.06674647,-0.17337407,9.771109,0.0035049636,-0.028940946,9.772831,0
16,985.6058959960938,6.240825750865042E-4,2.7653618599288166E-4,3.8937985664233565E-4,-5.5345964431762695,23.802467346191406,-35.658382415771484,-1.5978142619132996E-4,-0.008452996611595154,0.056572914123535156,0.050062776,-0.14954244,9.756908,-0.0074688066,-0.0026469827,9.75818,0
16,985.58056640625,0.0010231162887066603,-3.891820670105517E-4,-1.4344049850478768E-4,-5.432609558105469,23.52950668334961,-36.12002944946289,-0.004801061004400253,0.010467514395713806,0.032894134521484375,0.059668124,-0.15192677,9.766382,0.0011645015,-0.0067722797,9.767744,0
16,985.6161499023438,-3.0890339985489845E-4,1.435212034266442E-4,-4.09945088904351E-4,-5.669111728668213,23.99248504638672,-35.49480438232422,-0.004941001534461975,0.010731548070907593,0.05183124542236328,0.05971375,-0.15192796,9.766386,0.0013277587,-0.0070441365,9.767746,0
16,985.5908203125,0.0010222358396276832,1.4359259512275457E-4,-1.0659918189048767E-5,-5.177277565002441,23.136215209960938,-35.75143814086914,-0.009633202105760574,-0.0034205466508865356,0.03762626647949219,0.062149346,-0.14954574,9.771126,0.0039874874,-0.0053233355,9.772465,0
16,985.5787353515625,8.969003101810813E-5,-3.8896765909157693E-4,-1.4400650979951024E-4,-5.589816570281982,23.8033447265625,-35.49595642089844,0.004803411662578583,0.001555800437927246,0.05182647705078125,0.05263537,-0.14954694,9.761661,-0.0054352917,-0.0035167634,9.762946,0
16,985.5787353515625,8.969003101810813E-5,-3.8896765909157693E-4,-1.4400650979951024E-4,-5.414620876312256,23.335350036621094,-35.6495361328125,0.009651564061641693,0.015665888786315918,0.04708576202392578,0.05268103,-0.15908112,9.754562,-0.007689951,-0.012647018,9.75599,0
17,985.58154296875,4.887238028459251E-4,-2.557382977101952E-4,-1.4419498620554805E-4,-5.569082260131836,22.979995727539062,-35.604942321777344,-0.004881329834461212,0.015409961342811584,0.04707813262939453,0.05750653,-0.15669896,9.764036,-0.002238974,-0.011090562,9.765456,0
17,985.5859985351562,-3.10664065182209E-4,-2.5566681870259345E-4,3.882480668835342E-4,-5.630794525146484,23.449188232421875,-35.930824279785156,-0.004952777177095413,0.005903169512748718,0.047074317932128906,0.05755219,-0.15908335,9.759305,-0.0028721672,-0.013493642,9.760761,0
17,985.58154296875,5.920996773056686E-5,6.780673284083605E-4,-8.164264727383852E-6,-5.9399614334106445,23.738906860351562,-35.51521301269531,0.009348828345537186,0.010602176189422607,0.032866477966308594,0.057597876,-0.16385104,9.766411,-0.0039514937,-0.017957121,9.767938,0
17,985.5891723632812,1.9192774198018014E-4,-1.208089233841747E-4,3.911209641955793E-4,-5.616393566131592,23.620372772216797,-35.40416717529297,-0.005260594189167023,0.015432968735694885,0.05180072784423828,0.06003344,-0.15908559,9.766415,-7.410161E-5,-0.0140315,9.767884,0
17,985.5919799804688,3.2464557443745434E-4,-1.207374589284882E-4,1.246164902113378E-4,-5.169369697570801,23.775718688964844,-35.713096618652344,-2.6516616344451904E-4,-0.0036863088607788086,0.051795005798339844,0.062468976,-0.1519369,9.752216,0.0038726088,-0.0076648593,9.753596,0
17,985.5824584960938,4.5736334868706763E-4,1.2491917004808784E-5,-8.730159606784582E-6,-6.066568374633789,24.568424224853516,-35.313289642333984,-0.005317386239767075,0.005856826901435852,0.056527137756347656,0.06490457,-0.151938,9.756954,0.00622263,-0.008338138,9.7583475,0
17,985.5899658203125,5.74493024032563E-5,9.446690091863275E-4,5.237129516899586E-4,-6.034339427947998,24.01923370361328,-35.44009017944336,-0.015434730798006058,0.010649889707565308,0.04705810546875,0.067340165,-0.14717256,9.766428,0.010168849,-0.0043228567,9.767763,0
17,985.5670776367188,-4.7562268446199596E-4,9.44740604609251E-4,-2.7542334282770753E-4,-5.403125762939453,23.60950469970703,-35.66735076904297,-0.0012805312871932983,0.0012643933296203613,0.06125831604003906,0.05782619,-0.14955701,9.749862,5.975738E-4,-0.0047712177,9.75118,0
17,985.6051025390625,4.560427332762629E-4,5.453380290418863E-4,-2.75612052064389E-4,-5.686557769775391,23.81835174560547,-35.86684799194336,-0.015885353088378906,0.006067678332328796,0.056522369384765625,0.072211295,-0.14717479,9.754601,0.015293827,-0.00576286,9.755963,0
17,985.6000366210938,4.556025087367743E-4,4.122515965718776E-4,-1.426427043043077E-4,-6.050400257110596,23.740657806396484,-35.19035720825195,0.0034310445189476013,-0.00818014144897461,0.05178260803222656,0.057917535,-0.14955921,9.764074,4.940294E-4,-0.0046619475,9.765389,0
17,985.5702514648438,5.568857886828482E-5,-5.197825375944376E-4,2.5664252461865544E-4,-5.703160762786865,23.908065795898438,-35.71556854248047,-0.02060074731707573,0.015582218766212463,0.06124687194824219,0.06991273,-0.15909345,9.740405,0.010214141,-0.017003253,9.741934,0
17,985.5780639648438,5.878802621737123E-4,6.787104066461325E-4,2.564539317972958E-4,-5.892895221710205,24.098960876464844,-35.38956832885742,-0.0017211399972438812,0.010877400636672974,0.03757190704345703,0.062788665,-0.15194477,9.768816,0.0049800966,-0.008098349,9.770195,0
17,985.60791015625,-7.834963616915047E-5,2.7930797659792006E-4,3.894231631420553E-4,-5.9533843994140625,23.937484741210938,-36.21762466430664,-0.006554167717695236,0.005948916077613831,0.051769256591796875,0.06283435,-0.15194584,9.75225,0.0050716307,-0.008236125,9.753632,0
17,985.5904541015625,-3.4510568366385996E-4,2.793795138131827E-4,2.560766297392547E-4,-6.000450134277344,23.577430725097656,-36.3432731628418,-0.0064638033509254456,0.0013899803161621094,0.051766395568847656,0.062489092,-0.15193744,9.759319,0.004498508,-0.008225799,9.760696,0
17,985.5658569335938,3.202437364961952E-4,-5.194966215640306E-4,3.890458610840142E-4,-5.072927474975586,23.128578186035156,-35.76707077026367,-0.015000872313976288,-0.003185585141181946,0.06130695343017578,0.057340264,-0.1447785,9.754551,9.557195E-4,-2.0803511E-4,9.755794,0
17,985.572998046875,8.602547459304333E-4,-1.2300640810281038E-4,-1.429630210623145E-4,-5.229453086853027,23.140037536621094,-35.74362564086914,-0.005689762532711029,0.006347596645355225,0.03290081024169922,0.06691384,-0.15192865,9.768755,0.008942738,-0.00909625,9.770156,0
17,985.583740234375,1.962000096682459E-4,8.088175090961158E-4,1.2409640476107597E-4,-5.916428565979004,23.918930053710938,-35.452388763427734,0.003656826913356781,0.006841555237770081,0.04237556457519531,0.05736822,-0.14954574,9.77586,1.93974E-4,-0.0050094426,9.777171,0
17,985.5765380859375,9.95013164356351E-4,-1.2326627620495856E-4,-2.7543504256755114E-4,-5.701777458190918,23.80362319946289,-35.09379959106445,-0.0011541284620761871,0.0164186954498291,0.03764152526855469,0.06455183,-0.15669592,9.77586,0.005497033,-0.013769627,9.777317,0
17,985.5556030273438,1.9593103206716478E-4,0.0010751772206276655,-2.754927845671773E-4,-5.22695255279541,23.511276245117188,-35.99668502807617,-0.006311245262622833,0.016321510076522827,0.05657768249511719,0.06456584,-0.16384612,9.761659,0.0046235174,-0.020867616,9.763223,0
