Timestamp,Ax,Ay,Az,Gx,Gy,Gz,Mx,My,Mz,LiAx,LiAy,LiAz,P,Value,Type,GroupType,Activities
0.0,0.08803511,-0.15862061,9.771206,0.000505216245074,-0.00032118620583799996,0.000113708723802,-10.8187675476074,21.5927200317383,-33.252105712890604,0.084456890821457,0.095084488391876,0.04405212402343799,985.909057617188,0,13.0,1,1
0.04,0.0902943,-0.14908428,9.773561,-0.000159313611221,-0.000321390689351,-0.00041838322067599997,-11.1884231567383,21.720970153808604,-33.6645545959473,0.09877096116542801,0.08548587560653699,0.034599304199219,985.916625976562,0,13.0,1,1
0.08,0.09733334,-0.14908110000000002,9.761713,0.000241419591475,-0.0007210689363999999,-1.8369581084698398e-05,-11.6349039077759,21.1973342895508,-33.257175445556605,0.074513003230095,0.066431432962418,0.03935432434082,985.9318237304691,0,13.0,1,1
0.12,0.09242289999999999,-0.15622772,9.761700999999999,-2.3636908736079897e-05,-0.000188641686691,-0.000284145760816,-10.836648941039998,20.6805381774902,-33.349945068359396,0.08862842619419099,0.085257776081562,0.04410457611083999,985.9436645507809,0,13.0,1,1
0.16,0.09468216,-0.15384127,9.768791,0.00024393881904,0.00167536479421,-0.000150448002387,-11.086573600769,21.3420906066895,-33.4271278381348,0.078753083944321,0.080266058444977,0.02992057800293,985.94091796875,0,13.0,1,1
0.2,0.08499181,-0.15860464,9.766411,-0.000287433795165,0.000343581137713,-0.000283066125121,-11.1271162033081,21.7259902954102,-34.136203765869105,0.10283449292182902,0.09870957583189,0.044130325317383,985.9130249023441,0,13.0,1,1
0.24,0.09442079,-0.14906831,9.764032,-0.0005512305651790001,-0.00018945947522299998,-1.56708410941064e-05,-10.7805881500244,20.9435043334961,-32.9890480041504,0.07898373901844001,0.079840734601021,0.06308174133300799,985.937622070312,0,13.0,1,1
0.28,0.08951029,-0.15383168,9.766388000000001,0.001047923928127,0.000209809863009,-1.51310232467949e-05,-10.627511978149402,21.4033050537109,-33.6554145812988,0.088151395320892,0.075065582990646,0.034697532653808996,985.9271850585941,0,13.0,1,1
0.32,0.08459985,-0.16097827,9.7569065,0.00038339378079400003,0.000742237258237,0.000518040556926,-10.3747882843018,21.7451248168945,-33.406421661377,0.09226566553115899,0.09381545335054402,0.053659439086914,985.921752929688,0,13.0,1,1
0.36,0.09163886,-0.15144198,9.7782,-0.0005474520730789999,0.001407822361216,0.000651738257147,-10.354191780090302,20.8158569335937,-32.816333770752,0.077799573540688,0.09376721829175999,0.039471626281738,985.908813476562,0,13.0,1,1
0.4,0.09867787,-0.14428885,9.780555999999999,0.000119596777949,-0.00019027729285900005,0.000652277958579,-10.843578338622999,20.4107971191406,-33.5640449523926,0.07751502096653,0.084065355360508,0.020552635192871004,985.9418334960941,0,13.0,1,1
0.44,0.09376743400000001,-0.15620206,9.771074,0.000653487804811,0.001274255570024,-0.000146129808854,-10.9671411514282,21.2432632446289,-33.516731262206996,0.081857681274414,0.074635274708271,0.044247627258300996,985.8857421875,0,13.0,1,1
0.48,0.088856965,-0.14428248,9.771061,0.001054221531376,-5.75283193029463e-05,0.000786515476648,-11.0569524765015,21.5280075073242,-33.6735229492187,0.08677108585834499,0.07454071193933501,0.020586967468262,985.9131469726559,0,13.0,1,1
0.52,0.086603284,-0.16335206,9.76634,-9.78278694674373e-06,0.000208583078347,-0.000145050347783,-11.392558097839402,21.7406730651855,-33.865203857421896,0.081595152616501,0.09378581494093,0.044280052185059,985.907958984375,0,13.0,1,1
0.56,0.0987052,-0.15858923,9.782925,0.00039031036431,0.0015400620177389998,-0.0006774166249669999,-10.9610538482666,21.2491569519043,-33.8259506225586,0.070987179875374,0.08400971442461001,0.025315284729004,985.895263671875,0,13.0,1,1
0.6,0.09859604,-0.16335313,9.763977,-0.000155354733579,0.000488294521347,0.000126522965729,-10.620337486267099,20.6726150512695,-33.7677383422852,0.080231100320816,0.097810350358486,0.039532661437988,985.8848266601559,0,13.0,1,1
0.64,0.0793677,-0.14190091,9.77817,-0.0006869345670569999,0.000488123652758,0.000659605721012,-10.6875953674316,20.767623901367198,-33.6859474182129,0.099236622452736,0.073727712035179,0.025341033935547,985.8771362304691,0,13.0,1,1
0.68,0.08881813,-0.15858121,9.780527000000001,-0.00015325087588299998,0.000487952929689,0.000127424718812,-10.836510658264197,20.786453247070302,-34.0490226745605,0.079735741019249,0.08756719529628801,0.020622253417968996,985.894409179688,0,13.0,1,1
0.72,0.09348881,-0.15142868,9.780517999999999,-1.90407736226916e-05,-0.000311165465973,-0.00013844028580899998,-11.457888603210401,21.3629531860352,-33.0631904602051,0.084923908114433,0.073336891829968,0.011158943176270001,985.9046020507809,0,13.0,1,1
0.76,0.09337968,-0.14904274,9.766304,0.000248327036388,-0.000577652128413,-0.000137989409268,-10.9802951812744,20.8617172241211,-32.7225379943848,0.075108930468559,0.08265940845012701,0.049049377441406,985.878540039063,0,13.0,1,1
0.8,0.088490695,-0.16095646,9.77813,-0.001082200324163,-0.00017834900063499998,-4.38065035268664e-06,-11.1213035583496,21.520042419433604,-33.047267913818395,0.089690074324608,0.09187478572130199,0.020648002624512,985.86083984375,0,13.0,1,1
0.84,0.07882196,-0.15142061,9.761549,0.0009162208298220001,-0.0007111516315489999,0.000262386165559,-10.8902082443237,20.7888031005859,-33.9639015197754,0.08983126282692,0.08218062669038799,0.049062728881836,985.86572265625,0,13.0,1,1
0.88,0.085882515,-0.15141802,9.763906500000001,-1.48328253999352e-05,-4.55327390227467e-05,-3.47895547747612e-06,-11.132660865783699,21.351806640625,-33.728527069091804,0.080344989895821,0.07234673202037799,0.04433631896972701,985.88330078125,0,13.0,1,1
0.92,0.08338347,-0.14903201,9.775733,-0.0006795703666280001,-0.0007114932523110001,0.000529603741597,-10.5317497253418,21.018535614013697,-33.1087684631348,0.085142314434052,0.08176687359809899,0.034877777099609,985.875366210938,0,13.0,1,1
0.96,0.08805412,-0.15379585,9.768621000000001,0.00012042908929299999,8.72836972121149e-05,0.00039689661935000004,-10.5241394042969,21.0258941650391,-33.4952964782715,0.08950689435005199,0.081563718616963,0.034895896911621004,985.872802734375,0,13.0,1,1
1.0,0.09511468,-0.14902665,9.770978,0.000254639191553,0.00035342873888999994,-2.12632585316896e-06,-10.6640625,20.947650909423803,-33.623119354248,0.070333227515221,0.08616409450769401,0.039642333984375,985.8674926757809,0,13.0,1,1
1.04,0.092615604,-0.16094036,9.7757015,0.00012253306340400001,0.000220100017032,-1.67544931173325e-06,-10.4191083908081,20.7558822631836,-34.1115531921387,0.084697276353836,0.08590716123580901,0.039651870727539,985.8623657226559,0,13.0,1,1
1.08,0.09011659,-0.14902134,9.768591,0.000256743165664,-0.000712176319212,0.000131933251396,-10.5862884521484,20.757034301757802,-33.546970367431605,0.07550327479839301,0.071657590568066,0.030188560485840003,985.87255859375,0,13.0,1,1
1.12,0.090007424,-0.15855171,9.773315,0.000390953035094,-0.0005791891599069999,0.00013238424435299998,-10.7237091064453,21.0500221252441,-33.9278564453125,0.079825267195702,0.07621031999588,0.030206680297852,985.866943359375,0,13.0,1,1
1.16,0.08989829,-0.14663275,9.770939,0.000390953035094,-0.0005791891599069999,0.00013238424435299998,-11.150786399841301,21.440044403076197,-33.4999465942383,0.084452196955681,0.075964942574501,0.03968811035156299,985.866943359375,0,13.0,1,1
1.2,0.08500934,-0.15854634,9.766193,-0.000140626798384,0.000485903437948,0.000132835004479,-10.980264663696301,22.073974609375,-33.7942695617676,0.089187622070313,0.085211008787155,0.049168586730957003,985.8642578125,0,13.0,1,1
1.24,0.09445980000000001,-0.15139388,9.759083,-0.00019085890380700002,0.00010898511391099999,-0.001007895334624,-10.824037551879899,21.430374145507802,-34.2425918579102,0.065002664923668,0.07527701556682599,0.04444694519043001,985.8435668945309,0,13.0,1,1
1.28,0.09196076,-0.14900793,9.763807,7.650890620425341e-05,0.000241972273216,0.000324135064147,-10.6324825286865,21.873092651367198,-34.2210273742676,0.06964001059532202,0.055996522307396,0.044460296630859,985.88623046875,0,13.0,1,1
1.32,0.089461684,-0.14423870000000003,9.768532,-0.00045507081085800007,-2.45143892243505e-05,0.000590901763644,-11.3749752044678,22.0207252502441,-34.1922416687012,0.08355452120304101,0.084170915186405,0.035006523132324,985.845825195313,0,13.0,1,1
1.36,0.082182854,-0.15615238,9.768522,-5.45450602658093e-05,0.0014400521758940001,-0.000207594945095,-10.9660234451294,21.7189407348633,-34.3915672302246,0.083458304405212,0.079246781766415,0.04448795318603501,985.845458984375,0,13.0,1,1
1.4,0.09402323,-0.1466166,9.777979,-0.000452966836747,-0.000291171832941,-0.00020714412676199997,-10.979339599609402,20.811176300048803,-34.7213172912598,0.07893793284893,0.07889019697904599,0.025556564331055,985.8756713867191,0,13.0,1,1
1.44,0.08196455,-0.15376379,9.763767,0.000213874795008,-0.0004245005548,-0.0008724828949199999,-10.9488773345947,21.260940551757802,-34.444393157959,0.078744888305664,0.078718416392803,0.04450607299804701,985.873168945312,0,13.0,1,1
1.48,0.08185542,-0.14899455,9.768492,-0.000184546981473,-0.000158355454914,0.0005927052116019999,-10.9730911254883,21.3432846069336,-33.906589508056605,0.08349934220314,0.074130989611149,0.035052299499512,985.88037109375,0,13.0,1,1
1.52,0.089488,-0.15615572,9.773268,0.0006154527072790001,-0.000291684118565,6.05243258178234e-05,-10.6975679397583,20.4949417114258,-33.7454414367676,0.07835394144058201,0.08358848094940201,0.030272483825684,985.8877563476559,0,13.0,1,1
1.56,0.0941816,-0.15377034,9.770893,0.000468384241685,0.00038536475039999997,-7.03501864336431e-05,-10.719686508178699,21.4227294921875,-34.258224487304695,0.06872974336147299,0.083326235413551,0.04921913146972701,985.8820190429691,0,13.0,1,1
1.6,0.07975596,-0.14423509,9.751947,-0.0005987429758530001,-0.00028012241818900003,6.20090868324041e-05,-10.687159538269,21.505676269531197,-33.9601516723633,0.08297201991081199,0.073228232562542,0.05869960784912099,985.87939453125,0,13.0,1,1
1.64,0.101178825,-0.14899953,9.763776,6.787793245166539e-05,-0.000413415284129,0.000195523229195,-11.176246643066401,21.7327537536621,-34.2829933166504,0.06881803274154699,0.068295195698738,0.044496536254883,985.866821289063,0,13.0,1,1
1.68,0.07719356,-0.16568036,9.759033,-0.000463922508061,-0.0014788137050350003,-0.000736226153094,-11.3733463287354,20.9158554077148,-33.8968849182129,0.09279191493988,0.096397824585438,0.05397033691406299,985.8692016601559,0,13.0,1,1
1.72,0.093836665,-0.15852846,9.770863,-0.000329933711328,-0.00028052722336699995,0.00019623572006799997,-10.6438703536987,20.492588043212898,-33.830558776855504,0.078829362988472,0.086799196898937,0.044502258300781,985.8838500976559,0,13.0,1,1
1.76,0.0889706,-0.16090961,9.782689,0.000469845137559,-0.001212767674588,-0.00033603998599599996,-10.7771081924438,21.684509277343697,-33.4178657531738,0.07419088482856799,0.086468607187271,0.025570869445801003,985.8912963867191,0,13.0,1,1
1.8,0.09366417,-0.15375765,9.77558,-6.19553029537201e-05,0.000251834688243,0.000729579885956,-10.8681974411011,20.9673538208008,-33.8237724304199,0.074323922395706,0.081462033092976,0.03504753112793,985.89111328125,0,13.0,1,1
1.84,0.09596783,-0.15613873,9.754267,0.000205191783607,-0.0013461955823,6.41464139334857e-05,-11.098611831665002,21.4362258911133,-33.5077629089355,0.07412493228912401,0.08116449415683799,0.049258232116699004,985.8905639648441,0,13.0,1,1
1.88,0.08632201,-0.13468714,9.773197,0.00020602287259,0.0005178807768969999,-0.000201813236345,-11.231903076171902,20.9955825805664,-33.846363067627,0.078823804855347,0.05736266076564799,0.025597572326659997,985.9130859375,0,13.0,1,1
1.92,0.10296509,-0.15851782,9.775557000000001,-5.9461919590830796e-05,-0.0006806756136940001,0.00019801675807700001,-10.7167806625366,21.319759368896502,-33.713756561279304,0.064456284046173,0.08095677196979499,0.030339241027832,985.9033203125,0,13.0,1,1
1.96,0.10287887,-0.15613247,9.770813,0.000607158988714,-0.000680810655467,-0.00020110089099,-10.627373695373501,21.509220123291,-34.3544960021973,0.064669623970985,0.081106677651405,0.054018974304199004,985.9130859375,0,13.0,1,1
2.0,0.098012805,-0.1418307,9.763703999999999,-5.7799625210464e-05,0.000118002120871,-0.0007333764224310001,-10.903332710266099,21.619514465332,-34.2414360046387,0.06922659277916,0.061585783958434996,0.030355453491211003,985.88525390625,0,13.0,1,1
2.04,0.08119726,-0.14897843,9.775533,-0.00032328418456,0.00051734095905,0.00019908533431599998,-10.9163494110107,21.3438873291016,-34.1463241577148,0.08331422507762899,0.070665970444679,0.030364990234375,985.9252319335941,0,13.0,1,1
2.08,0.09545043,-0.15374279999999999,9.782625999999999,0.000343336723745,-0.0012138471938669998,-0.000200032198336,-10.700176239013699,21.230045318603498,-33.8650321960449,0.064255297183991,0.075221665203571,0.020904541015625,985.8821411132809,0,13.0,1,1
2.12,0.08580461,-0.15135739999999998,9.773149499999999,-0.00032162212301,0.000517071224749,0.000199797825189,-11.075920104980499,21.3524017333984,-33.96826171875,0.08337070047855401,0.08014453202486,0.025649070739746,985.9149780273441,0,13.0,1,1
2.16,0.10244769,-0.14420547,9.751837,-5.44749200344086e-05,0.000383778242394,-0.00046563573414499994,-10.7645273208618,21.2220840454102,-33.2387733459473,0.06809575855732,0.065294355154038,0.058811187744141,985.909423828125,0,13.0,1,1
2.2,0.085632145,-0.14658667,9.761297,-0.00031995947938400003,0.0010494331363589998,-0.000997911207378,-11.037303924560499,21.441242218017603,-33.9794082641602,0.07779316604137401,0.055220238864422004,0.054079055786133,985.88916015625,0,13.0,1,1
2.24,0.109444916,-0.15373437,9.766025,-0.00045228644739800004,-0.000415439222706,0.000866656075232,-10.8481130599976,21.6186408996582,-34.403865814209,0.053871631622315,0.07401055842638,0.049352645874024006,985.9014282226559,0,13.0,1,1
2.28,0.102188975,-0.13704933,9.784953999999999,-0.0005846132989969999,-0.0018803115235639998,-0.0005977249820720001,-11.1487226486206,21.0732345581055,-33.4788017272949,0.06374852359294901,0.054658196866512,0.020947456359863,985.9064331054691,0,13.0,1,1
2.32,0.09971285,-0.15373011,9.756539,-0.000317466096021,-1.6235222574323402e-05,0.000467894744361,-10.5270462036133,21.1288681030273,-34.0397605895996,0.06373597681522401,0.073212407529354,0.044624328613281,985.898803710938,0,13.0,1,1
2.36,0.09245691,-0.14896147,9.761267,-0.0008492667693639999,0.00011678779264899999,6.87770661897957e-05,-11.253615379333501,21.4491577148438,-33.561618804931605,0.068700715899468,0.068398281931877,0.054099082946777,985.90380859375,0,13.0,1,1
2.4,0.085200965,-0.14657606,9.768360000000001,0.001015775371343,-0.0006822947179900001,6.91332970745861e-05,-11.0357828140259,21.4427185058594,-34.056713104248,0.077601730823517,0.063364185392857,0.03518486022949201,985.933959960938,0,13.0,1,1
2.44,0.087504625,-0.15134056,9.775454,0.001015775371343,-0.0006822947179900001,6.91332970745861e-05,-11.0357828140259,21.4427185058594,-34.056713104248,0.077437296509743,0.06800217926502201,0.039926528930664,985.933959960938,0,13.0,1,1
2.48,0.09705591,-0.1561069,9.770719,0.000217659049667,0.000782307586633,0.00020264746854099997,-11.061817169189501,20.8914566040039,-33.8664779663086,0.06767381727695501,0.082019463181496,0.025732040405273996,985.9212036132809,0,13.0,1,1
2.52,0.09227258,-0.14419039,9.76125,0.00035164819564699994,0.000515856896527,6.984575884416701e-05,-10.8126792907715,21.5986175537109,-33.5613288879395,0.076815262436867,0.062603384256363,0.044665336608886996,985.9208374023441,0,13.0,1,1
2.56,0.09219271,-0.14418842,9.761242,-0.000180152477697,0.00011624797480200001,-0.000462429772597,-10.6654462814331,21.0520935058594,-34.2448959350586,0.072149336338043,0.062367275357245996,0.054140090942383,985.8977661132809,0,13.0,1,1
2.6,0.09450269,-0.15371956,9.775438000000001,-0.00058723607799,-0.0008099318947639999,7.12370383553207e-05,-10.8030052185059,21.2391662597656,-33.9267082214355,0.067217350006104,0.066784948110581,0.044678688049317,985.905029296875,0,13.0,1,1
2.64,0.08725309,-0.1632507,9.768329,-0.000320150109474,0.000122048601042,-0.001260012388229,-10.901405334472699,21.1467819213867,-33.521213531494105,0.071762502193451,0.07598264515399901,0.04942417144775401,985.9202270507809,0,13.0,1,1
2.68,0.08956313,-0.16324873,9.758854,0.00021325174020599995,-0.000144392281072,-0.000593892706092,-10.971569061279302,21.3447647094727,-33.9838905334473,0.071723461151123,0.090243637561798,0.044697761535644996,985.922607421875,0,13.0,1,1
2.72,0.09426302,-0.14418061,9.768314,0.000155147979967,0.00016100239008700002,0.000297534046695,-10.9945592880249,20.7964477539062,-33.9482650756836,0.071425378322601,0.061571061611175995,0.030508041381836003,985.9122924804691,0,13.0,1,1
2.76,0.09896289999999999,-0.15371175,9.763573,0.00055539177265,-0.00023859649081700002,0.000697337905876,-11.1446990966797,21.4459381103516,-33.8091697692871,0.076180264353752,0.065795436501503,0.05418491363525401,985.914794921875,0,13.0,1,1
2.8,0.09171331,-0.15847631,9.768299,-0.000775417429395,-0.00010556358029100002,0.000564510002732,-10.7556934356689,20.5987854003906,-34.1274795532227,0.066320940852165,0.070415325462818,0.03525924682617201,985.9072265625,0,13.0,1,1
2.84,0.0988031,-0.15370782,9.775394,0.00015745824202899997,2.74693302344531e-05,0.00016536627663299997,-10.5035133361816,21.3088912963867,-33.976940155029304,0.060941562056542005,0.075173743069172,0.030542373657227,985.881469726563,0,13.0,1,1
2.88,0.08199391,-0.14417277,9.777754,0.000424544210546,0.001225765794516,-0.00023377750767400001,-10.4870462417603,21.1132659912109,-33.4291343688965,0.084799095988274,0.065359093248844,0.025816917419434,985.924194335938,0,13.0,1,1
2.92,0.0986433,-0.15608712,9.78248,-0.00037286337464999996,0.00016025226796,0.000166356388945,-10.706263542175302,21.2241516113281,-33.555812835693395,0.055740892887116,0.074609026312828,0.025829315185547,985.8910522460941,0,13.0,1,1
2.96,0.08661392,-0.14893539,9.758800500000001,-0.0002389352303,0.000426443119068,0.00016668630996700002,-10.620475769042999,20.5666999816895,-33.0686569213867,0.084154173731804,0.07450794428587,0.058981895446777,985.9290161132809,0,13.0,1,1
3.0,0.09370372,-0.16323306,9.749325,-0.000504481024109,0.0009589499095449999,0.001232279930264,-10.480958938598599,21.1191558837891,-33.738357543945305,0.064388573169708,0.08346835523843801,0.063730239868164,985.86572265625,0,13.0,1,1
3.04,0.07928443,-0.15131475,9.768256,-0.000503710936755,0.001491456641816,0.000566820264794,-10.5096006393433,21.3030014038086,-33.667716979980504,0.078367531299591,0.06372955441474899,0.030597686767578,985.8936157226559,0,13.0,1,1
3.08,0.10310355,-0.15607929999999998,9.765881,-0.000636098906398,-0.00130498514045,0.000167676480487,-10.802164077758801,21.5030136108398,-33.4033813476562,0.063879832625389,0.07290276139974601,0.035340309143067,985.905883789063,0,13.0,1,1
3.12,0.08629435,-0.17037706,9.751671,-0.00023585499729999998,0.0005591009976340001,-0.0004977832431899999,-11.103720664978,21.8000984191895,-33.374298095703104,0.07354991137981401,0.09147156774997699,0.05901527404785201,985.885620117188,0,13.0,1,1
3.16,0.095774055,-0.16560848,9.780069000000001,-0.000368242850527,-0.000905761262402,0.00043465240742100004,-10.8511571884155,21.6156921386719,-34.249256134033196,0.063593730330467,0.07689375430345499,0.040090560913086,985.915649414063,0,13.0,1,1
3.2,0.08135474,-0.16560657,9.770594000000001,0.0005646327044809999,0.001091482816264,-0.000763439049479,-11.205325126647999,21.178546905517603,-33.9381484985352,0.068091049790382,0.08141619712114301,0.044835090637207003,985.8954467773441,0,13.0,1,1
3.24,0.10278398,-0.15368818,9.765852,-0.000233544851653,-0.0006396954413500001,3.58386314474046e-05,-11.103039741516099,21.537723541259798,-33.974925994873,0.058912694454193004,0.066753335297108,0.040101051330567,985.9103393554691,0,13.0,1,1
3.28,0.083584875,-0.15845276,9.768211,0.00016669894103,-0.000506662530825,-0.00023014721227800002,-11.2007598876953,21.1829681396484,-34.1700630187988,0.07774811983108501,0.07595271617174201,0.054318428039550996,985.9153442382809,0,13.0,1,1
3.32,0.08589488,-0.15845083,9.758736,-0.000232004909776,-0.000240471636062,0.00030281447107,-10.909175872802699,20.6131973266602,-34.258640289306605,0.077638104557991,0.07581590116024,0.063792228698731,985.9052124023441,0,13.0,1,1
3.36,0.09776449,-0.15844886,9.763464,-0.00023123493883800002,-0.00010743868188,-0.000229487253819,-11.1907863616943,21.4556503295898,-34.110569000244105,0.06272667646408099,0.075171045958996,0.030666351318358997,985.8720703125,0,13.0,1,1
3.4,0.08095527,-0.14653058,9.763456,-0.00036362267564999995,0.0009576997254039999,-0.0007617889787070001,-10.8264007568359,21.1650543212891,-34.688610076904304,0.07174411416053798,0.055732056498528,0.044883728027344,985.8843383789059,0,13.0,1,1
3.44,0.09043503,-0.15606172,9.768183,-0.000362852704711,0.000824416871183,-9.566923836246129e-05,-10.997166633606,21.531551361084,-34.067863464355504,0.057170704007149006,0.050714008510113,0.035421371459961,985.897216796875,0,13.0,1,1
3.48,0.07894468,-0.1417733,9.765858,3.73912043869495e-05,0.000424817961175,-0.000361655198503,-10.732160568237301,20.77880859375,-34.0646553039551,0.080574750900269,0.055279433727264,0.040170669555664,985.897094726563,0,13.0,1,1
3.52,0.08421603,-0.15370174,9.775372,-9.885465260595079e-05,0.00015900342259600003,-0.0008956101373769999,-11.070375442504899,21.7265930175781,-34.3759346008301,0.079134672880173,0.069484747946262,0.040083885192871004,985.90673828125,0,13.0,1,1
3.56,0.09612876,-0.15131755,9.761163999999999,-0.00011267315130700001,0.0013776995474469999,-9.19894664548337e-05,-11.2483692169189,21.191207885742198,-34.3941612243652,0.054758310317993,0.059672057628632,0.054295539855957003,985.878784179688,0,13.0,1,1
3.6,0.08175260000000001,-0.14893337,9.775364999999999,0.0005534706870090001,0.0005786943947899999,4.1320396121591296e-05,-11.1315441131592,21.8274841308594,-34.603363037109396,0.07346616685390499,0.064453154802322,0.030632972717284997,985.878784179688,0,13.0,1,1
3.64,0.08410573,-0.16323210000000002,9.763525,0.000553824938834,-8.7152817286551e-05,-9.168573888018729e-05,-11.2323083877563,21.469783782959002,-34.6438865661621,0.068375080823898,0.073846206068993,0.049578666687011996,985.8710327148441,0,13.0,1,1
3.68,0.093628585,-0.13939849999999998,9.770624,2.15476611629128e-05,0.000578579376452,-0.00049100763863,-10.986949920654302,20.803813934326197,-34.3347969055176,0.06308127939701098,0.049670614302157995,0.030649185180663997,985.893432617188,0,13.0,1,1
3.72,0.09120193,-0.1560805,9.77062,2.1901912987232198e-05,0.000844837748446,-0.000224539951887,-11.011706352233901,21.2544479370117,-33.8954429626465,0.062385231256485006,0.07326585799455701,0.044865608215332003,985.8912963867191,0,13.0,1,1
3.76,0.10072479,-0.15846287,9.761148,-0.00024405971635099998,0.001244253944606,0.00017508567543699999,-11.210296630859402,21.6483345031738,-34.503757476806605,0.052189618349075,0.068351201713085,0.054347038269042997,985.8938598632809,0,13.0,1,1
3.8,0.09829813,-0.15131216,9.751676,-0.00024405971635099998,0.001244253944606,0.00017508567543699999,-10.9012670516968,21.2526931762695,-34.2202949523926,0.056508556008339005,0.05381481349468199,0.059091567993164,985.8938598632809,0,13.0,1,1
3.84,0.09109163,-0.1513112,9.761141,0.000288926414214,0.000977880670689,0.000175237539224,-10.5379981994629,20.4864196777344,-33.9234962463379,0.055835470557212996,0.058437652885913995,0.040165901184082,985.880737304688,0,13.0,1,1
3.88,0.08388513,-0.16561003,9.768239999999999,0.000156122841872,0.0016436128644270003,-9.092659456655379e-05,-10.928525924682601,21.3320999145508,-33.5278816223145,0.06986837089061701,0.077436871826649,0.030705451965332,985.903198242188,0,13.0,1,1
3.92,0.086238325,-0.16322578,9.761135000000001,0.000689108739607,0.000178817921551,0.00017554126679900005,-10.9490156173706,21.1550216674805,-33.7453117370605,0.06473931670188901,0.08178892731666601,0.049648284912109,985.872680664063,0,13.0,1,1
3.96,0.09098136400000001,-0.15607508,9.754029,0.00055665941909,0.000578176695853,0.000175844877958,-11.1882848739624,21.8268890380859,-34.3636322021484,0.05914105474948901,0.067372396588326,0.040197372436524,985.8600463867191,0,13.0,1,1
4.0,0.09811431,-0.14654113,9.7682295,0.00055665941909,0.000578176695853,0.000175844877958,-11.1882848739624,21.8268890380859,-34.3636322021484,0.04482601583004,0.057671919465065,0.025994300842284997,985.8600463867191,0,13.0,1,1
4.04,0.088517934,-0.15845652,9.75639,0.00042385596316300004,0.000711277127266,-0.0004897929611619999,-11.171138763427699,21.3688888549805,-34.4164619445801,0.05931264162063599,0.066750712692738,0.05439853668212901,985.8602905273441,0,13.0,1,1
4.08,0.090871096,-0.1560724,9.768222999999999,-0.00037473731208599993,-0.0010198336094620001,-9.016721742227671e-05,-10.785421371460002,21.519210815429698,-34.2537422180176,0.06368924677372,0.061564818024634996,0.035466194152832,985.8923950195309,0,13.0,1,1
4.12,0.10517377,-0.14892162,9.775319999999999,-0.00010806717909899999,0.00031168825808,0.00044261640869099994,-10.979041099548303,21.4433097839355,-34.2964477539063,0.044173985719681,0.061307244002819,0.026004791259766003,985.8923950195309,0,13.0,1,1
4.16,0.09079754,-0.16083713,9.768216,-0.001306134276092,0.000178472866537,0.000176452391315,-11.099995613098098,21.5406646728516,-34.1295356750488,0.062936961650848,0.07060267776250799,0.044950485229492,985.8720092773441,0,13.0,1,1
4.2,0.09554058,-0.14653657,9.77058,0.00029211526271,0.0007110469741749999,-0.00022286956664200003,-10.866675376892099,20.968826293945302,-33.901077270507805,0.048444122076035004,0.046500369906425996,0.030749320983887003,985.8721313476559,0,13.0,1,1
4.24,0.0835543,-0.15845205,9.758739,-0.0010059482883660001,0.00034258217783599996,0.00029657111736,-11.1826333999634,21.0947265625,-34.3986473083496,0.062536686658859,0.055487684905529,0.044956207275391,985.897338867188,0,13.0,1,1
4.28,0.09307715,-0.15606789999999998,9.780043,-0.000206646509469,7.62087875045836e-05,0.00042988097993700003,-10.5444917678833,20.9547386169434,-34.411808013916,0.052784249186515995,0.064745657145977,0.030755996704102,985.8870239257809,0,13.0,1,1
4.32,0.0906505,-0.15130042,9.780039,6.0023856349289404e-05,0.000342467159498,-0.00010259886039399998,-11.2439413070679,21.089714050293,-33.9269981384277,0.061941906809807004,0.064824461936951,0.030767440795898996,985.8561401367191,0,13.0,1,1
4.36,0.10495317,-0.13938315,9.765832000000001,0.000593009986915,-0.000190222053789,-0.00023560499539600002,-11.1561946868896,21.1717834472656,-33.791355133056605,0.042736947536469,0.050069846212864005,0.04970645904541001,985.8662719726559,0,13.0,1,1
4.4,0.07384765,-0.15368192,9.761095,-0.0006050573429090001,-0.00019027962116499998,-0.000235453131609,-11.1430397033691,21.5533294677734,-34.5855522155762,0.076269686222077,0.054602928459644,0.04970645904541001,985.8739624023441,0,13.0,1,1
4.44,0.1000998,-0.16083078,9.763458,0.000460560782813,-0.0009892848320309999,-0.000235301326029,-10.8976802825928,20.8873558044434,-34.2764549255371,0.04723976552486401,0.06869383901357701,0.03551101684570299,985.8588256835941,0,13.0,1,1
4.48,0.08750635400000001,-0.1536652,9.761031,-0.00020487466827,0.001407500589266,0.000297482358292,-10.6208810806274,21.0409049987793,-33.866184234619105,0.052364468574524,0.06376663595438,0.054510116577149006,985.8561401367191,0,13.0,1,1
4.52,0.089835286,-0.1584303,9.770494,-0.00033711193827900003,-0.000723740027752,-0.0007617243682030001,-10.579221725463901,21.1326904296875,-34.0319442749023,0.057072818279266,0.053762465715408,0.040309906005859,985.8888549804691,0,13.0,1,1
4.56,0.08499461400000001,-0.15842874,9.772858,-0.00033510132925599994,-0.000191434693988,0.000437558803242,-11.1069250106812,21.270931243896502,-34.343639373779304,0.066715374588966,0.067619726061821,0.049777984619141,985.8837280273441,0,13.0,1,1
4.6,0.0849337,-0.16081049,9.768118,0.000198117399123,0.000207943900023,0.000171494495589,-10.9910793304443,21.5374450683594,-34.377086639404304,0.066269114613533,0.062615111470223,0.030852317810059,985.9013061523441,0,13.0,1,1
4.64,0.09682226,-0.15127595,9.751541,-0.000200769107323,0.00020784855587400002,3.8588244933634996e-05,-10.7538738250732,21.2323951721191,-33.7799110412598,0.047274515032768,0.057700701057910996,0.068731307983399,985.853393554688,0,13.0,1,1
4.68,0.09437144,-0.14889117,9.779942,0.0009982399642470001,-0.001256984192878,0.000438313843915,-11.0431480407715,20.4349212646484,-33.996612548828104,0.042480424046516994,0.038510419428349,0.021392822265625,985.868408203125,0,13.0,1,1
4.72,0.091920555,-0.15127297,9.75153,-0.000732226471882,-0.0009907635394480001,0.000704881269485,-10.8895273208618,20.5264282226562,-34.564529418945305,0.051898673176766004,0.0474733710289,0.040335655212402,985.855224609375,0,13.0,1,1
4.76,0.096639454,-0.1584213,9.770462,-6.584933726117011e-05,0.000740194169339,0.00043881719466300006,-11.121464729309098,20.9938278198242,-34.171215057373,0.04218535125255599,0.061652258038521,0.035607337951660004,985.883178710938,0,13.0,1,1
4.8,0.09179872,-0.15365319,9.768089,0.0002010538592,7.43091222830117e-05,-9.35629359446466e-05,-11.000509262084998,20.8964691162109,-34.338123321533196,0.051857590675354004,0.056594565510750004,0.03560829162597701,985.890502929687,0,13.0,1,1
4.84,0.10129738,-0.15126844,9.760982,0.00020164094166799998,-0.0005915758083569999,-9.331136243417859e-05,-11.6578636169434,21.861282348632802,-34.293285369873,0.042327612638473996,0.047017820179463,0.045082092285156,985.898071289063,0,13.0,1,1
4.88,0.08211726,-0.16080005,9.765711,-6.408750778064129e-05,-0.000325355242239,-0.000625691318419,-11.1069250106812,21.2709274291992,-34.343639373779304,0.06140154600143401,0.070531882345677,0.040351867675781,985.88037109375,0,13.0,1,1
4.92,0.09639573,-0.16079856,9.77754,-6.35004253126681e-05,-0.001390714198351,-9.28078661672771e-05,-11.2739677429199,21.3779983520508,-34.4781303405762,0.042551487684249996,0.07053943723440201,0.04035568237304701,985.8955078125,0,13.0,1,1
4.96,0.08916509,-0.15603055,9.7728,0.0007360345334750001,7.39279203116894e-05,4.06016479246318e-05,-11.271604537963901,21.6433181762695,-34.032112121581996,0.051851302385330006,0.051367685198784006,0.035630226135253996,985.898193359375,0,13.0,1,1
5.0,0.09388402,-0.15841229999999998,9.739655,0.000603464024607,-0.000192483363207,-0.000225462426897,-11.066925048828098,21.255325317382802,-33.7330131530762,0.056878581643105,0.055779881775379,0.068770408630371,985.8600463867191,0,13.0,1,1
5.04,0.105772555,-0.14411117,9.765689,-0.00046121253399199994,-0.0016573159955439998,0.000307420967147,-10.9117841720581,21.3483047485352,-34.3782386779785,0.042847514152527,0.050669513642787996,0.035626411437988,985.8771362304691,0,13.0,1,1
5.08,0.09615201,-0.1512595,9.770418,7.200666004791859e-05,-0.00045898987446,0.00017451465828299999,-10.8309659957886,21.1606369018555,-34.456695556640604,0.057115316390990996,0.060002379119395995,0.045101165771484,985.8771362304691,0,13.0,1,1
5.12,0.07458198,-0.1750908,9.760943,7.200666004791859e-05,-0.00045898987446,0.00017451465828299999,-10.9739322662354,21.0794410705566,-34.4299125671387,0.07605341076850901,0.073846094310284,0.045105934143067,985.8771362304691,0,13.0,1,1
5.16,0.10080996,-0.14410673,9.763304,-6.056396523490551e-05,-0.000725401099771,4.1608524043113e-05,-11.284482955932601,21.4736061096191,-34.6360740661621,0.038038179278374,0.044993437826634,0.049840927124024006,985.879638671875,0,13.0,1,1
5.2,0.08879948,-0.14887170000000002,9.763297999999999,-0.00032629276393,-0.00032602265127900005,-9.129784302785991e-05,-11.161846160888699,21.9039421081543,-33.7563438415527,0.051965638995170996,0.044554732739925,0.03564643859863299,985.8899536132809,0,13.0,1,1
5.24,0.093518436,-0.16316988,9.756191000000001,-0.00045886338921300005,0.00020651385420900002,-0.000224204035476,-11.131001472473098,21.4591979980469,-34.504913330078104,0.056619569659233,0.058731876313685996,0.049857139587402,985.864501953125,0,13.0,1,1
5.28,0.09345746,-0.14886875,9.7538185,7.435580482706429e-05,7.326045306399459e-05,-0.000357110227924,-11.2670383453369,21.6477394104004,-34.264026641845696,0.05112059414386799,0.058627746999264006,0.040404319763183996,985.8945922851559,0,13.0,1,1
5.32,0.09817630000000001,-0.15125056,9.753813000000001,-5.76277379877865e-05,0.0006057016435080001,0.000841814500745,-10.9142847061157,20.977069854736303,-34.125171661377,0.050816372036934,0.05351759493351001,0.04514884948730501,985.8818969726559,0,13.0,1,1
5.36,0.08855584,-0.13933267,9.758542,-5.76277379877865e-05,0.0006057016435080001,0.000841814500745,-10.9142847061157,20.977069854736303,-34.125171661377,0.055671587586403,0.024820946156979,0.054618835449219,985.8818969726559,0,13.0,1,1
5.4,0.09327471,-0.16078062,9.756167999999999,-0.00032276910496900006,-0.00019343663006999998,0.000309686089167,-10.7094688415527,20.694988250732397,-34.525154113769496,0.055390104651451,0.062540650367737,0.049895286560059,985.884399414062,0,13.0,1,1
5.44,0.07887435,-0.14171292,9.770367,-0.00032276910496900006,-0.00019343663006999998,0.000309686089167,-10.7094688415527,20.694988250732397,-34.525154113769496,0.065108567476273,0.04344107955694201,0.030957221984862997,985.884399414062,0,13.0,1,1
5.48,0.09315288,-0.15839435,9.758525,0.000210449972656,-0.000193532032426,-8.95360135473311e-05,-11.104860305786099,20.9041137695313,-34.3224906921387,0.045719265937804995,0.057549275457859005,0.064106941223145,985.9144897460941,0,13.0,1,1
5.52,0.0936088,-0.15363903,9.770403,-5.5278476793318994e-05,-6.0469319578260204e-05,-8.92842654138804e-05,-10.9368391036987,21.1668090820312,-34.3637542724609,0.055535435676575,0.057207874953747004,0.030964851379395003,985.8870239257809,0,13.0,1,1
5.56,0.08692396,-0.1512676,9.763346,-5.657778820022939e-05,-6.0258491430431604e-05,0.00030963274184599995,-11.03382396698,22.182243347168,-34.408229827880895,0.049251616001129005,0.052151046693324994,0.04508113861083999,985.871826171875,0,13.0,1,1
5.6,0.086901605,-0.16080017,9.765711,0.000468988611829,-0.000458585273009,0.000439762545284,-11.1611652374268,21.6415710449219,-34.3569679260254,0.058892339468002,0.066368192434311,0.04508113861083999,985.8916015625,0,13.0,1,1
5.64,0.09882879,-0.15364976,9.768075999999999,0.00046920339809699993,-0.00045862025581300004,-9.277695789933199e-05,-11.3488349914551,21.4656448364258,-34.0098152160645,0.04940620064735401,0.056712850928306996,0.04981613159179701,985.868774414062,0,13.0,1,1
5.68,0.08924684,-0.14649947,9.777542,-0.0007290024659599999,-0.000991286942735,0.000306789181195,-10.7484664916992,21.5006637573242,-33.4885063171387,0.053976967930794005,0.046926207840443004,0.03561592102050799,985.8534545898441,0,13.0,1,1
5.72,0.09639418,-0.14888217,9.765705,0.000187108700629,0.00030508823692799997,0.000793253071606,-10.393212318420401,21.2012252807617,-33.602710723877,0.05877228081226401,0.046376079320907995,0.040349006652832,985.8965454101559,0,13.0,1,1
5.76,0.089202166,-0.14649834,9.763336,-0.000478465866763,-0.000627052271739,-0.0006713921320619998,-10.9845857620239,21.0691299438477,-33.8887748718262,0.05373837053775799,0.03665945678949399,0.054554939270019996,985.889038085938,0,13.0,1,1
5.8,0.098739445,-0.1703306,9.765701,0.000320697261486,0.000438176328316,-0.000404983817134,-10.8681974411011,20.9673538208008,-33.8237724304199,0.048992872238159,0.06960229575634,0.040348052978516,985.881225585938,0,13.0,1,1
5.84,0.08437765,-0.16079684,9.784636500000001,-0.0010106666013600001,-0.0006271221791390001,0.000527214026079,-10.780313491821301,21.1553421020508,-34.3872032165527,0.058117017149924996,0.055142320692539,0.021417617797852,985.8812866210941,0,13.0,1,1
5.88,0.096304834,-0.15602978,9.7633295,0.000321128114592,0.001370211830363,0.000793622224592,-10.910804748535199,21.7180671691895,-34.5539970397949,0.043015539646149,0.06429240852594399,0.040365219116211,985.898803710938,0,13.0,1,1
5.92,0.10584208,-0.1607958,9.751491999999999,-0.000344446336385,0.000571229320485,0.0003942406910940001,-10.8414831161499,21.256244659423803,-34.614635467529304,0.043022766709327996,0.04990327358245901,0.049834251403809,985.9114379882809,0,13.0,1,1
5.96,0.091480345,-0.14411236,9.772793,0.000721032556612,-0.001293016714044,0.00039433297933999994,-10.8551807403564,21.242984771728498,-33.918888092041,0.057696521282195996,0.035224355757236994,0.059298515319824004,985.8634643554691,0,13.0,1,1
6.0,0.09384787,-0.15602817,9.756222,-0.00034401594894,-0.001159893814474,-0.000138206465635,-10.4150857925415,21.1285934448242,-34.441921234130895,0.047930553555489,0.054078057408333005,0.049831390380859,985.8683471679691,0,13.0,1,1
6.04,0.09382555,-0.14887775,9.772791,0.000188831414562,0.0012369141913949999,-0.00013811426470100002,-10.977519035339402,21.4447860717773,-34.373752593994105,0.047500923275948,0.053903788328171,0.030899047851563,985.9013671875,0,13.0,1,1
6.08,0.09141332,-0.1536438,9.760952,-0.000743058801163,-0.000627331959549,-0.000271179887932,-10.8264007568359,21.1650543212891,-34.688610076904304,0.057086512446404,0.058203600347042,0.049834251403809,985.9038696289059,0,13.0,1,1
6.12,0.093780875,-0.14649342,9.770418,0.000322419975419,0.0008373704622499999,0.000261544249952,-11.2835350036621,20.6311073303223,-33.7400932312012,0.046768382191658,0.04830756783485401,0.03564262390136701,985.898803710938,0,13.0,1,1
6.16,0.091368645,-0.14172627,9.760947,-0.00047631218330900003,0.00030470371712,-0.0009367848397230001,-11.1476049423218,21.548908233642603,-34.3536338806152,0.042239099740982,0.02437436580658,0.05931186676025401,985.8633422851559,0,13.0,1,1
6.2,0.09612608,-0.16079195,9.76568,0.00018969312077400001,-0.000494278850965,-0.000270902935881,-10.7461261749268,21.3456802368164,-34.8655128479004,0.041693821549416,0.06215388327837001,0.045113563537598,985.9013061523441,0,13.0,1,1
6.24,0.09132391,-0.14410849,9.758577,-0.0010085131507369999,0.000437791692093,0.000394979055272,-11.0046396255493,21.630104064941396,-34.380416870117195,0.051185369491577,0.04764178395271299,0.045114517211914,985.8960571289059,0,13.0,1,1
6.28,0.1032511,-0.15840758,9.7656765,0.0005895975627940001,-0.000494348816574,-4.40242001786828e-06,-10.4898157119751,21.322151184082,-34.672683715820305,0.036709293723106,0.047320112586022,0.035647392272949,985.865600585938,0,13.0,1,1
6.32,0.10322875,-0.15602376,9.770408999999999,-0.000874924648087,-0.00022806786000699998,0.0006614795420319999,-10.854201316833501,21.612747192382802,-34.0946426391602,0.0415218770504,0.051472641527653004,0.049844741821289,985.88330078125,0,13.0,1,1
6.36,0.08408719,-0.1488734,9.753836,-0.0004752355744130001,0.000304528919514,-0.00027053384110299996,-11.422722816467301,21.9230461120605,-33.717258453369105,0.055287450551987,0.041691824793816,0.04511928558349599,985.8759155273441,0,13.0,1,1
6.4,0.09840423,-0.14887287,9.763302000000001,0.000457085494418,0.001103441463783,0.00012903235619900002,-11.126573562622099,21.357700347900398,-34.037746429443395,0.035960644483566,0.041882626712322,0.049860954284667997,985.880493164063,0,13.0,1,1
6.44,0.08643246,-0.15602215,9.765668,0.00032414280576599996,-0.000627646630164,-0.000137191324029,-10.972410202026401,21.0809173583984,-34.5072174072266,0.054790541529656,0.055909380316733995,0.035661697387695,985.8632202148441,0,13.0,1,1
6.48,0.08641004599999999,-0.14172189,9.758564,0.00032414280576599996,-0.000627646630164,-0.000137191324029,-10.806453704834,21.7104225158691,-34.5696296691895,0.054864048957825,0.041585981845856004,0.054600715637207003,985.8632202148441,0,13.0,1,1
6.52,0.09826118,-0.1536359,9.756186999999999,0.00032435829052700004,-9.504979243502021e-05,0.00012921699089899998,-11.0954303741455,21.545089721679698,-34.3614540100098,0.044997796416283,0.041276156902312996,0.059346199035644996,985.873168945312,0,13.0,1,1
6.56,0.0838964,-0.15363522,9.768023,-7.49000464566052e-05,-0.000361400598194,0.000129309191834,-10.6358251571655,21.2380142211914,-34.4912910461426,0.054086208343506,0.03652884066104899,0.049886703491211,985.870361328125,0,13.0,1,1
6.6,0.09104073,-0.16316776,9.753817,0.00045522046275400004,0.000975500617642,-1.65158417075872e-06,-10.9699096679688,21.4521484375,-34.7602767944336,0.054199129343032997,0.05533800274133701,0.04988479614257799,985.888427734375,0,13.0,1,1
6.64,0.09818506,-0.14886744,9.772752,0.00032257521525,-0.000489320023917,0.000398042029701,-10.6950674057007,20.866176605224602,-33.9984970092773,0.039362385869026004,0.045581519603729005,0.030953407287598,985.8778686523441,0,13.0,1,1
6.68,0.09098995,-0.15839995,9.758546,-0.000342970015481,0.00044274592073599995,0.000531304744072,-11.0763559341431,20.6143493652344,-33.6940574645996,0.044159173965454,0.05971720069646799,0.049892425537109,985.913330078125,0,13.0,1,1
6.72,0.07901507599999999,-0.15601604,9.777481,0.000189906684682,-8.99255974218249e-05,-0.000667011772748,-10.896158218383801,20.888828277587898,-34.3537559509277,0.062962040305138,0.054524458944798,0.040426254272461,985.900756835938,0,13.0,1,1
6.76,0.09810889,-0.15601541,9.772745,0.000323309097439,4.31927037425339e-05,-1.1172960512340098e-06,-10.7541723251343,20.6002578735352,-34.2047843933105,0.043776050209999,0.04507088661193901,0.030961036682129,985.8651733398441,0,13.0,1,1
6.8,0.08374411,-0.15601476,9.775109,5.72381541132927e-05,-9.00050508789718e-05,-0.00040048611117500006,-10.4196519851685,21.1241722106934,-34.2100028991699,0.058004528284072994,0.044857554137707,0.026229858398438,985.885620117188,0,13.0,1,1
6.84,0.098058134,-0.16078074,9.777474,0.00045695644803300003,-0.00048951851204,-0.000400381337386,-10.886866569519,21.4238815307617,-33.6936416625977,0.033484369516373,0.044534273445605996,0.021501541137695,985.8955688476559,0,13.0,1,1
6.88,0.095642805,-0.1560135,9.7656355,-7.54304928705096e-05,-0.000489558267873,0.000664987019263,-10.563596725463901,20.6732139587402,-34.0074653625488,0.037866145372391,0.048898957669735,0.04991340637206999,985.8955078125,0,13.0,1,1
6.92,0.09561747,-0.15362968,9.765635000000001,0.000724006560631,0.000176151981577,-0.000266908726189,-10.7166423797607,21.4256744384766,-34.412830352783196,0.042339667677879,0.039178028702736,0.054652214050292997,985.8956909179691,0,13.0,1,1
6.96,0.081252635,-0.1464792,9.767998,-0.0008736443705860002,0.000442428165115,-0.00013364612823399998,-10.817108154296902,21.700115203857397,-34.028491973877,0.046868547797203,0.038877233862876996,0.030982971191406004,985.8904418945309,0,13.0,1,1
7.0,0.09556669,-0.15124513,9.758528,0.000990811618976,0.000176072644535,0.000532248523086,-11.100975036621099,21.1709060668945,-33.953781127929695,0.027375862002373,0.043887160718441,0.040462493896484,985.9030151367191,0,13.0,1,1
7.04,0.0955413,-0.15362774,9.753789999999999,5.895062349736689e-05,0.0007086644764060001,0.000532353355084,-11.187742233276401,21.4585952758789,-34.2651786804199,0.041283130645752,0.043644636869431,0.06887435913085901,985.8955078125,0,13.0,1,1
7.08,0.093126,-0.15124388,9.758523,-0.000473436317407,-9.03228064998984e-05,0.001065090065822,-11.038283348083501,21.0714797973633,-33.803653717041,0.03150804340839399,0.043232262134552,0.04520320892333999,985.8627319335941,0,13.0,1,1
7.12,0.09071069999999999,-0.16315965,9.765622,0.000325755914673,0.0007085850811560001,0.0006657210178670001,-10.8005037307739,21.610397338867198,-34.1797676086426,0.040800407528876995,0.038349360227585,0.04994297027587901,985.885498046875,0,13.0,1,1
7.16,0.08829546,-0.15124266,9.758517999999999,0.0007254745578390001,0.00017591362120599995,-0.001198385376483,-11.106925964355499,21.2709350585938,-34.343639373779304,0.045364424586296,0.043020874261856,0.04521274566650401,985.859985351562,0,13.0,1,1
7.2,0.09543973,-0.15600856,9.765617,-0.00020638643764,4.27159829996526e-05,0.000133298977744,-11.3089952468872,20.9238166809082,-34.5231437683105,0.030602276325226004,0.037697926163673,0.04995059967041001,985.8804321289059,0,13.0,1,1
7.24,0.09541437,-0.16077448,9.749044,-0.000601885840297,6.24689855612814e-05,0.00045787490671499994,-11.042711257934599,21.1729736328125,-34.2708168029785,0.035402223467827,0.056633695960045,0.054684638977050996,985.882934570313,0,13.0,1,1
7.28,0.09777886,-0.15362401,9.777449,-0.00046848331112400005,-0.0004702025617009999,-7.46519071981311e-05,-11.0593156814575,21.2626876831055,-34.119537353515604,0.039877578616141995,0.042196527123451,0.03575134277343799,985.864990234375,0,13.0,1,1
7.32,0.097753525,-0.15362342,9.760876,0.00046386697795199993,0.00059502129443,-0.00034086301457099996,-11.0622224807739,21.3656616210937,-34.664005279541,0.025613144040107998,0.041901931166649,0.054689407348633,985.8930053710941,0,13.0,1,1
7.36,0.08099884,-0.14408971,9.760874000000001,0.00059726962354,-0.0011360717471689998,-7.44422432035208e-05,-11.2959785461426,21.1994476318359,-34.618259429931605,0.04461744427681,0.032523490488529,0.049959182739258,985.859985351562,0,13.0,1,1
7.4,0.09053302,-0.15838875,9.758503,0.00033119833096900003,0.000994415604509,-7.43374694138765e-05,-10.651343345642099,20.591140747070302,-34.1431083679199,0.053898066282272006,0.041893817484378995,0.040495872497558996,985.8878784179691,0,13.0,1,1
7.44,0.10723695,-0.1583881,9.760869,-6.803078576922421e-05,-0.00020404555834799997,-0.0007400223985310001,-11.0442333221436,21.1715049743652,-34.193511962890604,0.020266801118851003,0.046597719192504994,0.045234680175781,985.8795776367191,0,13.0,1,1
7.48,0.09505910000000001,-0.15123267,9.770317,0.0011306352680550001,-0.00060355901951,-0.0007399173919110001,-10.901405334472699,21.1467819213867,-33.521213531494105,0.039162576198578,0.037301063537598,0.035774230957031,985.892944335938,0,13.0,1,1
7.52,0.09720835,-0.14646025,9.756092,0.000465090502985,0.000861138454638,-0.000606654444709,-10.7289791107178,20.8876724243164,-34.918342590331996,0.034571528434754,0.032306186854839,0.050017356872559,985.872680664063,0,13.0,1,1
7.56,0.09955639,-0.14407595,9.756088,0.0007327490020539999,0.00086307170568,0.00046057839063,-11.1826343536377,21.0947265625,-34.3986434936523,0.029067471623421,0.027663640677928997,0.05003356933593799,985.865112304688,0,13.0,1,1
7.6,0.09234485,-0.14884149,9.779757,-6.579537875950339e-05,0.0011293219868090002,-0.00020503840642,-11.191871643066401,22.1922302246094,-34.3074760437012,0.043176963925361994,0.037137262523173994,0.021634101867676003,985.8700561523441,0,13.0,1,1
7.64,0.08991316,-0.16552334,9.746611,0.000866713467985,-0.00046863858006000004,-0.000204865587875,-10.6006898880005,20.5858459472656,-34.073619842529304,0.038708627223969,0.061007298529148,0.05004215240478501,985.8700561523441,0,13.0,1,1
7.68,0.08509147,-0.15122266,9.753708999999999,0.000600800849497,-0.0010013359133150001,0.0008605708135289999,-10.729116439819302,20.781757354736303,-34.219264984130895,0.053032100200653,0.041946366429329,0.05951595306396499,985.8878784179691,0,13.0,1,1
7.72,0.08504966,-0.15360494,9.760807000000002,0.0006012041121719999,-0.00020245357882199997,6.17959885857999e-05,-10.882598876953098,20.7961654663086,-34.3504257202148,0.043281868100166,0.036959320306778,0.050050735473633,985.88720703125,0,13.0,1,1
7.76,0.07783812,-0.15598713,9.758436,-0.00033049832563800005,-6.93611800670624e-05,6.19686325080693e-05,-11.0864353179932,21.4480056762695,-34.1262016296387,0.047626212239266004,0.04157967120409,0.050058364868164,985.85986328125,0,13.0,1,1
7.8,0.10408521,-0.1583694,9.763166,-0.00033049832563800005,-6.93611800670624e-05,6.19686325080693e-05,-11.087414741516099,21.0782470703125,-33.950447082519496,0.028678074479102995,0.046238869428635004,0.050059318542481,985.85986328125,0,13.0,1,1
7.84,0.08014434599999999,-0.1583684,9.756062,-6.377918180078271e-05,0.000463205215055,-0.000736806134228,-10.7812919616699,20.7855758666992,-34.2114448547363,0.043130978941917995,0.050887733697891,0.05479621887206999,985.8923950195309,0,13.0,1,1
7.88,0.09444189,-0.15836732,9.77026,0.0003360979026179999,-0.00113475555554,6.23143860138953e-05,-11.1211652755737,21.6259613037109,-33.7463417053223,0.03346349298954,0.045816324651241,0.035861015319824,985.8726196289059,0,13.0,1,1
7.92,0.08484048,-0.14406670000000002,9.763155000000001,-6.25693937763572e-05,0.000329850823618,0.000195818050997,-10.786400794982901,21.1494522094727,-34.0779838562012,0.047764718532562006,0.031220950186253,0.031128883361817003,985.8827514648441,0,13.0,1,1
7.96,0.094358206,-0.14406570000000002,9.763150999999999,-6.25693937763572e-05,0.000329850823618,0.000195818050997,-10.786400794982901,21.1494522094727,-34.0779838562012,0.038431584835053004,0.026396043598652004,0.035862922668457,985.8827514648441,0,13.0,1,1
8.0,0.082366884,-0.14644785,9.753679,0.00020414975006099998,-0.0007354781846519999,-7.03249243088067e-05,-10.772841453552198,21.0567893981934,-34.074649810791,0.043034166097641,0.040734797716141,0.04533767700195299,985.89013671875,0,13.0,1,1
8.04,0.08471495,-0.14644684,9.765511,0.000337710953318,-0.0004692277289,0.000462479394628,-10.4989471435547,21.313308715820302,-34.208850860595696,0.05207730829715701,0.04079630225896799,0.045350074768067,985.9022827148441,0,13.0,1,1
8.08,0.08945292,-0.15836222,9.76314,0.0008707459783180001,-0.000202977331355,-6.99795200489461e-05,-11.038825988769501,21.4397659301758,-33.9021034240723,0.047681018710137,0.049998693168162994,0.054815292358399006,985.874877929687,0,13.0,1,1
8.12,0.07507169,-0.15359463,9.763136,-0.00032727234065499996,0.00032958906376700007,0.000196509237867,-11.165188789367699,21.2688598632812,-34.026599884033196,0.05247300863266,0.035213619470596,0.050079345703125,985.8847045898441,0,13.0,1,1
8.16,0.07980960599999999,-0.14167728,9.753663000000001,-0.00019371113739900003,-0.00140152964741,-0.00046910758828699997,-11.357285499572802,21.1944351196289,-34.1466102600098,0.042781531810761,0.030226774513722,0.054817199707031,985.879638671875,0,13.0,1,1
8.2,0.0821577,-0.15359257,9.753658,-0.00032646569889,-0.000469489546958,-0.00046893482794999996,-11.122007369995101,21.362117767334002,-34.269664764404304,0.047311052680016,0.039510257542133,0.054821968078613004,985.8720703125,0,13.0,1,1
8.24,0.09406543,-0.15597485,9.772592999999999,-0.000192904728465,0.000196234614123,-0.00046876195119699996,-11.0673303604126,21.7295303344727,-34.530544281005895,0.033419758081436,0.043875619769096,0.04061317443847701,985.8997192382809,0,13.0,1,1
8.28,0.08207402,-0.15120731,9.758386999999999,-0.0005915720248589999,-0.001268633641303,-0.000202100607567,-11.374432563781701,21.6524353027344,-34.0937843322754,0.052640840411185996,0.038880005478858996,0.05481624603271499,985.9049682617191,0,13.0,1,1
8.32,0.0987615,-0.1559728,9.76075,-0.000324853113852,-7.02775432728231e-05,0.000597019912675,-10.9690675735474,21.7159957885742,-34.2369575500488,0.023594245314598,0.038343854248524004,0.05008602142333999,985.8795776367191,0,13.0,1,1
8.36,0.08199036,-0.15835504,9.76548,-5.8133853599429103e-05,6.281491369009019e-05,6.45609688945115e-05,-11.2739677429199,21.3779983520508,-34.4781303405762,0.056771159172058,0.042912222445011,0.026418685913086003,985.8822631835941,0,13.0,1,1
8.4,0.09150815,-0.15597077,9.753639999999999,-5.773059092462061e-05,0.000595381192397,-6.842409493401651e-05,-10.57603931427,21.2415504455566,-34.885631561279304,0.032866254448891005,0.042712889611721004,0.045358657836914,985.882446289063,0,13.0,1,1
8.44,0.08429658400000001,-0.15835299,9.767839,-0.00019048538524700002,6.26840046606958e-05,0.000597538426518,-11.4059810638428,21.939250946044897,-34.567615509033196,0.051387801766396,0.047334536910057005,0.03590011596679701,985.8770141601559,0,13.0,1,1
8.48,0.08726412,-0.1583672,9.772627,-5.6924065575003604e-05,0.000328934576828,0.000198237306904,-11.0789632797241,21.3494567871094,-33.8136520385742,0.041800111532211,0.037418894469738,0.040635108947753996,985.8845825195309,0,13.0,1,1
8.52,0.08309910000000001,-0.14646585,9.760847,7.2203460149467e-05,-0.001001990749501,0.000462825933937,-11.0183372497559,21.6168479919434,-33.6846733093262,0.045239672064781,0.027616269886494,0.049989700317383,985.89697265625,0,13.0,1,1
8.56,0.095056236,-0.14646606,9.75848,-6.82681566104293e-05,0.00033077591797299997,0.00019337562844200002,-11.052248954772999,21.6383438110352,-34.6045150756836,0.030644908547402,0.017940305173397,0.054725646972656,985.89990234375,0,13.0,1,1
8.6,0.08550426,-0.13693316,9.763216,-0.00033465749584099996,0.000197629909962,-7.29717430658638e-05,-11.2975006103516,21.1979751586914,-34.540958404541,0.035687029361725,0.031807184219360005,0.03577804565429701,985.8700561523441,0,13.0,1,1
8.64,0.08790177,-0.15599949999999999,9.746646,-0.000334730953909,-0.0014002535026520003,-0.000206161115784,-11.3196496963501,20.9135055541992,-33.9820022583008,0.045233666896820006,0.041022710502147994,0.06417942047119099,985.8947143554691,0,13.0,1,1
8.68,0.08073968,-0.15361641,9.756115,-0.00060112006031,-0.000201819988433,-0.000472508429084,-11.1394529342651,21.1879844665527,-34.6417083740234,0.049605399370194,0.036093130707741,0.064182281494141,985.889404296875,0,13.0,1,1
8.72,0.083137155,-0.16791628,9.758484,-0.00033487775363,0.00099661340937,-0.0012714874465019998,-10.8439836502075,20.8850059509277,-34.3615760803223,0.044250771403313,0.054878026247025,0.045248031616211,985.8895874023441,0,13.0,1,1
8.76,0.0879246,-0.14408375,9.749016000000001,0.0006853775121269999,0.00035180515260400003,0.000524264178239,-11.2825565338135,21.0008697509766,-33.9158515930176,0.039318576455115994,0.021339870989323002,0.059451103210449004,985.8795776367191,0,13.0,1,1
8.8,0.09988174,-0.1583835,9.75375,-0.000113643356599,-4.76566201541573e-05,0.000257916864939,-10.8681974411011,20.967357635498,-33.8237724304199,0.034465849399567,0.035468563437462006,0.054714202880859,985.866821289063,0,13.0,1,1
8.84,0.08316004,-0.16076703,9.76322,-0.00038003269583,8.551319479010999e-05,0.000124727434013,-11.2098913192749,21.174129486084002,-33.7062339782715,0.033859506249428,0.035260729491710996,0.04051589965820299,985.9072265625,0,13.0,1,1
8.88,0.09511715,-0.16076721,9.756119,1.9367667846381698e-05,0.0007513149175790001,0.000124696060084,-11.194373130798303,21.8209915161133,-34.0544090270996,0.038306787610054,0.049303025007248,0.064188003540039,985.8771362304691,0,13.0,1,1
8.92,0.08317530000000001,-0.15361758,9.75612,1.92944426089525e-05,0.00035185288288600003,-8.49331263452768e-06,-11.1989393234253,21.816574096679698,-33.822498321533196,0.04769112169742599,0.025315418839455,0.049984931945800996,985.8670043945309,0,13.0,1,1
8.96,0.09274249999999999,-0.15123446,9.756121,0.000152378925122,-0.00018076694686900002,0.000257791107288,-11.0503215789795,21.1656112670898,-33.884288787841804,0.033017888665198995,0.03448400646448101,0.045248985290527,985.87939453125,0,13.0,1,1
9.0,0.08797026,-0.14885141,9.765591,-0.000779800117016,0.00021871874923800003,-0.00027487211627900005,-10.6994953155518,20.9676742553711,-34.4656639099121,0.042285904288291994,0.029565073549747998,0.035780906677246004,985.8845825195309,0,13.0,1,1
9.04,0.08558798,-0.15600139999999998,9.758488999999999,0.0005517059471460001,0.0008845204720269999,0.00025772815570200005,-11.2836427688599,21.7374534606934,-34.1127510070801,0.036806598305702,0.038920708000660005,0.05945968627929701,985.879638671875,0,13.0,1,1
9.08,0.099934995,-0.15600152,9.753756,-0.000779946916737,0.000485058379127,-0.000141777098179,-11.159941673278801,21.010910034179698,-34.859142303466804,0.01749137043953,0.038520492613316,0.049986839294434,985.8720703125,0,13.0,1,1
9.12,0.087993145,-0.13931887,9.758491000000001,-0.000779946916737,0.000485058379127,-0.000141777098179,-10.965619087219201,21.2447395324707,-33.5940361022949,0.031412236392497996,0.009598322212695999,0.04998779296875,985.8720703125,0,13.0,1,1
9.16,0.10234016,-0.15600197,9.7584915,-0.00011423067189799999,8.55965481605381e-05,0.000390823173802,-11.228858947753901,20.9985275268555,-34.0009727478027,0.016826063394547,0.028726294636726,0.045255661010742,985.861694335937,0,13.0,1,1
9.2,0.097567976,-0.1512356,9.7679615,0.0005514858057719999,0.001017714152113,0.00025763380108400003,-11.410003662109402,21.5665435791016,-34.237247467041,0.025995768606662997,0.038312762975693,0.035792350769043,985.8644409179691,0,13.0,1,1
9.24,0.09040588,-0.15123577,9.760860000000001,0.00028509658295700004,0.000351936352672,-0.000275029393379,-10.865994453430199,20.706455230712898,-34.5017051696777,0.035301730036736,0.023944452404976002,0.049997329711914,985.8947143554691,0,13.0,1,1
9.28,0.08802363,-0.14885266,9.756126,0.000285023008473,8.563240407966079e-05,0.000390728819184,-10.9274091720581,21.8077774047852,-34.4027137756348,0.030163362622261002,0.01887184381485,0.05473136901855501,985.8845825195309,0,13.0,1,1
9.32,0.095200896,-0.17268570000000003,9.756126,-0.000247682095505,0.00048511804197900007,-0.00027509231586,-11.177226066589402,21.362991333007802,-34.107234954834,0.03931337594986,0.056807018816470996,0.05473327636718799,985.871826171875,0,13.0,1,1
9.36,0.09281862,-0.16315271,9.760862,-0.00024775543715799996,0.000884603825398,-0.000141965807416,-11.019178390502901,21.3530044555664,-34.2079925537109,0.029648177325726003,0.051727160811424006,0.049995422363281,985.8821411132809,0,13.0,1,1
9.4,0.08804643,-0.1560031,9.77033,0.000551118748263,-4.7489855205640204e-05,-8.83941538631916e-06,-10.9314317703247,21.4350700378418,-34.0723457336426,0.038875669240952,0.027577087283135,0.021588325500487997,985.8997192382809,0,13.0,1,1
9.44,0.08566415,-0.14408691,9.751394,-0.000780533999205,-0.00044695177348300005,0.0007900767959650001,-11.060295104980499,20.8929290771484,-33.9437828063965,0.038234233856201005,0.027926094830036,0.064208984375,985.879638671875,0,13.0,1,1
9.48,0.08321774,-0.14885207,9.7513895,0.00028465618379400003,0.0012841132702309998,0.000257413572399,-10.655909538269,20.5867233276367,-33.9111976623535,0.04230620712041899,0.032770000398159,0.064225196838379,985.8845825195309,0,13.0,1,1
9.52,0.085612714,-0.14170237,9.7584915,0.000950759393163,0.0008845885749910001,-0.000275083875749,-10.5821285247803,21.2356643676758,-34.5764122009277,0.037595532834529995,0.028048835694790004,0.040553092956543,985.8720092773441,0,13.0,1,1
9.56,0.09517735,-0.163152,9.765594,0.000950759393163,0.0008845885749910001,-0.000275083875749,-10.5821285247803,21.2356643676758,-34.5764122009277,0.027704067528247996,0.037483766674996005,0.035820960998535004,985.8720092773441,0,13.0,1,1
9.6,0.088012725,-0.16076882,9.758492,-0.00011445174459399999,0.0008845799602569999,-8.74546822160482e-06,-10.724252700805698,21.4183120727539,-34.026309967041,0.022554650902747997,0.042070358991623,0.03582191467285201,985.8871459960941,0,13.0,1,1
9.64,0.09757742,-0.14885254,9.753757,0.00028497329913099997,8.564043673686679e-05,-8.76630656421185e-06,-11.1762475967407,21.7327575683594,-34.2829933166504,0.017738789319992,0.032670326530933,0.068964958190918,985.897094726563,0,13.0,1,1
9.68,0.08802289,-0.16553561,9.758492,0.000684398342855,-0.00031382549786900004,0.000390686560422,-10.8319454193115,20.7908706665039,-34.2809371948242,0.041680470108986,0.037330627441406,0.05949401855468799,985.8771362304691,0,13.0,1,1
9.72,0.09280774,-0.15838589,9.760860000000001,0.00028487551025999997,8.565626922063531e-05,0.000257507665083,-11.1240720748901,21.7289352416992,-34.2908134460449,0.022614896297455,0.032342337071896,0.040553092956543,985.8773803710941,0,13.0,1,1
9.76,0.09042293,-0.14885293,9.760860000000001,0.00028482661582499995,-0.000979599426501,-0.00027514516841600003,-10.9996681213379,21.1603164672852,-33.8148002624512,0.022433049976826,0.027236349880695,0.035815238952637,985.866821289063,0,13.0,1,1
9.8,0.08325827,-0.14885302,9.753759,-0.000381011865102,-0.00018064375035499998,0.000390623696148,-11.3117408752441,21.5530090332031,-33.943660736084,0.04654780030250599,0.031739100813866,0.059481620788574004,985.8720092773441,0,13.0,1,1
9.84,0.097602785,-0.1631528,9.749025999999999,-0.0007805345812809999,-0.0016453731805089998,-0.00027518696151700004,-10.953986167907699,21.6248092651367,-34.3109283447266,0.022955097258091,0.03635236620903,0.06420803070068401,985.9047241210941,0,13.0,1,1
9.88,0.092828035,-0.16076972,9.758495,0.00041783798951699997,-0.00018062785966299998,-8.89203511178494e-06,-10.6287889480591,20.4014053344727,-33.904533386230504,0.036781959235668,0.036137655377388,0.054743766784667997,985.892211914062,0,13.0,1,1
9.92,0.09761292,-0.16076984,9.767964,-0.000248000840656,0.001417275285348,-0.0005415448686109999,-10.3086700439453,20.754131317138697,-34.4364051818848,0.026604339480400002,0.040753699839115,0.040545463562012,985.8594360351559,0,13.0,1,1
9.96,0.085668504,-0.15362014,9.753761,0.000550898024812,0.0006183356745169999,-8.93394462764263e-06,-10.8490924835205,21.2488746643066,-34.2281112670898,0.030742503702641005,0.035768553614616,0.050018310546875,985.9248657226559,0,13.0,1,1
10.0,0.09284326400000001,-0.15838678,9.758497,-0.000114940456115,0.001150975353085,0.000257361010881,-10.7879228591919,21.1479797363281,-34.0006828308105,0.025900803506374002,0.04502262920141201,0.045279502868652,985.8770141601559,0,13.0,1,1
10.04,0.08328873,-0.15600364,9.763231,-0.00051446328871,-0.000313754077069,0.00039049799670499996,-10.6124296188354,21.3121185302734,-33.7293891906738,0.035417161881923995,0.025925740599632003,0.050014495849609,985.8771362304691,0,13.0,1,1
10.08,0.095243275,-0.16315357,9.75613,0.000950225163251,-0.0012458517448980001,0.00012416107347200002,-10.782378196716301,21.522155761718697,-34.408351898193395,0.021630264818667998,0.04973185807466501,0.05474185943603501,985.8720703125,0,13.0,1,1
10.12,0.09285849,-0.14647079999999998,9.753763000000001,-0.000248245080002,8.57356644701213e-05,-0.001207439228892,-11.18665599823,20.7220153808594,-34.0682792663574,0.030682913959026,0.025645911693572998,0.054744720458984,985.861694335937,0,13.0,1,1
10.16,0.09047365,-0.14170434,9.767967,-0.000381451915018,-4.74143889732659e-05,0.001056224806234,-11.0407543182373,21.9125022888184,-34.622325897216804,0.030660487711430002,0.020608574151993,0.021598815917968996,985.8744506835941,0,13.0,1,1
10.2,0.08808884,-0.15362079999999997,9.756132000000001,1.79728958755732e-05,-0.000180564384209,0.000390414177673,-11.131001472473098,21.459194183349602,-34.5049171447754,0.030682750046253,0.030018948018551005,0.06420612335205099,985.8845825195309,0,13.0,1,1
10.24,0.090483785,-0.1583875,9.765602000000001,-0.00011523370631,-0.0005800302606080001,-0.00014223851030700001,-10.8915929794312,20.8932495117187,-34.5856742858887,0.030602417886257005,0.034643121063708995,0.045267105102539,985.849487304687,0,13.0,1,1
10.28,0.085709035,-0.14408804,9.756132000000001,7.524690590798851e-05,0.000291052856483,-0.000210398749914,-11.054206848144501,20.8988189697266,-34.253002166748,0.035419754683971,0.020119071006775003,0.049998283386231,985.8770141601559,0,13.0,1,1
10.32,0.09049392,-0.16792089999999998,9.760867999999999,-0.000324275810272,-0.00064104469493,-0.000743051466998,-10.9524641036987,21.6262855529785,-34.3882331848145,0.026014573872089,0.034245602786541,0.054728507995606,985.8928833007809,0,13.0,1,1
10.36,0.0952788,-0.15600462,9.772704,0.000474623055197,-0.0007741947192699999,5.587533814832571e-05,-11.0065975189209,20.890579223632802,-34.028903961181605,0.011550858616828998,0.034250840544701,0.031056404113770003,985.89990234375,0,13.0,1,1
10.4,0.09050408,-0.1440884,9.756134,0.00034141622018100005,-0.000507870921865,-7.7303615398705e-05,-11.0155916213989,20.9876594543457,-34.264152526855504,0.039853043854237,0.02449169754982,0.049995422363281,985.8795776367191,0,13.0,1,1
10.44,0.090619504,-0.14885773,9.770348,-0.00045758031774300006,0.000823716283776,-0.000476798333693,-10.440683364868198,21.315383911132802,-34.525890350341804,0.025281853973866,0.029163718223572,0.040528297424317,985.8847045898441,0,13.0,1,1
10.48,0.09313148,-0.15124400000000002,9.746687,7.44748394936323e-05,0.00042433629278099995,0.000188744190382,-10.6910448074341,21.238883972168,-34.3288612365723,0.024737633764744,0.029063321650028,0.064182281494141,985.859252929687,0,13.0,1,1
10.52,0.08597571,-0.15839417,9.763259,7.44748394936323e-05,0.00042433629278099995,0.000188744190382,-10.679143905639599,21.0388336181641,-33.5491523742676,0.024477221071720002,0.033433608710766,0.040506362915039,985.859252929687,0,13.0,1,1
10.56,0.09793916,-0.15362798,9.749057,0.00033910491038100003,0.0004246098687869999,0.00058749562595,-10.5973472595215,21.2209320068359,-33.8033638000488,0.019782990217209,0.028523713350296003,0.05470466613769499,985.8845825195309,0,13.0,1,1
10.6,0.0860036,-0.15124501,9.760895,-6.050325464457271e-05,0.00015831587370500002,-0.000211509817746,-10.9260244369507,21.7033386230469,-33.7809410095215,0.024691686034203,0.028398811817169,0.049965858459473,985.8744506835941,0,13.0,1,1
10.64,0.08601755,-0.15362863,9.765630999999999,-0.000726427417248,-0.000640610000119,-0.001143672969192,-10.956486701965302,21.2535705566406,-34.0578651428223,0.03471945226192501,0.028284266591072003,0.049958229064942,985.8670043945309,0,13.0,1,1
10.68,0.09320122,-0.15362902,9.75853,0.000205543707125,-0.0015726936981079998,-0.0007442567148250001,-10.7703399658203,21.428024291992198,-34.327713012695305,0.020275391638279,0.018595501780509997,0.068893432617188,985.894409179688,0,13.0,1,1
10.72,0.086045444,-0.15124609,9.756164,0.000205409363844,-0.000640566402581,0.00032094924244999997,-11.032738685607901,21.445659637451197,-34.2113265991211,0.034310229122639,0.032674551010132,0.04522037506103501,985.9046020507809,0,13.0,1,1
10.76,0.08844930000000001,-0.15124638,9.765635000000001,-6.10413262620568e-05,0.00015840312698899998,0.00018773364718099997,-10.9163494110107,21.3438873291016,-34.1463203430176,0.025054626166821,0.028016060590744,0.040482521057128996,985.8821411132809,0,13.0,1,1
10.8,0.09324306,-0.15363003,9.768002000000001,0.000205140328035,-0.000906838511582,0.0007203077548180001,-10.6257448196411,20.4043502807617,-34.059139251709,0.029691219329833998,0.037198007106781,0.04521274566650401,985.8870239257809,0,13.0,1,1
10.84,0.08369744,-0.15601365,9.758534,0.000205005868338,-0.00024102709721799998,-7.86975142545998e-05,-11.1932878494263,21.0844192504883,-33.8575096130371,0.024980984628201003,0.022867649793625,0.04994392395019499,985.8850708007809,0,13.0,1,1
10.88,0.08132148,-0.14648093,9.768005,-0.0003277604701,-0.0007736369734630001,-0.00021191308041999997,-11.2439413070679,21.089714050293,-33.9269981384277,0.039176523685455,0.017657592892646998,0.045204162597656,985.85986328125,0,13.0,1,1
10.92,0.093284905,-0.15124781,9.758536999999999,-0.000461187330075,0.00042482814751599994,-0.00034518627217,-10.6163148880005,21.0453262329102,-34.0981025695801,0.029264785349368997,0.026766061782837004,0.04046821594238299,985.8596801757809,0,13.0,1,1
10.96,0.090908945,-0.15839793,9.753803,-0.0008607954951,0.00042484991718099997,0.000187387806363,-11.283940315246598,21.1053161621094,-34.537624359130895,0.029164232313632996,0.03135858476162,0.04993343353271499,985.875122070313,0,13.0,1,1
11.0,0.086143136,-0.15124847,9.758539,-6.19824277237058e-05,-0.0006403917213900001,-0.00021214358275799998,-11.418455123901401,21.295333862304698,-34.3740425109863,0.029104538261891,0.031108200550078995,0.04046058654785201,985.86474609375,0,13.0,1,1
11.04,0.083767205,-0.16078193,9.768009,-6.211688742041589e-05,0.000158577749971,5.41146728210151e-05,-10.9263229370117,21.0711975097656,-34.205810546875,0.038494847714901005,0.031103864312172002,0.05940055847168001,985.8897094726559,0,13.0,1,1
11.08,0.08856094,-0.16554882,9.753809,-0.000195409171283,0.00029175757663300005,5.40570472367108e-05,-10.6563148498535,21.060932159423803,-34.7087249755859,0.023830831050872997,0.03554280102253,0.045192718505859,985.897338867188,0,13.0,1,1
11.12,0.09813446,-0.14648296,9.749075,0.00047024583909699994,0.00015862146392500002,-7.915857713669541e-05,-11.0577936172485,21.26416015625,-34.1968421936035,0.018676921725273,0.016663774847983998,0.05466842651367201,985.8822631835941,0,13.0,1,1
11.16,0.086198926,-0.15124984,9.772749000000001,0.000203795614652,2.54852930083871e-05,-0.00047868996625799996,-10.7818355560303,21.1538696289062,-34.3098983764648,0.032856002449989,0.020864397287369,0.026254653930663997,985.887573242188,0,13.0,1,1
11.2,0.08621287,-0.16554983,9.763281,7.05030979588628e-05,0.000824454938993,5.3884054068476e-05,-11.0622215270996,21.3656616210937,-34.664005279541,0.037171676754952004,0.049601003527641,0.045197486877442,985.9022827148441,0,13.0,1,1
11.24,0.08383691,-0.15363382,9.749079,0.00033668451942500005,-0.00037394487299000003,-7.93313956819475e-05,-10.8853445053101,21.4253540039063,-33.7709465026855,0.032483778893948,0.030404210090637002,0.064132690429688,985.865112304688,0,13.0,1,1
11.28,0.09819031,-0.15840073,9.756182,-0.00032923941034800004,-0.000107607163955,-0.0006120209000069999,-11.0536632537842,20.5305252075195,-34.154552459716804,0.013165935873984999,0.025534763932227995,0.059396743774414,985.879638671875,0,13.0,1,1
11.32,0.08864465,-0.16555084,9.763285,0.00046957330778199996,0.0006913623074069999,0.000985816819593,-10.6383266448975,20.866775512695302,-34.2382316589355,0.026945203542709,0.039438635110855005,0.0499267578125,985.882690429687,0,13.0,1,1
11.36,0.09104848,-0.1655512,9.746715,-0.000462666503154,0.000291910371743,-0.000745294091757,-11.113555908203098,21.6333274841309,-34.132869720459,0.021934546530247002,0.048927754163742,0.05466365814208999,985.8801879882809,0,13.0,1,1
11.4,0.08628264,-0.14648534,9.749083500000001,0.000202988740057,0.000291932141408,0.00031991180731,-11.2639942169189,21.6506881713867,-34.4186401367187,0.036188386380672996,0.010933384299278,0.064132690429688,985.8773803710941,0,13.0,1,1
11.44,0.09006131,-0.15361054,9.760828,0.000202854163945,-0.00024067773483700002,-0.000612251402345,-10.841757774353,21.0444107055664,-33.216480255127,0.017839692533016004,0.024725735187531003,0.054751396179199004,985.8497924804691,0,13.0,1,1
11.48,0.08525479,-0.1416936,9.760826,-0.0008564593736080001,0.00015783013077499999,-0.000476543500554,-11.0222225189209,21.350055694580103,-34.0533866882324,0.022541388869285996,0.010198473930359001,0.054751396179199004,985.8773803710941,0,13.0,1,1
11.52,0.07566857,-0.14407618,9.765557000000001,0.000212638522498,-0.00024226616369599997,0.0008566792239439998,-10.8531150817871,20.8761672973633,-33.8977470397949,0.041206069290638005,0.014639377593993998,0.050023078918457003,985.8674926757809,0,13.0,1,1
11.56,0.092371225,-0.15599196,9.770289,-0.00058605230879,0.000822955626063,0.0008567892946299999,-10.916893005371099,21.7121734619141,-34.2447700500488,0.026588410139083998,0.03349286317825299,0.03582191467285201,985.85498046875,0,13.0,1,1
11.6,0.08756474,-0.1488414,9.7702875,-0.0008521111449229999,0.001089229830541,0.00019110974972099998,-10.8572454452515,21.609802246093697,-33.940036773681605,0.021617896854878003,0.009399428963661,0.040557861328125,985.8776245117191,0,13.0,1,1
11.64,0.08036839999999999,-0.15122409,9.770285000000001,-5.2906572818756104e-05,-0.00010923325317000001,-0.000341411912814,-10.379514694213901,21.214485168457,-34.2984580993652,0.040666684508323996,0.023321032524108998,0.045290946960449004,985.875122070313,0,13.0,1,1
11.68,0.09707105,-0.16313975,9.744244,-0.000452123582363,-0.0007750646909700001,0.000191329949303,-10.780994415283198,21.4177169799805,-33.786575317382805,0.007508009672164999,0.032636046409607,0.064225196838379,985.8650512695309,0,13.0,1,1
11.72,0.089874655,-0.15360607,9.748974,0.00034708110615599996,-0.000242474663537,-0.001006981357932,-10.4897918701172,21.742454528808604,-32.849655151367195,0.021524325013161,0.018117442727089,0.05949497222900401,985.8726196289059,0,13.0,1,1
11.76,0.08745813,-0.15837188,9.763176,-0.000318451784551,0.000689589069225,0.00045786605915099993,-10.6259899139404,21.4047775268555,-33.732723236084,0.02128978073597,0.022698014974593998,0.045292854309082003,985.8701171875,0,13.0,1,1
11.8,0.08504158,-0.15122147,9.758439,-0.000490609498229,-6.0585036408156204e-05,-0.000122368102893,-10.937520027160598,21.429180145263697,-33.763126373291,0.026123866438866,0.027522891759872995,0.05476570129394499,985.859985351562,0,13.0,1,1
11.84,0.08023512,-0.1559873,9.763171,-0.000490609498229,-6.0585036408156204e-05,-0.000122368102893,-10.485525131225598,21.1147384643555,-33.506443023681605,0.040211685001849996,0.022932350635528998,0.04530334472656299,985.859985351562,0,13.0,1,1
11.88,0.08498829599999999,-0.14883693,9.760800999999999,0.000841226719785,-0.000726416416001,0.000144057907164,-10.9520587921143,21.1520767211914,-33.5907020568848,0.025257185101509,0.008600294589996,0.054782867431641,985.87255859375,0,13.0,1,1
11.92,0.08018178,-0.15598603,9.758431,0.0007083257078189999,0.001004595193081,0.00041048382991000005,-10.888823509216301,20.6843566894531,-33.3421287536621,0.029766000807285,0.03222776949405701,0.045316696166992,985.9027709960941,0,13.0,1,1
11.96,0.089714766,-0.15598543,9.756062,-0.000489838828798,0.0008713954593989999,-0.0007878276519480001,-10.927003860473599,21.333572387695302,-33.6051864624023,0.020055569708346998,0.032206565141677995,0.054789543151856,985.9025268554691,0,13.0,1,1
12.0,0.087298155,-0.15360142,9.765528,0.0005756817408840001,0.000205564079806,0.000410704058595,-9.99477672576904,20.9950485229492,-33.9599800109863,0.024755276739596998,0.017772138118744,0.040589332580567,985.852294921875,0,13.0,1,1
12.04,0.0848816,-0.1512175,9.767892999999999,-0.00022300920682,-0.0005934252985750001,-0.0005212913965809999,-10.8126802444458,21.5986175537109,-33.5613288879395,0.024405129253864,0.027377530932427,0.04533004760742201,985.89794921875,0,13.0,1,1
12.08,0.089634776,-0.1559834,9.76079,0.00017672189278499997,0.0006049544317649999,0.00027776646311400004,-10.666127204895,21.3144645690918,-33.6442680358887,0.014617666602135,0.022525504231452997,0.04533481597900401,985.8751831054691,0,13.0,1,1
12.12,0.08482832,-0.14644970000000002,9.753685,0.00057645252673,0.00060491275508,1.15606235340238e-05,-10.7563743591309,20.861160278320302,-33.5268516540527,0.028902746737003,0.012522980570793001,0.054801940917969,985.8674926757809,0,13.0,1,1
12.16,0.10153097,-0.15836538,9.763150999999999,-0.00022223807172799999,-6.0918682720512206e-05,0.00027798663359099996,-10.830124855041499,21.424484252929698,-33.9333686828613,0.004870355129242001,0.031625777482987005,0.031131744384766003,985.852294921875,0,13.0,1,1
12.2,0.084775,-0.15598144,9.77025,-0.00035513920011,0.00047167134471199994,0.00027809679158999996,-10.972548484802198,20.9749984741211,-33.8081398010254,0.024097591638564998,0.02694933116436,0.05007362365722701,985.8926391601559,0,13.0,1,1
12.24,0.08235848,-0.16313063,9.767881,0.000310907431412,-6.100209429860121e-05,-0.00025442487094599995,-10.424217224121099,21.1197509765625,-33.9780883789062,0.024215079843997997,0.026774451136588998,0.04533767700195299,985.8773803710941,0,13.0,1,1
12.28,0.0895015,-0.16074671,9.753675,-0.00048752623843000003,-6.10855058766901e-05,-0.0007868364918979999,-11.3171482086182,21.284740447998,-34.2350654602051,0.023901112377643995,0.026405960321426,0.0548095703125,985.865112304688,0,13.0,1,1
12.32,0.07991522599999999,-0.14882965,9.774977999999999,0.0008443098631689998,-6.11271825619042e-05,0.000411695073126,-11.166710853576697,21.2673873901367,-33.949295043945305,0.028544485569,0.0073489844799040005,0.021673202514648996,985.9030151367191,0,13.0,1,1
12.36,0.08466839999999999,-0.15359558,9.782077000000001,-0.00048701249761500003,0.000604620785452,0.00027864729054299995,-11.1968746185303,21.4497604370117,-33.8013496398926,0.028639674186707,0.031197518110275,0.012205123901366998,985.882690429687,0,13.0,1,1
12.4,0.08292466400000001,-0.1536114,9.772667,4.58761933259666e-05,-0.00099331617821,-0.00038703228347,-10.7357482910156,21.144157409668,-34.0084953308105,0.033052183687686996,0.016887828707695,0.035883903503418,985.8701171875,0,13.0,1,1
12.44,0.086001694,-0.14409514,9.765628999999999,-0.000353340699803,-0.00046072615077699994,-0.00038692215457599994,-10.786944389343299,21.5177383422852,-34.1764335632324,0.012937851250172,0.0069356262683869995,0.049954414367675996,985.8676147460941,0,13.0,1,1
12.48,0.08602962,-0.14886244,9.760897,-0.000366284686606,-0.00019230900215900002,0.000406478095101,-10.964097023010302,21.246208190918,-33.6713447570801,0.02688455581665,0.016175374388695,0.04995155334472701,985.8650512695309,0,13.0,1,1
12.52,0.09083736,-0.14886315,9.763266999999999,-0.00023339554900299997,0.0015387877356260002,0.00014004693366600002,-11.2108707427979,20.804363250732397,-33.5304756164551,0.02653494477272,0.015988871455193,0.04521560668945299,985.8751831054691,0,13.0,1,1
12.56,0.090865254,-0.14648058,9.758534,-0.00010050652781499999,-0.000325379602145,0.0010720372665669999,-11.239076614379899,21.7262649536133,-33.7340431213379,0.031397260725498,0.016274601221085,0.04995059967041001,985.8803100585941,0,13.0,1,1
12.6,0.083723456,-0.15839751,9.772739999999999,0.000964487961028,-0.001124283648096,6.658490747213359e-06,-10.6720771789551,21.4144897460937,-34.034122467041,0.022127248346806,0.025769844651222,0.026271820068358997,985.8828735351559,0,13.0,1,1
12.64,0.08375132,-0.14886512,9.751438,-0.00023420254001400005,-0.000857923994772,0.000272859120741,-10.4251956939697,20.7499885559082,-33.8023338317871,0.031718224287033,0.025475144386292004,0.05940437316894499,985.860229492188,0,13.0,1,1
12.68,0.09333885,-0.15124913,9.751439999999999,3.1844421755522496e-05,-0.0007247224566529999,-0.00039304594975,-11.088095664978,21.340618133544897,-33.3498191833496,0.012821704149245999,0.010978981852531999,0.059397697448731,985.88037109375,0,13.0,1,1
12.72,0.08141726,-0.1560164,9.753810000000001,-0.00036789820296699994,-0.0005915208021180001,-0.000126845319755,-10.604820251464801,21.3194808959961,-34.1159172058105,0.026919037103653,0.015431195497513001,0.049924850463867,985.8803100585941,0,13.0,1,1
12.76,0.09100479,-0.16316687,9.768017,-0.0005013252957719999,0.00047378637827900005,-0.00012696057092400002,-10.7664546966553,21.6948165893555,-33.9590034484863,0.017378352582455004,0.029784843325615002,0.03571891784668,985.8878784179691,0,13.0,1,1
12.8,0.09342259,-0.16555078,9.749081,0.000297353311908,-0.000591433490627,6.08211848884821e-06,-10.8172454833984,21.594196319580103,-33.3294105529785,0.012450933456421,0.02984182536602,0.068859100341797,985.8650512695309,0,13.0,1,1
12.84,0.08628082,-0.14886858,9.770389,0.000430242449511,0.000740189454518,-0.000260348897427,-10.713736534118699,21.322708129882802,-33.8683662414551,0.026228114962578,0.020163685083389,0.045187950134277,985.8753051757809,0,13.0,1,1
12.88,0.091088474,-0.16555221,9.756186999999999,0.0006962895276960002,-0.00019187235739099998,0.000272167468211,-10.8490924835205,21.2488784790039,-34.2281112670898,0.021539501845836997,0.024683311581612,0.040446281433106,985.890258789063,0,13.0,1,1
12.92,0.08155674,-0.15601982,9.770392999999999,-0.00103503279388,-0.000591302523389,5.73624856770039e-06,-10.821971893310499,21.063556671142603,-34.221446990966804,0.026146024465561003,0.024410277605057006,0.040441513061524,985.8801879882809,0,13.0,1,1
12.96,0.08875435599999999,-0.15602042,9.768028999999999,0.000562593282666,0.001539268065244,-0.000260694825556,-10.7895832061768,21.0405883789062,-33.2242965698242,0.020583763718605,0.029260903596878,0.04518222808837901,985.8726196289059,0,13.0,1,1
13.0,0.084002495,-0.15363784,9.770399000000001,-0.00036978133721300005,0.000474048312753,-0.000260810134932,-10.833169937133801,21.4215393066406,-33.7787590026855,0.020415872335433998,0.01953749358654,0.030976295471192003,985.8726196289059,0,13.0,1,1
13.04,0.09358999,-0.15602182,9.749096,0.000295739795547,0.000740407966077,-0.000260925386101,-10.9420862197876,21.424762725830103,-33.5312156677246,0.015083469450473999,0.019647151231766004,0.064122200012207,985.8773803710941,0,13.0,1,1
13.08,0.08166844,-0.14648946,9.746732000000002,0.00042862870032,-5.84961380809546e-05,5.275185685604811e-06,-11.0262451171875,20.9773483276367,-33.7230186462402,0.024796068668366,0.010026082396507,0.06411647796630901,985.8624877929691,0,13.0,1,1
13.12,0.08647615,-0.15363993,9.779875,-0.0010366467759010001,-5.84088265895844e-05,-0.00012811319902500002,-10.7267532348633,21.047073364257802,-33.7732467651367,0.024507254362106,0.014338657259941,0.035701751708984,985.877685546875,0,13.0,1,1
13.16,0.08411413400000001,-0.14649077,9.765675,-0.0010366467759010001,-5.84088265895844e-05,-0.00012811319902500002,-10.7267532348633,21.047073364257802,-33.7732467651367,0.020015604794026,0.009550511837006,0.030962944030762003,985.877685546875,0,13.0,1,1
13.2,0.088921785,-0.16079111,9.758575,-0.0010366467759010001,-5.84088265895844e-05,-0.00012811319902500002,-10.536476135253901,20.487895965576197,-34.000804901123,0.014843121170998001,0.028344556689261998,0.05936813354492201,985.877685546875,0,13.0,1,1
13.24,0.08416989400000001,-0.15364201,9.756210000000001,-0.00023796811001400002,-0.0012567865196619998,0.000138087314554,-11.4531850814819,21.4732894897461,-33.9941825866699,0.033639900386334,0.023399114608765,0.059366226196289,985.8700561523441,0,13.0,1,1
13.28,0.08658773,-0.15125938,9.763314999999999,-0.000238236912992,0.0014064158312979999,0.00013797206338499998,-11.364459037780799,21.9251174926758,-34.034294128418004,0.014558464288711999,0.013838917016983,0.040425300598144996,985.89990234375,0,13.0,1,1
13.32,0.09378534599999999,-0.15840985,9.765684,0.000400163349696,-0.0004960171645510001,0.000248844124144,-10.8672189712524,21.3371200561523,-33.999523162841804,0.019375957548618,0.028269812464713998,0.040423393249512,985.8745727539059,0,13.0,1,1
13.36,0.08186376,-0.14649422,9.758585,4.2037572711706204e-07,3.6658311728388105e-05,-0.000150744919665,-10.665583610534698,20.9461784362793,-33.5458183288574,0.033182643353939,0.013874381780624,0.054628372192383,985.8847045898441,0,13.0,1,1
13.4,0.08589259,-0.13932599,9.751415,0.0006659413920720001,-0.00022961394279299999,0.000514929473866,-10.510442733764599,21.0391616821289,-34.1910400390625,0.013721816241741002,0.009001359343528999,0.059362411499024006,985.8644409179691,0,13.0,1,1
13.44,0.08509502,-0.16075583,9.751342,-0.00039959116838900004,0.0011020090896640001,-1.7817714251577898e-05,-11.2661962509155,21.9115829467773,-33.740711212158196,0.020178325474262,0.027689456939697,0.05476474761962901,985.86474609375,0,13.0,1,1
13.48,0.10179007,-0.15122189,9.746605,-0.00039428612217300005,-0.000230431498494,-0.00028185988776400003,-11.2175006866455,21.1667633056641,-33.3197059631348,0.0055162534117700005,0.018097534775733996,0.054770469665527,985.8871459960941,0,13.0,1,1
13.52,0.08980632,-0.15122105,9.765539,-0.00038485287223,0.0008333006990139999,-0.000410974957049,-10.860588073730499,20.974723815918,-34.210296630859396,0.015195429325103997,0.017954096198082,0.035832405090332,985.8674926757809,0,13.0,1,1
13.56,0.09216195,-0.16075332,9.763167999999999,1.4950870536267801e-05,-0.000631490256637,-1.1359690688550501e-05,-10.3503293991089,20.6623458862305,-34.2706489562988,0.014908693730831002,0.027268886566162002,0.05950927734375,985.86181640625,0,13.0,1,1
13.6,0.075398386,-0.14645286,9.758432,-0.00011754676234000001,0.000833139929455,0.0006547130178659999,-10.6003913879395,21.217983245849602,-33.648754119873,0.034019075334072,0.022378459572792,0.05004215240478501,985.8821411132809,0,13.0,1,1
13.64,0.08731365,-0.16313495,9.760796000000001,-0.00011721649207200002,-0.000365335145034,-0.000144093181007,-11.064562797546401,21.5206451416016,-33.2869911193848,0.009663760662079001,0.022216111421585,0.059516906738281,985.86474609375,0,13.0,1,1
13.68,0.08727938,-0.15121777,9.765528,0.0005489031318580001,0.000167243124451,0.00012236414477200002,-11.1280956268311,21.3562240600586,-33.9604454040527,0.024036079645157,0.01742035150528,0.03584671020507799,985.86181640625,0,13.0,1,1
13.72,0.08724511,-0.14883362,9.758422999999999,-0.00011655618436599999,0.001232452923432,-0.000410126289353,-10.635963439941401,21.1320953369141,-33.792209625244105,0.023290798068047004,0.012498304247856,0.064264297485352,985.8770141601559,0,13.0,1,1
13.76,0.09199065,-0.14644946,9.756052,-0.000249384203926,0.0010992411989719998,-0.00027682678774,-10.3696784973145,21.3812484741211,-33.539890289306605,0.023343220353127,0.017057657241821,0.064262390136719,985.886840820313,0,13.0,1,1
13.8,0.08717665,-0.13691555,9.76315,-0.000115895876661,-9.92337008938193e-05,-0.000143527286127,-10.893795967102099,21.1541481018066,-33.907741546630895,0.02328871935606,-0.011356398463249,0.05006599426269499,985.8642578125,0,13.0,1,1
13.84,0.08714241,-0.16551400000000002,9.760779,-0.00024872401263599997,-9.92871937341988e-05,-0.000276543723885,-10.667649269104,21.3129920959473,-33.5669631958008,0.018765024840832,0.021443337202071998,0.05479526519775401,985.891845703125,0,13.0,1,1
13.88,0.09427786,-0.15836336,9.7584095,-0.000647867447697,-0.001297762384638,-0.00014324428048,-10.961052894592301,21.2491569519043,-33.825954437255895,0.004859380424023,0.021285384893417,0.050056457519531,985.879272460937,0,13.0,1,1
13.92,0.08229411,-0.15836246,9.760775,1.82520598173141e-05,-9.93944122456014e-05,0.00012321304529899998,-10.920617103576697,21.971603393554698,-33.4895362854004,0.02870187908411,0.021063476800919,0.045321464538574004,985.8642578125,0,13.0,1,1
13.96,0.091819465,-0.16312818,9.765505000000001,-0.00051404919941,-0.000765237782616,-0.000276119215414,-10.9366779327393,21.6930236816406,-33.2398071289062,0.014610350131988997,0.025702461600304,0.04058837890625,985.8845825195309,0,13.0,1,1
14.0,0.07266599,-0.15597756,9.753666,0.000285228248686,-0.001031607156619,-0.0006754514761269999,-10.8482513427734,21.5127220153809,-33.7047843933105,0.029012143611907997,0.025879979133606002,0.064264297485352,985.884399414062,0,13.0,1,1
14.04,0.086971164,-0.14406036,9.7726,0.000551874400117,0.000166760699358,-0.00027583638439,-11.1603240966797,21.9054145812988,-33.833644866943395,0.033456668257713,0.006662771105766,0.0311279296875,985.8865356445309,0,13.0,1,1
14.08,0.07737732,-0.16074242,9.765495,0.0006853622617200001,0.0006993389106360001,-0.000142536940984,-10.8708047866821,21.7024612426758,-33.943370819091804,0.028500750660896,0.016240760684013002,0.03586959838867201,985.894287109375,0,13.0,1,1
14.12,0.09168243400000001,-0.1512085,9.744186000000001,-0.000645886757411,0.00029981142142799995,-0.00014239537995299997,-10.999369621276902,21.7924537658691,-33.3899307250977,0.018722593784332,0.0014257729053499997,0.06900882720947299,985.876708984375,0,13.0,1,1
14.16,0.074918866,-0.16789056,9.770224,-0.000911872717552,-0.00023287389194599997,0.0010561675298960001,-11.352558135986301,21.7250709533691,-33.2545776367188,0.032967999577522,0.039486020803452,0.040605545043945,985.87646484375,0,13.0,1,1
14.2,0.08922404,-0.14405693,9.765486,-0.000245752627961,0.000566020200495,-0.000142112490721,-11.109127998352099,21.5318298339844,-33.6657066345215,0.008724518120289,-0.0036141276359559996,0.050079345703125,985.8865356445309,0,13.0,1,1
14.24,0.091579676,-0.1559725,9.763114999999999,2.08931742236018e-05,0.000699124473613,-0.000541444867849,-10.455904006957999,21.300651550293,-33.752838134765604,0.018034733831882997,0.020176962018013,0.050085067749024006,985.888793945312,0,13.0,1,1
14.28,0.08437574,-0.15597166,9.758378,0.000287539209239,3.32812196575105e-05,-0.0005413033068180001,-11.103039741516099,21.537723541259798,-33.974925994873,0.013274751603603,0.019767329096793997,0.04061317443847701,985.903930664063,0,13.0,1,1
14.32,0.0939011,-0.15597086,9.763109,-0.0006442362209780001,-0.00036624621134300004,-0.0005411618622020001,-10.979722023010302,21.705684661865202,-33.6958198547363,0.008576884865761,0.024532809853554,0.045351028442383,985.903930664063,0,13.0,1,1
14.36,0.0866971,-0.16311981,9.763106,0.000288199516945,-0.0003662998205980001,0.000124769401737,-10.903768539428699,20.881462097168,-33.9672317504883,0.023049369454384,0.033946141600609,0.035881996154785004,985.9065551757809,0,13.0,1,1
14.4,0.089980245,-0.15122534,9.767922,-0.00011094426736200001,-0.000233195431065,-0.00014140503481,-10.968524932861301,21.3477058410645,-34.138500213623,0.017395950853825,0.010175719857216,0.05000495910644499,985.878540039063,0,13.0,1,1
14.44,0.092372656,-0.16075851,9.765555,0.00014904746785799998,-0.000365326763131,-0.000277273356915,-11.2050275802612,21.8106842041016,-33.513275146484396,0.022064059972762996,0.01966704428196,0.04527091979980501,985.8991088867191,0,13.0,1,1
14.48,0.08759539999999999,-0.13930910000000002,9.756086,0.00014904746785799998,-0.000365326763131,-0.000277273356915,-10.7387914657593,21.1412086486816,-33.8538856506348,0.01700209826231,0.000744432210922,0.050010681152344,985.8991088867191,0,13.0,1,1
14.52,0.08759794,-0.14645906,9.775024,0.00028000702150200003,0.000167661986779,0.000254416227108,-10.7227306365967,21.4197845458984,-34.103610992431605,0.016580067574978,0.005604773759842,0.026343345642090003,985.8887329101559,0,13.0,1,1
14.56,0.08999038,-0.14407577,9.77029,0.0008126142201950001,0.000966613471974,-0.0005445418646560001,-10.3003559112549,20.9194259643555,-33.6005325317383,0.011652626097202001,0.010050132870674,0.045277595520019996,985.893798828125,0,13.0,1,1
14.6,0.08760303,-0.15360893,9.763189,-0.000252673518844,-9.864597814157609e-05,-0.00041139451786900006,-10.600934982299801,21.5862731933594,-33.747203826904304,0.026014372706413,0.014878630638123001,0.054746627807617,985.8710327148441,0,13.0,1,1
14.64,0.087605536,-0.14645912,9.760822000000001,-0.0003858560230580001,0.0008334634476339999,0.0006538586458190001,-10.3349494934082,21.203296661377,-33.919750213623,0.007267370820044999,0.0007509142160419999,0.05001163482666001,985.878784179688,0,13.0,1,1
14.68,0.080438375,-0.14645924,9.753721,0.0005462251137940001,-0.0015633754665029997,-1.19415344670415e-05,-11.2572021484375,21.8145065307617,-33.5054588317871,0.021513693034649,0.000656753778458,0.045275688171386996,985.8837280273441,0,13.0,1,1
14.72,0.085220695,-0.15837564,9.748986,0.000679358723573,0.00016768166096899997,-0.000944057595916,-11.1382055282593,20.9776229858398,-33.320858001709,0.012044563889504001,0.0196782797575,0.059477806091309,985.891235351563,0,13.0,1,1
14.76,0.07088381,-0.14407612,9.758455,-0.0006522452458740001,-0.0004981039674019999,0.000520669273101,-11.0378475189209,21.8095321655273,-34.0778617858887,0.030936315655707997,0.009802550077437999,0.054739952087402,985.8710327148441,0,13.0,1,1
14.8,0.09000558,-0.15360923,9.765556,-0.000385953811929,-0.000498100067489,-0.000145130907185,-10.875807762146001,20.9599914550781,-33.437248229980504,0.016486778855324,0.009948462247849002,0.050008773803711,985.878662109375,0,13.0,1,1
14.84,0.08761823,-0.1488428,9.772658999999999,4.66246856376529e-05,4.2467378079891205e-05,-0.000581708853133,-11.2280178070068,21.2623672485352,-33.477649688720696,0.016442440450191997,0.009827226400375,0.04527187347412099,985.9013671875,0,13.0,1,1
14.88,0.087620765,-0.16075917,9.772658999999999,0.00044607371091800004,0.0005751029821109999,0.00048354419413999995,-10.528024673461902,20.7591018676758,-33.864002227783196,0.016754530370235998,0.019346520304680002,0.035799980163574,985.9113159179691,0,13.0,1,1
14.92,0.07806373,-0.15122618,9.772658999999999,0.000179733498953,-0.001289104111493,8.40598368085921e-05,-10.748329162597699,21.606575012207,-34.1875801086426,0.016058169305325002,0.024096980690955998,0.031072616577148996,985.9033813476559,0,13.0,1,1
14.96,0.07806623,-0.13930984,9.777394000000001,-8.663127664476629e-05,0.0015072207897899998,0.000749828643166,-10.8477087020874,21.1444320678711,-33.6063385009766,0.030036509037018,-0.004529058933257999,0.045278549194336,985.89306640625,0,13.0,1,1
15.0,0.08284858,-0.15360953,9.763191,-8.665572386235e-05,0.000308803166263,-0.00044860329944599995,-11.2043466567993,21.5483093261719,-34.113903045654304,0.020349234342575,0.014713421463966002,0.050017356872559,985.8906860351559,0,13.0,1,1
15.04,0.08046120400000001,-0.15122636,9.756089999999999,0.000445951591246,-0.000623298517894,8.401792729273441e-05,-10.965619087219201,21.2447357177734,-33.5940361022949,0.025351352989674,0.00492599606514,0.04527664184570299,985.898315429687,0,13.0,1,1
15.08,0.08763343,-0.15360971,9.763192,0.00017961126286500002,-0.00035697867861,0.00021716544870299995,-10.9988269805908,21.4241638183594,-33.291477203369105,0.015937194228172,0.023831009864807004,0.04527187347412099,985.8779907226559,0,13.0,1,1
15.12,0.08285618,-0.155993,9.775028,-0.00048620277084400005,-0.000223816750804,-4.9160909838974496e-05,-10.5702276229858,21.0356140136719,-33.7966957092285,0.025254845619202004,0.014257490634918001,0.031070709228516003,985.9085083007809,0,13.0,1,1
15.16,0.090028405,-0.14407672,9.775028,0.00017956236843000002,-0.000623286585324,0.000882934196852,-10.7047424316406,21.225627899169897,-33.6331214904785,0.015639238059521002,0.000129789113998,0.035807609558106,985.885498046875,0,13.0,1,1
15.2,0.094810724,-0.15122660000000002,9.763193,0.000312695861794,0.00044198089744899996,-0.000315497862175,-10.8983612060547,21.1497268676758,-33.675827026367195,0.006068915128708,0.009730473160744,0.05001258850097701,985.895385742188,0,13.0,1,1
15.24,0.08764356400000001,-0.15122665,9.751356,4.6355649828910794e-05,-0.000356962787919,0.0007497553015130001,-10.8371925354004,21.048828125,-33.448394775390604,0.010764293372631,0.004601642489433,0.059476852416992,985.89794921875,0,13.0,1,1
15.28,0.08764613,-0.14884342,9.748989,-8.68268543854356e-05,-9.06430068425834e-05,0.000749744824134,-10.7677316665649,20.692916870117198,-34.208118438720696,0.020614214241505002,0.02345384657383,0.059471130371094,985.8674926757809,0,13.0,1,1
15.32,0.09003860000000001,-0.14646019,9.770294,-0.000619482947513,-0.000756428635214,0.000350260525011,-11.266058921814,22.017501831054698,-34.4397850036621,0.015953980386256998,0.013910815119743,0.040531158447266,985.885375976562,0,13.0,1,1
15.36,0.08007157,-0.14883353,9.763157000000001,-8.68756324052811e-05,-0.0004901088541369999,-0.000581855536439,-10.8997459411621,21.2541732788086,-34.297599792480504,0.025446943938732,0.013835951685906,0.04526424407958999,985.8880004882809,0,13.0,1,1
15.4,0.08202931,-0.16312255,9.76075,-0.000218097469769,-0.000224107236136,0.000351079856046,-10.4939756393433,20.8435287475586,-33.643238067627,0.026128143072127998,0.023125737905502004,0.054807662963867,985.903076171875,0,13.0,1,1
15.44,0.07243931,-0.1512055,9.763113,0.000851385528222,0.00044199480907999996,-0.000177482725121,-10.8045263290405,21.2376861572266,-33.8493995666504,0.035667166113853996,0.008914053440094,0.050078392028809,985.8954467773441,0,13.0,1,1
15.48,0.08674824,-0.15835448,9.756008999999999,-0.000213584280573,-0.000623316387646,8.895888458937409e-05,-10.8717842102051,21.332698822021502,-33.7676124572754,0.016492359340191002,0.013563409447669999,0.054815292358399006,985.9203491210941,0,13.0,1,1
15.52,0.08910769,-0.1535872,9.763107000000002,-8.01330897957087e-05,0.00030874158255799996,0.000888032373041,-10.780014991760302,21.7874755859375,-33.9623336791992,0.021271608769893997,0.008623823523521,0.054817199707031,985.89501953125,0,13.0,1,1
15.56,0.089077234,-0.14167012,9.767839,-0.00021299731452,-0.000357095734216,0.00035552636836699993,-10.675121307373,21.411544799804698,-33.8795166015625,0.016508519649506,-0.000737518072128,0.040617942810058996,985.895385742188,0,13.0,1,1
15.6,0.0699276,-0.15120246,9.770205,0.000186769873835,4.2330415453761796e-05,-4.3821521103382104e-05,-10.611886978149402,20.943828582763697,-33.6309394836426,0.026082314550877003,0.0038111358881,0.045351982116699004,985.8801879882809,0,13.0,1,1
15.64,0.09140628599999999,-0.1559682,9.760733,-0.000611884286627,0.00017544074216900004,8.94621480256319e-05,-10.5696840286255,20.6673202514648,-33.6982460021973,0.016271352767944,0.017814174294471997,0.040619850158692,985.8726196289059,0,13.0,1,1
15.68,0.07464647,-0.14643444,9.755996000000001,-7.89589248597622e-05,0.000175393070094,0.000222745758947,-11.140132904052699,21.4503555297852,-34.0410804748535,0.025382786989212005,0.0035353600978850004,0.05009555816650401,985.9177856445309,0,13.0,1,1
15.72,0.0817858,-0.15120025,9.765461,5.4492149502039e-05,0.00017534539802,8.971360512077808e-05,-10.6459360122681,20.8594055175781,-33.8517036437988,0.020529456436633998,0.017832130193709998,0.040631294250488,985.9022827148441,0,13.0,1,1
15.76,0.08414519,-0.15119942,9.763092,0.0008537337416779999,0.000441613665316,8.98393918760121e-05,-10.964097023010302,21.246208190918,-33.6713447570801,0.015718549489975,0.022913157939911,0.050107955932617,985.9026489257809,0,13.0,1,1
15.8,0.08411473,-0.15834852,9.755987,0.000454553053714,-0.00022422365145800002,-0.0007089825812729999,-10.816565513610803,21.3318252563477,-33.9300384521484,0.020351558923721,0.018119171261788,0.05484676361083999,985.89501953125,0,13.0,1,1
15.84,0.081694365,-0.13451506,9.763086,0.000454553053714,-0.00022422365145800002,-0.0007089825812729999,-10.0810012817383,20.9144515991211,-34.1729316711426,0.01989595592022,-0.010696306824684,0.045382499694824004,985.89501953125,0,13.0,1,1
15.88,0.08166391,-0.15358044,9.758348,5.537306424230339e-05,0.0007078342023310001,-0.0005756986793130001,-10.5505790710449,20.948844909668,-34.1025810241699,0.024514973163605003,0.01787306368351,0.059590339660644996,985.8871459960941,0,13.0,1,1
15.92,0.08402336,-0.16072954,9.770182,-0.000210649566725,0.0008409445290449999,-0.000176099129021,-10.905834197997999,21.2482833862305,-33.988376617431605,0.019179344177246004,0.022731676697731004,0.026459693908692003,985.910034179688,0,13.0,1,1
15.96,0.08160305,-0.14881249,9.755975999999999,-0.00021035585086800001,0.00017510715406400003,9.03425388969481e-05,-10.4773712158203,20.7538108825684,-33.7945137023926,0.019204065203667,0.008267819881439,0.050131797790527,985.917602539062,0,13.0,1,1
16.0,0.08635235,-0.15357824,9.758339,-7.690466009080409e-05,0.0008408491848969999,-4.2689498513936996e-05,-10.707786560058599,21.2226867675781,-33.4785118103027,0.014240354299545,0.008344143629074,0.059608459472656,985.882080078125,0,13.0,1,1
16.04,0.081542134,-0.15119423,9.763071,0.000456020818092,-0.00035761983599500005,-0.00017572171054799996,-10.7101497650147,20.9573669433594,-33.9245262145996,0.019048705697060003,0.008077338337898001,0.040669441223144996,985.8895874023441,0,13.0,1,1
16.08,0.07912177,-0.15357675,9.765436,-7.631757762283091e-05,0.000707595900167,0.00022387783974400002,-10.7198238372803,21.316814422607397,-33.5591468811035,0.019062645733356996,0.012947991490363998,0.03593826293945299,985.871826171875,0,13.0,1,1
16.12,0.07909131,-0.15595935,9.765433999999999,5.713396240025761e-05,-0.000490873120725,-0.000175470195245,-11.180951118469201,21.6224212646484,-33.3520011901855,0.028065256774426,0.008349314332008001,0.05015182495117201,985.8845825195309,0,13.0,1,1
16.16,0.076670974,-0.15357523,9.758329,0.000456901267171,0.0007075007888489999,0.00035728735383599997,-11.058069229126,21.052333831787102,-32.7986907958984,0.018537238240242,0.017681047320366003,0.05488681793212901,985.881713867187,0,13.0,1,1
16.2,0.090979874,-0.16072436,9.7535925,-7.54370121285319e-05,0.000441137060989,-4.20606229454279e-05,-10.868878364563,21.2297286987305,-33.22314453125,0.01847567409277,0.017520427703858,0.064356803894043,985.9046020507809,0,13.0,1,1
16.24,0.081389874,-0.14165743,9.763058000000001,-7.514341268688442e-05,-0.000357858109055,-4.19348943978548e-05,-10.983744621276902,21.3329772949219,-33.365451812744105,0.008858025074004999,-0.001795306801796,0.035950660705567,985.90185546875,0,13.0,1,1
16.28,0.07896951,-0.15357296,9.76779,-0.00020800810307299998,0.00017472595209299999,-4.18091658502817e-05,-10.7206659317017,21.0529670715332,-34.0824661254883,0.023229822516441002,0.01236592233181,0.03595161437988299,985.876708984375,0,13.0,1,1
16.32,0.086108774,-0.15595551,9.748849,-0.00010508985724299998,0.000131883018184,-0.000132868706714,-10.972249984741199,21.607131958007802,-33.3832664489746,0.008584059774876,0.016791209578514,0.06435871124267599,985.8865356445309,0,13.0,1,1
16.36,0.08206004,-0.13690729999999998,9.765486,-0.0007705856114630001,0.0009307830478060001,0.00053304672474,-10.7252311706543,21.0485534667969,-33.8505516052246,0.017108596861363,-0.002068519592285,0.05009555816650401,985.9142456054691,0,13.0,1,1
16.4,0.08206004,-0.15359022,9.765487,0.0010893541621039998,-0.00053326098714,0.000398058444262,-10.5635957717896,20.673210144043,-34.0074653625488,0.01732961833477,0.007730945944786,0.04536247253418001,985.8916625976559,0,13.0,1,1
16.44,0.09161964,-0.15597351,9.758385,0.000953512615524,-0.000266509421635,-0.00040203932439899994,-11.037303924560499,21.441242218017603,-33.9794082641602,0.01236704736948,0.003232896327972,0.04063415527343799,985.8967895507809,0,13.0,1,1
16.48,0.086839855,-0.16074003,9.782057,0.00015456497203600002,0.0006655960460190001,-0.0006683552055619999,-11.004096031189,21.2618179321289,-34.2819633483887,0.017096132040023998,0.026972711086273,0.021696090698242,985.88427734375,0,13.0,1,1
16.52,0.09400955,-0.14405714,9.753651,-0.000244908849709,-0.000399667304009,-0.0006683552055619999,-11.0232019424438,20.9802932739258,-33.877628326416,0.0076558366417879995,0.002995297312737,0.05483341217041001,985.906616210938,0,13.0,1,1
16.56,0.086839855,-0.15597351,9.777322999999999,0.000287722912617,0.000266122398898,-0.00013572344323600001,-10.5977840423584,20.482875823974602,-33.5291557312012,0.0075322911143299994,0.022348463535308997,0.021698951721192003,985.899047851563,0,13.0,1,1
16.6,0.096399456,-0.1464404,9.763119,0.0006871967343610001,-0.00039966736221699997,-0.00040203932439899994,-10.766753196716301,21.0626831054687,-34.3838729858398,0.00258707255125,0.008027777075768001,0.054840087890625,985.863403320312,0,13.0,1,1
16.64,0.086839855,-0.15597351,9.751284,0.00015456497203600002,0.000132964458317,0.00039690831909,-11.0918426513672,21.1797409057617,-34.417613983154304,0.021794773638249002,0.022150963544846,0.054836273193359,985.8839721679691,0,13.0,1,1
16.68,0.09400955,-0.1464404,9.758385,-0.000244908849709,-0.000133351481054,0.000530066259671,-10.8289012908936,20.7938232421875,-34.4355506896973,0.007532373070716998,0.008123457431793,0.050105094909667997,985.9190063476559,0,13.0,1,1
16.72,0.09161964,-0.15835677,9.765487,0.0006871967343610001,-0.000266509363428,-0.0006683552055619999,-10.905834197997999,21.2482795715332,-33.9883804321289,0.007442809641361001,0.017299726605415,0.04536628723144499,985.8939819335941,0,13.0,1,1
16.76,0.08444995,-0.15359022,9.763119,-0.0006443826714530001,0.000132964458317,-0.0006683552055619999,-11.0587730407715,20.894401550293,-34.021091461181605,0.017060518264771,0.012710571289063001,0.054837226867675996,985.8887329101559,0,13.0,1,1
16.8,0.09400955,-0.16074003,9.772589,0.001086670556106,-1.9348226487636603e-07,0.00013059243792700001,-10.510441780090302,21.0391540527344,-34.1910362243652,0.002573601901531,0.017660573124886003,0.031168937683106003,985.850830078125,0,13.0,1,1
16.84,0.086839825,-0.15597351,9.763119,2.1407031454145898e-05,0.00026612245710599995,-2.56550265476108e-06,-10.6324825286865,21.873092651367198,-34.2210273742676,0.012028522789478002,0.017341256141663004,0.04063415527343799,985.893432617188,0,13.0,1,1
16.88,0.09400955,-0.15597351,9.756018,2.1407031454145898e-05,-0.001065457006916,-2.56550265476108e-06,-10.616559982299801,22.045753479003896,-33.771682739257805,0.0028571188449859996,0.00775708258152,0.050099372863769996,985.880981445312,0,13.0,1,1
16.92,0.08922976,-0.1488237,9.772589,-0.000244908849709,-0.000266509363428,-0.000268881383818,-10.982085227966301,21.4403686523437,-34.141834259033196,0.016865700483321998,0.012695714831351998,0.045370101928711,985.8810424804691,0,13.0,1,1
16.96,0.09161964,-0.14167388,9.753651,0.000287722912617,0.0003992802812719999,-0.000268881383818,-10.712214469909698,21.324176788330103,-33.945671081543004,0.012151569128037,0.007796809077263001,0.054836273193359,985.888427734375,0,13.0,1,1
17.0,0.096399456,-0.15120696,9.753651,2.1407031454145898e-05,-0.00026650930522,0.00013059243792700001,-11.103039741516099,21.5377197265625,-33.974925994873,-0.001606740057468,-0.0017112642526629998,0.059566497802734,985.896240234375,0,13.0,1,1
17.04,0.09161964,-0.15835677,9.767854,0.00015456497203600002,-0.001331772888079,0.000929540081415,-11.1052417755127,21.7986221313477,-33.2969932556152,0.003035806119442,0.022052124142647005,0.040628433227539,985.8987426757809,0,13.0,1,1
17.08,0.09161964,-0.15359022,9.765487,0.0006871967343610001,0.000132964341901,0.00013059243792700001,-10.6891164779663,20.7661514282227,-33.608642578125,0.01294556260109,0.012926772236824,0.031161308288573997,985.8731079101559,0,13.0,1,1
17.12,0.09161964,-0.1583568,9.758385,0.002285092137754,-0.001065457006916,0.0014621717855330001,-10.5601167678833,21.4142112731934,-34.4362831115723,0.003958702087401999,0.004259899258614,0.054840087890625,985.84521484375,0,13.0,1,1
17.16,0.086839855,-0.1464404,9.760752,0.002285092137754,-0.001065457006916,0.0014621717855330001,-10.5601167678833,21.4142112731934,-34.4362831115723,0.008757457137108,0.004082918167114,0.059572219848633,985.84521484375,0,13.0,1,1
17.2,0.08444995,-0.1488237,9.774956,0.002285092137754,-0.001065457006916,0.0014621717855330001,-10.724252700805698,21.4183120727539,-34.026309967041,0.023386515676975,-8.73208045959473e-05,0.026436805725098,985.84521484375,0,13.0,1,1
17.24,0.086839855,-0.1488237,9.770221000000001,-0.00011175090912699999,-0.00039966736221699997,0.008386384695768,-10.6805286407471,21.1432800292969,-34.1709175109863,0.018841087818146,0.010255470871924998,0.026446342468262003,985.8856811523441,0,13.0,1,1
17.28,0.10117927,-0.15835677,9.765487,0.003217197488993,-0.0014649308286610002,0.048333767801522994,-11.0632009506226,20.9959030151367,-34.488254547119105,0.000539556145668,0.020549714565277,0.04065132141113299,985.890747070313,0,13.0,1,1
17.32,0.09374383,-0.15596698,9.763095,0.0016193023184309999,-0.002130720764399,0.000530066259671,-10.7046041488647,21.33154296875,-34.3321952819824,0.010432228446007,0.0064024329185489995,0.035970687866211,985.8906860351559,0,13.0,1,1
17.36,0.07912254,-0.14404370000000002,9.758335,0.0016193023184309999,-0.002130720764399,0.000530066259671,-10.7046041488647,21.33154296875,-34.3321952819824,0.024449810385704,0.011246755719184999,0.045443534851074004,985.8906860351559,0,13.0,1,1
17.4,0.09105050599999999,-0.14404316,9.758333,0.000287722912617,0.0009319121600129999,-0.0009346710867250001,-10.610227584838901,21.0512199401855,-34.407321929931605,0.015184037387371,0.0015481412410739998,0.045440673828125,985.8650512695309,0,13.0,1,1
17.44,0.095808744,-0.14165940000000002,9.763065,0.000157501432113,0.000532494101208,-0.00013272772776,-11.2721471786499,22.0116119384766,-34.1305656433105,0.002016298472881,-0.0025465190410609998,0.045439720153809,985.860229492188,0,13.0,1,1
17.48,0.09578717,-0.15595843,9.7748995,0.0006903411122039999,-0.001997540472075,0.000533151032869,-10.8580865859985,21.3459548950195,-34.4633598327637,0.002479232847691,0.016975373029709,0.031240463256836003,985.8751831054691,0,13.0,1,1
17.52,0.08859589999999999,-0.14642484,9.760694,0.0016226544976229997,-0.001997574232519,-0.0009314972558060002,-10.6373472213745,21.2365341186523,-34.413986206054695,0.017445534467696998,0.022415325045586,0.05491828918456999,985.8751831054691,0,13.0,1,1
17.56,0.10052389,-0.14880757,9.751223,0.0014897043583910002,-0.0015981341712179998,0.000799645029474,-11.024585723877001,21.084735870361303,-34.499401092529304,0.00319566577673,0.013069361448288,0.05965614318847701,985.8650512695309,0,13.0,1,1
17.6,0.08377302,-0.14404054,9.746487,0.001356754219159,-0.000932378170546,-0.000531845318619,-10.7357482910156,21.144157409668,-34.0084953308105,0.012628585100173999,0.003810212016106,0.069132804870606,985.8901977539059,0,13.0,1,1
17.64,0.09809083,-0.14642320000000003,9.765423,0.00055822217837,-0.000399813754484,9.64675564318895e-07,-10.893657684326199,21.2600631713867,-34.606819152831996,0.008465446531773,0.004246413707733,0.035993576049805,985.879760742188,0,13.0,1,1
17.68,0.09089953,-0.14403947,9.75832,0.001890009385534,-0.0030630063265559998,-0.0007978940266180001,-10.822951316833501,20.6937942504883,-34.0456886291504,0.008876971900463002,0.013956964015961,0.054931640625,985.8419799804691,0,13.0,1,1
17.72,0.086098254,-0.14880551,9.763052,0.002023375127465,-0.0021309345029290002,1.14273279905319e-06,-10.6293315887451,20.7696914672852,-34.0029830932617,0.023544736206532,0.014598309993743999,0.045468330383300996,985.9359741210941,0,13.0,1,1
17.76,0.08129683,-0.17025442,9.746478999999999,-0.0017048392910510002,0.00279587530531,-0.000398241973016,-10.6866159439087,21.137386322021502,-33.8616981506348,0.032043404877186,0.036751866340637,0.064398765563965,986.019165039063,0,13.0,1,1
17.8,0.08844495,-0.14880438,9.765414999999999,-0.004101474769413,0.002529525663704,1.3209064491093201e-06,-11.097632408142099,21.805984497070302,-33.683521270752,0.017220072448253996,0.007040724158287,0.04545211791992201,985.8466796875,0,13.0,1,1
17.84,0.08603352,-0.14165406,9.755942999999998,-0.00023968645837200002,-0.0011989302001889999,-0.000264905916993,-10.606478691101099,21.2120895385742,-33.3395309448242,0.027172468602657002,0.007511094212531999,0.06912994384765599,985.8010864257809,0,13.0,1,1
17.88,0.086012006,-0.1511866,9.760675,0.0034889439120890002,-0.001465279841796,-0.000397974916268,-10.4875898361206,21.4815521240234,-33.5275917053223,0.01803707331419,0.0039493739604949995,0.036003112792969,985.8821411132809,0,13.0,1,1
17.92,0.0859904,-0.14880277,9.774878,-0.001970323966816,0.0006652135052719999,0.0005342198419380001,-10.551398277282699,21.105300903320302,-32.8028793334961,0.017218016088009,0.021078869700432,0.05018997192382799,986.0371704101559,0,13.0,1,1
17.96,0.095528424,-0.14165251,9.774875999999999,-0.004899591207504001,0.002129917265847,-0.000397796800826,-10.642188072204599,21.020282745361303,-32.7839164733887,0.011956810951233,-0.004274308681488,0.035971641540527,985.8416137695309,0,13.0,1,1
18.0,0.085947245,-0.15356828,9.760671,-0.002635698067024,0.0006651459843850001,1.76619505509734e-06,-10.5839252471924,21.0223541259766,-33.1009521484375,0.02120740711689,0.008917391300201,0.054899215698242,985.7984008789059,0,13.0,1,1
18.04,0.08114588,-0.15833433,9.753567,-0.0030349637381729996,0.0021298495121300004,-0.000131302629597,-10.825835227966301,21.2170715332031,-32.7671318054199,0.005836725234985,0.012278199195862,0.054891586303711,985.844116210938,0,13.0,1,1
18.08,0.08351427,-0.15833376,9.763034,-0.002768440404907,0.0022629736922679996,-0.000131213513669,-10.733522415161099,21.3035583496094,-32.8633995056152,0.01496297866106,0.011501029133796999,0.040683746337891,985.8869018554691,0,13.0,1,1
18.12,0.085882604,-0.15595002,9.765399,-0.001303495024331,-0.000267060793703,0.000800981069915,-10.6044139862061,20.8452758789062,-33.3183822631836,0.014620736241341,0.020707726478577,0.045418739318848,985.9097290039059,0,13.0,1,1
18.16,0.09303069,-0.15594943,9.763029,0.00029460794758099995,0.000265537179075,-0.000131035514642,-10.520254135131802,21.2926940917969,-33.1265830993652,0.010008439421653999,0.016043558716773997,0.054890632629394996,985.8539428710941,0,13.0,1,1
18.2,0.081059664,-0.15356569,9.767761,-0.00010465807281399999,-0.00133239175193,0.00013536942424299998,-10.4690580368042,20.919101715087898,-32.958644866943395,0.019890978932381,-0.003355219960213,0.03594779968261701,985.897338867188,0,13.0,1,1
18.24,0.08103812,-0.15833168,9.767759,-0.000637081917375,-0.0006666358094659999,2.3006577976047997e-06,-10.756917953491199,21.229450225830103,-33.625301361084,0.020169600844383,0.015283599495888001,0.031206130981445,985.8945922851559,0,13.0,1,1
18.28,0.08101654,-0.17024757,9.753554,-0.00103634793777,-8.798087947070601e-07,-0.00013076828327,-10.254131317138699,21.0156288146973,-33.9982032775879,0.019658856093884,0.029305964708328,0.05014705657958999,985.87939453125,1,1.0,2,2
18.32,0.09351629,-0.15834467,9.758339,0.000162281445228,0.001197508070618,-0.000263837224338,-10.2611980438232,20.639972686767603,-33.513229370117195,0.010091111063957,0.014898136258125,0.064351081848145,985.88916015625,1,1.0,2,2
18.36,0.08693111,-0.15120913,9.760759,-0.0003742349799719999,-0.00093238853151,0.000666603678837,-10.7524890899658,21.1279525756836,-33.1581382751465,0.008855558931828001,0.005073666572571,0.054775238037109,985.8840942382809,1,1.0,2,2
18.4,0.091735005,-0.14405991,9.758396000000001,0.00041779736056900003,0.00013399758609,0.00026416609762200003,-10.692704200744599,21.1314964294434,-33.552478790283196,0.013839952647686,-0.0042598247528080006,0.05477237701416001,985.866821289063,1,1.0,2,2
18.44,0.09892887,-0.15359361,9.763132,0.000151249114424,-0.000132280576508,0.000130908621941,-10.4308481216431,21.4821472167969,-33.7673187255859,0.008842654526234001,0.014700815081596,0.040566444396973,985.879028320313,1,1.0,2,2
18.48,0.08700341,-0.15597744,9.7584,0.000284174690023,0.0002672309638,-0.000135506794322,-10.6954498291016,21.760684967041,-32.9730033874512,0.013416945934296001,0.01026277244091,0.054775238037109,985.8866577148441,1,1.0,2,2
18.52,0.07985782599999999,-0.14406170000000001,9.770239,0.000284174690023,0.0002672309638,-0.000135506794322,-10.8734445571899,21.2253112792969,-32.9912300109863,0.017874665558338002,-0.008763566613196999,0.045306205749511996,985.8866577148441,1,1.0,2,2
18.56,0.08705163,-0.15597863,9.77024,0.00015078438445899998,0.000666742504109,0.000263867230387,-10.5693864822388,21.299457550048803,-33.2733726501465,0.013133533298968998,0.010093107819556999,0.040567398071289,985.8812866210941,1,1.0,2,2
18.6,-0.030029416,-0.14882942,9.767876,-0.000248921802267,-0.000132167362608,-0.0006683378596789999,-10.6080017089844,21.210617065429698,-33.2622261047363,0.16597712039947501,0.03870140016079,0.04529953002929701,985.8583984375,1,1.0,2,2
18.64,0.2233243,-0.16551293,9.777346000000001,0.00015031977090999998,0.000267344119493,-0.001467385096475,-10.969641685485803,20.872024536132802,-33.263671875,-0.31114718317985496,0.024572074413299998,0.03582191467285201,985.8359985351559,1,1.0,2,2
18.68,0.115802795,-0.23462863,9.7749815,-0.0021135979332029997,0.00213159294799,-0.32277759909629805,-10.8576812744141,20.871749877929698,-33.665828704834,0.026961535215378,0.018313601613044996,0.021607398986817003,985.8330688476559,1,1.0,2,2
18.72,0.1516754,-0.12738173,9.893344,-0.001448040362448,0.001199525082484,-0.03915128111839299,-10.9045867919922,21.037918090820302,-32.6675300598145,-0.161315083503723,0.193895578384399,-0.026351928710938,985.8433227539059,1,1.0,2,2
18.76,0.20666729999999997,-0.12261574,9.88151,-0.012633538804947999,-0.000398332427721,0.011448635719716998,-10.9214353561401,22.128059387207,-32.189830780029304,0.031531929969788,-0.212729945778847,-0.122112274169922,985.80517578125,1,1.0,2,2
18.8,0.48630995,-0.41814286,9.746580999999999,-0.11942644417285901,-0.036217782646418,0.14460647106170701,-10.912739753723098,21.3988418579102,-32.379451751709,-0.382679343223572,-0.153373047709465,-0.044792175292969,985.795043945313,1,1.0,2,2
18.84,0.06332138,-0.83521706,9.848372999999999,-0.218762502074242,-0.0046593123115600005,0.08987846970558198,-11.126710891723599,21.251781463623,-33.3386726379395,0.168840393424034,0.634405016899109,-0.030844688415527,985.82763671875,1,1.0,2,2
18.88,-0.12784666,-0.4634263,9.886251,-0.263903260231018,0.01584704965353,0.17390102148056,-10.6179208755493,22.570499420166,-32.570426940918004,0.253314077854156,-0.226355195045471,-0.28394412994384804,985.81005859375,1,1.0,2,2
18.92,0.44814384,-1.1950935,10.378631,-0.31530243158340504,-0.027162928134203,0.21358197927475,-10.857872009277301,23.504737854003896,-32.5881156921387,-0.511612057685852,0.6483034491539,0.17557621002197302,985.84033203125,1,1.0,2,2
18.96,-0.17798638,-0.48964357,12.068814999999999,-0.5352798104286189,-0.089613929390907,0.032620154321194,-10.4063129425049,22.4522399902344,-32.057224273681605,0.21562272310257,-0.767112970352173,-2.6060543060302703,985.838012695313,1,1.0,2,2
19.0,-0.65116286,-0.8137701,10.120611,0.10414434224367099,0.28948676586151095,-0.02543681114912,-10.1434783935547,23.1726608276367,-32.4478187561035,0.557300567626953,0.390254318714142,-0.395782470703125,985.8652954101559,1,1.0,2,2
19.04,-0.21378668,-0.19173492,10.726616,0.733448445796967,0.47737264633178705,0.04873206466436401,-9.57805442810059,21.226852416992198,-33.421886444091804,0.070452928543091,-0.207919284701347,-0.855774879455566,985.837768554688,1,1.0,2,2
19.08,0.116043866,-0.12500377,10.279217,0.6840466856956479,0.403869539499283,0.20279568433761605,-9.04442405700684,20.568283081054698,-34.543361663818395,-0.6244604587554929,0.12998920679092402,-0.617020606994629,985.8505249023441,1,1.0,2,2
19.12,-0.5292055,0.2563202,10.298158,0.764207541942596,0.444482743740082,0.077360831201077,-9.37467670440674,19.4166526794434,-35.19492721557621,-0.158420950174332,-0.022998794913292004,-0.521212577819824,985.840209960938,1,1.0,2,2
19.16,-0.66301596,0.4445986,9.919407000000001,0.711210489273071,0.35300329327583296,-0.06418616324663201,-8.91566848754883,17.8453063964844,-36.1745109558105,-0.11474180221557599,-0.000849604606628,-0.19586849212646498,985.840209960938,1,1.0,2,2
19.2,-1.1122934,0.82592255,10.2910595,0.762076497077942,0.415987014770508,-0.163255780935288,-9.097004890441891,16.6748428344727,-36.4630012512207,0.11261487007141101,0.079959094524384,-0.41900634765625,985.835205078125,1,1.0,2,2
19.24,-1.5352819,0.5923607,10.333672,0.575655221939087,0.37803706526756303,-0.23915590345859503,-8.66511726379395,15.2888097763062,-37.449245452880895,0.377063035964966,0.200128018856049,-0.645162582397461,985.8427734375,1,1.0,2,2
19.28,-1.9797796000000003,0.7210572,10.492275999999999,0.599623382091522,0.513059198856354,-0.32823866605758695,-8.334535598754881,13.913367271423303,-38.574470520019496,0.49583816528320296,0.686525106430054,-0.73121452331543,985.867797851562,1,1.0,2,2
19.32,-2.3023922000000003,0.9617676,10.740835,0.559942126274109,0.6282408833503721,-0.138755023479462,-8.029552459716799,12.724717140197802,-39.783664703369105,0.7531267404556271,0.45089221000671403,-1.37175178527832,985.8576049804691,1,1.0,2,2
19.36,-2.4051337000000004,1.2120111999999998,9.954925999999999,0.808947265148163,0.764860987663269,0.107054442167282,-6.42866706848145,9.95705699920654,-40.2533302307129,0.28405749797821006,0.690825343132019,-0.47481727600097706,985.882934570313,1,1.0,2,2
19.4,-2.8735306,1.6600669999999997,10.025944,0.9142749309539799,0.873651027679443,0.143805935978889,-5.679405689239499,9.55294704437256,-41.1919746398926,0.580241203308106,0.551652550697327,-0.7537202835083009,985.8881225585941,1,1.0,2,2
19.44,-2.522191,1.8221294,9.801063000000001,0.769931554794312,0.879376828670502,0.261783748865128,-4.66114568710327,7.55654048919678,-41.3860282897949,0.229035139083862,0.411497592926025,-0.763782501220703,985.8881225585941,1,1.0,2,2
19.48,-2.629712,2.4155653,9.393906,0.76793384552002,0.93370532989502,0.382025271654129,-3.42961931228638,5.549267768859861,-41.8432731628418,-0.457460403442383,0.51710844039917,-0.349541664123535,985.87744140625,1,1.0,2,2
19.52,-2.777862,2.9994678,8.908631,0.8137400150299069,0.694953203201294,0.441546767950058,-1.86357116699219,4.06590938568115,-42.3057365417481,0.029801845550537002,0.502920627593994,-0.19414138793945301,985.8798828125,1,1.0,2,2
19.56,-2.9857593,3.6143532,9.3442,0.7821813225746159,0.572447896003723,0.453264564275742,-0.9968357086181641,2.8234415054321302,-42.9824638366699,-0.5536491870880129,-0.43801093101501504,-0.547480583190918,985.836669921875,1,1.0,2,2
19.6,-3.633399,3.678701,9.488601,0.610939919948578,0.433564245700836,0.27589809894561795,-0.462800025939941,1.6906671524047898,-43.3064155578613,0.423552513122559,-0.085082530975342,-0.9423627853393559,985.82666015625,1,1.0,2,2
19.64,-4.0253186,3.5523867999999994,8.915739,0.7021529078483578,0.622515380382538,0.18388588726520497,0.43037605285644503,0.525250434875488,-43.375858306884794,0.481571912765503,0.5016009807586671,-0.879364967346191,985.8088989257809,1,1.0,2,2
19.68,-4.1447897000000005,4.024275299999999,8.293168,0.9219964146614079,0.607601702213287,0.37070631980896,2.0547943115234397,-2.06237888336182,-43.7826995849609,0.6385481357574461,0.611987113952637,-0.219817161560059,985.798706054688,1,1.0,2,2
19.72,-3.9655227999999996,4.4770975,8.349983,0.9066830277442929,0.7723181843757629,0.588020026683807,2.69013595581055,-3.20574283599854,-43.9676704406738,0.166979789733887,0.052190780639649006,-0.7276401519775391,985.8084106445309,1,1.0,2,2
