Timestamp,Ax,Ay,Az,Gx,Gy,Gz,Mx,My,Mz,LiAx,LiAy,LiAz,P,Value,Type,GroupType,Activities
0.0,0.060406445999999996,-0.14497103,9.752903,0.0004643811262212693,0.008367626927793026,-0.0001779266749508679,-4.5051093101501465,22.66034698486328,-37.36686325073242,-0.0033654347062110897,0.003079637885093689,0.08151721954345703,985.6503295898438,0,13.0,1,1
0.04,0.06520778,-0.14973806,9.769475,0.0004643811262212693,0.008367626927793026,-0.0001779266749508679,-8.117053985595701,20.385162353515625,-37.985877990722656,-0.0004150606691837311,0.013727396726608276,0.036930084228515625,985.6503295898438,0,13.0,1,1
0.08,0.065229386,-0.14735542,9.764744,0.00038587889866903424,0.0018809544853866102,0.0008525183657184242,-8.343338012695312,20.120399475097656,-37.62757873535156,0.004511695355176926,0.004280820488929749,0.05113124847412109,985.3963623046876,0,13.0,1,1
0.12,0.048521638,-0.14258935,9.755276,0.00011935521615669131,-0.00011638061550911516,0.00045295542804524297,-8.593262672424316,20.781951904296875,-37.70476150512695,0.009646296501159668,0.004352182149887085,0.04165935516357422,985.4010009765624,0,13.0,1,1
0.16,0.048543155,-0.1259069,9.776583,0.0006517791771329938,-0.0007821365725249053,5.339249037206173e-05,-8.21727466583252,19.65917205810547,-37.927955627441406,0.013999953866004944,-0.01445545256137848,0.032195091247558594,985.43212890625,0,13.0,1,1
0.2,0.055734455999999995,-0.14735694,9.771851,0.0005184132605791092,0.0002831606834661216,0.00018646137323230502,-8.165642738342285,20.023643493652344,-38.03422164916992,-0.00039712712168693537,0.014359310269355776,0.03693103790283203,985.4424438476562,0,13.0,1,1
0.24,0.06531566400000001,-0.14735745,9.767118,0.00038483960088342434,-0.0003825615858659148,0.0005857570213265718,-8.099906921386719,19.927154541015625,-38.03870391845703,-0.009981706738471985,0.000170096755027771,0.03692913055419922,985.4423217773438,0,13.0,1,1
0.28,0.048607885999999996,-0.14259146,9.748182,-0.0001479999627918005,-0.00038252779631875455,0.00018619414186105127,-8.388339996337889,19.39352798461914,-37.732078552246094,0.013851024210453032,0.0001310408115386963,0.08427238464355469,985.4576416015624,0,13.0,1,1
0.32,0.060579002,-0.14020870000000002,9.769489,0.0005175819387659429,0.0006827693432569504,0.0004524209070950746,-9.002511978149414,20.45159912109375,-37.93030166625977,-0.0005383528769016267,0.0003337562084197998,0.03692913055419922,985.449951171875,0,13.0,1,1
0.36,0.06060052,-0.14259249999999998,9.764757000000001,0.0006505319615826012,0.0004164873098488897,-0.0004797737929038704,-8.6925048828125,20.42572784423828,-37.82258987426758,-0.005434636026620865,0.005194634199142456,0.03692913055419922,985.4833984375,0,13.0,1,1
0.4,0.05823219,-0.14497627,9.757655999999999,0.00011769228149205446,-0.000382426573196426,-0.00047986285062506795,-8.20716381072998,20.037769317626953,-38.56753921508789,0.004186060279607773,0.005501121282577515,0.0653390884399414,985.440673828125,0,13.0,1,1
0.44,0.05347395,-0.15212665,9.76476,0.0003838003613054752,-0.00011607696069404484,-0.00021363614359870556,-8.664840698242188,19.872116088867188,-37.71747970581055,0.0137869194149971,0.010226890444755554,0.0511322021484375,985.4512939453124,0,13.0,1,1
0.48,0.055885434000000005,-0.14974387,9.760028,0.0005167503841221333,1.711472577881068e-05,-0.00034688302548602223,-9.006672859191895,19.972976684570312,-36.90085983276367,0.00863991305232048,-0.0038875043392181396,0.04166603088378906,985.4381103515624,0,13.0,1,1
0.52,0.053517102999999996,-0.14021139,9.74346,0.0006497004651464523,0.00028346441104076803,0.0005851334426552057,-8.900663375854492,20.07271957397461,-37.69287490844727,-0.000893615186214447,0.005558907985687256,0.06060123443603516,985.4276123046876,0,13.0,1,1
0.56,0.05353868,-0.14974494,9.774235000000001,-0.0004157708026468754,0.00028349805506877596,0.000718202325515449,-8.497905731201174,20.87139129638672,-37.95563888549805,0.003595225512981415,0.019920662045478817,0.03692817687988281,985.4688110351562,0,13.0,1,1
0.6,0.06550974,-0.14974554,9.767136,0.0005161268054507673,0.0006830056663602591,5.23235066793859e-05,-8.720603942871094,20.24127960205078,-37.65349960327149,0.008459106087684631,0.010412126779556273,0.04639434814453125,985.430908203125,0,13.0,1,1
0.64,0.05836156,-0.14974602,9.748199000000001,-0.00014987075701355934,-0.001447487622499466,5.223439075052738e-05,-8.086346626281737,19.83449935913086,-38.03537368774414,-0.0008554905652999878,0.0011143088340759275,0.07006645202636719,985.453857421875,0,13.0,1,1
0.68,0.05599326,-0.15451310000000001,9.764772,0.0006488689687103032,-0.0002490324550308287,0.0003184611850883812,-7.935067653656006,20.08098602294922,-37.22628402709961,0.008800804615020752,0.0008456110954284668,0.04165363311767578,985.438720703125,0,13.0,1,1
0.72,0.048845112,-0.14974709,9.769508,-0.0006829183548688889,-0.00011584075400605798,-0.0002142596640624106,-8.145695686340332,20.56900787353516,-37.91524124145508,-0.0008342117071151732,0.010216385126113892,0.0321807861328125,985.4412841796876,0,13.0,1,1
0.76,0.056036382999999995,-0.1449811,9.774245,-0.00015049433568492532,1.7350888811051846e-05,-0.0003475066623650491,-8.391926765441895,19.75887680053711,-37.67592239379883,0.013481240719556808,0.005463078618049622,0.027443885803222656,985.448974609375,0,13.0,1,1
0.8,0.058447897,-0.14259835,9.774246,-1.754437107592821e-05,0.00028370058862492437,-0.00034759583650156856,-8.184066772460938,19.479740142822266,-38.230506896972656,0.003951437771320343,0.005530640482902528,0.05111503601074219,985.446533203125,0,13.0,1,1
0.84,0.048909843,-0.15689845,9.757678,-0.0001886086538434029,-0.000549683696590364,0.0002475573855917901,-8.441057205200195,19.765640258789066,-37.822715759277344,0.009062636643648148,0.010147646069526672,0.06057834625244141,985.446533203125,0,13.0,1,1
0.88,0.051085025,-0.13782705,9.760025,7.749930955469608e-05,-0.0006828078767284751,0.0003806262684520334,-8.889167785644531,20.34687805175781,-37.71068954467773,0.008768510073423386,0.00037148594856262207,0.04163742065429688,985.464111328125,0,13.0,1,1
0.92,0.05324599,-0.15212102,9.76474,-0.0005879318923689425,-1.707641058601439e-05,0.0007802537293173372,-8.741635322570799,20.43248748779297,-37.96938705444336,0.004519414156675339,0.009758636355400084,0.036940574645996094,985.4593505859376,0,13.0,1,1
0.96,0.06041822,-0.14735456,9.755272,-0.00045091385254636407,0.0006480866577476263,0.000648750108666718,-8.400622367858888,20.48809051513672,-37.48629379272461,-0.0004933811724185944,0.00983808934688568,0.03694343566894531,985.4413452148438,0,13.0,1,1
1.0,0.053251028,-0.15212123,9.762372000000001,-4.937220364809036e-05,0.0003811156784649937,0.0005148330819793046,-8.647258758544924,20.15216445922852,-38.04451370239258,0.008729994297027588,0.023884236812591556,0.06061553955078125,985.4598999023438,0,13.0,1,1
1.04,0.06281322,-0.14497142,9.762373,0.0007495509926229715,0.0003811195201706141,0.0002485067234374583,-8.194284439086914,20.207481384277344,-37.96358108520508,-0.005597706884145737,0.00030630826950073237,0.051148414611816406,985.4119262695312,0,13.0,1,1
1.08,0.060425818,-0.14258827,9.762373,0.0004832107806578279,0.00011480771354399619,-0.0009499251609668137,-8.695548057556152,20.422775268554688,-37.6679801940918,-0.0006463602185249329,0.005232840776443482,0.04641532897949219,985.4346313476562,0,13.0,1,1
1.12,0.053258687,-0.14258821,9.762373,-4.944554530084133e-05,-0.00041782014886848634,-0.00028414593543857336,-8.732641220092772,20.335411071777344,-37.73413848876953,0.004186384379863739,-0.009208306670188906,0.027475357055664062,985.4423217773438,0,13.0,1,1
1.16,0.05565113,-0.15212147,9.771842999999999,-0.000182627874892205,-0.0001515002513770014,-0.0006836303509771824,-8.384017944335938,20.39837646484375,-37.63757705688477,0.009084232151508331,0.005185395479202271,0.03694343566894531,985.4369506835938,0,13.0,1,1
1.2,0.06999305,-0.14973821,9.762373,-0.000182627874892205,-0.0001515002513770014,-0.0006836303509771824,-8.443803787231445,20.39482879638672,-37.24323654174805,-0.004859942942857742,0.00980675220489502,0.04640960693359375,985.4369506835938,0,13.0,1,1
1.24,0.06282589,-0.14020522,9.760008000000001,0.00034997944021597505,-0.00148307578638196,-0.0009499565931037068,-7.884712219238281,19.443553924560547,-37.58166122436523,-0.014225035905838013,-0.009059295058250429,0.055878639221191406,985.4471435546876,0,13.0,1,1
1.28,0.060438484,-0.14497177,9.750538,-0.0001826767693273723,-0.0002846502175088972,-0.0004173353081569076,-8.487390518188478,20.77578353881836,-37.797698974609375,-0.004249788820743561,0.0052396953105926505,0.05587577819824219,985.4420776367188,0,13.0,1,1
1.32,0.05805117,-0.14497189,9.757639999999999,0.00048308854456990957,-0.00015148843522183597,0.0002484439464751631,-8.954902648925781,20.443355560302734,-37.70620346069336,0.00041510909795761114,0.0004994124174118042,0.046408653259277344,985.4644165039062,0,13.0,1,1
1.36,0.06044358,-0.14735521,9.771844,0.00034990609856322413,-0.0006841161521151662,0.0005147493211552501,-8.55494499206543,20.238651275634766,-38.14078140258789,0.0003522820770740509,0.0004062056541442871,0.03693771362304688,985.416748046875,0,13.0,1,1
1.4,0.046106695999999996,-0.14973857,9.764744,-0.0001827500527724624,0.0005143092712387444,-0.0005505246808752418,-8.435512542724611,20.13982391357422,-38.23038101196289,0.010048724710941316,0.005107060074806213,0.05113792419433594,985.4373779296876,0,13.0,1,1
1.44,0.05566886,-0.15212189,9.764744,-0.0004490903811529278,-0.00015147645899560302,-0.0001510613365098834,-9.12042236328125,20.551902770996094,-37.91800308227539,0.010395899415016173,0.014495179057121275,0.03693103790283203,985.4823608398438,0,13.0,1,1
1.48,0.055671394000000006,-0.1449721,9.750539999999999,0.000482990697491914,-0.0006841042777523397,-1.7913873307406902e-05,-8.670492172241211,20.60427474975586,-37.68246078491211,0.00560615211725235,0.009768322110176086,0.0653390884399414,985.4423217773438,0,13.0,1,1
1.52,0.06284362,-0.14735548,9.760008000000001,-4.966557025909424e-05,-0.0008172582602128386,-0.00015108229126781222,-8.867998123168945,20.26158142089844,-38.0938835144043,0.0008180141448974608,0.004872366786003114,0.04166412353515625,985.4471435546876,0,13.0,1,1
1.56,0.053286552,-0.14020564,9.764744,-0.0001828479580581188,0.00024800930987112224,-0.0005505667068064213,-8.834927558898926,19.976242065429688,-37.69736099243164,0.010261639952659609,0.014538764953613281,0.046401023864746094,985.4395141601562,0,13.0,1,1
1.6,0.06045878,-0.14973883,9.752908,-0.0004491882864385843,0.00038117115036584437,-0.0005505770677700639,-8.576414108276367,19.69181060791016,-38.18246078491211,0.0057793594896793365,0.0001644492149353027,0.0700693130493164,985.4501953125,0,13.0,1,1
1.64,0.06524116,-0.14020582,9.750539999999999,0.0003497349680401385,-0.001483036088757217,-0.0004174296045675874,-8.608642578125,20.240997314453125,-38.055660247802734,-0.003539782017469406,0.004852473735809326,0.06059837341308594,985.4281616210938,0,13.0,1,1
1.68,0.06524366,-0.13543929,9.771844999999999,-0.0003160792402923107,-0.00015145265206228942,-0.0006837559631094338,-8.666225433349611,19.97655487060547,-38.33924865722656,-0.003250673413276673,-0.009417548775672913,0.03219127655029297,985.4471435546876,0,13.0,1,1
1.72,0.06046641,-0.15450557,9.764746,0.0004828195669688285,-0.000684076570905745,0.0007809604285284878,-8.589675903320312,20.41660690307617,-37.76092147827149,0.0015910007059574127,0.019327640533447262,0.03692436218261719,985.4448852539062,0,13.0,1,1
1.76,0.055689156,-0.14735584,9.762377,0.0002164792385883629,0.00024803311680443585,0.00011516024824231863,-8.730576515197754,19.96859741210937,-37.71299362182617,0.010962340980768205,0.005081266164779663,0.04639625549316406,985.437255859375,0,13.0,1,1
1.8,0.058081567,-0.14497261,9.776580000000001,-4.986097337678075e-05,0.0002480369585100561,0.0002483077405486256,-8.715059280395508,20.615463256835934,-38.06117248535156,-0.003684539347887039,0.0005396604537963867,0.0464019775390625,985.4295043945312,0,13.0,1,1
1.84,0.05808413,-0.13543959,9.767112,0.0006159041658975184,0.0007806727662682532,0.00038145514554344123,-8.640329360961914,20.421905517578125,-37.83041000366211,0.0010665543377399442,-0.004358559846878053,0.04640007019042969,985.4448852539062,0,13.0,1,1
1.88,0.055918395999999995,-0.15451129,9.755297,-4.990992601960898e-05,-0.00015142888878472152,0.00011512881610542537,-8.875715255737305,21.360565185546875,-38.08001327514648,0.0011703148484230044,0.024428889155387882,0.05584716796875,985.4369506835938,0,13.0,1,1
1.92,0.06548947,-0.13544534,9.767134,0.0004813687992282212,-0.00108331476803869,0.00038086483255028725,-8.118032455444336,20.015396118164066,-37.81012344360352,0.001165829598903656,0.0006365776062011719,0.027441978454589844,985.437255859375,0,13.0,1,1
1.96,0.0678907,-0.13782887,9.7624,0.0002161691663786769,-0.00041801281622610986,0.0002466068544890732,-8.49986457824707,20.13186264038086,-37.60412979125977,0.0014472492039203644,-0.003892064094543457,0.04638004302978516,985.445068359375,0,13.0,1,1
2.0,0.06312233,-0.14497907,9.764769,8.290121331810951e-05,0.00024779472732916474,-1.975620398297906e-05,-8.201756477355957,20.30603790283203,-38.2761344909668,-0.012872468680143356,0.005507573485374451,0.041642189025878906,985.432373046875,0,13.0,1,1
2.04,0.065523654,-0.14497928,9.757667999999999,-0.0009824723238125443,-0.0005511350464075804,-0.0006855931133031845,-8.620138168334961,19.966842651367188,-38.037845611572266,-0.003283485770225525,-0.004514813423156738,0.04636859893798828,985.4322509765624,0,13.0,1,1
2.08,0.05358556,-0.13544641,9.760036,-5.0476694013923407e-05,-0.000284801353700459,-0.00015300838276743892,-8.184066772460938,19.479740142822266,-38.23051071166992,0.011459387838840485,-0.013898789882659912,0.03689765930175781,985.4395141601562,0,13.0,1,1
2.12,0.060766697,-0.14736314,9.762405000000001,8.257123408839107e-05,-0.0008174151880666614,-0.0001530555309727788,-8.526303291320799,20.0548095703125,-38.211421966552734,0.002031177282333374,0.009986251592636108,0.036895751953125,985.4397583007812,0,13.0,1,1
2.16,0.05121851,-0.15927978,9.762405000000001,0.0007482509245164692,-0.00015160764451138678,-1.9944796804338694e-05,-8.881994247436523,19.616188049316406,-37.8230094909668,0.0015972517430782318,0.014950692653656006,0.04636955261230469,985.437255859375,0,13.0,1,1
2.2,0.060789525999999997,-0.14736368,9.781343,-0.0008497543167322874,0.0005141999572515489,-0.0008189395302906632,-8.844900131225586,19.703556060791016,-37.75685501098633,0.006244804710149765,0.009812027215957642,0.036895751953125,985.4490966796876,0,13.0,1,1
2.24,0.044071615,-0.14736400000000002,9.76004,-5.091674393042922e-05,-1.8413964426144958e-05,0.00011311890557408333,-8.830904006958008,20.34894561767578,-38.02772903442383,0.01592670008540154,0.004796922206878662,0.05582809448242188,985.4369506835938,0,13.0,1,1
2.28,0.058422445999999996,-0.14259769,9.762408,-0.0005836584605276585,0.0005142356385476887,-0.000952191767282784,-8.540407180786133,20.515758514404297,-38.31320190429688,0.0106857568025589,-0.00507594645023346,0.03688621520996094,985.4423217773438,0,13.0,1,1
2.32,0.06799346,-0.15213110000000002,9.757675,-0.0009832422947511077,0.0006474113906733693,-0.0005527652101591228,-8.694025993347168,20.42424774169922,-37.74528884887695,-0.013161122798919678,0.013810411095619202,0.04161643981933594,985.44970703125,0,13.0,1,1
2.36,0.06322506,-0.14498158,9.774246,-0.00018120330059900883,-0.0005147065967321397,-0.0001867878600023687,-8.840441703796387,20.81431579589844,-38.36142349243164,0.005975581705570221,-0.0006805956363677979,0.03687858581542969,985.444580078125,0,13.0,1,1
2.4,0.051286995,-0.15689816,9.767146,-0.000713945017196238,-0.00011521487613208592,0.0002126388717442751,-8.380431175231934,20.033035278320312,-37.6937370300293,0.005857214331626892,0.008581042289733887,0.05107688903808594,985.444580078125,0,13.0,1,1
2.44,0.048908472,-0.14498211,9.757679,8.489261381328106e-05,-0.0005146708572283387,7.943378295749426e-05,-8.963055610656738,20.804283142089844,-37.41813278198242,0.006146203726530075,-0.005830422043800354,0.05107307434082031,985.4593505859376,0,13.0,1,1
2.48,0.053699702,-0.14021583,9.767147999999999,0.0006174143054522574,0.00028429468511603767,0.00047886042739264667,-8.516468048095701,20.221576690673828,-37.45285034179688,0.001603592187166214,-0.010402947664260864,0.02740192413330078,985.4593505859376,0,13.0,1,1
2.52,0.053711087000000005,-0.14498265,9.767149,-0.0003148011164739728,-0.0009141089394688605,0.0004788133082911372,-8.732939720153809,19.70327377319336,-38.15900802612305,0.006194278597831726,0.004008829593658447,0.04160594940185547,985.4617919921876,0,13.0,1,1
2.56,0.048942745,-0.14259966,9.778986,8.456263458356261e-05,0.0005506462184712291,-5.3865602239966386e-05,-8.565462112426758,20.334259033203125,-38.29872131347656,0.006131090223789215,-0.010438919067382812,0.032134056091308594,985.436279296875,0,13.0,1,1
2.6,0.04895413,-0.14259993,9.769519,-4.8705260269343846e-05,-0.00038144149584695697,0.00034556110040284693,-8.434831619262695,19.87744903564453,-38.83101272583008,0.015514634549617769,-0.0005281716585159302,0.05107688903808594,985.4822998046876,0,13.0,1,1
2.64,0.06808478,-0.14974998,9.767153,0.001149606192484498,0.0004175241047050804,-0.00018711778102442625,-8.951177597045898,20.18392944335937,-38.46144485473633,0.001282036304473877,0.01418641209602356,0.055815696716308594,985.4618530273438,0,13.0,1,1
2.68,0.053756773,-0.14021726,9.757685,0.0008831802988424898,-0.0003814057272393256,0.00047862471546977764,-8.751609802246094,20.15980529785156,-38.02887725830078,0.001086220145225525,-0.00024078786373138428,0.04161167144775391,985.446533203125,0,13.0,1,1
2.72,0.068107605,-0.1402175,9.757686,0.0008831802988424898,-0.0003814057272393256,0.00047862471546977764,-8.579021453857424,20.42691802978516,-38.30205535888672,-0.003534644842147827,-0.004950135946273804,0.0416107177734375,985.446533203125,0,13.0,1,1
2.76,0.05616945,-0.15928395,9.764788000000001,-0.00044850923586636776,-0.00024822994600981474,-0.00018721213564276693,-8.254070281982424,20.203941345214844,-37.569236755371094,0.010778076946735382,0.013944819569587708,0.060544013977050774,985.456787109375,0,13.0,1,1
2.8,0.05618092400000001,-0.15213443,9.755321,-4.914519377052784e-05,-0.0002482121053617448,0.0008780042990110816,-8.293525695800781,19.85125732421875,-38.0814094543457,0.006328575313091278,0.013775095343589784,0.05580425262451172,985.4564819335938,0,13.0,1,1
2.84,0.05367756,-0.13783199999999998,9.760044,-0.000182413321454078,-0.00011503628047648816,-5.414843326434493e-05,-8.627748489379883,19.95948028564453,-37.65132141113281,0.001982413232326508,-0.0053662359714508065,0.05579948425292969,985.4541015625,0,13.0,1,1
2.88,0.048776745999999996,-0.14974542,9.760034,-0.00031568121630698437,-0.0006476501584984362,0.00034527824027463794,-8.717016220092772,19.875938415527344,-37.709659576416016,0.006984025239944458,0.013805106282234192,0.04635429382324219,985.4615478515624,0,13.0,1,1
2.92,0.048777997000000003,-0.14259560000000002,9.767136,8.368265116587281e-05,-0.0006476322887465358,0.0011441786773502829,-8.393991470336914,20.125694274902344,-37.69706726074219,0.011614456772804259,0.004240483045578003,0.03688621520996094,985.4593505859376,0,13.0,1,1
2.96,0.05833888,-0.14497887,9.77187,0.0003523377235978842,1.7777594621293247e-05,-0.0008521877462044357,-8.524620056152344,20.582500457763672,-37.16477966308594,0.01115645095705986,0.014095708727836609,0.05583095550537109,985.453857421875,0,13.0,1,1
3.0,0.05356037599999999,-0.14021243,9.764769,0.00035232544178143144,1.7779573681764305e-05,-5.324551602825522e-05,-8.67505931854248,20.599857330322266,-37.4505500793457,0.015417516231536862,0.0045033544301986686,0.04636383056640625,985.4510498046876,0,13.0,1,1
3.04,0.06312123,-0.15927865,9.769503,0.0004854711005464196,0.0009498872095718981,-5.325081292539835e-05,-8.2308349609375,19.751827239990234,-37.9312858581543,-0.0039109326899051675,0.008985340595245361,0.03689289093017578,985.4585571289062,0,13.0,1,1
3.08,0.051173,-0.15212879999999998,9.762402,-0.00031348882475867873,0.0009498890722170472,0.00021305988775566218,-7.995555877685548,19.919513702392575,-38.05433654785156,0.010335501283407213,0.009082823991775513,0.036894798278808594,985.453857421875,0,13.0,1,1
3.12,0.05595409999999999,-0.13782917,9.7553005,-0.0007129748119041325,0.00015094352420419455,-0.0003195770550519228,-8.742178916931152,20.80078125,-38.06783676147461,0.005770266056060791,-0.0051974207162857064,0.04636192321777344,985.4562377929688,0,13.0,1,1
3.16,0.05595535,-0.14259584,9.769504,-4.720961442217231e-05,-0.0007811581017449497,-0.00045274558942765,-8.402986526489258,20.22277069091797,-37.932315826416016,0.005624458193778993,0.004473268985748291,0.05109882354736328,985.448974609375,0,13.0,1,1
3.2,0.051176785999999995,-0.14497910000000003,9.769504,-4.722177982330322e-05,0.0010830549290403724,-0.00031959288753569126,-8.557010650634767,20.605472564697266,-38.16192626953125,0.014750212430953981,-0.009804129600524902,0.04163265228271485,985.450927734375,0,13.0,1,1
3.24,0.05834776,-0.14497913,9.7553005,0.00048539781710132957,0.0005504252621904017,-0.00018644012743607163,-8.70247745513916,20.15304183959961,-37.882083892822266,0.005207080394029617,-0.00038649141788482666,0.06056976318359375,985.4462280273438,0,13.0,1,1
3.28,0.06551877,-0.14497916,9.760035,-0.00018040422582998872,1.779547892510891e-05,-5.328736733645201e-05,-8.701498031616211,20.522804260253906,-38.05784225463867,-1.2740492820739746e-06,0.00924643874168396,0.02743148803710937,985.45361328125,0,13.0,1,1
3.32,0.05357051,-0.14021267,9.752933500000001,0.00048537331167608494,0.001615692744962871,-0.0008522402495145798,-8.645736694335938,20.153636932373047,-38.1218147277832,0.004632405936717987,0.004564791917800903,0.05584049224853516,985.4457397460938,0,13.0,1,1
3.36,0.046402037,-0.14974578,9.757667999999999,0.00021904526511207223,-0.0007811482064425945,-0.000585929723456502,-8.885442733764648,20.08745574951172,-38.46592712402344,0.018937166780233383,0.00471457839012146,0.055843353271484375,985.4552612304688,0,13.0,1,1
3.4,0.053573042,-0.14021267,9.769504,-4.728289786726236e-05,1.780143065843731e-05,0.0006124865612946451,-8.508177757263184,19.966567993164066,-38.44000625610352,0.009473823010921478,0.004597842693328857,0.04163742065429688,985.445068359375,0,13.0,1,1
3.44,0.05835411,-0.15927894,9.755301,-0.00031361100263893604,-0.00011535453086253257,0.000213007559068501,-8.830904006958008,20.34894561767578,-38.02772521972656,-0.00047747790813446045,0.014200970530509947,0.05584239959716797,985.4578857421876,0,13.0,1,1
3.48,0.051185668,-0.13544624,9.771872,0.00021900859428569674,0.0005504371365532278,-0.0007191032636910678,-8.59867000579834,20.513687133789066,-37.99616622924805,0.014284096658229828,-0.0003307908773422241,0.022696495056152344,985.4557495117188,0,13.0,1,1
3.52,0.055966735,-0.14497934,9.7624035,-0.0005799514474347234,-0.0002485084114596248,-0.0007191086187958717,-8.001506805419924,20.01953887939453,-38.44419479370117,-0.00044499337673187256,0.009142562747001648,0.041634559631347656,985.4527587890624,0,13.0,1,1
3.56,0.055968045999999994,-0.15212919,9.764770500000001,-0.00044680561404675245,0.0004172831831965596,0.00034614969627000386,-8.669950485229492,20.23598861694336,-37.58401107788086,0.009372282773256302,0.01375579833984375,0.03689765930175781,985.4525756835938,0,13.0,1,1
3.6,0.058359176,-0.14259620000000003,9.757667999999999,0.00048528768820688134,-0.0019795577973127365,0.00034614448668435216,-8.400783538818361,19.961872100830078,-38.61024856567383,0.00038744136691093445,-0.00533178448677063,0.07003402709960938,985.4627685546876,0,13.0,1,1
3.64,0.05597061,-0.14259620000000003,9.767138000000001,-0.00018051429651677608,-0.0001153446064563468,7.982330862432718e-05,-8.875469207763672,20.360130310058594,-38.406436920166016,0.009791340678930284,-0.005350053310394287,0.03216075897216797,985.4378662109376,0,13.0,1,1
3.68,0.05597180000000001,-0.14497949,9.769505,-0.00031368440249934787,0.000550447148270905,-0.00045281369239091873,-9.250371932983398,20.746337890625,-37.9863395690918,0.009651578962802887,0.004137471318244934,0.03216075897216797,985.463623046875,0,13.0,1,1
3.72,0.055973113,-0.14259620000000003,9.755301,-0.00031369668431580067,-0.0005148144555278122,7.981283124536276e-05,-8.910200119018555,20.538089752197266,-38.02657318115234,0.0004577040672302246,-0.005399748682975769,0.051095008850097656,985.4678344726562,0,13.0,1,1
3.76,0.058364272,-0.13067992,9.769505,0.00021892291260883207,-0.0007811282994225621,7.980759255588056e-05,-8.481738090515138,20.043621063232425,-37.83271408081055,0.0005810149013996124,-0.0008244216442108153,0.046357154846191406,985.4603881835938,0,13.0,1,1
3.8,0.05119583,-0.14974613,9.757669,-0.0004468789556995034,0.00015097917639650402,-0.00018651352729648352,-8.922674179077148,19.894168853759766,-37.8330078125,0.009824864566326141,0.003819480538368225,0.06056022644042969,985.4373779296876,0,13.0,1,1
3.84,0.05372989,-0.14259984,9.769518,-0.0008463650010526179,0.0009499288862571119,-0.0003196765901520849,-8.690439224243164,20.05890655517578,-37.80144882202149,0.004726320505142212,-0.005954563617706299,0.03688621520996094,985.4525756835938,0,13.0,1,1
3.88,0.056272626,-0.14975339999999998,9.7719,-4.489906132221222e-05,-0.0007692007347941399,-4.896119935438037e-05,-9.120423316955566,20.551902770996094,-37.91800308227539,0.009535007178783415,0.0035623013973236084,0.03685665130615234,985.445068359375,0,13.0,1,1
3.92,0.05867517,-0.15452026,9.7719,-4.489906132221222e-05,-0.0007692007347941399,-4.896119935438037e-05,-9.120423316955566,20.551902770996094,-37.91800308227539,0.009787563234567642,0.013100594282150269,0.036853790283203125,985.445068359375,0,13.0,1,1
3.96,0.04912823400000001,-0.149754,9.771902,-0.00031133717857301235,-0.0003697070642374456,-0.00018217164324596524,-8.60657787322998,19.87418365478516,-38.03451156616211,0.00985683873295784,0.008160606026649475,0.04158496856689453,985.4655151367188,0,13.0,1,1
4.0,0.05870062,-0.15928747,9.755333,0.00022117234766483307,-0.00010337131971027702,0.00035040784860029817,-8.560895919799805,20.33867645263672,-38.53063583374024,-3.3795833587646484e-05,0.008052647113800049,0.05578804016113281,985.4629516601562,0,13.0,1,1
4.04,0.051543593,-0.14022152,9.750599000000001,-0.00017842400120571256,0.0012282280949875712,0.00021719734650105238,-9.107704162597656,20.195396423339844,-38.43799209594727,0.004002597182989121,-0.0016714781522750854,0.06525707244873047,985.4678344726562,0,13.0,1,1
4.08,0.046776444,-0.14022188,9.757702,0.0003540853504091501,0.0010950899450108411,0.001016092486679554,-9.178548812866213,20.655750274658203,-38.30004501342773,0.003928724676370621,-0.006000682711601257,0.04159069061279297,985.4297485351562,0,13.0,1,1
4.12,0.053958893,-0.14260544,9.771906,-0.00017866853158921003,-0.00036962761078029866,0.00035025045508518815,-8.588559150695799,20.892292022705078,-38.6357536315918,0.008855905383825302,-0.0016202926635742188,0.02737903594970703,985.4622192382812,0,13.0,1,1
4.16,0.05158168,-0.15452208,9.779009,-0.00017866853158921003,-0.00036962761078029866,0.00035025045508518815,-7.839573383331299,20.27634048461914,-38.17623901367188,0.004080921411514282,0.012360602617263794,0.04631137847900391,985.4622192382812,0,13.0,1,1
4.2,0.053984255,-0.14022279999999998,9.755338,-0.0007114228210411966,-0.0005027656443417072,0.0004833558923564852,-8.334206581115723,20.129234313964844,-38.091407775878906,0.008877422660589218,-0.020988166332244877,0.06051445007324219,985.4572143554688,0,13.0,1,1
4.24,0.058776735999999996,-0.14975621,9.764808,-0.0005783874657936393,-0.0006359037361107768,-4.932837327942252e-05,-8.781368255615233,19.86797332763672,-37.083404541015625,-0.005693472921848297,0.01693207025527954,0.04630851745605469,985.4498901367188,0,13.0,1,1
4.28,0.04922989,-0.13307358,9.779013,-0.0004453517613001168,0.0006956955185160041,0.00035009309067390865,-8.738592147827147,20.435436248779297,-38.12399673461914,0.017737310379743576,-0.011528387665748594,0.01790332794189453,985.4576416015624,0,13.0,1,1
4.32,0.05641225,-0.15452342,9.769544999999999,0.0003534737043082714,0.0006957153091207148,-4.943314706906676e-05,-8.446571350097656,20.603721618652344,-38.48678207397461,-0.0014086998999118805,0.017298758029937744,0.036843299865722656,985.4572143554688,0,13.0,1,1
4.36,0.054035038,-0.15690692,9.7671795,0.0006196668837219478,-0.00010321236914023756,-0.00044895958853885526,-8.592039108276367,20.151287078857425,-38.20693588256836,0.00363282859325409,0.007871836423873901,0.04631233215332031,985.4521484375,0,13.0,1,1
4.4,0.044488132,-0.15214075,9.764813,8.691300172358751e-05,0.00016312338993884623,0.0002167777274735272,-8.829381942749023,20.350421905517575,-38.10503005981445,0.022692065685987476,0.003131181001663208,0.03684234619140625,985.4647216796876,0,13.0,1,1
4.44,0.05406043,-0.14975776,9.774282000000001,0.0003531065303832293,-0.0005026465514674783,-0.0005822221864946188,-8.338771820068361,20.12481689453125,-37.85949325561523,0.01278066635131836,0.01737523078918457,0.03210926055908203,985.4699096679688,0,13.0,1,1
4.48,0.06841254,-0.13545839999999998,9.76955,-0.00017964781727641818,0.00016316314577125013,0.0007493045413866639,-8.335047721862793,19.865386962890625,-38.6147346496582,-0.011317424476146698,-0.01589520275592804,0.036843299865722656,985.4498901367188,0,13.0,1,1
4.52,0.073205054,-0.15214165,9.764816,0.00021970376837998629,0.0013616045471280813,0.0004829363315366209,-8.27387809753418,19.764488220214844,-38.387298583984375,-0.016109440475702286,0.008055761456489563,0.03211021423339844,985.4547119140624,0,13.0,1,1
4.56,0.06126821,-0.14975871,9.755348,0.0007522133528254926,0.00029636075487360364,-0.0004492216394282877,-8.562555313110353,20.23129272460937,-37.75425720214844,0.0031173862516880035,0.00851556658744812,0.06052207946777344,985.4545288085938,0,13.0,1,1
4.6,0.05889103,-0.15690883,9.764818,0.0006188104161992669,-0.0009020209545269607,0.0004827789671253413,-8.703999519348145,20.15156555175781,-37.80478286743164,-0.0015558525919914243,0.008353173732757568,0.046314239501953125,985.4521484375,0,13.0,1,1
4.64,0.080412865,-0.14499278,9.771921,8.605641778558493e-05,0.0008290520636364818,-0.0001830631517805159,-8.2464599609375,20.211307525634766,-37.95576095581055,-0.0207018293440342,-0.005738168954849243,0.041581153869628906,985.4570922851562,0,13.0,1,1
4.68,0.05652654,-0.1497596,9.762455000000001,0.00048540765419602405,-0.00036934943636879325,8.3200226072222e-05,-8.958353042602539,20.91461944580078,-38.34912490844727,-0.006363619118928909,0.013190329074859621,0.036843299865722656,985.4464721679688,0,13.0,1,1
4.72,0.06609881,-0.14499344,9.771925,0.000218969420529902,-0.00036932958755642176,8.314783917739986e-05,-8.359804153442383,20.31602478027344,-38.17538070678711,-0.0012700706720352173,-0.0010727494955062866,0.02263736724853516,985.4566650390624,0,13.0,1,1
4.76,0.06850147,-0.15214352,9.774291999999999,-0.00018062657909467814,-0.00023615184181835502,0.0007488850969821215,-8.414886474609375,20.422821044921875,-38.71203231811523,-0.020433947443962097,0.0131007581949234,0.04157257080078125,985.4291381835938,0,13.0,1,1
4.8,0.051784813,-0.14737727,9.776661,-0.000180749106220901,3.018396091647446e-05,0.0003493588010314852,-8.793375968933105,21.17436981201172,-38.23577499389648,0.01750946044921875,-0.001279681921005249,0.04157161712646485,985.4495849609376,0,13.0,1,1
4.84,0.06329942,-0.1426001,9.781355,-4.771363455802202e-05,0.0004296776896808296,-0.00031648337608203286,-8.887508392333984,20.454269409179688,-38.4870719909668,-0.005844343453645706,-0.0011722743511199953,0.017940521240234375,985.44189453125,0,13.0,1,1
4.88,0.070464075,-0.15213303,9.76005,0.0006211650907061994,-0.0007692452054470778,0.0007501039654016495,-8.805849075317383,20.530445098876953,-38.04220962524414,0.003910642117261887,0.003564491868019104,0.05107975006103516,985.4515380859376,0,13.0,1,1
4.92,0.060899377000000005,-0.14021654,9.767151,-0.00044300040462985646,0.00029584000003524125,0.0003511007234919816,-7.967457294464111,20.10395812988281,-38.22343063354492,-0.0007501281797885895,0.00370664894580841,0.04161262512207031,985.4285888671876,0,13.0,1,1
4.96,0.06089431,-0.14021643,9.776619,0.0007554697804152966,-0.0009025892941281199,0.0007505954708904027,-8.465677261352539,20.32219696044922,-38.08243942260742,0.00919874757528305,0.004126578569412232,0.03688335418701172,985.4572143554688,0,13.0,1,1
5.0,0.060889244,-0.13544972,9.762416,0.0006223609088920058,-0.0005031234468333423,0.00021798472153022883,-8.503749847412111,19.865070343017575,-37.972843170166016,-1.9878149032592773e-05,-0.0195358395576477,0.05108642578125,985.46435546875,0,13.0,1,1
5.04,0.0584943,-0.1497493,9.757681,-4.3379899580031627e-05,-0.00036997345159761613,0.0006174794980324805,-8.567962646484375,19.963024139404297,-38.04566192626953,-2.7742236852645874e-05,0.008686333894729614,0.03214454650878906,985.4617919921876,0,13.0,1,1
5.08,0.068048805,-0.14974917,9.771884,-0.00017648900393396616,2.949238114524633e-05,8.486869046464562e-05,-8.892073631286621,20.449848175048828,-38.25515365600586,-0.0049711912870407104,0.003980860114097595,0.0368804931640625,985.4488525390624,0,13.0,1,1
5.12,0.05609423,-0.15451558,9.764781,0.00022303382866084576,0.0008284320356324315,8.48897616378963e-05,-9.117379188537598,20.55484771728516,-38.07261276245117,0.004439089447259903,0.027740836143493645,0.04161643981933594,985.4080810546876,0,13.0,1,1
5.16,0.07281846,-0.15451546,9.77425,-0.0007090229191817343,-0.0002368393907090649,-0.00031456322176381946,-8.502089500427246,19.972457885742188,-38.74922561645508,-0.014500819146633146,0.00853806734085083,0.03687858581542969,985.438720703125,0,13.0,1,1
5.2,0.058474004,-0.14259894,9.760046,0.0002231315593235195,-0.00010368941002525388,0.0011501952540129425,-8.520896911621094,20.323074340820312,-37.920013427734375,-0.00024686753749847407,-0.010610908269882202,0.05108165740966797,985.4566040039062,0,13.0,1,1
5.24,0.07041842,-0.1378323,9.767147,-0.00017629330977797508,0.00016261855489574373,0.00021811056649312374,-8.909220695495605,20.90785217285156,-38.20233154296875,-0.004815347492694855,-0.010517895221710205,0.02740955352783203,985.4744873046876,0,13.0,1,1
5.28,0.0632436,-0.14259864,9.767147,0.0002232295228168368,-0.0007694949163123965,-4.8184359911829226e-05,-8.227355003356934,20.492828369140625,-38.36009979248047,-0.009323149919509888,0.00876927375793457,0.02741241455078125,985.44384765625,0,13.0,1,1
5.32,0.060848652999999996,-0.14498188,9.76478,0.0006227521225810051,-0.00023687111388426274,0.0006176262395456432,-8.775142669677733,19.979782104492188,-38.09170150756836,-0.004657413810491562,-0.0005956441164016724,0.04161834716796875,985.4541015625,0,13.0,1,1
5.36,0.060843527,-0.15451483,9.776615,0.0007559589575976133,0.000428910629125312,0.0003513314004521817,-8.490732192993164,20.140701293945312,-38.06795883178711,-0.004614517092704773,0.0043596476316452035,0.02268505096435547,985.4464721679688,0,13.0,1,1
5.4,0.06083849,-0.13306521,9.769513,2.266315277665853e-06,-0.0004979580407962203,-0.0002793610910885036,-8.836012840270996,20.71282196044922,-37.89426040649414,0.00035661086440086365,0.004345029592514038,0.04162025451660156,985.4541015625,0,13.0,1,1
5.44,0.06800312,-0.14498146,9.762410000000001,0.000268631149083376,-0.0002316501777386293,-0.00027934013633057475,-8.675357818603517,19.967723846435547,-37.87542343139648,-0.00902823731303215,-0.009966671466827393,0.046355247497558594,985.4464721679688,0,13.0,1,1
5.48,0.063218266,-0.14736463,9.767145,-0.000530267832800746,-0.00023165810853242877,0.0007859442848712206,-8.786201477050781,20.443679809570312,-38.34809494018555,-0.0044439174234867105,0.008873045444488525,0.022681236267089844,985.4515380859376,0,13.0,1,1
5.52,0.067992985,-0.14736451,9.774245,-0.000530218705534935,-0.00036482396535575384,-0.00027929822681471705,-8.656251907348633,20.249237060546875,-38.27975845336914,-0.004071366041898727,0.013545349240303041,0.04635143280029297,985.4437255859376,0,13.0,1,1
5.56,0.06798786,-0.13783132,9.771878,-0.00026385392993688583,-0.00023167399922385806,0.0007859862525947393,-8.484346389770508,20.778732299804688,-37.952308654785156,-0.004093460738658905,-0.005489960312843323,0.04161643981933594,985.4437255859376,0,13.0,1,1
5.6,0.06320304,-0.14498104,9.771877,0.000668300548568368,0.0008335815509781241,-0.0005455721984617412,-8.470785140991211,20.686065673828125,-37.948978424072266,0.0004904493689537048,-0.000708460807800293,0.04161930084228516,985.48193359375,0,13.0,1,1
5.64,0.060808062999999996,-0.14974745,9.757672999999999,0.000668300548568368,0.0008335815509781241,-0.0005455721984617412,-8.643235206604004,20.524871826171875,-38.37487411499024,0.005524516105651856,0.009155750274658205,0.03688812255859375,985.48193359375,0,13.0,1,1
5.68,0.05841309,-0.14736398,9.762407000000001,0.00040203362004831433,-0.00023168987536337227,-1.2919423170387745e-05,-8.703999519348145,20.15156555175781,-37.80478286743164,0.005351599305868149,0.013599827885627748,0.04161930084228516,985.4358520507812,0,13.0,1,1
5.72,0.06318781,-0.15213044,9.774242999999998,0.0005352405132725835,0.00016777601558715105,0.0007860491750761868,-8.452116966247559,20.229537963867188,-38.07910537719727,-0.004151422530412674,0.02329179644584656,0.03215312957763672,985.4336547851562,0,13.0,1,1
5.76,0.060792834000000004,-0.14259721,9.762406,-0.0006631320575252175,-0.0004980216035619378,-1.2877571862190962e-05,-8.748564720153809,20.162750244140625,-38.1834831237793,-0.004151862114667893,-0.0007397383451461793,0.05582332611083984,985.4435424804688,0,13.0,1,1
5.8,0.053586602000000004,-0.14021303,9.755302,-0.00013045145897194743,-0.00023171369684860108,0.00012030138168483973,-8.899682998657227,20.442481994628906,-37.86863327026367,0.014954932034015656,-0.0005795508623123169,0.05109119415283203,985.4617919921876,0,13.0,1,1
5.84,0.07266742,-0.15212853,9.771869,0.0004022292559966445,-0.0002317216130904853,0.0002534802770242095,-8.91963005065918,19.897117614746094,-37.98761367797852,-0.004301734268665314,0.014117896556854246,0.027433395385742188,985.45654296875,0,13.0,1,1
5.88,0.0654901,-0.14497848,9.769501,0.0008018273510970175,0.001099837594665587,-0.0006785720470361412,-8.760602951049805,20.25688934326172,-38.26412582397461,0.00031217187643051153,0.004555702209472656,0.04163742065429688,985.4560546875,0,13.0,1,1
5.92,0.06548247,-0.14736153,9.752930000000001,3.469933290034532e-06,0.0001676362007856369,-0.00041200325358659034,-8.712312698364258,19.98627471923828,-38.64065933227539,-0.00908811017870903,-0.0047515779733657846,0.060577392578125,985.4635620117188,0,13.0,1,1
5.96,0.048745573,-0.14259483,9.767133,0.00013670115731656554,0.0007002560887485743,-0.00041197187965735793,-9.04762077331543,20.831077575683594,-38.40746307373047,0.0005655176937580109,0.014122843742370604,0.04163742065429688,985.4862060546876,0,13.0,1,1
6.0,0.05112785,-0.14259459,9.752928,0.0002699324395507574,-0.0004981773090548813,-1.2466509360820055e-05,-8.834789276123047,20.08216094970703,-38.39643859863281,0.014840558171272278,-0.0005076229572296144,0.04163360595703125,985.4358520507812,0,13.0,1,1
6.04,0.048730403,-0.13306136,9.764764,-0.00039578397991135716,0.00016760049038566652,0.0003870387154165656,-8.23289966583252,20.118648529052734,-37.952430725097656,0.0102243572473526,-0.01524239778518677,0.03689289093017578,985.46142578125,0,13.0,1,1
6.08,0.06545204,-0.14974405,9.769497,3.83652513846755e-06,-0.0004982129903510213,0.0005202594911679626,-8.433448791503906,19.77301025390625,-38.2092399597168,0.0009875893592834473,0.013544380664825441,0.03689384460449219,985.46630859375,0,13.0,1,1
6.12,0.055884838,-0.14974387,9.76713,-0.0002624061307869852,-9.875107207335532e-05,-0.0006781306001357733,-8.701498031616211,20.52280044555664,-38.05784225463867,-0.004026249051094054,0.0038938969373703,0.04162883758544922,985.4537963867188,0,13.0,1,1
6.16,0.058267146,-0.13782732,9.767128,3.983150236308575e-06,3.439497959334403e-05,0.00038716435665264726,-8.505814552307129,20.23188781738281,-37.993988037109375,0.010288864374160768,-0.0011085271835327148,0.03689289093017578,985.4232788085938,0,13.0,1,1
6.2,0.06781918,-0.13782714,9.757660000000001,-0.000528575386852026,0.00043385688331909483,-0.0006780678522773088,-8.44700813293457,19.86566925048828,-38.21257400512695,-0.00905798003077507,-0.010476216673851013,0.05583381652832031,985.4534912109376,0,13.0,1,1
6.24,0.06542164,-0.14021026,9.769494,0.0004036034224554896,0.0007001608610153197,-1.2246659025549887e-05,-8.708427429199219,20.25305938720703,-38.27194213867188,-0.00457313284277916,-0.005744576454162598,0.032164573669433594,985.46142578125,0,13.0,1,1
6.28,0.06302413,-0.14497657,9.752923,-0.000528428703546524,0.0007001489866524935,-1.2215226888656615e-05,-8.374886512756348,20.407211303710934,-38.10140609741211,-4.880130290985107e-05,0.0039374977350234985,0.04637241363525391,985.4105834960938,0,13.0,1,1
6.32,0.06540644,-0.15689279,9.774227,0.0006700659287162125,-9.881056030280888e-05,-0.00041165767470374703,-8.580543518066406,20.425445556640625,-38.22475051879883,1.2546777725219728e-05,0.018290191888809204,0.036904335021972656,985.4791259765624,0,13.0,1,1
6.36,0.06778872,-0.15450926,9.752922,-0.00012880837311968207,0.0009664410026744008,-0.0001453103614039719,-8.539863586425781,20.14746856689453,-38.21475601196289,-0.004571855068206787,0.013563200831413269,0.06531143188476562,985.4637451171876,0,13.0,1,1
6.4,0.051051855,-0.14020948,9.767124,4.422909114509821e-06,-0.0010309399804100394,0.00038735283305868506,-8.568399429321289,19.224971771240234,-37.77145767211914,0.019293274730443958,0.0038329362869262695,0.04163646697998047,985.4637451171876,0,13.0,1,1
6.44,0.060603797,-0.15212564,9.774225,0.00027081213193014264,-0.0008977939141914248,0.0002542263246141374,-8.317899703979492,19.40738296508789,-38.66755676269531,-0.004231095314025879,0.008336737751960754,0.04163169860839844,985.4841918945312,0,13.0,1,1
6.48,0.060596168,-0.14497565,9.757653999999999,-0.000927535817027092,-0.0002320161584066227,0.00012109975796192883,-8.373662948608397,19.77655029296875,-38.60358047485352,0.005716729909181596,0.00844651460647583,0.051100730895996094,985.4588623046876,0,13.0,1,1
6.52,0.06775832,-0.15212531,9.776589999999999,0.00027095869882032275,-0.0008978176629170775,-0.0001451846910640597,-8.729597091674805,20.338359832763672,-37.88874435424805,0.0008392147719860077,0.013192698359489441,0.032164573669433594,985.4637451171876,0,13.0,1,1
6.56,0.07014060000000001,-0.14735855,9.764755000000001,0.00040418998105451465,0.0008332236902788281,-0.0009441008442081512,-8.636741638183594,20.05655670166016,-37.88656997680664,-0.013581857085227966,-0.006079673767089844,0.06530380249023438,985.466552734375,0,13.0,1,1
6.6,0.065353185,-0.14259188,9.757652,-0.0006610001437366009,-0.00036520976573228836,0.0001211940834764391,-8.932753562927246,20.727828979492188,-38.26515579223633,-0.008506815880537033,-0.001347273588180542,0.036894798278808594,985.45654296875,0,13.0,1,1
6.64,0.07251531,-0.1330585,9.771854,0.0001380207831971347,0.00016741009312681854,-0.00041140627581626177,-8.293770790100098,20.8516845703125,-37.7549934387207,-0.0086466483771801,-0.011006087064743042,0.032161712646484375,985.4616088867188,0,13.0,1,1
6.68,0.06294808,-0.14735799,9.760017,-0.0005276957526803017,0.00016739816055633128,-1.1900963727384806e-05,-8.616252899169924,20.233638763427734,-37.669132232666016,-0.008641570806503296,-0.0014926940202713013,0.05109882354736328,985.4513549804688,0,13.0,1,1
6.72,0.06294051,-0.14497454,9.767119000000001,-0.000261306413449347,-9.892959496937692e-05,-0.00014502758858725429,-8.94881534576416,20.449249267578125,-38.01542282104492,0.0008952505886554717,0.012587308883666992,0.041626930236816406,985.4310913085938,0,13.0,1,1
6.76,0.06293288,-0.14735766,9.760017,-0.0006607070099562408,-0.00023209945356938988,-0.000411311979405582,-9.158900260925293,20.56897735595703,-38.60593032836914,-0.0038078352808952327,-0.006797969341278076,0.05582618713378906,985.4534912109376,0,13.0,1,1
6.8,0.06575853,-0.13783525,9.760057000000002,-0.0003943177871406079,0.00016736247926019132,-0.0008107543108053505,-8.542226791381836,19.88214874267578,-38.66077041625977,-0.008690360933542252,-0.025816455483436584,0.04631614685058594,985.4281616210938,0,13.0,1,1
6.84,0.060988843,-0.15928496,9.767159,0.00013572996249422428,-0.0004980077501386403,-0.0006787039455957711,-8.133955955505371,19.84273910522461,-38.25947189331055,0.005454014986753464,0.021591350436210632,0.036843299865722656,985.4534912109376,0,13.0,1,1
6.88,0.07055861,-0.14498557,9.776628500000001,-0.000798035878688097,0.0001680515124462545,-0.0005462575354613364,-8.594646453857424,20.886398315429688,-38.32653427124024,-0.008769840002059938,0.0024187415838241573,0.02263736724853516,985.460693359375,0,13.0,1,1
6.92,0.06817889,-0.1354527,9.762426,-5.537993274629116e-05,-0.0004655953671317548,-0.0013888536486774685,-8.471084594726562,20.053932189941406,-38.37384796142578,-0.008274540305137634,-0.006899610161781311,0.05577754974365234,985.4539794921876,0,13.0,1,1
6.96,0.06340921,-0.13783623,9.767161999999999,0.0007433721330016851,0.000732857792172581,-0.0007231477065943183,-8.786744117736816,20.811969757080078,-38.4465446472168,-0.013165540993213655,-0.011259019374847412,0.04631328582763672,985.4739379882812,0,13.0,1,1
7.0,0.06580925,-0.15690269,9.76953,0.0007433721330016851,0.000732857792172581,-0.0007231477065943183,-8.786744117736816,20.811969757080078,-38.4465446472168,-0.003853969275951385,0.0029650330543518066,0.046314239501953125,985.4739379882812,0,13.0,1,1
7.04,0.06342953400000001,-0.13545342,9.764797,0.0007433721330016851,0.000732857792172581,-0.0007231477065943183,-8.533775329589844,20.153358459472656,-38.52397155761719,-0.00445021316409111,0.002973794937133789,0.03684806823730469,985.4739379882812,0,13.0,1,1
7.08,0.06821948,-0.13068707,9.774266,0.000343800347764045,0.0015318214427679775,0.00034207379212602973,-8.380293846130371,20.138946533203125,-38.3928108215332,-0.004685603082180022,-0.01125963032245636,0.03684902191162109,985.4513549804688,0,13.0,1,1
7.12,0.0634498,-0.14737026,9.757696000000001,-0.0004552450263872743,0.0008660475141368806,0.0006083478219807148,-8.886123657226562,20.349822998046875,-37.86529922485352,0.00024622678756713867,-0.0015951097011566162,0.06525611877441406,985.4513549804688,0,13.0,1,1
7.16,0.07062966,-0.14260398,9.762432,-5.5869051720947034e-05,6.711579771945253e-05,-0.0005901156109757721,-8.703862190246582,20.25748443603516,-38.50385665893555,-0.004380717873573303,-0.0014786124229431152,0.041584014892578125,985.4227905273438,0,13.0,1,1
7.2,0.06586003,-0.13783778,9.752964,0.0007429808028973639,6.713167385896668e-05,-0.000323841639328748,-8.985472679138184,21.09994125366211,-38.35578918457031,-0.00939041003584862,-0.011266171932220459,0.06525230407714844,985.433349609375,0,13.0,1,1
7.24,0.058700442,-0.14022128,9.762433999999999,7.709325291216373e-05,-0.0003323263372294605,-0.0008565153111703694,-8.859003067016602,20.16450500488281,-37.85863876342773,0.004792880266904831,0.003267869353294373,0.04631805419921875,985.433349609375,0,13.0,1,1
7.28,0.070660174,-0.14737137,9.764803,-0.00045563641469925637,0.0005997951957397162,7.554836338385941e-05,-8.831042289733887,20.24303436279297,-37.32864761352539,-0.0002318732440471649,0.003423735499382019,0.03685092926025391,985.4713745117188,0,13.0,1,1
7.32,0.073060155,-0.14975484,9.762436,0.00047637143870815646,0.0007329689688049258,-0.0001908094855025411,-8.632176399230957,20.06098175048828,-38.11848449707031,-0.014611870050430296,0.00791981816291809,0.060519218444824226,985.43603515625,0,13.0,1,1
7.36,0.053951085,-0.14737184,9.767172,7.679976988583802e-05,-6.596276216441765e-05,-0.00032400927739217883,-8.650164604187013,20.255130767822266,-38.5889778137207,0.009308245033025742,0.0031634122133255005,0.046314239501953125,985.43603515625,0,13.0,1,1
7.4,0.06113094,-0.15213858,9.745867,-0.00045592978131026035,0.0008661585743539035,-0.0005903671844862401,-8.489753723144531,20.51046371459961,-38.24371719360352,0.004940405488014221,0.007764339447021484,0.06998062133789062,985.4486694335938,0,13.0,1,1
7.44,0.061141133,-0.13783918,9.764805,-0.000322869629599154,-0.0004654048825614153,0.00020853860769420865,-8.565896987915039,19.596206665039066,-38.02451705932617,-0.00012382864952087402,-0.0017061084508895874,0.04157638549804688,985.4307250976562,0,13.0,1,1
7.48,0.061151236,-0.14498927,9.769541,0.0004759800503961742,-0.00019907302339561284,0.0003416545805521309,-8.331162452697754,20.132179260253906,-38.24602127075195,0.004980213940143585,-0.0016938447952270508,0.0321044921875,985.4788818359376,0,13.0,1,1
7.52,0.065941215,-0.1449895,9.76244,0.00047578441444784403,-0.0007316731498576701,-5.790311843156815e-05,-8.736771583557129,21.06904602050781,-37.77643203735352,-0.004853352904319763,0.0031871795654296875,0.0463104248046875,985.4742431640624,0,13.0,1,1
7.56,0.068341255,-0.15213953,9.760075,-5.694496212527156e-05,0.0007330801454372704,0.00034152885200455785,-8.765169143676758,20.25246810913086,-38.03220748901367,-0.00941690430045128,0.008014187216758728,0.04630947113037109,985.4537963867188,0,13.0,1,1
7.6,0.06835142,-0.13069041,9.755341,0.0007419046596623957,-0.0003321674594189972,0.0003414869133848697,-8.688779830932617,20.166297912597656,-38.57783126831055,-0.014814283698797224,-0.010805800557136536,0.041581153869628906,985.4208374023438,0,13.0,1,1
7.64,0.05641201,-0.15690668,9.752974499999999,0.00034233310725539923,0.001265743630938232,0.0004746029444504528,-8.641170501708983,20.158058166503906,-38.35373306274414,0.004362400621175766,0.008252203464508057,0.055782318115234375,985.428466796875,0,13.0,1,1
7.68,0.05881214,-0.14499058,9.767178999999999,0.0002090773195959628,0.0005999698769301176,0.0006077189464122058,-8.63880729675293,20.423377990722656,-37.90771484375,-0.000681556761264801,-0.00130482017993927,0.03684425354003906,985.4616088867188,0,13.0,1,1
7.72,0.068381846,-0.14975734,9.760078,-0.0005899680545553565,-0.0005984357558190823,0.0008739929180592299,-8.854437828063965,20.168922424316406,-38.09054946899414,-0.010152928531169891,0.0033097267150878906,0.051044464111328125,985.45654296875,0,13.0,1,1
7.76,0.07540554,-0.1497537,9.774267,0.00020888162543997169,0.0006000016001053153,0.0006076350691728294,-8.207706451416017,20.40605926513672,-38.66598892211914,-0.015020526945590971,-0.001240059733390808,0.04631328582763672,985.4537963867188,0,13.0,1,1
7.8,0.06330049,-0.14498337,9.762417999999998,-0.00019068986875936392,-0.00019893015269190076,7.49614555388689e-05,-8.456544876098633,20.331031799316406,-38.54627227783203,-0.0004096291959285736,0.007988020777702332,0.03686809539794922,985.4442749023438,0,13.0,1,1
7.84,0.06807774,-0.15451641,9.769519,-0.0003208815469406545,0.00033322005765512586,0.00034254853380843997,-8.321624755859375,19.66681289672852,-37.91232299804688,-0.009952697902917862,0.0033090263605117802,0.036869049072265625,985.4340209960938,0,13.0,1,1
7.88,0.05851558,-0.14259999,9.755316,0.0003449326031841337,-6.625771493418142e-05,0.0003425590693950653,-8.933189392089844,19.989776611328125,-37.99094772338867,-0.00045242905616760254,-0.001529112458229065,0.05107307434082031,985.4435424804688,0,13.0,1,1
7.92,0.06329289,-0.15451629999999997,9.781355,7.864111103117466e-05,0.0004663700819946825,0.0002094115479849279,-8.587611198425293,20.04979705810547,-37.73977279663086,0.008994609117507935,0.017571792006492615,0.04160499572753906,985.46630859375,0,13.0,1,1
7.96,0.06329036,-0.14259984,9.767151,0.000478139438200742,0.0005995240644551814,-0.00019005179638043046,-7.8214473724365225,20.188098907470703,-38.404823303222656,-0.010341756045818329,-0.010871440172195436,0.04160976409912109,985.4739379882812,0,13.0,1,1
8.0,0.05611807,-0.13783320000000002,9.757682,-5.446776049211621e-05,0.0004663621657527983,-0.00019004120258614418,-8.50277042388916,20.234832763671875,-38.148597717285156,0.00867069885134697,-0.01115158200263977,0.04160594940185547,985.4462890625,0,13.0,1,1
8.04,0.06328529,-0.16166593,9.757681,-0.00032075931085273623,-0.00033258949406445026,-0.0005895046633668244,-8.174636840820312,20.120716094970703,-38.26946640014648,-0.009960517287254332,0.026988953351974487,0.036869049072265625,985.4537963867188,0,13.0,1,1
8.08,0.068062514,-0.13783304,9.755314,-0.0005870506865903735,0.0002000382519327104,-0.00045633612899109716,-8.384017944335938,20.39837646484375,-37.63757705688477,-0.010390136390924455,0.0079566091299057,0.051074981689453125,985.4513549804688,0,13.0,1,1
8.12,0.0728398,-0.14974947,9.774252,0.001277184928767383,0.00033319229260087013,0.0004757798742502928,-8.468583106994629,20.425167083740234,-38.62691116333008,-0.020056460052728653,0.0033198297023773193,0.04160976409912109,985.4586181640624,0,13.0,1,1
8.16,0.06805748,-0.1449828,9.755314,7.878791075199842e-05,-6.628547998843715e-05,-0.00018999940948560834,-8.741635322570799,20.43248748779297,-37.96938705444336,-0.010262079536914824,-0.0013858675956726074,0.0605459213256836,985.4811401367188,0,13.0,1,1
8.2,0.06088519,-0.15213259,9.750579,-5.434564081951976e-05,-0.00019944735686294732,-5.6830933317542076e-05,-8.786881446838379,20.7060546875,-37.74747085571289,0.004323158413171768,0.007982403039932251,0.0463409423828125,985.4541015625,0,13.0,1,1
8.24,0.060882688,-0.14736594,9.760048,-0.00032063707476481795,-0.0005989251658320428,7.633748464286327e-05,-8.493776321411133,20.13775634765625,-37.91334915161133,0.004089709371328354,-0.006190434098243713,0.03687477111816406,985.4512329101562,0,13.0,1,1
8.28,0.07999936,-0.14498265,9.771883,-5.4296688176691525e-05,0.0007326502236537634,0.00020950590260326862,-8.339177131652832,20.599021911621094,-38.657020568847656,-0.019968505948781967,0.007866233587265016,0.03213787078857422,985.4586181640624,0,13.0,1,1
8.32,0.05848765400000001,-0.15451564,9.769516000000001,-0.00045374617911875253,0.00033317244378849864,0.00020951629267074168,-8.529210090637207,20.15777587890625,-38.75588989257813,-0.0006533041596412659,0.007889732718467712,0.05107402801513672,985.4667358398438,0,13.0,1,1
8.36,0.065654874,-0.14021601,9.762414,-0.00018740573432296517,-0.0004657792160287499,-0.0007225787849165499,-7.928298950195312,19.824508666992188,-38.13612747192383,-0.014986839145421982,-0.011311233043670654,0.04160499572753906,985.4435424804688,0,13.0,1,1
8.4,0.06804222,-0.14021589,9.760046,0.0004784084740094841,0.0004663224681280553,0.0007421691552735865,-8.281051635742188,20.49517822265625,-38.27498245239258,-0.005655672401189804,-0.0016702860593795776,0.04160785675048828,985.4541015625,0,13.0,1,1
8.44,0.07042956,-0.14259912,9.760047,0.00028579280478879815,0.00043527304660528904,-1.5634694136679173e-05,-8.261541366577147,20.302490234375,-37.88179397583008,-0.010436069220304491,-0.006237730383872986,0.06054782867431641,985.4412841796876,0,13.0,1,1
8.48,0.04891795,-0.14974888,9.767149,0.00028581719379872084,0.00030211126431822777,-1.5624158550053835e-05,-8.644458770751951,21.155540466308594,-37.87269973754883,0.013496004045009613,0.012945324182510376,0.03687763214111328,985.4591064453124,0,13.0,1,1
8.52,0.05608508,-0.15451534,9.767147,0.00028581719379872084,0.00030211126431822777,-1.5624158550053835e-05,-9.012049674987793,20.916969299316406,-38.26399993896485,0.003730382770299912,0.008268669247627258,0.04635047912597656,985.4591064453124,0,13.0,1,1
8.56,0.058472484000000005,-0.14736547,9.769514,0.0002858416410163045,-0.0003636824549175799,-0.0002819296205416322,-8.84500789642334,20.809898376464844,-38.1295051574707,-0.005514893680810928,-0.0059408992528915405,0.04634952545166016,985.4488525390624,0,13.0,1,1
8.6,0.06085983,-0.14498211,9.757679,0.0009516557911410928,3.5787466913461685e-05,0.00011755467858165503,-8.458066940307617,20.32956314086914,-38.46896743774414,-0.005482561886310577,0.008565858006477356,0.04161834716796875,985.448974609375,0,13.0,1,1
8.64,0.058467418,-0.14021553,9.776616,-0.00011358322808519006,0.00043525727232918143,-1.5592726413160566e-05,-8.318145751953125,20.40781021118164,-38.34113693237305,-0.0006695427000522614,0.004020452499389648,0.02741718292236328,985.4463500976562,0,13.0,1,1
8.68,0.058464885,-0.14974858,9.75531,0.0005522308056242764,-0.0006300101522356273,0.00025073354481719434,-8.518693923950195,20.06217193603516,-38.59794616699219,0.013504240661859512,0.013548329472541807,0.046357154846191406,985.438720703125,0,13.0,1,1
8.72,0.053682506,-0.1592816,9.764778999999999,0.0006854132516309619,0.0003020914155058563,0.00025074402219615877,-8.482143402099611,20.51782989501953,-38.63024139404297,-0.00552653893828392,0.013408884406089784,0.05582332611083984,985.4896850585938,0,13.0,1,1
8.76,0.05342582,-0.13782586,9.752919,-0.0007792996475473046,-9.738643711898476e-05,-0.000548193056602031,-9.00762176513672,20.815471649169922,-37.79684066772461,0.004060056060552597,-0.015249669551849362,0.0652923583984375,985.4285888671876,0,13.0,1,1
8.8,0.06510335,-0.13781913,9.759996000000001,0.00015283044194802642,-0.0004968642024323344,0.0005170808872207999,-8.895256042480469,20.340988159179688,-37.40147018432617,-0.0004468075931072235,-0.015436381101608275,0.046401023864746094,985.4539794921876,0,13.0,1,1
8.84,0.057910800000000005,-0.14020188,9.769464,-0.00011164194438606499,0.0008344158995896577,0.00011839711805805564,-8.794790267944336,20.066551208496094,-37.78581619262695,-0.000517185777425766,0.0036645829677581783,0.0274658203125,985.4617919921876,0,13.0,1,1
8.88,0.06266773,-0.14973440000000002,9.769461999999999,-0.0003786548913922161,0.00030225329101085663,0.0005207585054449737,-8.213550567626951,19.399742126464844,-38.68319320678711,-0.010260805487632751,-0.0010106861591339113,0.03693962097167969,985.4310913085938,0,13.0,1,1
8.92,0.067424655,-0.14735056,9.762358,-0.0002452766930218786,3.590167034417391e-05,-1.1778902262449265e-05,-8.674241065979004,20.443397521972656,-38.7502555847168,0.003752868622541428,-0.005527541041374207,0.046416282653808594,985.4105834960938,0,13.0,1,1
8.96,0.055452347,-0.14735003,9.769457000000001,0.0005541115533560513,0.0012342516565695405,0.00012156792217865586,-8.620979309082031,19.702999114990234,-38.5611686706543,0.0035449676215648647,0.0039072185754776,0.032215118408203125,985.430908203125,0,13.0,1,1
9.0,0.06498909,-0.14734943,9.762354,0.0006874897517263888,-9.736351785250008e-05,-0.0005441273096948862,-8.734025955200195,20.43985366821289,-38.35590744018555,0.0034826993942260747,0.009012460708618164,0.04169178009033203,985.4365844726562,0,13.0,1,1
9.04,0.053016722,-0.1330492,9.783656,0.00042139415745623415,3.575865412130952e-05,0.00025491465930826957,-8.511220932006836,19.963623046875,-38.28539276123047,0.0037386491894721994,-0.005264952778816222,0.008551597595214844,985.4520263671876,0,13.0,1,1
9.08,0.0649434,-0.15926473,9.76235,2.2140651708468795e-05,-0.0006300668464973568,-0.00014446477871388197,-8.495161056518555,20.24219512939453,-38.53512191772461,-0.0008922144770622252,0.004197418689727783,0.05116081237792969,985.4340209960938,0,13.0,1,1
9.12,0.07687002400000001,-0.14734779999999997,9.769449,-0.0009097446454688908,3.5687146009877324e-05,-0.000677002128213644,-8.451137542724611,20.59930419921875,-38.25486373901367,-0.02467988431453705,0.018104374408721924,0.05589103698730469,985.4463500976562,0,13.0,1,1
9.16,0.06967747,-0.14019735,9.762344,2.258122549392283e-05,0.00016880931798368692,0.000521513749845326,-8.907591819763184,19.802978515625,-37.90697860717773,-0.005610954016447067,-0.015023782849311829,0.051163673400878906,985.4213256835938,0,13.0,1,1
9.2,0.06248492,-0.14258008,9.759975,0.0004222753050271421,0.000435089401435107,-0.0004104974213987589,-9.315021514892578,20.10623550415039,-37.78495407104492,-0.010623179376125336,-0.005336031317710877,0.051169395446777344,985.4541015625,0,13.0,1,1
9.24,0.055292368,-0.13542970000000001,9.774178,0.0002893376804422587,0.0009676854824647306,-0.0005435608327388762,-8.452958106994629,19.96569061279297,-38.60243225097656,0.008369822055101395,-0.0054316073656082145,0.032233238220214844,985.4310913085938,0,13.0,1,1
9.28,0.06721899,-0.14734556,9.774175999999999,-0.00024307382409460845,-0.0004970876616425811,-0.00027715053874999285,-8.541790962219237,20.620201110839844,-38.934974670410156,-0.010654326528310776,0.013577014207839966,0.03223419189453125,985.413818359375,0,13.0,1,1
9.32,0.05763656,-0.14257838,9.755235,-0.00024285356630571187,0.00043498224113136535,0.0007882072823122144,-8.557446479797362,19.867416381835934,-37.8877182006836,0.008097562938928604,-0.010206177830696106,0.0701150894165039,985.448974609375,0,13.0,1,1
9.36,0.06478339400000001,-0.14734443,9.762335,-0.0005089491605758667,0.0005681043257936835,-0.0002769617130979896,-8.544429779052733,20.143051147460934,-37.98283767700195,-0.01096629723906517,0.00854964554309845,0.041706085205078125,985.4591674804688,0,13.0,1,1
9.4,0.057590842,-0.1568769,9.762333,0.00068969267886132,-9.772110206540674e-05,0.0003889222862198949,-8.597690582275389,20.883453369140625,-38.17192459106445,-0.0012300387024879456,0.0137624591588974,0.027509689331054688,985.4462890625,0,13.0,1,1
9.44,0.07190737,-0.14257677,9.778901,0.0013557026395574212,0.00030171696562319994,0.0002558587584644556,-8.085666656494139,19.57212829589844,-38.63600158691406,-0.010758697986602785,0.00439336895942688,0.03698253631591797,985.44384765625,0,13.0,1,1
9.48,0.05993500400000001,-0.14495946,9.764695,-0.00024197236052714288,-0.0004972664755769074,-1.0362709872424603e-05,-8.61198616027832,19.60592269897461,-38.32592010498047,-0.010726362466812134,0.004296779632568359,0.03224945068359375,985.4464721679688,0,13.0,1,1
9.52,0.059912145,-0.13780905,9.76706,-0.0007743837777525188,0.0008342771325260402,-0.0002765841200016439,-8.518693923950195,20.062175750732425,-38.59794616699219,-0.0013348832726478574,-0.010126441717147829,0.0559234619140625,985.448974609375,0,13.0,1,1
9.56,0.062279224,-0.14972492,9.755222,0.0004242579743731767,-9.786419104784728e-05,0.0001229840563610196,-8.400346755981445,20.69992446899414,-38.88445281982422,-0.010318327695131302,0.004381164908409119,0.05118942260742188,985.4464721679688,0,13.0,1,1
9.6,0.07181597,-0.14972432,9.757587,0.0010902680223807693,-0.0008968476322479547,0.00012307858560234308,-9.006940841674805,20.553096771240234,-38.39746475219727,-0.015374056994915009,0.009523361921310423,0.036995887756347656,985.4462890625,0,13.0,1,1
9.64,0.0694032,-0.14019062,9.7623205,0.0005578565178439021,0.0007010119734331964,-0.0002763009979389608,-8.79131031036377,20.80754852294922,-38.21463012695313,-0.02010708674788475,-0.009259283542633057,0.041736602783203125,985.448974609375,0,13.0,1,1
9.68,0.06221062,-0.14733993,9.762317999999999,0.0004249188641551882,-0.0004974453477188945,-0.00027620652690529823,-8.451681137084961,20.96759033203125,-38.35331344604492,0.0041127391159534454,0.005016788840293884,0.06540966033935547,985.4317016601562,0,13.0,1,1
9.72,0.057407975,-0.15687247,9.759949,2.5665358407422897e-05,-0.000364323117537424,-9.796232916414738e-06,-8.775249481201174,21.08612823486328,-38.46435928344727,-0.0003082454204559326,0.009747728705406187,0.04647064208984375,985.4417724609376,0,13.0,1,1
9.76,0.06784016,-0.15212731,9.762396,0.0002922014973592013,-0.0006306747673079371,0.00012345612049102783,-8.950634956359863,19.81563949584961,-38.36299133300781,-0.0014046356081962585,0.009850740432739258,0.04165935516357422,985.4693603515624,0,13.0,1,1
9.8,0.058293194000000007,-0.1449778,9.755295,-0.00011145521420985459,0.00030192479607649153,0.0003863227320834994,-8.799760818481445,20.536338806152344,-38.3514289855957,-0.00615241751074791,0.01924948394298553,0.04639148712158203,985.4541015625,0,13.0,1,1
9.84,0.05830592,-0.14021154,9.755297,0.00015263969544321299,0.00030228527612052863,0.0005185288609936833,-8.800847053527832,21.272918701171875,-38.5483283996582,0.003398615866899491,-0.004528388381004334,0.06532859802246094,985.4541015625,0,13.0,1,1
9.88,0.070268095,-0.15927811,9.774235000000001,0.00015251740114763382,-0.00023032662284094838,0.0003853185626212508,-8.809734344482422,20.263652801513672,-38.41091537475586,-0.015702668577432632,0.01941005885601044,0.032187461853027344,985.4365844726562,0,13.0,1,1
9.92,0.06311104,-0.14021213,9.764768,0.00015239522326737642,3.600912168622017e-05,0.0010510558495298028,-8.864112854003906,20.52837371826172,-37.72517013549805,0.003485523164272309,-0.00013133883476257324,0.04638195037841797,985.4213256835938,0,13.0,1,1
9.96,0.060733855,-0.14497904,9.767136,0.00015239522326737642,3.600912168622017e-05,0.0010510558495298028,-9.024523735046387,20.273048400878906,-38.07043075561523,-0.0014570876955986025,-0.009800001978874208,0.03691196441650391,985.4213256835938,0,13.0,1,1
10.0,0.065526366,-0.15451245,9.7576685,-0.0007045309757813811,0.00020384148228913546,6.849737837910652e-05,-8.83144760131836,20.71723937988281,-38.12617492675781,-0.01049012690782547,0.02328135073184967,0.04163646697998047,985.442138671875,0,13.0,1,1
10.04,0.06792894,-0.14497964,9.757669,-0.0007046533282846212,-0.00032877043122425675,-0.00033102877205237746,-8.860090255737305,20.901084899902344,-38.05553817749024,0.004127230495214461,0.008676379919052124,0.05109786987304688,985.4442749023438,0,13.0,1,1
10.08,0.067941606,-0.14736326,9.750568,-0.0005716177402064204,-0.0007282243459485471,-0.000597397331148386,-8.93525505065918,20.356590270996094,-38.01209259033203,-0.0054487623274326324,0.013031497597694395,0.06529521942138672,985.4541015625,0,13.0,1,1
10.12,0.065564394,-0.12829734,9.764773,-0.000971214147284627,-0.00032873061718419194,-0.0008637655992060901,-8.972349166870117,20.26922607421875,-38.0782470703125,-0.0005719810724258423,-0.029943451285362244,0.051087379455566406,985.46435546875,0,13.0,1,1
10.16,0.07752657,-0.14736386,9.762407000000001,-0.0007050202693790197,-0.0001955529005499557,-6.487034261226654e-05,-8.477715492248535,20.41632843017578,-38.16307830810547,-0.0243062861263752,-0.010913565754890442,0.032149314880371094,985.4545288085938,0,13.0,1,1
10.2,0.044080615,-0.13306458,9.774244,-0.00017251077224500477,-0.00032869097776710987,0.00020139318075962362,-7.879030227661133,19.923656463623047,-38.68841171264648,0.013564310967922209,-0.0015520602464675903,0.02267742156982422,985.4617919921876,0,13.0,1,1
10.24,0.07994184,-0.14259793,9.755308,-3.9475009543821216e-05,0.0006034343969076872,-6.497511640191078e-05,-8.073627471923826,19.477989196777344,-38.555362701416016,-0.014900438487529756,-0.006368204951286316,0.055815696716308594,985.4317016601562,0,13.0,1,1
10.28,0.06322527,-0.140215,9.757676,-0.00043907100916840136,-0.0004618092207238078,0.00033444637665525084,-8.842942237854004,20.443084716796875,-38.10836410522461,-0.005717352032661438,-0.001573994755744934,0.07001972198486328,985.4649658203124,0,13.0,1,1
10.32,0.05606824,-0.13783199999999998,9.771881,-0.00017287736409343782,0.000869789975695312,0.0003343940188642591,-8.232761383056639,20.22456359863281,-38.651512145996094,0.017720833420753482,-0.011235415935516356,0.03214454650878906,985.4598388671876,0,13.0,1,1
10.36,0.07997995599999999,-0.15689851,9.767147,9.33159317355603e-05,0.0008698098827153443,6.802554707974195e-05,-8.082324028015138,20.20720672607422,-38.36574172973633,-0.020147405564785004,0.022317960858345032,0.05107975006103516,985.4545288085938,0,13.0,1,1
10.4,0.06087339,-0.14259924,9.783717999999999,9.307134314440192e-05,-0.0005948877660557628,-0.000464710989035666,-8.886964797973633,20.085975646972656,-38.38862228393555,-0.001005321741104126,-0.001906022429466248,0.008464813232421875,985.4622192382812,0,13.0,1,1
10.44,0.060886085,-0.15213259,9.760048,9.307134314440192e-05,-0.0005948877660557628,-0.000464710989035666,-8.886964797973633,20.085975646972656,-38.38862228393555,-0.0005076751112937927,0.007645055651664735,0.05106925964355469,985.4622192382812,0,13.0,1,1
10.48,0.06328869,-0.15451618,9.767151,-4.033095319755376e-05,-0.0005948480684310197,-0.00033165782224386936,-8.59867000579834,20.513687133789066,-37.99616622924805,-0.0053652599453926095,0.0074220895767211905,0.05106544494628906,985.4494018554688,0,13.0,1,1
10.52,0.060911477,-0.14021689999999998,9.767152000000001,-0.0005730849225074053,0.000603593303821981,0.000600395433139056,-8.874628067016602,20.623981475830078,-37.883113861083984,-0.0007262341678142548,-0.01187528669834137,0.04159259796142578,985.4703369140624,0,13.0,1,1
10.56,0.04180497,-0.13783382,9.762419,-4.0575367165729403e-05,0.00047045509563758964,-0.0003317624796181917,-8.673835754394531,19.96919250488281,-37.95272445678711,-0.005579717457294464,0.012107908725738524,0.05579757690429688,985.4442749023438,0,13.0,1,1
10.6,0.08961567,-0.15928365,9.767155,0.00022561775404028594,-0.0003284725826233625,-0.0003318150993436575,-8.975934982299805,20.634571075439453,-38.02209091186523,-0.034213777631521225,0.016777753829956055,0.008450508117675781,985.4677734375,0,13.0,1,1
10.64,0.06811923,-0.16166724,9.762421,-4.0820305002853274e-05,0.0004704949096776545,-0.00019870966207236046,-9.062159538269043,20.553970336914066,-38.23503875732422,-0.015175152570009232,0.021586686372756958,0.05105972290039063,985.442138671875,0,13.0,1,1
10.68,0.029893488,-0.13545151,9.760055,0.00022537339827977118,-6.211706204339862e-05,-0.0008645516354590653,-8.895660400390625,20.81519317626953,-38.19899368286133,-0.015170395374298097,-0.030652493238449093,0.03212451934814453,985.4700317382812,0,13.0,1,1
10.72,0.08481079,-0.15689982,9.76005,9.2093221610412e-05,0.00033737666672095656,0.0008664492052048446,-8.959331512451172,20.544857025146484,-38.17336654663086,-0.058016154915094376,-0.006804049015045166,0.04159069061279297,985.4572143554688,0,13.0,1,1
10.76,0.06324744,-0.14498205,9.769514,0.00022543084924109283,-0.00019528428674675524,0.00046705236309207976,-8.709949493408201,20.25159454345703,-38.19463348388672,-0.024635009467601776,-0.02611987292766571,0.027396202087402344,985.4473876953124,0,13.0,1,1
10.8,0.082374275,-0.14736553,9.781350999999999,-0.0011053348425775766,7.089943392202258e-05,-6.523058982565999e-05,-8.292004585266112,19.85272979736328,-38.15871810913086,-0.010301757603883743,0.0118321031332016,0.008455276489257812,985.4521484375,0,13.0,1,1
10.84,0.039363652,-0.12591626,9.771883,9.301342652179301e-05,-0.00019540448556654155,-0.0004647357854992151,-8.439535140991211,19.767112731933594,-37.90002059936523,0.018549971282482147,-0.002404123544692993,0.032126426696777344,985.442138671875,0,13.0,1,1
10.88,0.0728299,-0.15213244,9.757681,-0.0003065339114982635,-0.0003285505226813257,0.00033418030943721533,-8.767669677734375,19.88123321533203,-37.779151916503906,-0.0007272325456142426,0.011782914400100708,0.05579662322998047,985.4498901367188,0,13.0,1,1
10.92,0.06566775,-0.14736612,9.76715,-4.0291255572810776e-05,0.0008698827587068081,0.0006004648748785257,-8.525760650634767,19.68651580810547,-38.11296844482422,-0.005717385560274124,0.011724218726158142,0.04632854461669922,985.4591674804688,0,13.0,1,1
10.96,0.068065286,-0.14736624,9.776619,-0.0003066804201807827,0.00020410504657775164,-0.000331672141328454,-8.802804946899414,20.53339385986328,-38.19681930541992,-0.0058787278831005105,0.006622880697250365,0.02738475799560547,985.4703369140624,0,13.0,1,1
11.0,0.056123405999999994,-0.13545008,9.774253,-0.0009725436102598907,7.095892215147613e-05,-0.0001985456328839064,-9.002077102661133,21.189655303955078,-38.20450973510742,0.013464663177728651,-0.007822558283805847,0.032115936279296875,985.4647216796876,0,13.0,1,1
11.04,0.06091082,-0.14021684,9.764786,0.0004921206273138523,-0.0007279767887666821,-0.00033173500560224056,-8.614593505859375,20.341026306152344,-38.44551467895508,0.008803602308034897,-0.01221795380115509,0.051056861877441406,985.4576416015624,0,13.0,1,1
11.08,0.06091839,-0.1497501,9.764786,0.00035888931597582996,-0.000594806915614754,-0.0003317666123621166,-8.668428421020508,20.237457275390625,-37.661319732666016,-0.010025966912508009,-0.0028080642223358154,0.051052093505859375,985.4649658203124,0,13.0,1,1
11.12,0.05136639,-0.14021723,9.752951,-4.0657847421243794e-05,-6.216327892616391e-05,-0.00019863992929458615,-8.234283447265625,20.22309112548828,-38.5742073059082,-0.0005266107618808746,-0.017165035009384155,0.06052017211914064,985.4473266601562,0,13.0,1,1
11.16,0.06810331,-0.13783409,9.769522,-0.0003070470120292157,0.0007367962971329688,-6.551342085003853e-05,-8.897863388061523,21.076095581054688,-37.52106475830078,-0.005588673055171967,-0.012613356113433838,0.041581153869628906,985.4570922851562,0,13.0,1,1
11.2,0.065721035,-0.15213396,9.771889999999999,-0.0012392259668558836,0.0003373342915438116,6.761314580217004e-05,-8.98104476928711,20.998443603515625,-37.88862991333008,0.0038481727242469783,0.006107628345489502,0.02263736724853516,985.46240234375,0,13.0,1,1
11.24,0.065728605,-0.15213408,9.750586,-0.0008398254867643117,0.00020418834174051884,6.758177187293768e-05,-8.994060516357422,20.722808837890625,-37.79350662231445,-0.00542091578245163,0.010646313428878784,0.06524181365966797,985.4498901367188,0,13.0,1,1
11.28,0.06812614,-0.14498450000000002,9.750586,9.2206901172176e-05,-0.001260537188500166,-6.560771726071835e-05,-8.30222225189209,20.580474853515625,-37.891788482666016,-0.009817011654376984,-0.013277798891067505,0.0747060775756836,985.4652099609376,0,13.0,1,1
11.32,0.060964017999999995,-0.14498468,9.760056,-0.00030734032043255866,-0.0003284196136519313,-0.0004651128547266126,-8.198712348937987,20.308982849121094,-38.43074417114258,0.004809882491827011,-0.0037298202514648438,0.05103111267089844,985.4423217773438,0,13.0,1,1
11.36,0.063361555,-0.14736815,9.762423,0.000225218158448115,-0.00032840771018527454,-0.000198828405700624,-8.506655693054201,19.968036651611328,-38.51730728149414,-0.010211773216724396,-0.0036886483430862422,0.027364730834960938,985.44189453125,0,13.0,1,1
11.4,0.063369155,-0.15213491,9.755322,0.000225218158448115,-0.00032840771018527454,-0.000198828405700624,-8.100748062133789,19.663307189941406,-38.56203079223633,-0.006259717047214508,0.010646194219589232,0.0510406494140625,985.44189453125,0,13.0,1,1
11.44,0.05859697,-0.14498521,9.7718935,0.0004914607852697372,0.0030005527660250664,0.0006000878056511282,-8.373662948608397,19.77655029296875,-38.60358428955078,0.008042629808187485,0.010636165738105774,0.03683662414550781,985.4703369140624,0,13.0,1,1
11.48,0.05860457,-0.14498545,9.750589,7.257494144141674e-05,2.118936390616e-05,0.0005392063758336008,-8.194147109985353,20.313400268554688,-38.66266250610352,-0.0016655661165714266,-0.008130744099617004,0.060512542724609375,985.4525756835938,0,13.0,1,1
11.52,0.0681718,-0.15213545,9.762426,7.250165799632668e-05,0.0005538330879062414,-0.00025977269979193807,-8.579565048217772,20.795211791992188,-38.40050506591797,-0.015877161175012592,0.01090949773788452,0.060511589050292976,985.4347534179688,0,13.0,1,1
11.56,0.077739,-0.15451892,9.762426,0.001137691899202764,0.0002875290520023554,0.0002728276303969324,-8.680765151977539,19.69945526123047,-38.16682434082031,-0.015999790281057358,0.0015543103218078613,0.02263832092285156,985.4578857421876,0,13.0,1,1
11.6,0.068187,-0.13545288,9.757693,-0.00032711890526115894,2.1225103409960863e-05,0.0002727961982600391,-8.694026947021483,20.424251556396484,-37.74528884887695,-0.0065357908606529245,-0.0077130794525146484,0.05104923248291016,985.4652709960938,0,13.0,1,1
11.64,0.06819460000000001,-0.15451925,9.776631,0.00020543969003483653,0.0004207108577247709,-0.0003930250531993807,-8.577637672424316,20.32247543334961,-37.68028259277344,-0.016087841242551804,0.011486440896987915,0.03211212158203125,985.460205078125,0,13.0,1,1
11.68,0.058642596,-0.14260314,9.767163,0.0006048401701264082,0.00028756484971381724,0.0004058913327753544,-8.697912216186522,20.157459259033203,-38.1140022277832,-0.002330970019102097,-0.0025853514671325684,0.03685283660888672,985.4680786132812,0,13.0,1,1
11.72,0.06556651,-0.14974685,9.776608999999999,0.0008710826514288782,0.0009533663978800178,-0.0003930879174731672,-8.796419143676758,21.171424865722656,-38.0811653137207,0.003093410283327103,0.0069541484117507935,0.03687286376953125,985.4526977539062,0,13.0,1,1
11.76,0.06317404,-0.14498033,9.762405000000001,0.0004715356626547873,0.00028758859843947,-0.00012680323561653495,-8.65733814239502,20.985824584960934,-38.47665786743164,-0.0016424693167209625,-0.002445399761199951,0.03214073181152344,985.449951171875,0,13.0,1,1
11.8,0.06795132,-0.15451325,9.781343,-0.0001928085694089532,-0.000777909648604691,0.0002732900611590594,-8.221565246582031,19.86658477783203,-39.09419250488281,-0.0062272846698760995,0.011999562382698059,0.03214263916015625,985.4526977539062,0,13.0,1,1
11.84,0.06794879,-0.14974673,9.774241,0.00047389866085723037,2.088907058350742e-05,-0.00039210641989484435,-8.386680603027344,19.500919342041016,-38.50846481323242,-0.016296125948429108,0.011813730001449585,0.03214263916015625,985.4481201171876,0,13.0,1,1
11.88,0.055996715999999995,-0.13306369,9.750569,0.00020763167412951586,0.0006866710027679801,7.388414815068245e-06,-8.433991432189941,20.14129638671875,-38.30768966674805,-0.0017894059419631958,-0.021563366055488583,0.05581378936767578,985.4552612304688,0,13.0,1,1
11.92,0.05838412,-0.15451314,9.755303,-0.0004581335815601051,-0.00037859671283513313,-0.0007915489259175956,-8.845986366271973,20.44013214111328,-37.95375442504883,0.007829919457435608,0.006731286644935608,0.046339988708496094,985.4576416015624,0,13.0,1,1
11.96,0.06794119,-0.14974649,9.755302,-0.0007244247826747596,-0.00037860064185224473,-0.00012574851280078292,-8.70454216003418,20.519855499267575,-37.90323257446289,-0.015796218067407608,0.011245876550674437,0.04160022735595703,985.4677734375,0,13.0,1,1
12.0,0.07510829,-0.14974649,9.755302,-0.0007244005682878196,2.0869163563475013e-05,0.0005400516092777252,-8.329778671264647,20.02773666381836,-37.624244689941406,-0.020838167518377304,0.0015286654233932495,0.04159927368164063,985.4752197265624,0,13.0,1,1
12.04,0.05837649,-0.14736308,9.752935,0.00020772969583049417,0.00028718102839775383,0.00027374623459763825,-8.566440582275389,19.964500427246094,-38.12296676635742,0.0033462308347225194,0.011088371276855469,0.07473945617675781,985.4322509765624,0,13.0,1,1
12.08,0.058373928,-0.1402132,9.7671385,-0.0009906673803925514,-0.0007780863670632242,-0.0003920329618267715,-8.193741798400879,19.839195251464844,-37.86513137817383,0.003389786928892136,-0.01313437521457672,0.046326637268066406,985.4552612304688,0,13.0,1,1
12.12,0.058371365,-0.13306333,9.757669,-0.0003248532302677632,0.00015401517157442868,7.45127908885479e-06,-8.756420135498049,21.15581512451172,-37.47053909301758,-0.0015452094376087187,-0.008321419358253479,0.05106353759765625,985.434814453125,0,13.0,1,1
12.16,0.06075877,-0.14021309,9.7624035,0.00034096097806468606,0.0002871692122425884,-0.0001256961841136217,-8.964141845703125,21.54086303710937,-37.61503219604492,-0.0061596110463142395,0.0062506645917892465,0.03212928771972656,985.4550170898438,0,13.0,1,1
12.2,0.06553602,-0.14974613,9.767138000000001,0.0002078275429084897,-0.0005117824184708297,0.0004069461429025978,-8.686118125915527,21.06375503540039,-37.70694351196289,-0.0011805780231952667,0.01597230136394501,0.036865234375,985.4501953125,0,13.0,1,1
12.24,0.060753703,-0.14259626,9.755302,0.0007404837524518371,-0.00011231258395127952,-0.0003919910523109138,-8.710630416870117,20.513961791992188,-37.59400939941406,-0.0013109184801578524,-0.002985045313835144,0.055805206298828125,985.4271850585938,0,13.0,1,1
12.28,0.05119157,-0.13782965,9.767138000000001,-0.00019159738440066576,0.0005534731317311525,0.00027380912797525525,-8.585790634155272,20.68340301513672,-37.39220809936523,0.012728050351142885,-0.00336572527885437,0.060536384582519524,985.4526977539062,0,13.0,1,1
12.32,0.0679183,-0.14736266,9.7505665,-0.0007242046413011849,0.0004203112621326,-0.0006582859787158668,-8.398120880126951,20.85932922363281,-37.73936080932617,-0.011094927787780762,0.006003156304359436,0.051064491271972656,985.4378662109376,0,13.0,1,1
12.36,0.055966258,-0.14497937,9.771872,-5.839049117639661e-05,0.0001539913646411151,-0.0002588016213849187,-8.508857727050781,20.22894287109375,-37.8393783569336,-0.011418867856264114,0.0011096447706222534,0.03212738037109375,985.4578857421876,0,13.0,1,1
12.4,0.07030314,-0.15212910000000002,9.778972999999999,-0.00045783974928781385,0.0005534612573683262,7.524795364588499e-06,-8.422090530395508,19.94124984741211,-37.527976989746094,-0.01599700376391411,0.005948081612586975,0.03212738037109375,985.440673828125,0,13.0,1,1
12.44,0.051181375999999994,-0.15212904,9.757667999999999,0.00047429016558453435,-0.0005118062836118042,0.0004070090362802148,-8.667043685913086,20.133018493652344,-37.039546966552734,0.00312785804271698,0.006257563829421997,0.05580425262451172,985.4448852539062,0,13.0,1,1
12.48,0.06790817,-0.1449792,9.762402,0.00034115673042833805,0.0006866112817078829,-0.0002587702474556864,-8.221542358398438,20.286888122558594,-37.27116775512695,-0.0016837306320667267,-0.0032573193311691284,0.055805206298828125,985.4583129882812,0,13.0,1,1
12.52,0.05117631,-0.14021255,9.767136,-5.829258589074016e-05,-0.0010444459039717913,-0.00012560177128762007,-8.508560180664062,20.86107635498047,-37.41450500488281,0.012973669916391373,-0.007980197668075563,0.036866188049316406,985.4627685546876,0,13.0,1,1
12.56,0.05834347,-0.14259572,9.776605,0.00047436368186026817,-0.0006449760403484106,0.0002738825569394976,-8.482961654663086,20.674285888671875,-37.33053588867188,-0.0010075084865093233,-0.0031697452068328857,0.027395248413085938,985.4476318359376,0,13.0,1,1
12.6,0.072680354,-0.14259572,9.760034,-0.0011235072743147614,-0.0007781380554661155,0.0013391566462814806,-8.522418975830076,20.32160186767578,-37.84270858764648,-0.00589510053396225,-0.00333760678768158,0.05106639862060547,985.4531860351562,0,13.0,1,1
12.64,0.06072831,-0.16166179,9.778971,0.0004744125762954354,0.00028712154016830027,-0.0007913599838502705,-8.4927978515625,20.50751495361328,-38.08910751342773,-0.0007440410554409027,0.010965824127197266,0.027393341064453125,985.4457397460938,0,13.0,1,1
12.68,0.060866475,-0.15213214,9.762414,0.00047443708172068,-0.00037867214996367693,0.0008065457805059849,-7.789898872375487,19.90128326416016,-37.93099594116211,0.008575744926929474,0.011218979954719543,0.05580425262451172,985.468505859375,0,13.0,1,1
12.72,0.058623314,-0.15451900000000002,9.769528999999999,0.0003413034719415009,0.0004202715063001961,0.00027392449555918574,-8.134498596191406,20.21102905273437,-38.3579216003418,0.0035788454115390773,0.011057257652282715,0.03683662414550781,985.4403686523438,0,13.0,1,1
12.76,0.06341204,-0.14498617,9.760061,-5.905999569222332e-05,2.0389270503073927e-05,-0.0009262650855816901,-8.605300903320312,20.87609100341797,-37.78539657592773,-0.005706407129764557,-0.003222912549972534,0.03683662414550781,985.4483032226562,0,13.0,1,1
12.8,0.070590585,-0.16405250000000002,9.764796,-0.0008580933208577335,-0.0009117024019360543,-0.00012735399650409818,-8.380973815917969,20.40132141113281,-37.79218673706055,-0.010416105389595032,0.015608131885528563,0.036830902099609375,985.4583129882812,0,13.0,1,1
12.84,0.061039865,-0.14498653,9.774265,-0.0008580933208577335,-0.0009117024019360543,-0.00012735399650409818,-8.132135391235353,20.476348876953125,-37.91190719604492,0.003926198929548264,0.010989546775817871,0.04156780242919922,985.4583129882812,0,13.0,1,1
12.88,0.05626899,-0.14975332,9.769531,0.00034024269552901387,0.0005530488560907543,-0.00026054878253489733,-8.514945983886719,20.223052978515625,-37.53015518188477,0.003761887550354004,-0.008146658539772034,0.036830902099609375,985.4434204101562,0,13.0,1,1
12.92,0.063447535,-0.14022045,9.748228,0.000606472953222692,-0.0003790428454522044,-0.0005269012763164936,-8.788403511047362,20.70458221435547,-37.67016220092773,-0.0006157755851745605,-0.003444001078605652,0.05576515197753906,985.4680786132812,0,13.0,1,1
12.96,0.07062614,-0.14498724,9.755331,7.37555674277246e-05,-0.0002458709932398051,-0.0005269379471428691,-8.723349571228027,20.87047576904297,-37.07402420043945,-0.014969345182180403,-0.0033499151468276978,0.05103015899658203,985.4755249023438,0,13.0,1,1
13.0,0.06346533,-0.14737077,9.762433,-0.0005025506252422929,-9.723665425553918e-05,-0.0003357297391630709,-8.364370346069336,20.311607360839844,-37.94346237182617,0.004131481051445007,0.0016276687383651733,0.05103302001953125,985.46044921875,0,13.0,1,1
13.04,0.06347418,-0.14737086,9.771902,0.0002963114238809794,-0.0004966965643689036,0.00033002346754074097,-8.131592750549316,20.108055114746094,-37.813453674316406,-0.0053503625094890594,0.0061155855655670175,0.05576324462890625,985.47900390625,0,13.0,1,1
13.08,0.058703244,-0.14975436,9.750599000000001,0.00016306803445331752,3.594908048398793e-05,0.00019682885613292456,-8.509401321411133,20.59723281860352,-37.93782806396485,0.004651863127946854,0.0014687925577163696,0.0652303695678711,985.441162109375,0,13.0,1,1
13.12,0.06349197,-0.15213789,9.76717,-0.00023649146896786988,-0.00036351088783703744,-0.0007353134569711982,-8.830606460571289,20.981082916259766,-37.60285568237305,-0.00010176375508308409,-0.008000388741493225,0.04155826568603516,985.4552612304688,0,13.0,1,1
13.16,0.06350082,-0.14975484,9.757700999999999,0.0001628967293072492,-0.0006298128282651305,0.0005962293362244964,-8.810415267944336,20.52602767944336,-37.8102912902832,-0.009803786873817444,0.010929107666015623,0.04155540466308594,985.4813232421876,0,13.0,1,1
13.2,0.061119795,-0.14737184,9.781374000000001,0.0005622849566861987,3.599075716920197e-05,0.0009956664871424437,-8.708703994750978,20.041229248046875,-36.87378692626953,0.004698518663644791,0.0014623850584030151,0.032085418701171875,985.4527587890624,0,13.0,1,1
13.24,0.06590849,-0.14975531,9.757703,-0.0006362220738083124,3.6004639696329825e-05,0.0003298400843050331,-8.843080520629883,20.337162017822266,-37.40928268432617,-0.009572215378284454,0.006162017583847046,0.046286582946777344,985.45361328125,0,13.0,1,1
13.28,0.07069719,-0.1473722,9.760071,-0.00010367590584792195,-0.00036345529952086514,0.0004629612667486072,-8.851936340332031,20.540157318115234,-38.34360885620117,-0.01883164793252945,0.0015540868043899536,0.05101966857910156,985.4501342773438,0,13.0,1,1
13.32,0.06831613,-0.14975567,9.748236,0.0006951862014830112,3.6032404750585556e-05,0.00019660877296701076,-8.606578826904299,19.87418365478516,-38.03451156616211,-0.00900467485189438,0.0014989227056503296,0.06522178649902344,985.4534301757812,0,13.0,1,1
13.36,0.06832501,-0.1521392,9.767174,-0.0001039327180478722,-0.0006297294748947023,0.0008623250760138035,-8.034416198730469,20.83110809326172,-37.71677017211914,-0.01810251176357269,0.015530243515968324,0.02733802795410156,985.4608154296876,0,13.0,1,1
13.4,0.06116423,-0.15928926,9.755339,-0.00010401834151707591,-0.0016949791461229324,0.0005959725240245461,-8.261541366577147,20.302490234375,-37.88179397583008,0.0014514699578285215,0.006102532148361206,0.06047725677490234,985.4660034179688,0,13.0,1,1
13.44,0.06356299,-0.13307346,9.776645,0.00016221203259192407,-0.0004965437692590059,-0.00020301173208281398,-8.261541366577147,20.302490234375,-37.88179397583008,0.0014723986387252808,-0.008171483874320984,0.0368032455444336,985.4501953125,0,13.0,1,1
13.48,0.061181962,-0.15690647,9.762443,-0.00010418947204016148,3.610196290537715e-05,0.0005958991241641343,-8.576658248901367,20.692237854003906,-37.856040954589844,0.0016134679317474365,-0.0034419596195220947,0.041535377502441406,985.430419921875,0,13.0,1,1
13.52,0.070750475,-0.13784038,9.769544999999999,0.00042835672502405936,-0.00023020010848995298,0.000196388631593436,-8.641414642333983,21.158485412597656,-38.02730941772461,-0.017425917088985443,-0.008142516016960144,0.041535377502441406,985.4783325195312,0,13.0,1,1
13.56,0.05641997,-0.14260717,9.767178999999999,2.8797279810532928e-05,-0.00023018615320324898,-0.0008689114474691452,-8.326297760009767,20.76873779296875,-38.05305862426758,0.006432369351387024,-0.008138686418533325,0.03679943084716797,985.445068359375,0,13.0,1,1
13.6,0.058818697999999996,-0.14499070000000003,9.78375,-0.000770235899835825,-0.0006296461215242742,-0.00020315853180363772,-8.434916496276855,21.404098510742188,-37.38064193725586,0.0067916959524154654,0.0009167343378067016,0.032054901123046875,985.4425659179688,0,13.0,1,1
13.64,0.05643769999999999,-0.16405709,9.762445,-0.0006371636409312488,-0.0011622640304267404,0.0003294364723842591,-8.584268569946289,20.68487548828125,-37.46950912475586,0.002297401428222656,0.019945800304412842,0.06045913696289064,985.4398803710938,0,13.0,1,1
13.68,0.07537514,-0.15690279999999998,9.750592999999999,0.0002948564651887864,-0.0007627762970514597,0.0003293999179732054,-8.767669677734375,19.88123321533203,-37.77914810180664,-0.011642836034297943,0.010398775339126587,0.060455322265625,985.4627685546876,0,13.0,1,1
13.72,0.06323242,-0.14736499,9.77188,2.9819464543834332e-05,-0.0007629839237779379,6.363209104165435e-05,-8.532636642456055,21.04934310913086,-37.57577896118164,-0.0014669373631477356,-0.004025876522064209,0.03681468963623047,985.445068359375,0,13.0,1,1
13.76,0.060836136,-0.13068189,9.760043,-0.0005005227867513895,-0.0003638817579485476,0.00019777117995545268,-8.427742004394531,20.67340850830078,-37.49296188354492,0.003337293863296509,-0.018333122134208683,0.03207969665527344,985.4576416015624,0,13.0,1,1
13.8,0.06321972599999999,-0.14021488,9.762410000000001,-0.0005004615522921085,0.0003018980496563017,6.463954923674464e-05,-8.447253227233888,20.86609649658203,-37.88615417480469,-0.0014530271291732788,-0.0086747407913208,0.055755615234375,985.470458984375,0,13.0,1,1
13.84,0.065603286,-0.13544811,9.762409,0.000964336795732379,0.00016873021377250552,6.466562626883388e-05,-8.288416862487793,19.487384796142575,-38.21487426757813,0.008016906678676605,-0.008470281958580017,0.04629039764404297,985.4678344726562,0,13.0,1,1
13.88,0.06798684599999999,-0.14021452,9.774245,0.000298608239972964,0.00016872026026248932,-0.000467939826194197,-8.172708511352539,19.64798355102539,-37.54924392700195,-0.006065621972084045,-0.0035931766033172607,0.046291351318359375,985.4501953125,0,13.0,1,1
13.92,0.060810804,-0.14498098,9.764776,3.2353418646380305e-05,-0.0006302372785285115,-0.0004679137491621077,-8.461929321289062,20.48307037353516,-37.0146484375,0.003375545144081116,-0.003813415765762329,0.036820411682128906,985.4550170898438,0,13.0,1,1
13.96,0.05841455,-0.13783096,9.762407000000001,-0.0007665330776944758,-0.0002307734685018658,0.00033106020418927073,-8.46885871887207,20.213336944580078,-37.22875213623047,0.003827117383480072,-0.008495211601257324,0.02734947204589844,985.4473266601562,0,13.0,1,1
14.0,0.06079811,-0.13544749,9.771875999999999,0.00043194947647862136,-0.0002307833201484755,-6.838754052296281e-05,-8.203958511352539,20.566936492919922,-37.59820175170898,0.008127026259899141,-0.013086766004562378,0.051029205322265625,985.460205078125,0,13.0,1,1
14.04,0.06079173,-0.13544737,9.760039,0.00043201053631491965,0.0005681543261744082,0.0007305863546207548,-7.971181392669678,20.36338424682617,-37.46818923950195,0.0030687153339385986,-0.022470057010650638,0.05576896667480469,985.4473876953124,0,13.0,1,1
14.08,0.060785383,-0.1545134,9.771875,-0.00023371752467937768,0.0003018284915015101,-0.000201492861378938,-7.975067138671875,20.09659576416016,-37.8369026184082,0.0075961053371429435,0.020109862089157104,0.046296119689941406,985.4521484375,0,13.0,1,1
14.12,0.060779065,-0.14259686,9.769507,-0.0001004984660539776,0.0013670821208506825,0.0008637969149276613,-8.297250747680664,20.11068344116211,-37.32617568969727,-0.001906760036945343,-0.008498251438140871,0.03682804107666016,985.4550170898438,0,13.0,1,1
14.16,0.0655525,-0.14259670000000002,9.760038,3.272059257142246e-05,-0.0007634548819623888,-0.00046775635564699764,-7.7608513832092285,19.24322891235352,-37.20410537719727,-0.0015563443303108215,0.010650709271430971,0.04156208038330078,985.4677734375,0,13.0,1,1
14.2,0.055986583,-0.14974637,9.764772,0.00029909753357060254,-0.000763464835472405,-6.825634045526385e-05,-8.378068923950195,20.2983512878418,-37.24772262573242,0.0034729465842247014,0.006136387586593628,0.04629993438720703,985.4521484375,0,13.0,1,1
14.24,0.055980206,-0.1449797,9.7718725,0.0005654745036736131,0.0005681048496626318,0.0005975595558993517,-7.95291805267334,20.38105773925781,-38.39585494995117,0.012580536305904387,-0.007977113127708435,0.04630565643310547,985.4473266601562,0,13.0,1,1
14.28,0.0679234,-0.14974608,9.769505,0.00029921971145085985,0.00030177884036675096,0.0001981119276024401,-8.588153839111326,20.41808319091797,-37.83822250366211,-0.006478995084762572,-0.003261476755142212,0.04157066345214844,985.4271850585938,0,13.0,1,1
14.32,0.06313726,-0.14736266,9.7624035,-0.00036650887341238564,-0.0002308627881575376,-0.0003344936412759125,-8.649460792541504,20.413063049316406,-37.3665771484375,-0.0016937181353569029,0.0058622807264328,0.036830902099609375,985.4694213867188,0,13.0,1,1
14.36,0.07030064,-0.14497922,9.776606,-0.0004996055504307151,0.00016860116738826036,-0.0006007833289913832,-8.446709632873535,20.497802734375,-37.78770065307617,-0.011233873665332794,0.006024569272994995,0.027364730834960938,985.4622192382812,0,13.0,1,1
14.4,0.055954874,-0.14021249,9.762402,-0.0004996055504307151,0.00016860116738826036,-0.0006007833289913832,-8.941885948181152,20.718990325927734,-37.80132293701172,0.012575186789035795,-0.013130053877830505,0.060504913330078125,985.4622192382812,0,13.0,1,1
14.44,0.06311822,-0.15451199999999998,9.762400999999999,-0.00036638663732446736,-0.00023088260786607867,-0.00020128331379964948,-8.210750579833983,20.403114318847656,-38.51137924194336,0.003190256655216217,0.006081998348236084,0.06050777435302735,985.46240234375,0,13.0,1,1
14.48,0.06550181,-0.1378289,9.764768,-0.00010000969632528722,-9.773456258699298e-05,0.0003313745837658644,-8.627748489379883,19.95948028564453,-37.65132141113281,0.0028835982084274288,0.0013389289379119873,0.0510406494140625,985.472412109375,0,13.0,1,1
14.52,0.060715675,-0.13306220000000002,9.764766999999999,0.0008187514613382517,-0.00014404105604626238,-0.00030037888791412115,-7.877645492553711,19.8192138671875,-38.0666389465332,0.0031181424856185913,-0.012762397527694702,0.02737140655517578,985.4495849609376,0,13.0,1,1
14.56,0.060709238,-0.15212826,9.774235000000001,1.9864935893565413e-05,0.0006548967212438582,-3.4036929719150066e-05,-8.012160301208496,20.00923156738281,-37.90306091308594,0.003223016858100891,0.006327897310256958,0.03684139251708984,985.4396362304688,0,13.0,1,1
14.6,0.04875344,-0.14974482,9.764766,-0.00011323188664391635,-0.0004103768151253462,-0.00030032650101929903,-8.4617919921875,20.5889892578125,-37.71372985839844,0.02709959447383881,0.006084322929382324,0.04630661010742188,985.4617919921876,0,13.0,1,1
14.64,0.06547636,-0.14974464,9.767132,-0.00024632824352011085,0.00025540293427184224,9.917363058775665e-05,-8.622341156005861,20.22774887084961,-37.35991287231445,0.002932257950305939,-0.0033326894044876103,0.06051445007324219,985.447021484375,0,13.0,1,1
14.68,0.06276071,-0.15450321,9.764736,0.00015320669626817107,-0.00041039675124920905,-0.0004334318218752742,-8.391085624694824,20.022720336914066,-37.1525993347168,0.0033782348036766052,0.001344144344329834,0.03686809539794922,985.4412841796876,0,13.0,1,1
14.72,0.050792158,-0.14735289,9.764733999999999,0.00015326781431213019,0.00025538308545947075,-0.0008328795665875077,-8.686118125915527,21.06375503540039,-37.70694351196289,0.013086266815662384,-0.00815466046333313,0.03687000274658203,985.4694213867188,0,13.0,1,1
14.76,0.06272268,-0.16165207,9.762364999999999,-0.00011423364048823713,-0.000410409877076745,0.0002348923298995942,-8.420676231384277,21.049068450927734,-37.97793960571289,-0.0014165043830871582,0.015712767839431763,0.05107688903808594,985.44189453125,0,13.0,1,1
14.8,0.06270367,-0.14735205,9.776566,0.00015301431994885206,-0.0002774032764136791,-0.00016418204177170992,-8.42165470123291,20.67930221557617,-37.80218505859375,0.008030511438846588,-0.0034363120794296265,0.03687477111816406,985.44384765625,0,13.0,1,1
14.84,0.062684655,-0.15450139999999998,9.759994,0.0009523284970782695,0.00012201107165310532,-3.0867056921124465e-05,-8.620819091796875,20.229217529296875,-37.43721771240234,-0.006460234522819519,0.006329968571662903,0.05108451843261719,985.456298828125,0,13.0,1,1
14.88,0.057885825999999994,-0.13543473,9.759993,-0.00011275173164904119,0.00025513925356790423,0.00010236952221021056,-8.215316772460938,20.398696899414066,-38.27946472167969,-0.00156441330909729,-0.017532631754875183,0.05581951141357422,985.4412841796876,0,13.0,1,1
14.92,0.055476904,-0.14496739,9.759991000000001,0.0004200632683932781,-1.1206386261619627e-05,-0.0004301837179809809,-8.089092254638674,20.46368789672852,-37.45589065551758,0.008066445589065552,0.0019124448299407961,0.04635906219482422,985.4791259765624,0,13.0,1,1
14.96,0.053067982,-0.13781707,9.77656,0.0006865625036880374,0.00025507970713078976,0.00023568453616462645,-7.9689788818359375,20.10248565673828,-38.14612197875977,0.012812405824661257,-0.007374480366706848,0.027426719665527344,985.46142578125,0,13.0,1,1
15.0,0.055438817,-0.15449955,9.764722,0.00015411415370181203,-0.0006770556792616844,0.000502079026773572,-8.047188758850098,19.55504608154297,-37.94807434082031,0.012719765305519104,0.002122744917869568,0.05109977722167969,985.4512329101562,0,13.0,1,1
15.04,0.06736931,-0.14019938,9.762352,0.00015429791528731585,-0.00014445370470639318,0.00010268395999446513,-8.570028305053711,20.32984161376953,-38.06680679321289,-0.01134227216243744,-0.002466514706611633,0.051105499267578125,985.4554443359376,0,13.0,1,1
15.08,0.05540076,-0.13543238,9.767085,0.0009534288547001779,0.0007876220624893904,0.0003690784214995802,-8.520896911621094,20.323074340820312,-37.92001724243164,0.012746132910251616,-0.011888712644577026,0.036904335021972656,985.441162109375,0,13.0,1,1
15.12,0.06255147,-0.15449812,9.755247,-0.000111651374027133,-0.0009434609673917292,-0.00016347481869161132,-8.748266220092772,20.794891357421875,-37.75861740112305,-0.010680720210075378,0.016846463084220886,0.046375274658203125,985.4509887695312,0,13.0,1,1
15.16,0.041023343999999996,-0.14734779999999997,9.767082,0.0002880056854337454,-0.00014454302436206493,-3.0238355975598097e-05,-8.20548152923584,20.565467834472656,-37.520896911621094,0.027151226997375492,0.0071308016777038566,0.04637622833251953,985.4765014648438,0,13.0,1,1
15.2,0.05295384,-0.14496405,9.750509,-0.0003776006633415818,0.0009206909453496336,-0.0006959494203329086,-8.22999382019043,20.01567840576172,-37.407962799072266,0.017364799976348873,-0.0024344325065612797,0.060582160949707024,985.4560546875,0,13.0,1,1
15.24,0.04815501,-0.14019705,9.759977000000001,0.00028837227728217835,-0.00014460248348768798,-0.0009621868375688793,-8.658454895019531,20.51014709472656,-37.60182571411133,0.012514762580394743,-0.0071297138929367065,0.046382904052734375,985.4432373046876,0,13.0,1,1
15.28,0.050525874000000005,-0.15687947,9.764709,0.00042171351378783584,0.00012168371176812798,0.0002363132080063224,-8.60780143737793,20.50484848022461,-37.5323371887207,0.00768762081861496,0.011912018060684204,0.04638481140136719,985.460693359375,0,13.0,1,1
15.32,0.055286705,-0.15211244,9.759974,-0.00037705083377659315,0.00025481183547526603,0.00010323384776711464,-8.441303253173826,20.766071319580078,-37.49629592895508,0.007324516773223877,-0.002092450857162476,0.04639339447021485,985.4330444335938,0,13.0,1,1
15.36,0.05526769,-0.15687852,9.767073,0.0006883959285914898,0.0003879400319419801,0.00010331236990168692,-8.470243453979492,20.317779541015625,-37.850528717041016,0.0073098018765449515,0.012287735939025879,0.04639625549316406,985.4526977539062,0,13.0,1,1
15.4,0.050468862,-0.14257847,9.769439,0.0009548951638862492,0.0003879102878272533,0.00010339095024392007,-8.540544509887695,20.409839630126953,-37.6141242980957,0.012060105800628662,-0.0063134580850601205,0.055873870849609375,985.4530029296876,0,13.0,1,1
15.44,0.06000942,-0.14496131,9.776539,0.0005556045798584819,-0.0005442250985652208,-0.0008286361116915941,-8.823134422302246,20.882537841796875,-37.29030227661133,-0.002069227397441864,0.0033146888017654423,0.02746868133544922,985.4859619140624,0,13.0,1,1
15.48,0.052820683,-0.14496084,9.767068,0.0002894719946198165,-0.00027793899062089617,0.00023670599330216652,-8.57307243347168,20.326892852783203,-37.91219711303711,0.002811238169670105,0.007908344268798828,0.0416717529296875,985.4599609375,0,13.0,1,1
15.52,0.059971422,-0.14019383,9.774168,-0.0006424503517337142,-1.1652839020825922e-05,-0.0005621631862595676,-8.409479141235353,20.691085815429688,-38.42061996459961,0.0025700852274894714,-0.006717473268508911,0.01326274871826172,985.4530029296876,0,13.0,1,1
15.56,0.05756247,-0.1473432,9.769432,-0.00024279323406517506,0.0009204229572787881,0.0002368630084674805,-8.529890060424805,20.420154571533203,-38.1552619934082,0.011638425290584564,0.0029770582914352413,0.03694343566894531,985.43994140625,0,13.0,1,1
15.6,0.047983885,-0.14495943,9.771797,-0.00037576782051473856,-1.171229814644903e-05,-0.0001625322038307786,-9.051345825195312,21.09050750732422,-37.65222549438477,0.021117854863405228,-0.001733541488647461,0.04168033599853516,985.4623413085938,0,13.0,1,1
15.64,0.05287054,-0.14496206,9.755236,0.00015704717952758074,-0.0002780581125989557,-0.00016245362348854542,-8.695005416870117,20.054489135742188,-37.56953048706055,0.006870228797197342,-0.0018900632858276367,0.05588340759277344,985.432373046875,0,13.0,1,1
15.68,0.057764947000000004,-0.14496483,9.774185000000001,0.0005561019643209875,0.00025464181089773774,-0.00029579119291156536,-7.97743034362793,19.831275939941406,-38.28292465209961,0.001662764698266983,-0.0016706585884094238,0.04639625549316406,985.4655151367188,0,13.0,1,1
15.72,0.05297622,-0.15926422,9.771816000000001,0.0005544172017835081,-0.00014455853670369834,-0.0004296711413189769,-8.493776321411133,20.137752532958984,-37.91334915161133,0.0017624422907829285,0.0077851712703704825,0.032192230224609375,985.445068359375,0,13.0,1,1
15.76,0.055357218,-0.1473477,9.764713,-0.0007770767551846802,0.0005212173564359546,-0.000829108408652246,-8.455161094665527,20.226593017578125,-37.92449569702149,0.016028117388486862,0.0030595511198043823,0.04166316986083984,985.4446411132812,0,13.0,1,1
15.8,0.05295849,-0.15211405,9.771814,0.0009540620958432556,-0.0002777441986836493,0.00023619187413714823,-8.535978317260742,20.41426086425781,-37.84604263305664,0.011294972151517868,0.012818455696105957,0.03219890594482422,985.4646606445312,0,13.0,1,1
15.84,0.043389976,-0.12828104,9.759978,0.0009540620958432556,-0.0002777441986836493,0.00023619187413714823,-8.492499351501465,21.13965606689453,-37.66423416137695,0.0156545527279377,-0.015582337975502012,0.060610771179199226,985.4646606445312,0,13.0,1,1
15.88,0.05055079,-0.1425805,9.764711,0.0004215160151943565,0.00038803153438493615,-0.0005627190694212915,-8.275644302368164,20.763442993164066,-37.98357391357422,0.01085764542222023,-0.0012272447347640991,0.041675567626953125,985.438720703125,0,13.0,1,1
15.92,0.04576212,-0.15687992,9.752874,-0.00011103024007752539,0.0009206495014950633,-0.00016320869326591492,-8.046209335327147,19.92481231689453,-38.12382888793945,0.0252675823867321,0.03200283646583557,0.04167461395263672,985.4569091796876,0,13.0,1,1
15.96,0.05053305599999999,-0.14734657,9.752874,0.00015545682981610298,0.0013200954999774694,-0.00029629317577928305,-7.943923950195312,20.283985137939453,-38.160606384277344,0.015279006212949753,-0.006197318434715271,0.05588054656982422,985.4588012695312,0,13.0,1,1
16.0,0.05769387,-0.14734633,9.771811,0.00015545682981610298,0.0013200954999774694,-0.00029629317577928305,-7.943923950195312,20.283985137939453,-38.160606384277344,0.010468844324350357,-0.006133124232292175,0.05114555358886719,985.4588012695312,0,13.0,1,1
16.04,0.048125416,-0.15211271,9.759974,-0.00028602388920262456,0.0001574734051246196,0.00026688043726608157,-8.244502067565918,20.950836181640625,-38.307273864746094,0.0054669417440891275,0.007774949073791505,0.055877685546875,985.441162109375,0,13.0,1,1
16.08,0.04333669,-0.1497292,9.778912,-1.962244277819991e-05,0.0005569332861341536,0.00013375922571867704,-8.60780143737793,20.50484848022461,-37.5323371887207,0.01508450508117676,-0.011292204260826109,0.02273750305175781,985.464111328125,0,13.0,1,1
16.12,0.06722683,-0.14019592,9.77891,-0.0009516424033790828,-0.0002420281816739589,0.0009327436564490199,-8.622883796691895,20.59603881835937,-37.4583625793457,-0.004030246287584305,-0.006265312433242798,0.02747631072998047,985.4590454101562,0,13.0,1,1
16.16,0.05048868,-0.14972876,9.76944,0.0009126542718149723,2.427372965030372e-05,0.0005333063891157508,-8.744381904602049,21.06168365478516,-37.3899040222168,0.0006135068833827972,-0.006148397922515869,0.04168415069580078,985.4335327148438,0,13.0,1,1
16.2,0.057649492999999996,-0.14734526,9.75997,-1.936574699357152e-05,-0.00010889807890634984,0.0007996589411050081,-8.672558784484862,20.971099853515625,-37.703609466552734,0.0003930516541004181,-0.006248131394386292,0.06535625457763672,985.4434204101562,0,13.0,1,1
16.24,0.062420397999999995,-0.14496173,9.764704,0.00024703581584617496,0.0002905618748627603,0.0002670639660209417,-8.755332946777344,20.419231414794922,-37.27363967895508,-0.008889999240636827,0.003439575433731079,0.0416860580444336,985.4306640625,0,13.0,1,1
16.28,0.05763173,-0.16164453,9.762336999999999,0.0002471212646923959,0.0002905480214394629,0.0002671005204319954,-8.510923385620117,20.59575653076172,-37.86052322387695,0.0007063411176204681,0.017521798610687256,0.046417236328125,985.47607421875,0,13.0,1,1
16.32,0.04567337,-0.13304497,9.771804,-0.0002853392506949604,-0.00010895359446294606,8.580973371863365e-07,-8.422335624694824,20.941673278808594,-37.20155334472656,0.014825474470853806,-0.0017616748809814453,0.03221321105957031,985.4510498046876,0,13.0,1,1
16.36,0.05522406,-0.15211095,9.776537,-0.00015209580305963755,0.00015734834596514702,0.0005335264140740037,-8.125886917114258,21.00846099853516,-37.0971794128418,0.00987027958035469,0.01281529664993286,0.03221893310546875,985.4708862304688,0,13.0,1,1
16.4,0.05521518,-0.14734419,9.767068,0.00011430570157244803,0.0005568082560785115,-0.00013222661800682545,-8.134636878967285,20.10511016845703,-37.65884399414063,0.009469933807849884,0.008110985159873962,0.04169273376464844,985.4257202148438,0,13.0,1,1
16.44,0.059986144000000005,-0.14734398,9.759966,0.00024754920741543174,0.0010894259903579948,0.0005335998721420765,-8.409753799438478,20.47925567626953,-37.02246856689453,-0.00035880506038665766,0.003272458910942077,0.04169368743896485,985.4513549804688,0,13.0,1,1
16.48,0.048027724,-0.15687679,9.771801,0.00024763477267697453,-0.00037532509304583067,0.0011994262458756564,-9.034879684448242,20.894874572753906,-37.10442733764648,0.0048285312950611115,0.017604827880859375,0.03222370147705078,985.4501953125,0,13.0,1,1
16.52,0.059968412,-0.14019378,9.769432,0.0005140362191013992,-0.0007748128264211117,0.00013419927563518286,-8.774003028869629,20.87576675415039,-37.14350509643555,4.846975207328797e-05,-0.0012785643339157104,0.02275848388671875,985.4398803710938,0,13.0,1,1
16.56,0.052789807,-0.14496006,9.771799,-0.00041798368329182267,0.00042359478538855916,-0.00026523775886744255,-8.476330757141112,20.31188201904297,-37.54130935668945,0.014244277030229568,0.013043835759162905,0.04169750213623047,985.4833984375,0,13.0,1,1
16.6,0.05995059,-0.15449293,9.764697,0.0003810494090430439,0.00015726499259471893,-0.0002652012044563889,-8.266948699951174,20.034225463867188,-38.17319869995117,0.009282048791646956,0.008433252573013306,0.05117130279541016,985.43994140625,0,13.0,1,1
16.64,0.04888019,-0.13783158,9.760043,0.0005142929148860277,0.0005567249609157443,-0.00013200659304857254,-7.938952445983888,19.814197540283203,-37.59498977661133,0.017886560410261154,-0.0011779963970184324,0.060559272766113274,985.4777221679688,0,13.0,1,1
16.68,0.044127047,-0.1425987,9.767147,0.00010958232451230288,0.00042441714322194457,-1.092907041311264e-06,-8.144174575805664,20.570484161376953,-37.9925422668457,0.017684821039438248,-0.010398313403129578,0.03689002990722656,985.4501342773438,0,13.0,1,1
16.72,0.06327292,-0.13306634,9.771883,0.0005075503140687944,-0.0007741870940662919,0.000529694720171392,-8.745658874511719,20.059783935546875,-37.63901901245117,-0.015539534389972687,-0.005654394626617432,0.03215217590332031,985.4371337890624,0,13.0,1,1
16.76,0.04896021,-0.14974989,9.776621,0.0003741354739759117,0.0006905919872224331,-0.0004025209927931428,-8.896639823913574,20.44542694091797,-38.02324295043945,0.007742714136838912,0.00884297490119934,0.0274200439453125,985.4297485351562,0,13.0,1,1
16.8,0.068106055,-0.15213384,9.769522,-2.5595334591344e-05,0.00042431778274476534,0.0011952641652897,-8.668428421020508,20.237457275390625,-37.661319732666016,-0.015916217118501663,0.008757323026657104,0.05582141876220703,985.4393310546876,0,13.0,1,1
16.84,0.051403403,-0.14736791,9.76479,-0.0002921683189924807,-0.00024143012706190348,0.00012989051174372437,-7.880551815032959,19.92218399047852,-38.61110305786133,0.012536749243736269,0.008641913533210754,0.04635047912597656,985.440185546875,0,13.0,1,1
16.88,0.063379586,-0.14021878,9.760057000000002,0.000373364455299452,0.0010901909554377198,0.00012978038284927607,-8.698454856872559,20.52574920654297,-38.21245193481445,-0.0017340220510959625,0.003959149122238159,0.041614532470703125,985.4443969726562,0,13.0,1,1
16.92,0.058626412999999995,-0.14975248,9.778997,0.00023994958610273898,-0.0006408204790204762,-0.0006692773895338178,-9.31458568572998,20.84429168701172,-38.05915832519531,-0.0022168345749378204,-0.0007344037294387817,0.022678375244140625,985.4448852539062,0,13.0,1,1
16.96,0.07060259599999999,-0.14736989999999997,9.774265,-2.662310726009309e-05,0.000957116368226707,0.0003958761226385832,-8.594784736633299,20.78048324584961,-37.62745666503906,0.002300851047039032,-0.0004668980836868286,0.036884307861328125,985.4346313476562,0,13.0,1,1
17.0,0.056289822,-0.16405348,9.760064999999999,0.00010627778829075396,0.00015821051783859732,-0.0005363395903259517,-8.652803421020508,19.777984619140625,-37.63683700561523,-0.006932526826858521,0.028225138783454895,0.05108356475830078,985.44384765625,0,13.0,1,1
17.04,0.068266034,-0.15213777,9.760067,0.0009049683576449752,-0.0002412215690128505,0.00012933980906382206,-8.539022445678711,20.411312103271484,-37.69143295288086,-0.0023745112121105194,-0.005180627107620239,0.06528568267822266,985.4616088867188,0,13.0,1,1
17.08,0.06351286,-0.15690495,9.769539,-2.7394125936552882e-05,0.00015829390031285584,-0.0002702440833672881,-8.575029373168945,19.58736801147461,-37.56068801879883,-0.007440052926540375,0.01841305196285248,0.03213977813720703,985.4564819335938,0,13.0,1,1
17.12,0.06831929,-0.14975579,9.764807000000001,-0.0008265986107289791,0.0006909673102200031,-0.00013719621347263458,-8.691280364990233,19.79505920410156,-38.32476806640625,-0.01237153634428978,0.013251379132270813,0.032134056091308594,985.4590454101562,0,13.0,1,1
17.16,0.054006547,-0.14260663,9.764809,-0.0001610658073332161,0.0002915352815762162,0.0005284833605401218,-8.538341522216799,20.148941040039066,-38.29205703735352,-0.003031972795724869,0.003535151481628418,0.060536384582519524,985.44384765625,0,13.0,1,1
17.2,0.070762515,-0.1497571,9.774281,-0.0005607967032119632,0.000557892897631973,0.0002620574086904526,-8.665384292602539,20.240406036376953,-37.8159294128418,-0.01706971600651741,-0.0010114461183547974,0.036861419677734375,985.455810546875,0,13.0,1,1
17.24,0.06600937,-0.15690757,9.767180999999999,0.0010368417715653775,-0.0003741709515452385,-0.0002706844825297594,-8.369777679443361,20.04334259033203,-38.23486709594727,-0.002579100430011749,0.01795053482055664,0.03685665130615234,985.428466796875,0,13.0,1,1
17.28,0.07081589,-0.14260854,9.762449,-0.00016183665138669312,-0.0005072872154414654,-0.00013763667084276673,-8.566440582275389,19.96449279785156,-38.12296676635742,-0.01210133731365204,0.008355364203453064,0.04632282257080078,985.4635620117188,0,13.0,1,1
17.32,0.058892965,-0.15690888,9.75535,-0.00016183665138669312,-0.0005072872154414654,-0.00013763667084276673,-8.472308158874513,20.68459701538086,-37.871673583984375,0.0026014670729637146,0.01795855164527893,0.051052093505859375,985.4635620117188,0,13.0,1,1
17.36,0.054139852999999995,-0.14975972,9.762455000000001,-0.00016209363820962608,-0.0003740875399671495,-4.5888591557741165e-06,-8.544429779052733,20.143047332763672,-37.98283767700195,0.002460606396198273,0.008257225155830383,0.0415802001953125,985.4589233398438,0,13.0,1,1
17.4,0.06850591,-0.15214364,9.776660000000001,-0.000295508565614,-0.0007735196850262582,-0.00027101486921310425,-8.854437828063965,20.168922424316406,-38.09054946899414,-0.011478275060653688,0.003614276647567749,0.03684234619140625,985.4481811523438,0,13.0,1,1
17.44,0.061362863,-0.14737777,9.764826,0.0002368662098888308,0.00015862769214436412,-0.0001379670575261116,-8.808893203735352,20.527496337890625,-37.88759994506836,0.007546868175268173,0.003339141607284546,0.04630565643310547,985.4708862304688,0,13.0,1,1
17.48,0.06855923,-0.16167803,9.762463,0.00010345139889977872,-0.0005071203922852874,0.00012823869474232194,-9.125532150268556,20.915775299072266,-37.78454208374024,-0.01625240594148636,0.017033547163009644,0.03682231903076172,985.432861328125,0,13.0,1,1
17.52,0.059026300000000004,-0.14022924,9.767199,-0.0012283849064260721,0.00029186904430389404,0.0003944445052184165,-9.035039901733398,20.36865234375,-38.22837448120117,0.007577773183584212,0.002758756279945373,0.04155635833740234,985.4404907226562,0,13.0,1,1
17.56,0.06622267,-0.15452953,9.7719345,-0.0005855592899024488,7.128005381673574e-05,0.00023161861463449893,-8.079959869384767,20.47252655029297,-37.91972351074219,-0.006717465817928314,0.00270998477935791,0.04155254364013672,985.4481811523438,0,13.0,1,1
17.6,0.063436985,-0.15690304,9.769531,-0.00031950025004334753,-0.0007276259129866957,-0.0007005971274338663,-8.97800064086914,21.001388549804688,-38.043235778808594,-0.006359871476888657,0.016837313771247864,0.04154586791992188,985.4201049804688,0,13.0,1,1
17.64,0.06301558,-0.14974292,9.767126,7.97164102550596e-05,-0.0007275841780938207,-0.0007007071399129928,-8.445050239562987,20.605194091796875,-38.5640869140625,-0.0005498938262462616,-0.0024956613779067998,0.032149314880371094,985.4201049804688,0,13.0,1,1
17.68,0.05344838,-0.14735945,9.769492999999999,-0.00018685634131543336,0.00020456314086914065,-0.00043450150405988097,-8.38333797454834,20.136001586914066,-38.23820114135742,0.009246725589036942,0.011503785848617555,0.027408599853515625,985.45849609375,0,13.0,1,1
17.72,0.0677802,-0.14259274,9.764757000000001,-0.00031198436045087874,-0.0005956881213933228,-0.0010968497954308989,-8.364126205444336,19.31118392944336,-38.2698860168457,-0.005321502685546875,0.001911655068397522,0.04161357879638672,985.4247436523438,0,13.0,1,1
17.76,0.048653334000000006,-0.13544275,9.76239,0.00022079414338804781,0.00046955165453255177,-0.00029783922946080565,-8.744542121887207,20.53546142578125,-38.51385498046875,0.008898500353097916,-0.007387712597846984,0.051087379455566406,985.4420166015624,0,13.0,1,1
17.8,0.06298512,-0.14974217,9.764755000000001,0.0003540253092069179,-0.00032940792152658105,-0.00029780791373923415,-8.781635284423826,20.448097229003906,-38.58001327514648,-0.00495162233710289,-0.002652674913406372,0.04635047912597656,985.4598999023438,0,13.0,1,1
17.84,0.060587645,-0.14974202,9.767122,0.00022094065207056698,-0.0007288936176337303,-0.00029777642339467997,-8.145994186401367,19.93687438964844,-38.34010696411133,-0.0050098709762096405,0.001945987343788147,0.04634857177734375,985.44775390625,0,13.0,1,1
17.88,0.058190137,-0.15689160000000002,9.767122,-0.0003116177686024457,0.00033635809086263185,-3.1429168302565806e-05,-8.480621337890625,20.519302368164066,-38.70754623413086,-0.0052871033549308786,0.016372233629226685,0.03688335418701172,985.442626953125,0,13.0,1,1
17.92,0.07013205,-0.15689142,9.762386,-0.0007110183360055089,0.0006026619812473655,-0.0006971873226575552,-8.441164016723633,20.87198638916016,-38.19537353515625,-0.010292425751686094,0.01607358455657959,0.0510854721069336,985.4468383789062,0,13.0,1,1
17.96,0.07012445,-0.12590869,9.781323,0.00035431855940259993,0.0007358080474659799,-3.1366304028779275e-05,-8.541385650634767,20.14599609375,-38.13744735717773,-0.01046399027109146,-0.02224729955196381,0.03214740753173828,985.437255859375,0,13.0,1,1
18.0,0.06772691,-0.14735796,9.76712,-0.000577713712118566,-6.315158680081367e-05,-3.1334871891885996e-05,-8.595083236694336,20.148345947265625,-38.05232620239258,-0.010267913341522215,-0.008215025067329407,0.046344757080078125,985.4471435546876,0,13.0,1,1
18.04,0.06532943,-0.15212436,9.755282000000001,-0.0004444825171958655,0.0003363104187883437,0.0001018545008264482,-8.782614707946777,20.07833480834961,-38.40425491333008,-0.01034823805093765,0.0014206767082214355,0.03214550018310547,985.43408203125,0,13.0,1,1
18.08,0.07010162,-0.14259104,9.7718525,-0.00044440911733545363,6.99825759511441e-05,0.00023504387354478243,-8.560598373413086,20.97081756591797,-38.10576629638672,-0.015101052820682526,0.0012047886848449707,0.022673606872558597,985.4315185546876,0,13.0,1,1
18.12,0.055754572,-0.13782437,9.776587,8.829587022773921e-05,0.00020312867127358916,-0.00029755645664408803,-8.605056762695312,19.875656127929688,-38.11181640625,0.00861378014087677,-0.003283798694610596,0.03688240051269531,985.4471435546876,0,13.0,1,1
18.16,0.06769651,-0.15450706,9.771851,-0.0004442624922376126,-6.319914245977998e-05,-0.0002975251409225166,-8.384859085083008,20.13452911376953,-38.16089630126953,-0.010225769132375715,0.001125231385231018,0.0416107177734375,985.416748046875,0,13.0,1,1
18.2,0.05812931,-0.14020725,9.771851,-0.0003110312682110816,6.99469237588346e-05,-0.00029749359237030154,-8.825496673583984,20.61721420288086,-37.73632049560547,-0.0007178708910942078,-0.00850047171115875,0.04160976409912109,985.444580078125,0,13.0,1,1
18.24,0.06768131,-0.16165651,9.781319,0.0008874634513631463,-0.0004626967711374164,-0.00043062021723017097,-8.15911865234375,20.76758575439453,-38.61764907836914,-0.010013647377490996,0.01538415253162384,0.02740764617919922,985.4443359375,0,13.0,1,1
18.28,0.05811411,-0.14259009,9.764747999999999,-0.000710358377546072,-0.0008621825254522264,-0.00029743078630417585,-8.460132598876951,20.69638061523437,-38.4901123046875,-0.00013744831085205078,-0.003840804100036621,0.04160690307617188,985.4443359375,0,13.0,1,1
18.32,0.06049636,-0.15212305,9.776583,-0.0007102851523086429,6.991124246269464e-05,-0.0006968732341192662,-8.451574325561522,19.861248016357425,-37.980655670166016,-6.668269634246826e-06,0.019873231649398804,0.04160499572753906,985.4845581054688,0,13.0,1,1
18.36,0.058098853,-0.1664225,9.774216000000001,0.00022189368610270321,0.00033621519105508924,0.00023526378208771348,-9.039307594299316,20.996368408203125,-37.571590423583984,-0.00034398585557937617,0.01976729929447174,0.04160594940185547,985.4088134765624,0,13.0,1,1
18.4,0.067650855,-0.15212269,9.764746,-0.0008432964095845819,0.0006025191396474838,0.0002352952433284372,-8.254911422729492,19.940093994140625,-38.09256362915039,-0.004822377115488052,0.009864240884780884,0.04159927368164063,985.428955078125,0,13.0,1,1
18.44,0.06525338,-0.1425894,9.76948,-0.0003105914511252194,-0.0009953880216926336,0.0002353266463615,-8.278987884521483,20.128360748291016,-38.25383377075195,-3.7476420402526855e-05,-0.0094633549451828,0.02739429473876953,985.4564819335938,0,13.0,1,1
18.48,0.07241547,-0.13782264,9.774213,-0.00031051805126480764,-6.329434108920395e-05,-3.0957802664488554e-05,-8.81193733215332,20.52455139160156,-37.73298645019531,-0.009451646357774734,0.00010246038436889648,0.03212833404541016,985.406005859375,0,13.0,1,1
18.52,0.06523812,-0.14258905,9.767111,-0.0007099185604602097,-0.0007290959474630654,-0.0006967160734347999,-8.938597679138184,19.721511840820312,-38.28235244750977,-0.014013942331075668,-0.009793981909751892,0.027387619018554688,985.4522094726562,0,13.0,1,1
18.56,0.06284064,-0.15927170000000002,9.769478,-0.0005766873946413398,0.0008687875233590603,0.0009012105874717237,-8.661797523498535,19.87506103515625,-37.87208938598633,0.004841156303882599,0.004575863480567932,0.03685951232910156,985.4263916015624,0,13.0,1,1
