Timestamp,Ax,Ay,Az,Gx,Gy,Gz,Mx,My,Mz,LiAx,LiAy,LiAz,P,Value,Type,GroupType,Activities
0.0,0.06674808,-0.16407551,9.760147,0.00048214220441900003,-0.000693059293553,-2.50386656261981e-05,-8.05132675170898,23.8681983947754,-33.965671539306605,-1.71097528934479,-0.630630135536194,-0.122592926025391,985.6250610351559,0,13.0,1,1
0.04,0.057141542000000003,-0.1593078,9.750672999999999,0.0006157524767330001,-0.000826290575787,0.0005077869282099999,-8.28187847137451,24.2311477661133,-32.950588226318395,-1.6969096660613998,-0.628842353820801,-0.11221599578857401,985.642944335937,0,13.0,1,1
0.08,0.07143402,-0.16407324,9.769608,-4.95846616104245e-05,0.0007715312531219999,-0.000956756586675,-8.229701995849611,24.2273254394531,-32.9584083557129,-1.70568025112152,-0.627055883407593,-0.125333786010742,985.635620117188,0,13.0,1,1
0.12,0.068997175,-0.16168879,9.767237,8.40257853269577e-05,-0.00042696372838699995,0.00010870100231799999,-8.10776901245117,24.499732971191396,-33.3010749816895,-1.6958985328674299,-0.62061071395874,-0.11489009857177698,985.6611328125,0,13.0,1,1
0.16,0.06417045,-0.15453784,9.776701,-0.0005813114694319999,-0.00069335300941,-0.00042373681208099996,-8.285901069641112,23.858440399169897,-32.6202239990234,-1.6868622303009,-0.6379786133766171,-0.128242492675781,985.6480102539059,0,13.0,1,1
0.2,0.06651336,-0.16883637,9.771962,0.00061801483389,0.000638079480268,0.00024244067026299999,-7.7359113693237305,24.1105880737305,-33.566558837890604,-1.6815792322158798,-0.6173285245895389,-0.11776256561279301,985.6329956054691,0,13.0,1,1
0.24,0.06407654,-0.14500241,9.753019,-0.0007131122401919999,0.000371690111933,0.00010947656119200001,-8.24798965454102,23.789352416992198,-33.853771209716804,-1.6718220710754401,-0.624764144420624,-0.10256099700927698,985.6327514648441,0,13.0,1,1
0.28,0.061639726,-0.15453429999999999,9.76722,0.00035260384902400003,0.000238458713284,0.000375986390281,-7.9912428855896,24.5038757324219,-33.9351463317871,-1.66695690155029,-0.622852385044098,-0.12053871154785199,985.63525390625,0,13.0,1,1
0.32,0.07832205,-0.15453322,9.771949000000001,0.000353056297172,-0.000427404418588,-0.0004227673052809999,-7.79058742523193,23.7431716918945,-33.3056793212891,-1.6806056499481201,-0.620934963226318,-0.124213218688965,985.6455078125,0,13.0,1,1
0.36,0.06154585,-0.16644849,9.764842999999999,-0.00017912295879799996,-2.8004054911434698e-05,0.0007758480496699999,-7.769555568695071,23.5519638061523,-32.9897956848145,-1.65649878978729,-0.595361590385437,-0.10431480407714801,985.6605834960941,0,13.0,1,1
0.4,0.06866860400000001,-0.16406400000000002,9.755369,-4.5512570068240206e-05,0.000504554249346,0.00090919987997,-8.26016521453857,23.777565002441396,-33.2353324890137,-1.65139973163605,-0.6219757199287409,-0.11278533935546901,985.6580200195309,0,13.0,1,1
0.44,0.068621635,-0.16406287,9.774303,-4.5060238335281604e-05,0.000105006998638,-0.000289027753752,-7.98268461227417,23.668746948242198,-33.4256935119629,-1.6558104753494298,-0.601070702075958,-0.125997543334961,985.6432495117191,0,13.0,1,1
0.48,0.070964575,-0.15929516,9.776666,-0.000310923554935,0.000104933511466,-0.00015567586524399999,-7.968145370483401,23.945846557617198,-33.598117828369105,-1.6553885936737098,-0.603978097438812,-0.125001907348633,985.6582641601559,0,13.0,1,1
0.52,0.06852776,-0.15929400000000002,9.764826,-0.000177313107997,0.00010486014070899999,-2.23238603211939e-05,-8.15429306030273,23.7713928222656,-33.3282661437988,-1.64545917510986,-0.606940984725952,-0.11455249786377,985.6400756835941,0,13.0,1,1
0.56,0.07804042,-0.16882594,9.774289999999999,-4.37027774751186e-05,0.000504260533489,0.000244185852353,-8.29878044128418,23.688724517822298,-33.2241821289062,-1.63036358356476,-0.600100219249725,-0.11349010467529301,985.637939453125,0,13.0,1,1
0.6,0.07321369999999999,-0.15929176,9.748246,0.00022306549362800001,-0.000960550270975,-0.000155094254296,-8.53308010101318,23.8908042907715,-33.276885986328104,-1.63945353031158,-0.598495483398438,-0.09357643127441401,985.6455078125,0,13.0,1,1
0.64,0.07794654,-0.15690728,9.762445,-4.27978811785579e-05,-2.85182031802833e-05,0.00024457357358200003,-7.916512966156009,24.3103141784668,-33.7043838500977,-1.63364958763123,-0.6011940240859991,-0.11141777038574198,985.625122070313,0,13.0,1,1
0.68,0.07072985,-0.16167267,9.767176,9.08125657588244e-05,-0.0014933289494369999,-0.000421022239607,-8.129238128662111,23.9528961181641,-33.342746734619105,-1.62340760231018,-0.5993794798851011,-0.11513328552246099,985.61767578125,0,13.0,1,1
0.72,0.068293035,-0.14975514,9.771906,-0.000175051041879,-0.0006944547640159999,-0.00042082817526499993,-8.50247955322266,24.446487426757802,-33.6990394592285,-1.6126977205276498,-0.602288246154785,-0.10930442810058599,985.6535034179691,0,13.0,1,1
0.76,0.070636034,-0.1640537,9.776636,-0.00017459847731499998,-0.000561370281503,0.000511471240316,-8.129238128662111,23.9528961181641,-33.3427505493164,-1.6025094985961899,-0.590700328350067,-0.108283042907715,985.637939453125,0,13.0,1,1
0.8,0.070589095,-0.1545194,9.748224,9.21697355806828e-05,-2.88119481410831e-05,-0.0004204406286590001,-7.85327863693237,23.8425979614258,-33.4558067321777,-1.59259462356567,-0.60308563709259,-0.09311485290527399,985.6452026367191,0,13.0,1,1
0.84,0.05656293,-0.16406016,9.769559,9.262224193662409e-05,0.000503746327013,0.00011238519800799999,-7.62645149230957,23.739074707031197,-33.7156562805176,-1.59154748916626,-0.56320458650589,-0.11573028564453099,985.6554565429691,0,13.0,1,1
0.88,0.0784072,-0.15453531,9.757753,-0.000572715129238,-0.0018931699451059999,-0.000286894792225,-8.23997402191162,23.322509765625,-33.4427680969238,-1.6056189537048302,-0.5944806933403021,-0.10999107360839801,985.627319335937,0,13.0,1,1
0.92,0.054490417,-0.16168470000000001,9.764853,0.000352776318323,-0.000560516840778,-0.00028972950531200005,-7.9338517189025906,23.029842376709,-33.7037696838379,-1.5808686017990101,-0.587487161159515,-0.089996337890625,985.6574096679691,0,13.0,1,1
0.96,0.06164235,-0.15691770000000002,9.769587,0.00021978950826499996,0.00023840295034499999,-0.00015649822307799998,-8.62593555450439,24.172603607177702,-33.2790679931641,-1.5709383487701398,-0.5953716635704039,-0.11746883392334,985.6452026367191,0,13.0,1,1
1.0,0.07118422,-0.154534,9.760117,-4.63552423752844e-05,-0.00029425657703500003,-0.000289582705591,-8.03790378570557,23.669620513916,-33.2632637023926,-1.5798949003219598,-0.583687603473663,-0.09752559661865198,985.637573242187,0,13.0,1,1
1.04,0.05682707,-0.14738373,9.77195,0.000619605649263,0.00037150536081800005,0.000109964574222,-7.601831912994389,23.1825141906738,-33.4559288024902,-1.5648217201232901,-0.6053509116172789,-0.11070442199707002,985.637573242187,0,13.0,1,1
1.08,0.06636888,-0.16168292,9.767214,0.000150103558553,-0.00010454996663600001,-0.00017210206715399998,-7.8622727394104,23.9396781921387,-33.691051483154304,-1.5643029212951698,-0.5842323899269101,-0.104991912841797,985.632446289062,0,13.0,1,1
1.12,0.07591075,-0.14023308,9.767213,-0.0006486729253080001,-0.000104577775346,-0.000305186782498,-7.891893863677981,23.753761291503896,-33.4446601867676,-1.56841361522675,-0.60131311416626,-0.09926509857177698,985.637573242187,0,13.0,1,1
1.16,0.07350308,-0.15929879,9.764844,-0.0006486729253080001,-0.000104577775346,-0.000305186782498,-7.354515552520749,23.2560691833496,-33.4983444213867,-1.56748175621033,-0.580124497413635,-0.088756561279297,985.637573242187,0,13.0,1,1
1.2,0.06631559,-0.16406489999999999,9.748272,0.000283603818389,0.000161710369866,0.00022751849610400002,-7.5629186630249,23.903488159179698,-33.042205810546896,-1.55216312408447,-0.568755865097046,-0.083001136779785,985.629272460938,0,13.0,1,1
1.24,0.071077645,-0.14976485,9.774308999999999,-0.000248856813414,-0.0003709492157209999,0.000893381657079,-7.89852523803711,24.1161575317383,-33.2338829040527,-1.54669570922852,-0.561833024024963,-0.096206665039063,985.642944335937,0,13.0,1,1
1.28,0.07822958,-0.15929748,9.760105000000001,0.000417103961809,-0.00077045080252,0.0007602968253200001,-7.6582756042480495,23.8140563964844,-32.7913246154785,-1.55572366714478,-0.573885381221771,-0.109432220458984,985.627685546875,0,13.0,1,1
1.32,0.06865221,-0.16168033,9.76247,1.78014452103525e-05,0.000827416719403,-3.857730189338329e-05,-7.99594593048096,24.3935394287109,-33.0041542053223,-1.5263984203338603,-0.54804003238678,-0.07531833648681599,985.637573242187,0,13.0,1,1
1.36,0.06863445,-0.15929665,9.776671,-0.000248343421845,-0.00037103256909199996,0.00022781197913,-8.15453720092773,24.7718200683594,-33.0018501281738,-1.5304175615310702,-0.5700412392616271,-0.09801673889160199,985.6498413085941,0,13.0,1,1
1.4,0.059057117,-0.16406275,9.755364,0.0005507755558940001,2.84134584944695e-05,0.00022788526257499998,-7.81966590881348,23.188968658447298,-32.9608345031738,-1.5104409456253098,-0.558826804161072,-0.073370933532715,985.6699829101559,0,13.0,1,1
1.44,0.06620908,-0.15691243,9.755363000000001,-0.000114843103802,-0.000104772232589,9.480060543864971e-05,-8.0404052734375,23.298385620117198,-33.0102043151855,-1.52430582046509,-0.556670844554901,-0.077159881591797,985.6250610351559,0,13.0,1,1
1.48,0.056631684,-0.15929534,9.755362,-0.000780461588874,0.0005609896034,0.0007606637664139999,-8.32451629638672,23.769603729248,-32.609073638916,-1.4944441318511998,-0.5591774582862851,-0.090305328369141,985.64208984375,0,13.0,1,1
1.52,0.075733125,-0.16167815,9.755360000000001,0.00015181515482299998,0.0005609618383459999,-0.000171368417796,-8.30030250549316,23.687252044677702,-33.146877288818395,-1.5128555297851598,-0.5571200251579279,-0.070399284362793,985.6349487304691,0,13.0,1,1
1.56,0.06376588,-0.15452786,9.757726,1.8828344764187898e-05,-0.0015695928595960001,0.000361336569767,-8.31234073638916,23.7813873291016,-33.2275199890137,-1.49726939201355,-0.5503627061843871,-0.07409477233886701,985.627685546875,0,13.0,1,1
1.6,0.06852794,-0.14737763,9.767192999999999,0.000152157474076,-0.00037119924672900003,0.000627725850791,-8.18141269683838,23.956710815429698,-33.334934234619105,-1.49181616306305,-0.557946264743805,-0.08261775970459,985.6495971679691,0,13.0,1,1
1.64,0.07090008,-0.15452702,9.757723,-0.00011381608783299998,0.0006940087187100001,-3.79172270186245e-05,-7.5492205619812,23.916748046875,-33.7379531860352,-1.48620760440826,-0.555878579616547,-0.072174072265625,985.6452026367191,0,13.0,1,1
1.68,0.066102505,-0.1449935,9.764822,0.000152670865646,0.000294507073704,-0.00017100170953200002,-8.05991554260254,23.491065979003896,-33.403392791748,-1.4808149337768601,-0.558602809906006,-0.08543968200683599,985.644653320312,0,13.0,1,1
1.72,0.075644374,-0.15690942,9.762454,-0.00011347376857899999,0.001359742833301,-0.000437244132627,-7.798058986663821,23.841720581054698,-33.6182289123535,-1.4854416847228997,-0.5517289638519289,-0.07036304473877,985.6455078125,0,13.0,1,1
1.76,0.07084679599999999,-0.16167556,9.767187,-0.000645934371278,0.00029445154359599996,-0.000437171023805,-7.93866205215454,24.0258483886719,-33.145435333252,-1.4702215194702102,-0.540430426597595,-0.088352203369141,985.6498413085941,0,13.0,1,1
1.8,0.07799876,-0.16405834,9.771919,0.00015318431542299998,2.8107839170843397e-05,-0.000437097682152,-8.0749979019165,23.5822601318359,-33.329421997070305,-1.4789013862609899,-0.5383871793746949,-0.09211921691894502,985.639526367187,0,13.0,1,1
1.84,0.073646486,-0.16645212,9.757755,0.000153355620569,2.8080074116587605e-05,-0.001102813752368,-7.96121597290039,24.2155838012695,-33.3840141296387,-1.46391224861145,-0.5315786004066471,-0.07698726654052701,985.64208984375,0,13.0,1,1
1.88,0.071710765,-0.15693022,9.757797,0.00015033964882600002,0.000561201421078,0.000493788917083,-8.04439735412598,24.137935638427702,-33.751575469970696,-1.45942425727844,-0.5341913700103761,-0.061940193176269996,985.652099609375,0,13.0,1,1
1.92,0.07172853,-0.15454732,9.772001,-0.00025450988323400003,0.000961547892075,9.20111197046936e-05,-8.11622047424316,24.2285232543945,-33.4378700256348,-1.44917416572571,-0.5273621082305909,-0.07994747161865201,985.6444702148441,0,13.0,1,1
1.96,0.0741362,-0.15693109,9.753065,0.00054426677525,2.9470073059201196e-05,0.00035825371742199995,-7.440984725952151,24.175895690918,-33.3848724365234,-1.4532958269119298,-0.548991560935974,-0.060076713562011996,985.675048828125,0,13.0,1,1
2.0,0.069374144,-0.15454824,9.755434,0.00027777973446099996,0.0013610771857200002,0.000225022493396,-7.84969139099121,23.477252960205103,-33.5119667053223,-1.45286405086517,-0.53723156452179,-0.078115463256836,985.64013671875,0,13.0,1,1
2.04,0.062222183,-0.15693189,9.757803,0.000277608720353,-0.00010363233741399999,-0.000840314256493,-7.957629203796389,23.850242614746104,-33.440174102783196,-1.4230875968933099,-0.5259922742843629,-0.077164649963379,985.6452026367191,0,13.0,1,1
2.08,0.06940961,-0.1545491,9.757805000000001,-0.0011872996110469998,-0.00023676249838900003,-0.00017459812806900002,-7.817707061767581,23.928489685058604,-33.3123435974121,-1.42240571975708,-0.538336634635925,-0.07152080535888701,985.6452026367191,0,13.0,1,1
2.12,0.07420716,-0.15454955,9.769642999999999,-0.000255365128396,2.9581191483885e-05,-0.000574145058636,-8.270383834838869,24.5053062438965,-32.9684028625488,-1.4312644004821797,-0.526772081851959,-0.07534408569335901,985.6521606445309,0,13.0,1,1
2.16,0.0694451,-0.15693320000000002,9.755442,-0.000521852052771,0.0008285565418189999,-4.15865215472877e-05,-8.247829437255861,24.3155670166016,-32.7298240661621,-1.42107975482941,-0.5298292636871339,-0.06026649475097701,985.629272460938,0,13.0,1,1
2.2,0.062293112000000005,-0.15693365,9.755442,-0.000522023066878,-0.00010352124809299999,-4.16599796153605e-05,-7.92953014373779,24.0346832275391,-33.609264373779304,-1.4105081558227501,-0.523246467113495,-0.068801879882813,985.6521606445309,0,13.0,1,1
2.24,0.07426041,-0.14740108,9.755444,0.00014359553461,-0.001035599038005,-4.17333212681115e-05,-7.773983001708981,23.6534576416016,-33.456958770752,-1.4045330286026,-0.5303431749343871,-0.063069343566895,985.659790039063,0,13.0,1,1
2.28,0.06710845,-0.16170104,9.762547,0.000143424462294,-0.00036978159914699993,0.001023457036354,-8.31136131286621,24.151145935058604,-33.4032707214355,-1.39422297477722,-0.504397094249725,-0.06689453125,985.657470703125,0,13.0,1,1
2.32,0.067126185,-0.15216841,9.772018,-0.000522536225617,0.0005623518372890001,0.000357593933586,-8.37861824035645,24.246154785156197,-33.3214836120605,-1.3981251716613798,-0.5121648311614989,-0.065995216369629,985.62158203125,0,13.0,1,1
2.36,0.07670355,-0.14740236,9.750715,-0.0006558652967209999,-0.000902357802261,0.000490678474307,-8.41060256958008,23.794918060302702,-33.5211029052734,-1.39229261875153,-0.534081399440765,-0.050862312316894996,985.6088256835941,0,13.0,1,1
2.4,0.07911119,-0.16885222,9.755450999999999,-0.0009223523084069999,-0.00023654033429900003,-0.00017518439563,-8.30277252197266,24.528274536132802,-33.965549468994105,-1.3959894180297898,-0.503913760185242,-0.059425354003906,985.659423828125,0,13.0,1,1
2.44,0.06956935,-0.15455301,9.772022,-0.0003898915892930001,-0.0006359863327819999,0.00022421602625400001,-8.176709175109862,24.0670509338379,-34.265926361084,-1.37605929374695,-0.5020155906677249,-0.082209587097168,985.639282226563,0,13.0,1,1
2.48,0.06958711,-0.16646986,9.764923,0.000275727099506,0.00042930489871699994,0.000490458565764,-8.17836952209473,23.9596633911133,-33.4895439147949,-1.37552547454834,-0.49950677156448403,-0.067117691040039,985.669555664063,0,13.0,1,1
2.52,0.079164445,-0.1569371,9.772026,-0.00012391785276100002,0.000296174723189,0.0008898591622710001,-8.108067512512209,23.867599487304698,-33.725940704345696,-1.37635111808777,-0.501378834247589,-0.079951286315918,985.634399414063,0,13.0,1,1
2.56,0.072012484,-0.16170414,9.767292999999999,-0.00012391785276100002,0.000296174723189,0.0008898591622710001,-8.108067512512209,23.867599487304698,-33.725940704345696,-1.3641512393951398,-0.495841383934021,-0.055874824523925996,985.634399414063,0,13.0,1,1
2.6,0.06964034,-0.16647117,9.77203,-0.00041959091322500003,-0.00027934202808,0.000659670913592,-7.823114395141599,23.6602249145508,-33.603748321533196,-1.35351181030273,-0.498590886592865,-0.0596923828125,985.63427734375,0,13.0,1,1
2.64,0.076827794,-0.15455513,9.767297,-0.00041959091322500003,-0.00027934202808,0.000659670913592,-8.14309597015381,23.4134140014648,-33.7709541320801,-1.35718882083893,-0.5060794949531561,-0.06350994110107401,985.63427734375,0,13.0,1,1
2.68,0.067285925,-0.14978905,9.762564,-2.02881055884063e-05,-0.0004124722909180001,0.00039328180719199997,-8.03029441833496,23.6769866943359,-33.649791717529304,-1.3465368747711202,-0.508696258068085,-0.05785465240478501,985.6624145507809,0,13.0,1,1
2.72,0.060133994,-0.15455605,9.757832,-0.00028677505906700006,-0.0009450762299819999,-0.0006720550009049999,-8.4141902923584,24.1602630615234,-33.4649429321289,-1.3310475349426298,-0.501847326755524,-0.052203178405761996,985.644653320312,0,13.0,1,1
2.76,0.06493151,-0.14502336,9.764935000000001,-0.00042010407196399995,-0.000678732583765,0.0005262930644680001,-8.14431953430176,24.0440826416016,-33.2687759399414,-1.32076334953308,-0.509481489658356,-0.046622276306152,985.6521606445309,0,13.0,1,1
2.8,0.06972909,-0.14264055,9.7649355,0.000644988322165,0.000253400707152,-0.000272727862466,-8.341526031494139,24.3335227966309,-33.2553215026855,-1.32929527759552,-0.5074298381805421,-0.06466770172119099,985.6400756835941,0,13.0,1,1
2.84,0.07143307,-0.14500706,9.7554035,-0.00042044633301,-0.000545519113075,-0.0004059591447,-7.85327863693237,23.8425979614258,-33.4558067321777,-1.3328357934951798,-0.5048809051513671,-0.05900955200195299,985.6702270507809,0,13.0,1,1
2.88,0.071422875,-0.16645629999999997,9.769607,0.00024517241399700003,0.00038661423604900003,-0.000272874545772,-7.92746496200562,23.667869567871104,-33.588123321533196,-1.3079732656478897,-0.469505190849304,-0.077075958251953,985.6393432617191,0,13.0,1,1
2.92,0.069022834,-0.14023991,9.748301,-1.5438825357705402e-05,-1.3785669580101999e-05,-0.000270429591183,-8.53750801086426,23.992301940918,-33.744045257568395,-1.31175923347473,-0.495800137519836,-0.033573150634766,985.6495971679691,0,13.0,1,1
2.96,0.064232886,-0.15692260000000002,9.755402,0.0006512712570840001,-0.0009460406727160001,0.000262596586253,-8.184999465942381,24.3220558166504,-33.2787742614746,-1.30146884918213,-0.488991320133209,-0.042204856872558996,985.6494750976559,0,13.0,1,1
3.0,0.05705303,-0.16883875,9.762503,0.00011873745825100001,-1.39509793370962e-05,0.000928428256884,-8.03570079803467,23.4087181091309,-33.9412002563477,-1.28162956237793,-0.463244676589966,-0.055584907531738004,985.6547241210941,0,13.0,1,1
3.04,0.061822653,-0.15215556,9.764869000000001,0.0003852490917780001,-0.00028029864188300005,-0.00013675150694299998,-8.41959762573242,23.8919982910156,-33.7563514709473,-1.2761633396148702,-0.48934417963028004,-0.05946540832519499,985.6497192382809,0,13.0,1,1
3.08,0.068982214,-0.1616884,9.769602,0.001051136758178,0.0005186331109140001,0.00039592236862500004,-8.21089553833008,23.8767166137695,-33.7876167297363,-1.2849768400192298,-0.4629799723625179,-0.049137115478516,985.6370239257809,0,13.0,1,1
3.12,0.07375187,-0.16407146,9.760132,0.000385444902349,-0.000812962185591,-0.0005361412768250001,-7.6405544281005895,24.2000198364258,-33.8174362182617,-1.27923429012299,-0.47066092491149897,-0.053031921386719,985.650268554688,0,13.0,1,1
3.16,0.061792195,-0.17122109,9.762499,-0.00041340471943800003,0.00038544338895,-0.000935572956223,-8.06021308898926,22.858928680419897,-33.8282661437988,-1.2689595222473102,-0.4641062617301939,-0.028559684753418,985.652099609375,0,13.0,1,1
3.2,0.07612145,-0.15453789999999998,9.755396000000001,0.000252482830547,-0.0006798360846009999,-0.0002697413438,-8.19236564636231,23.314266204834,-33.2186698913574,-1.27256953716278,-0.481180191040039,-0.051364898681641,985.6522827148441,0,13.0,1,1
3.24,0.04982233,-0.16168745,9.762497,-0.000280051026493,-0.0005466940347109999,0.000662406091578,-8.11263275146484,23.8631782531738,-33.494029998779304,-1.25279569625855,-0.45502626895904497,-0.036341667175293,985.6497192382809,0,13.0,1,1
3.28,0.05937183,-0.15215416,9.769597000000001,0.0007853104616519999,0.000651711656246,0.00012981629697600002,-7.849148750305179,23.108963012695302,-33.4135131835937,-1.2473040819168102,-0.462178409099579,-0.054452896118164,985.639526367187,0,13.0,1,1
3.32,0.06653136,-0.15930359,9.764861999999999,0.00025277660461099996,-0.000546725816093,0.0001298582647,-8.51093101501465,24.175270080566396,-33.8358345031738,-1.24153542518616,-0.4553518891334529,-0.04414749145507799,985.6497192382809,0,13.0,1,1
3.36,0.06174141,-0.14977027,9.762493,0.000519190274645,-0.000546741648577,-0.0008022053516469999,-8.48326778411865,23.621662139892603,-33.730720520019496,-1.23595762252808,-0.481898546218872,-0.029135704040527,985.6349487304691,0,13.0,1,1
3.4,0.07368076,-0.15930314,9.76486,0.00011981447460100002,0.000651663925964,-0.00026953156338999995,-8.120105743408201,23.961730957031197,-33.8065795898437,-1.2274669408798202,-0.45960408449172996,-0.03737258911132799,985.640380859375,0,13.0,1,1
3.44,0.06650087,-0.15453638,9.769592999999999,0.000253070262261,-0.0012125631328669998,0.000263142050244,-7.94765663146973,24.1229248046875,-33.3806800842285,-1.22929418087006,-0.444287478923798,-0.041687965393067,985.6426391601559,0,13.0,1,1
3.48,0.059321016,-0.15691938,9.748287,0.00038632610812800003,-0.000413631409174,-0.000136289745569,-7.91140365600586,23.9464416503906,-33.8378486633301,-1.2240227460861202,-0.45160931348800704,-0.031447410583496004,985.6145629882809,0,13.0,1,1
3.52,0.068870485,-0.16168569,9.771958,-1.3049750123173e-05,0.0006516161956819998,-0.000269405834842,-7.896460056304929,23.749343872070302,-33.212741851806605,-1.2285287380218501,-0.449558734893799,-0.030715942382813,985.6349487304691,0,13.0,1,1
3.56,0.06886032,-0.15691889999999997,9.769589999999999,0.000519679975696,-0.000280505279079,0.000263267953414,-8.247692108154299,24.421485900878896,-33.428897857666,-1.22746109962463,-0.46166163682937605,-0.053555488586425996,985.660522460938,0,13.0,1,1
3.6,0.06646025,-0.16645177,9.755386,0.000120303884614,0.00011895259376600001,0.000130151980557,-8.10861015319824,24.235885620117198,-33.8243942260742,-1.2125120162963898,-0.43607550859451294,-0.04334163665771499,985.639526367187,0,13.0,1,1
3.64,0.06884,-0.15930171,9.745916000000001,-0.0006785458535890001,-1.42211210913956e-05,0.00013019394828,-7.92732763290405,23.7737884521484,-34.2871971130371,-1.20705509185791,-0.44395613670349104,-0.028392791748047,985.6123046875,0,13.0,1,1
3.68,0.07838943599999999,-0.16645129,9.753017,-0.00041213195072499996,0.0009178683976639999,-2.92196637019515e-06,-7.82409334182739,23.2904624938965,-33.4279937744141,-1.20690393447876,-0.4324973225593571,-0.02769660949707,985.6477661132809,0,13.0,1,1
3.72,0.0783793,-0.1521513,9.76722,-0.000678350043017,-0.00014741087216,-0.000136037997436,-7.938960075378421,23.3937110900879,-33.570304870605504,-1.21063804626465,-0.44487076997757,-0.026899337768555,985.6298828125,0,13.0,1,1
3.76,0.06163981599999999,-0.15215106,9.7506485,-1.24623184092343e-05,0.00011888903099999999,0.00039663567440599996,-8.31220245361328,23.887306213378896,-33.9265937805176,-1.18147325515747,-0.43810522556304904,-0.030900001525879,985.67333984375,0,13.0,1,1
3.8,0.061629653,-0.17360033,9.764851,0.000387109466828,0.00025203108089,-0.0005354278837330001,-7.6841716766357395,23.368713378906303,-33.3001670837402,-1.18074131011963,-0.43135082721710205,-0.03487586975097701,985.6497192382809,0,13.0,1,1
3.84,0.06400943,-0.15215059,9.767218,-1.22664496302605e-05,-1.4300661860033899e-05,-0.0006685439147990001,-8.16176509857178,23.869949340820302,-33.640823364257805,-1.18498957157135,-0.438771963119507,-0.038872718811035004,985.637939453125,0,13.0,1,1
3.88,0.075975716,-0.14976771,9.75775,-0.000145326543134,-0.000280632404611,-0.00026902806712299996,-8.56821537017822,24.5429611206055,-33.694553375244105,-1.18918585777283,-0.446361899375915,-0.02393913269043,985.63525390625,0,13.0,1,1
3.92,0.06643444,-0.17360093,9.755384,-0.0004115444025959999,0.00078461522935,-0.00026898604119200004,-8.37296676635742,23.513996124267603,-33.3564949035645,-1.1695699691772499,-0.425630569458008,-0.023235321044922,985.627319335937,0,13.0,1,1
3.96,0.07598594,-0.16406767,9.75775,0.000253814388998,-0.0005468943272719999,-0.000136012735311,-7.96966695785522,23.9443740844727,-33.520809173584,-1.1785598993301398,-0.42358124256134005,-0.031974792480469,985.642944335937,0,13.0,1,1
4.0,0.07597774,-0.16168417,9.771954,0.000253892911132,0.00051835650811,0.000396652554628,-7.55476570129395,23.5425643920898,-33.3302803039551,-1.1734863519668601,-0.43568217754363997,-0.050209999084473,985.6432495117191,0,13.0,1,1
4.04,0.07118982,-0.1616839,9.774319,0.000253892911132,0.00051835650811,0.000396652554628,-8.17989063262939,23.9581871032715,-33.4122352600098,-1.15830731391907,-0.42396330833435103,-0.039978981018067,985.6432495117191,0,13.0,1,1
4.08,0.07357159,-0.15215068,9.753014,0.00038712937384800003,-1.4288001693785199e-05,0.000263528258074,-7.81009674072266,23.9358558654785,-33.6988716125488,-1.1575093269348102,-0.43114584684372,-0.029747009277343996,985.6455078125,0,13.0,1,1
4.12,0.061613917000000004,-0.15453370000000002,9.757748,0.00055661611259,-0.00056686840253,0.000164091645274,-7.859228610992429,23.942623138427702,-33.8456611633301,-1.1231803894043,-0.429084181785584,-0.019530296325684,985.6304321289059,0,13.0,1,1
4.16,0.06160575,-0.15453346,9.769583,0.001089326338843,-0.001099512912333,0.00016412534751,-8.27510929107666,23.974666595459,-33.8604354858398,-1.13217878341675,-0.42693221569061296,-0.037749290466308996,985.6611328125,0,13.0,1,1
4.2,0.06637739999999999,-0.17121632,9.762481,0.00015729936421799998,9.8895761766471e-05,-0.000501630827785,-8.37777805328369,24.5100021362305,-32.7981605529785,-1.1220375299453702,-0.410466313362122,-0.037034034729003996,985.6582641601559,0,13.0,1,1
4.24,0.05919957,-0.16168298,9.76248,0.000690009677783,-0.00016743283777,0.00016419263556600002,-8.404355049133299,24.327030181884798,-32.706371307373,-1.12638068199158,-0.40358412265777605,-0.03160572052002,985.648315429688,0,13.0,1,1
4.28,0.06636113,-0.15691616,9.764847,0.0006900882581249999,-0.0001674455998,3.10683390125632e-05,-8.367123603820799,24.5203132629395,-33.339298248291,-1.1119636297226,-0.411020994186401,-0.030953407287598,985.6432495117191,0,13.0,1,1
4.32,0.06635293,-0.15453269,9.757744,0.00042385081178500004,0.000897805264685,-0.000501529779285,-8.13921070098877,23.6802062988281,-33.4022407531738,-1.11659336090088,-0.413644790649414,-0.02556037902832,985.6201782226559,0,13.0,1,1
4.36,0.049615502,-0.16406564,9.760111,0.000290771509754,0.000365160696674,-0.000634654075839,-8.226413726806639,23.2298469543457,-33.4394378662109,-1.1018009185791,-0.41159659624099704,-0.015408515930176,985.620849609375,0,13.0,1,1
4.4,0.06872657,-0.14976574,9.753008,0.0009566398803139999,0.000897779653315,-0.000368304550648,-8.46277904510498,23.7987442016602,-33.5132865905762,-1.1112674474716202,-0.40947598218917797,-0.014764785766602,985.6329956054691,0,13.0,1,1
4.44,0.07110828,-0.15453209,9.757742,0.000690402463078,-0.000167496618815,0.000297518912703,-8.05352878570557,24.1290969848633,-33.287746429443395,-1.10126340389252,-0.41215968132019,-0.018821716308593996,985.6515502929691,0,13.0,1,1
4.48,0.06632036,-0.15929849999999998,9.769577,-0.0007741777226330001,-3.43641440849751e-05,3.1270319595933e-05,-7.85425806045532,23.472839355468697,-33.2800483703613,-1.0955445766449,-0.40553957223892206,-0.037044525146484,985.6162109375,0,13.0,1,1
4.52,0.061532437999999995,-0.14976515,9.776677000000001,0.00042432229383800003,-0.001365956268273,-0.00023501180112400001,-7.38011360168457,23.4428634643555,-33.5823173522949,-1.08557868003845,-0.41324841976165794,-0.036393165588378996,985.6109008789059,0,13.0,1,1
4.56,0.056744456,-0.14023186,9.75774,0.000557558611035,9.87682869890705e-05,3.13376076519489e-05,-7.533297538757321,24.0894088745117,-33.288600921630895,-1.0707722902298,-0.430169403553009,-0.026251792907715003,985.648803710938,0,13.0,1,1
4.6,0.07585549,-0.15453137,9.750637,0.00015816339873700003,-0.0005670341779480001,-0.0006344183348119998,-7.6123480796814,23.278121948242198,-33.6138725280762,-1.07998394966125,-0.394936203956604,-0.011407852172852,985.651977539063,0,13.0,1,1
4.64,0.07584739,-0.16168095,9.755371,-0.00024123184266500002,-0.000433889013948,-0.000234910985455,-7.92868900299072,24.2985305786133,-33.0859413146973,-1.07934069633484,-0.38325113058090204,-0.015456199645996,985.6259765625,0,13.0,1,1
4.68,0.06388974,-0.14976431,9.776675,0.0005577944684769999,0.0006313617341219999,-0.00010171916801499999,-8.12521457672119,24.3255996704102,-33.6731147766113,-1.0696952342987098,-0.405060350894928,-0.024307250976563,985.6515502929691,0,13.0,1,1
4.72,0.063881546,-0.14738093,9.764837,0.0009573467541489998,0.00023187523765999998,3.14724165946245e-05,-7.84124088287354,23.7484664916992,-33.375167846679695,-1.0597140789031998,-0.417226552963257,-0.023653030395508,985.62158203125,0,13.0,1,1
4.76,0.06387338,-0.15214725,9.764837,2.5319779524579604e-05,-3.44534346368164e-05,0.00043097985326300003,-8.175868034362791,24.3308944702148,-33.742603302002,-1.0592226982116701,-0.39162725210189797,-0.027749061584473,985.6416015625,0,13.0,1,1
4.8,0.07581478,-0.15453029999999998,9.764836,0.00029171418282200004,-0.00030078209238099997,-0.000767408055253,-8.1558141708374,23.769920349121104,-33.250965118408196,-1.06393039226532,-0.394018232822418,-0.031856536865234,985.6239624023441,0,13.0,1,1
4.84,0.068636894,-0.16406329,9.762468,0.000558108673431,0.0008976266835819999,-0.000101584591903,-7.8788776397705105,24.0293922424316,-33.5397758483887,-1.05443680286407,-0.378108561038971,-0.017086029052734,985.6239624023441,0,13.0,1,1
4.88,0.06664303,-0.15215658,9.757771,-0.000373918359401,0.0007644559373150001,-0.000501024769619,-7.85662078857422,23.2075119018555,-33.726066589355504,-1.03530275821686,-0.385591864585876,-0.016489028930664,985.6416015625,0,13.0,1,1
4.92,0.04794395,-0.15216692,9.760176,2.2741471184417602e-05,9.91230044746771e-05,3.0401046387851198e-05,-7.962738037109379,24.214111328125,-33.3067054748535,-1.02153432369232,-0.379347026348114,0.002958297729492,985.6495971679691,0,13.0,1,1
4.96,0.062307477,-0.14978422,9.767281,-0.00038168815081,0.000898875237908,0.0005609089857899999,-7.9790973663330105,23.3033981323242,-33.4818496704102,-1.03160917758942,-0.39636766910553,-0.015440940856934,985.611938476563,0,13.0,1,1
5.0,0.05994165,-0.14978479,9.7601795,0.00041702753515,0.001165228895843,2.8177688363939503e-05,-8.0850772857666,24.4159126281738,-33.761569976806605,-1.0218080282211301,-0.38006246089935297,-0.01483154296875,985.639526367187,0,13.0,1,1
5.04,0.06713542,-0.15455194,9.76255,-0.000115836242912,-0.0005657867877740001,2.8078327886760198e-05,-8.41875648498535,24.1558456420898,-33.2330284118652,-1.02173697948456,-0.37346798181533797,-0.023722648620606003,985.6067504882809,0,13.0,1,1
5.08,0.07910895,-0.1569358,9.762552000000001,-0.000382384256227,-3.31173650920391e-05,0.000161136733368,-7.96121644973755,24.2155838012695,-33.3840141296387,-1.0357807874679599,-0.381294190883636,-0.008927345275879,985.6272583007809,0,13.0,1,1
5.12,0.06957343,-0.15693642,9.767288,-0.0006489319493990001,-3.3079733839258504e-05,-0.000371594447643,-8.03594589233398,24.4091453552246,-33.6147804260254,-1.01183545589447,-0.365540146827698,-0.0036420822143550004,985.62744140625,0,13.0,1,1
5.16,0.067207634,-0.16885339,9.769658,0.00014978370745700003,0.0007659055409019999,-0.00037169374991199994,-7.77148199081421,24.0246963500977,-33.710018157959,-1.0116935968399001,-0.36837750673294106,-0.026730537414551003,985.624877929688,0,13.0,1,1
5.2,0.0624519,-0.16408743,9.757824000000001,0.00028270957409400006,0.000100153512903,2.7680653147399395e-05,-8.2144832611084,24.242057800293,-33.731456756591804,-0.997439742088318,-0.361860871315002,-0.016713142395020003,985.629272460938,0,13.0,1,1
5.24,0.06964567,-0.16408803,9.779131,0.000282477616565,0.000899138918612,0.000293897232041,-8.242039680480959,23.689323425293,-33.463912963867195,-0.997849345207214,-0.35515880584716797,-0.030391693115233997,985.6272583007809,0,13.0,1,1
5.28,0.045770705,-0.14740564,9.760197,0.000282245659037,0.000100228891824,-0.00023883394896999997,-7.904230117797849,23.2157554626465,-33.950168609619105,-0.973707914352417,-0.38630038499832203,-0.0013856887817379998,985.619750976563,0,13.0,1,1
5.32,0.07447359,-0.15217282,9.769667,0.000148855644511,0.00010026655218100001,0.0006931719835849999,-8.30595397949219,24.4194145202637,-33.1118659973145,-0.9927781820297241,-0.379997372627258,-0.019780158996582,985.6323852539059,0,13.0,1,1
5.36,0.06254816,-0.14502354,9.7602005,-0.000384008133551,-3.28538008034229e-05,-0.0009048226056619999,-8.1868200302124,23.688453674316396,-33.6263389587402,-0.987910389900208,-0.378155171871185,-0.00501823425293,985.6400756835941,0,13.0,1,1
5.4,0.06735206,-0.14979066,9.755467999999999,0.00028154978645,0.000366657681298,-0.00010597455548100001,-8.04385375976563,23.7696418762207,-33.653121948242195,-0.9786758422851559,-0.371455669403076,-0.009229660034180001,985.624877929688,0,13.0,1,1
5.44,0.06259632,-0.15455778,9.772041,0.000281317654299,0.0008993271621880001,-0.000505547737703,-7.69773197174072,23.4613723754883,-33.303497314453104,-0.9783828854560849,-0.359937012195587,-0.013383865356445,985.6299438476559,0,13.0,1,1
5.48,0.06740016,-0.16409151,9.767307,0.000281317654299,0.0008993271621880001,-0.000505547737703,-7.97423315048218,23.9399566650391,-33.288894653320305,-0.973638534545898,-0.36295491456985496,-0.012848854064941,985.6299438476559,0,13.0,1,1
5.52,0.06025454400000001,-0.14979245,9.757843,0.000147927697981,-0.00136432016734,-0.000505647156388,-8.29421424865723,23.6931457519531,-33.456100463867195,-0.959404587745666,-0.36644285917282104,-0.0028800964355470003,985.6249389648441,0,13.0,1,1
5.56,0.057888746,-0.15694286,9.774414,-0.000518093816936,0.000899402482901,0.000293201184832,-7.9806194305419895,23.301925659179698,-33.4045448303223,-0.954535841941834,-0.360003471374512,-0.021281242370606003,985.645385742188,0,13.0,1,1
5.6,0.06508249,-0.15932675,9.755479,-0.000385167921195,-0.00016582341049800001,-0.00010637205559799999,-8.31494903564453,24.5164909362793,-33.347110748291,-0.964539766311646,-0.338967502117157,-0.0065765380859380005,985.6681518554691,0,13.0,1,1
5.64,0.060326755,-0.14264442,9.760216,0.00024192262208099999,0.000635367818177,-2.9455404728651e-06,-8.07456111907959,24.320308685302702,-33.603626251220696,-0.9452441930770871,-0.36098080873489397,-0.006030082702636999,985.635131835937,0,13.0,1,1
5.68,0.050791204000000006,-0.15932791,9.767319,-0.000290941155981,0.000102773658,0.0009290605084969999,-7.93463897705078,24.398555755615202,-33.475799560546896,-0.935877680778503,-0.345014274120331,-0.010261535644531,985.653198242188,0,13.0,1,1
5.72,0.06276479,-0.15217869,9.757852999999999,-2.4857174139469896e-05,-3.03465931210667e-05,0.00026317127049,-7.76248836517334,23.9276123046875,-33.4747734069824,-0.926422834396362,-0.348040640354156,-0.00028038024902299997,985.6427612304691,0,13.0,1,1
5.76,0.06278884400000001,-0.1450295,9.76259,-0.000158247188665,-0.000296624784824,0.0005293877329680001,-8.095188140869139,24.0373153686523,-33.1219825744629,-0.9360431432724,-0.36082017421722395,0.00022029876709,985.653198242188,0,13.0,1,1
5.8,0.06520283,-0.15217988,9.746021,0.000374152499717,-0.00029658718267500003,0.000396130431909,-8.18087005615234,23.588424682617198,-33.2364845275879,-0.926653027534485,-0.344686269760132,0.005460739135742,985.642944335937,0,13.0,1,1
5.84,0.074786484,-0.16171356,9.764961,-0.000957658805419,0.00036924018058900003,-0.000136600690894,-7.55324411392212,23.5440368652344,-33.407585144043004,-0.9456237554550171,-0.33823943138122603,-0.0034837722778320005,985.655883789062,0,13.0,1,1
5.88,0.068591565,-0.16406210000000002,9.7529955,0.000107372761704,-0.00029651183285799997,-0.00040301587432599995,-8.17739009857178,24.329421997070302,-33.6652984619141,-0.9208035469055179,-0.33205085992813105,0.011302947998046998,985.650756835937,0,13.0,1,1
5.92,0.07333833,-0.15452822,9.764828999999999,0.00038343184860400005,-0.000563136709388,0.000269197917078,-7.7258005142211905,24.4891891479492,-34.2061424255371,-0.920607566833496,-0.349448442459106,0.002355575561523,985.648193359375,0,13.0,1,1
5.96,0.05896589,-0.15691064,9.771927999999999,-0.0005466730799530001,-0.0005634615663439999,0.00040321337292000003,-8.32796573638916,24.2408599853516,-33.2519950866699,-0.910875856876373,-0.338424384593964,-0.011341094970703002,985.64306640625,0,13.0,1,1
6.0,0.05893284,-0.15690987,9.760088,-1.37228635139763e-05,-0.00043035525595799996,3.87587351724505e-06,-8.185436248779299,23.584007263183604,-33.0045700073242,-0.906091451644897,-0.336796104907989,-0.001373291015625,985.648315429688,0,13.0,1,1
6.04,0.07323924,-0.17120872,9.762450999999999,-0.000546036171727,-0.00056356494315,4.01242868974805e-06,-8.08855819702148,23.6749153137207,-33.332752227783196,-0.9110816121101379,-0.32078719139099104,-0.00089168548584,985.6456909179691,0,13.0,1,1
6.08,0.07320619,-0.15929149,9.745878999999999,0.00025322980945900004,0.00010217310045799999,0.00027046474861000004,-7.8928728103637695,23.3839988708496,-33.2689018249512,-0.9061696529388431,-0.338076770305634,0.009087562561035,985.645751953125,0,13.0,1,1
6.12,0.061223686,-0.17359038,9.748242999999999,0.00012039020657500002,0.000235279381741,0.0006700750673189999,-8.35758590698242,24.0549468994141,-33.0055961608887,-0.887543797492981,-0.317291975021362,0.019008636474608997,985.645751953125,0,13.0,1,1
6.16,0.08030987,-0.1521401,9.7435055,0.00025386660127000004,0.000102069752757,0.000403895566706,-8.34250450134277,23.9637603759766,-33.0795707702637,-0.9069309234619141,-0.344225764274597,0.010005950927734002,985.645751953125,0,13.0,1,1
6.2,0.06832737,-0.15213926,9.755339,0.00025418488076,0.0009009657660499999,-0.000394915521611,-7.88344287872314,24.0249710083008,-33.3078575134277,-0.893116474151611,-0.323215126991272,0.005727767944335999,985.6388549804691,0,13.0,1,1
6.24,0.0635145,-0.1497552,9.762438000000001,0.0005208191578280001,0.000368282257114,-0.000261621142272,-8.0214376449585,23.473991394043,-32.715465545654304,-0.879118323326111,-0.33575028181076,0.010924339294434,985.615844726562,0,13.0,1,1
6.28,0.07065117,-0.15928747,9.764802,-1.1494208592921499e-05,0.000634546508081,0.000537462939974,-8.21462059020996,24.1361389160156,-33.032379150390604,-0.884292721748352,-0.315090358257294,-0.007569313049316,985.6337890625,0,13.0,1,1
6.32,0.06583834,-0.14975353,9.750595,-0.00014433375326899998,0.000101862999145,4.96761640533805e-06,-7.8823566436767605,23.288391113281197,-33.1109580993652,-0.8703055381774899,-0.332709491252899,0.007073402404785,985.6312866210941,0,13.0,1,1
6.36,0.058635592,-0.16166909,9.757694,-0.0008098050602709999,-0.000297662511002,-0.000128053885419,-8.10418224334717,24.134391784668,-33.3572311401367,-0.8702510595321659,-0.317040205001831,0.007539749145508,985.633422851562,0,13.0,1,1
6.4,0.07055205,-0.15690179,9.781363,0.000522092799656,-0.000297714170301,5.2405521273613e-06,-8.00371646881104,23.8599548339844,-33.7415733337402,-0.8708424568176271,-0.31018948554992704,-0.015684127807617,985.6410522460941,0,13.0,1,1
6.44,0.075298846,-0.16881733,9.755321,0.0007887269603089999,-3.14499775413424e-05,0.0006711665773759999,-8.061842918396,23.9638023376465,-34.1236152648926,-0.8708573579788209,-0.30834919214248696,0.003732681274414,985.6362915039059,0,13.0,1,1
6.48,0.0680961,-0.15690015,9.743481,-0.000143060227856,0.00023481424432200001,0.0001386711956,-8.17380332946777,23.9640808105469,-33.721462249755895,-0.861964583396912,-0.32099610567092896,0.032553672790527,985.636596679688,0,13.0,1,1
6.52,0.06567317,-0.16166587,9.760049,0.000123574049212,-0.000164711280377,0.000405123690143,-8.32590007781982,23.874046325683604,-33.230846405029304,-0.857353806495667,-0.314590156078339,-0.00486946105957,985.616455078125,0,13.0,1,1
6.56,0.07519975,-0.16166507,9.762413,0.000390208268072,-0.0005642367759720001,-0.000660003453959,-8.05755233764648,23.756389617919897,-32.9573783874512,-0.84794020652771,-0.308342814445496,0.009777069091796998,985.6491088867191,0,13.0,1,1
6.6,0.058437407000000004,-0.16404749999999998,9.764777,0.00012421089922999998,0.000634133000858,-0.0007930248393680002,-7.86629581451416,23.566970825195302,-33.3606834411621,-0.8341655731201171,-0.302180409431458,0.000713348388672,985.6388549804691,0,13.0,1,1
6.64,0.070353866,-0.17596315,9.757672,-0.0013402081094679998,-0.00016486634558500002,0.00040553300641500006,-7.99526596069336,24.131164550781197,-33.6047782897949,-0.844338238239288,-0.29126816987991305,0.015315055847168002,985.6315307617191,0,13.0,1,1
6.68,0.07749051,-0.16404592,9.755302,0.000258005573414,0.0010335034457969999,0.00027251156279799996,-8.5435962677002,23.9864120483398,-33.4348297119141,-0.8400571346282959,-0.29421204328537,0.020474433898926003,985.6187133789059,0,13.0,1,1
6.72,0.06311810000000001,-0.15927859,9.767136,0.000657797616441,0.00036766205448699997,0.000139490002766,-8.23565292358398,24.3273544311523,-33.3482627868652,-0.8306626081466679,-0.302188754081726,0.016176223754883,985.644287109375,0,13.0,1,1
6.76,0.06308508,-0.17119415,9.767133,0.000258642190602,-0.000431337306509,-0.0005261632031760001,-8.31318187713623,23.5175399780273,-33.7508354187012,-0.8264601230621341,-0.286350071430206,0.002373695373535,985.6113891601559,0,13.0,1,1
6.8,0.06544191,-0.1545104,9.760028,0.000125802762341,-0.0005645469063890001,0.00040607881965099994,-8.00926208496094,23.4857749938965,-33.3339042663574,-0.8221570253372191,-0.29912543296814004,0.0027818679809570005,985.6141967773441,0,13.0,1,1
6.84,0.07577407,-0.16167910000000002,9.7600975,-0.00040651060407999995,0.0005006649298590001,6.74143666401506e-06,-7.94917821884155,24.121452331543,-33.303375244140604,-0.827549159526825,-0.287948787212372,0.012650489807129,985.5936889648441,0,13.0,1,1
6.88,0.078985035,-0.1640826,9.764908,0.00025574449682599996,-0.00016455099103,-0.0007937211194079999,-8.01795768737793,24.214988708496104,-33.1442832946777,-0.8343403339385991,-0.29594212770462,0.017643928527832,985.6240844726559,0,13.0,1,1
6.92,0.08140665,-0.15931676,9.767278999999998,-1.9258906831964898e-05,-0.000431525928434,0.0006636368343609999,-8.32242012023926,24.6150436401367,-33.6596641540527,-0.829913973808289,-0.29459816217422496,-0.0008945465087889999,985.624755859375,0,13.0,1,1
6.96,0.06231913,-0.17123403,9.7483425,-1.9258906831964898e-05,-0.000431525928434,0.0006636368343609999,-8.5828914642334,24.1599426269531,-32.823055267334,-0.797054469585419,-0.292961180210113,0.023172378540038997,985.624755859375,0,13.0,1,1
7.0,0.079080135,-0.14978527,9.774385,0.000379909441108,-0.00029831839492500004,-0.00013544171815700002,-7.78876733779907,24.376781463623,-32.9581146240234,-0.8215147852897641,-0.29145348072052,-0.00011253356933600002,985.613891601563,0,13.0,1,1
7.04,0.06477243,-0.15931918,9.748348,-0.000552501645871,0.000367520930013,0.00039705907693100004,-7.938226222991941,24.7639007568359,-33.4196395874023,-0.7936136722564701,-0.304222643375397,0.028665542602538997,985.6318359375,0,13.0,1,1
7.08,0.067194015,-0.14978682,9.760188000000001,-2.0175328245386498e-05,-0.000298219238175,-0.000668335298542,-8.04841995239258,23.7652282714844,-33.4212074279785,-0.798921704292297,-0.293363094329834,0.010105133056640998,985.6068725585941,0,13.0,1,1
7.12,0.06483585,-0.14978759,9.757824000000001,-0.0008194284746419999,0.000633935793303,0.000663113140035,-7.9479546546936,23.4907913208008,-33.805553436279304,-0.785522282123566,-0.30591970682144204,0.019937515258788997,985.6244506835941,0,13.0,1,1
7.16,0.07681703599999999,-0.15693815,9.757827,0.000391462061089,-0.00018371426267500002,-0.000912687159143,-8.22209358215332,24.234691619873,-33.3449287414551,-0.800340175628662,-0.285194218158722,0.015596389770508002,985.6272583007809,0,13.0,1,1
7.2,0.07445881,-0.14978911,9.755463,0.000657472468447,0.000348967121681,0.000152445398271,-8.64308261871338,24.6306076049805,-33.2262382507324,-0.7917520999908451,-0.28838855028152505,-0.002989768981934,985.6318359375,0,13.0,1,1
7.24,0.0697107,-0.16408964,9.757833,0.00025769317289800004,0.00048217465519,-0.00011400133371399999,-8.06600284576416,23.4851760864258,-33.0941734313965,-0.7781517505645749,-0.282113611698151,0.01630973815918,985.65966796875,0,13.0,1,1
7.28,0.06974241,-0.15694048,9.764936,0.00012422975851200001,-0.000316723424476,0.00028534152079400004,-7.632103443145749,24.471233367919897,-33.6806449890137,-0.779017090797424,-0.29036545753479,0.016651153564453,985.639282226563,0,13.0,1,1
7.32,0.07933372,-0.16647442,9.760206,-0.00040870747761800007,0.0010149055160580001,0.00028521061176399996,-8.25157642364502,24.1546936035156,-33.7976112365723,-0.7794154286384579,-0.279056787490845,0.012311935424805,985.6471557617191,0,13.0,1,1
7.36,0.07219571,-0.15455882,9.753107,-0.000276160484646,-0.0007160485256460001,1.8632912542671e-05,-7.85493803024292,23.7352104187012,-32.6794242858887,-0.770660817623138,-0.27790963649749795,0.01264762878418,985.6650390625,0,13.0,1,1
7.4,0.06744757,-0.14979304,9.762578999999999,-0.00040962389903099995,0.00048242256161800003,-0.0007804456399750001,-7.85480070114136,23.841125488281303,-33.3784980773926,-0.766883730888367,-0.290706634521484,0.008249282836914,985.6318359375,0,13.0,1,1
7.44,0.06747928,-0.15694363,9.753113,0.000255860330071,8.299833280034359e-05,-0.0003811027854680001,-7.8478708267211905,24.110862731933604,-33.1643943786621,-0.758011341094971,-0.269996523857117,0.032283782958984,985.6574096679691,0,13.0,1,1
7.48,0.06990087,-0.15217789,9.762585000000001,0.001054502557963,0.00034936380688999996,1.82401854544878e-05,-7.9289870262146,23.6663970947266,-33.510814666748,-0.7539908885955809,-0.27751636505127003,0.023187637329102,985.624877929688,0,13.0,1,1
7.52,0.074712366,-0.164095,9.769689,0.000654723204207,-0.000849008094519,-0.00024820654653,-7.85480070114136,23.841125488281303,-33.3784980773926,-0.759570598602295,-0.271378874778748,-0.00014591217041,985.639526367187,0,13.0,1,1
7.56,0.06040466,-0.14264633,9.743652,-0.000144529913086,-0.00018316875502900003,0.00028429424855900003,-7.85632228851318,23.8396530151367,-33.301197052002,-0.7363163232803349,-0.29374808073043795,0.028613090515137003,985.6471557617191,0,13.0,1,1
7.6,0.07238585,-0.1545635,9.760225,-0.000277993327472,-0.0008489089086649999,-0.00011531054042299999,-8.34693336486816,24.0652542114258,-33.5467338562012,-0.746466636657715,-0.273341238498688,0.005288124084473,985.6301879882809,0,13.0,1,1
7.64,0.0724175,-0.16648062,9.764963,-0.00041145674185800004,0.00021640417981,1.7716432921588397e-05,-8.14377593994141,23.6757888793945,-33.1703262329102,-0.728558123111725,-0.25795453786850003,0.024518966674805,985.611938476563,0,13.0,1,1
7.68,0.06766945,-0.16171487,9.750763000000001,-0.000944393977989,0.000749085447751,1.7585582099854902e-05,-7.7007756233215305,23.4584274291992,-33.1488914489746,-0.7439851760864259,-0.266347706317902,0.029555320739746,985.624877929688,0,13.0,1,1
7.72,0.07009101,-0.16171564,9.753133,0.00025372201344,8.33454250823706e-05,1.74546148627996e-05,-8.09298515319824,23.776412963867198,-33.799915313720696,-0.725863218307495,-0.274578154087067,0.029869079589843996,985.6473999023441,0,13.0,1,1
7.76,0.07012272,-0.15933312,9.769707,-0.000545531103853,8.33950762171298e-05,-0.0009147818200289999,-8.07195281982422,23.585205078125,-33.484035491943395,-0.7221482992172241,-0.26380449533462497,0.006500244140625,985.6123657226559,0,13.0,1,1
7.8,0.074934214,-0.16410048,9.762608,-0.00027952069649500003,8.344466914422809e-05,-0.00038228102494,-8.1026611328125,24.1358642578125,-33.4345359802246,-0.732604622840881,-0.257338047027588,0.021038055419922,985.6530151367191,0,13.0,1,1
7.84,0.07439497,-0.16647054,9.760191,0.0009185952949339999,0.00034981008502699997,0.00028337776893700003,-8.644604682922362,24.6291351318359,-33.148933410644496,-0.7281895279884342,-0.25112569332122797,0.016674041748047,985.6146850585941,0,13.0,1,1
7.88,0.072013915,-0.15455435,9.760192,-0.0010729733621699998,8.07229662314057e-05,-0.0005160391447130001,-8.2144832611084,24.242057800293,-33.731456756591804,-0.7197140455245971,-0.26442402601242104,0.026431083679198997,985.634887695313,0,13.0,1,1
7.92,0.06724298,-0.14740479999999997,9.753091,-0.00027209930704,0.00021356815705100002,-0.00011573970550700001,-7.95222282409668,24.118507385253896,-33.1487617492676,-0.701476693153381,-0.272740423679352,0.031476020812988,985.6299438476559,0,13.0,1,1
7.96,0.06486201,-0.16408789999999998,9.767296,-0.00013902693172,-0.000585365633015,-0.000648408138659,-8.20701026916504,24.143508911132802,-33.4189033508301,-0.712083101272583,-0.2571702003479,0.012837409973145001,985.619750976563,0,13.0,1,1
8.0,0.07204056,-0.15693824,9.750725,0.000260361382971,0.0006130696856419999,-0.0007816026336510001,-8.04051208496094,24.404724121093697,-33.3828620910645,-0.698786735534668,-0.260221004486084,0.013154983520508002,985.629516601563,0,13.0,1,1
8.04,0.06726962,-0.14978863,9.757828,-0.00013919812045100002,0.00021360983373599996,-0.00038216559914899996,-8.06404495239258,24.2247009277344,-33.445686340331996,-0.7089908123016361,-0.26857072114944497,0.037145614624024,985.6455688476559,0,13.0,1,1
8.08,0.067278564,-0.14978887,9.753094,-6.125745130702851e-06,-0.0019169033039360002,0.000549903372303,-7.948092460632321,23.3848724365234,-33.106472015380895,-0.686140418052673,-0.267212688922882,0.032707214355469,985.6226196289059,0,13.0,1,1
8.12,0.06967729,-0.15932222,9.764930999999999,-0.000139369309181,0.001012585358694,0.000283550762106,-7.8528733253479,23.3683929443359,-32.658275604248,-0.6969347596168521,-0.256201803684235,0.014059066772461,985.6376342773441,0,13.0,1,1
8.16,0.069686174,-0.16170575,9.755463,0.000260019005509,0.000613125332166,-0.00011595978867299999,-8.10874748229981,24.1299743652344,-33.125316619873,-0.6843748688697819,-0.25987613201141396,0.014296531677246,985.6123657226559,0,13.0,1,1
8.2,0.06730515,-0.16408919,9.764933000000001,-0.0005390142323450001,0.001545244595036,-0.00024915434187300004,-8.10211753845215,23.767578125,-33.336086273193395,-0.690682411193848,-0.23927547037601501,0.009833335876465,985.6279907226559,0,13.0,1,1
8.24,0.06970397,-0.15932281,9.757832,-0.00013962600496599998,-0.000185794502613,-0.00011603301390999999,-8.11483573913574,24.124080657959,-32.8160972595215,-0.6865473985672,-0.24746085703373,0.029087066650391003,985.6273803710941,0,13.0,1,1
8.28,0.06732291,-0.15693982,9.774403999999999,0.0007923940429460001,-0.0008515703957530001,0.0005497199599630001,-7.9018669128417995,23.4810791015625,-33.504150390625,-0.677951574325562,-0.265108168125153,0.015181541442871,985.6350708007809,0,13.0,1,1
8.32,0.06494188,-0.15217344,9.7578335,0.000259676511632,-5.2608811529353295e-05,-0.000249264470767,-7.99928855895996,23.7584609985352,-33.2744102478027,-0.664570450782776,-0.254272758960724,0.029677391052246,985.6303100585941,0,13.0,1,1
8.36,0.08407003,-0.17123993,9.7696705,0.000259676511632,-5.2608811529353295e-05,-0.000249264470767,-7.85534381866455,24.2094192504883,-33.4769515991211,-0.689140558242798,-0.229057535529137,0.011050224304199,985.6303100585941,0,13.0,1,1
8.4,0.08168894,-0.15694048,9.745998,-0.00027304075774699997,-0.000984700513072,-0.000515616906341,-8.17836952209473,23.9596633911133,-33.4895439147949,-0.6806340217590329,-0.241972461342812,0.039743423461914,985.6054077148441,0,13.0,1,1
8.44,0.07452813,-0.16647379,9.762571000000001,0.000392663438106,-0.000984686659649,0.00015013612574,-7.84124088287354,23.7484664916992,-33.375167846679695,-0.672421514987946,-0.23606558144092601,0.025794982910156004,985.6427612304691,0,13.0,1,1
8.48,0.067367315,-0.16170742,9.753102,-0.00040636988706,0.000213748717215,0.000150099338498,-7.953063488006589,23.854663848877,-33.6720848083496,-0.659226894378662,-0.24918670952320102,0.03553390502929701,985.6156616210941,0,13.0,1,1
8.52,0.07454592,-0.15455778,9.767307,-0.000273297569947,-5.2553194109350395e-05,-0.00038256921106900004,-7.942004203796389,23.3907661437988,-33.4156913757324,-0.655629992485046,-0.24796055257320396,0.016861915588379,985.6331176757809,0,13.0,1,1
8.56,0.07216486,-0.1497915,9.760205000000001,-0.00014022513641999998,0.00034693448105800004,-0.000116289767902,-8.01368999481201,23.587272644043,-33.8010673522949,-0.6616400480270389,-0.24201612174510997,0.007654190063476999,985.6151733398441,0,13.0,1,1
8.6,0.07456368,-0.16170810000000002,9.776776,0.000126005063066,0.00021379039390000002,-0.000116326555144,-7.77757024765015,24.018798828125,-33.4007987976074,-0.648466944694519,-0.235872015357018,0.007925987243651999,985.620727539063,0,13.0,1,1
8.64,0.06979275,-0.15455852,9.769675999999999,-0.00027355420752399995,-0.000718301220331,-0.00011636322597,-7.721264839172361,23.281349182128896,-33.366321563720696,-0.649681806564331,-0.23468409478664398,0.022387504577637003,985.6506958007809,0,13.0,1,1
8.68,0.07458144400000001,-0.15217550000000002,9.764942,-0.000255788007053,7.70888582337648e-05,-0.000508095952682,-8.08757781982422,24.044677734375,-33.5085105895996,-0.646141052246094,-0.247692868113518,0.022647857666016003,985.6100463867191,0,13.0,1,1
8.72,0.057861,-0.14502579999999998,9.772045,0.000143600191223,-0.00045552896335700004,-0.000241816975176,-7.92412328720093,24.3029518127441,-33.3178558349609,-0.6332137584686279,-0.24654220044612898,0.008687973022461,985.6228637695309,0,13.0,1,1
8.76,0.06981939,-0.15455909,9.757842,-0.00038911713636500004,7.71166814956814e-05,0.000157620292157,-8.3179931640625,24.513545989990202,-33.1925010681152,-0.633793711662293,-0.240608468651772,0.032650947570801,985.645263671875,0,13.0,1,1
8.8,0.07462382,-0.16647615,9.764946,-0.00038920275983400003,-0.0007218170212580001,2.4425622541457398e-05,-8.11331462860107,24.1255531311035,-32.893402099609396,-0.644808650016785,-0.234580114483833,0.01869010925293,985.6283569335941,0,13.0,1,1
8.84,0.062699854,-0.15217717,9.764948,-0.0006556897424160001,-0.0007217893144119999,-0.0001088057179,-7.7860212326049805,23.7475891113281,-33.5375938415527,-0.622070372104645,-0.23330037295818304,0.023680686950684,985.620727539063,0,13.0,1,1
8.88,0.06271005,-0.17362688,9.779152,9.70557448454201e-06,-5.59356121812016e-05,-0.000108974636532,-8.07401847839356,23.952018737793,-33.5051765441895,-0.6137597560882571,-0.20843444764614102,0.004985809326172,985.6532592773441,0,13.0,1,1
8.92,0.06988989999999999,-0.15694417,9.746013,0.000542239402421,-0.000721709337085,-0.00024217448663,-7.71335697174072,23.9208450317383,-33.327976226806605,-0.624565362930298,-0.226112559437752,0.038380622863769996,985.625122070313,0,13.0,1,1
8.96,0.06751013,-0.15932770000000002,9.77442,0.000142667588079,0.000210412050365,0.000556731130928,-8.454029083251951,24.702091217041,-32.9516181945801,-0.6164839267730711,-0.22496761381626104,-0.003997802734375,985.614868164063,0,13.0,1,1
9.0,0.06991019999999999,-0.15694465,9.762585000000001,-0.000390061846701,-0.00072167761391,0.00042353128083099994,-7.74892807006836,23.8349533081055,-33.471435546875,-0.6180100440979001,-0.214135214686394,0.024641036987305,985.6203002929691,0,13.0,1,1
9.04,0.07231024,-0.16171141,9.769688,-0.000257001869613,-0.00018903003365299998,2.4015549570322e-05,-7.8512134552002,23.4757804870605,-33.434661865234396,-0.614457905292511,-0.227483168244362,0.024875640869141003,985.643798828125,0,13.0,1,1
9.08,0.060370922,-0.16171171,9.764955,0.00027553187101099995,-0.000588487891946,-0.000375500414521,-7.939640998840329,23.656085968017603,-32.9696769714355,-0.60132360458374,-0.23547400534152998,0.029867172241211003,985.6309204101559,0,13.0,1,1
9.12,0.060381055,-0.14502902,9.753119,0.00040859208093,7.73176725488156e-05,-0.00037554220762099996,-8.07401847839356,23.952018737793,-33.5051765441895,-0.5936731696128851,-0.23438502848148302,0.03953552246093799,985.5980834960941,0,13.0,1,1
9.16,0.062781096,-0.15932886,9.7696905,-0.000923085259274,0.0003436494444030001,0.000157047586981,-7.963717460632321,23.8443489074707,-33.1309471130371,-0.595140099525452,-0.214259460568428,0.011350631713866998,985.6156616210941,0,13.0,1,1
9.2,0.06757107400000001,-0.15456264,9.760223,0.000142080447404,7.73494539316744e-05,0.000157005619258,-7.95069980621338,24.1199798583984,-33.2260704040527,-0.5947378873825071,-0.23163212835788702,0.030632972717284997,985.623168945313,0,13.0,1,1
9.24,0.07475093,-0.15932943,9.760223,-0.000390649278415,-0.0007215823279690001,-0.000109352171421,-8.188586235046388,24.687400817871104,-33.2226142883301,-0.602499425411224,-0.221488043665886,0.04022407531738299,985.5980834960941,0,13.0,1,1
9.28,0.06998128,-0.14503007,9.753122,0.000408200517995,-0.00045525046880400005,0.000290079624392,-7.904475212097171,24.216182708740202,-33.6237449645996,-0.5899062156677249,-0.22965632379054998,0.030968666076659997,985.6033325195309,0,13.0,1,1
9.32,0.05804193,-0.14741357,9.762592,0.000141786789754,0.000610028975643,-0.00024259416386500002,-8.06738662719727,23.5896186828613,-33.7159461975098,-0.57236921787262,-0.233325615525246,0.021712303161621,985.637939453125,0,13.0,1,1
9.36,0.0795612,-0.15456362,9.774429,-0.000257784937276,0.00021057095727900003,-0.000242636073381,-8.057849884033201,23.1242523193359,-33.382247924804695,-0.59829980134964,-0.22749151289463002,0.012429237365722998,985.6283569335941,0,13.0,1,1
9.4,0.06523195,-0.16171367,9.776798,-0.000790514633991,0.0008763766381889999,0.00015679583884799998,-8.30997753143311,24.046707153320302,-32.7814979553223,-0.580646753311157,-0.21705020964145702,0.012637138366699,985.656127929687,0,13.0,1,1
9.44,0.0795815,-0.15933062,9.762596,-0.000524296541698,-0.0004551869351419999,2.35959887504578e-05,-7.86143159866333,24.2035217285156,-33.1677284240723,-0.582268953323364,-0.211130604147911,0.017580032348633,985.637939453125,0,13.0,1,1
9.48,0.07959169,-0.15456434,9.7768,0.00027455316740099993,0.000210618629353,0.00055618584156,-8.16480827331543,23.867000579834,-33.486213684081996,-0.593296647071838,-0.224235907196999,0.017797470092774,985.6533203125,0,13.0,1,1
9.52,0.08438164,-0.15456457,9.767332000000001,-0.000391334382584,-0.000188839258044,-0.000242803827859,-7.941705703735349,24.0228996276855,-32.9908256530762,-0.594921350479126,-0.21839998662471802,0.017999649047852,985.640502929688,0,13.0,1,1
9.56,0.07483217,-0.15933134,9.764966000000001,8.041533874347811e-06,-0.000588297145441,0.00042294396553199995,-8.32698631286621,24.6106262207031,-33.4277496337891,-0.581966936588287,-0.20317448675632502,0.018208503723145003,985.6455688476559,0,13.0,1,1
9.6,0.072452456,-0.17363138,9.764967,-0.0006578461034219998,0.000210666359635,0.000156586058438,-8.01339149475098,24.219406127929698,-33.3761978149414,-0.56007194519043,-0.187773331999779,0.018390655517578,985.6338500976559,0,13.0,1,1
9.64,0.0676828,-0.15456541,9.7626,-0.00025847015786,0.00034384013269999996,-0.00024292967282199998,-7.99290227890015,24.396484375,-33.158763885498,-0.5714086294174189,-0.224803283810616,0.032786369323731,985.623168945313,0,13.0,1,1
9.68,0.06291312,-0.16171546,9.767336,-0.00025856800493799997,0.000610171817243,0.00015650223940600003,-8.33641624450684,23.969650268554698,-33.3887901306152,-0.5541404485702509,-0.209645941853523,0.037701606750488,985.648193359375,0,13.0,1,1
9.72,0.082042515,-0.16171570000000002,9.750766,-0.000524981878698,-0.00045507570030199997,2.33021564781666e-05,-8.27676963806152,23.8672790527344,-33.084056854248,-0.574734687805176,-0.19927971065044395,0.033162117004395,985.6203002929691,0,13.0,1,1
9.76,0.07727286,-0.14979957,9.753134,-0.000524981878698,-0.00045507570030199997,2.33021564781666e-05,-7.80651092529297,23.570510864257802,-33.755031585693395,-0.5569937229156489,-0.221990302205086,0.038107872009277,985.6203002929691,0,13.0,1,1
9.8,0.0795466,-0.15217999999999998,9.762592,-0.000392019661376,-0.001786623266526,-0.000509413424879,-7.76400995254517,23.926139831543,-33.3974647521973,-0.568039059638977,-0.206771984696388,0.038309097290039,985.6028442382809,0,13.0,1,1
9.84,0.06282234,-0.17124633,9.767325999999999,-0.000392019661376,-0.001786623266526,-0.000509413424879,-7.98725080490112,23.664329528808604,-33.193775177002,-0.536677002906799,-0.19653074443340302,0.024263381958008,985.6028442382809,0,13.0,1,1
9.88,0.06282741,-0.15933006,9.760226,-0.000924141844735,0.0007432948332280001,0.00042291055433499997,-7.52362298965454,23.729957580566396,-33.653980255127,-0.5432934165000921,-0.20979104936122897,0.029178619384766003,985.645263671875,0,13.0,1,1
9.92,0.07478201400000001,-0.15218036,9.776796000000001,-0.000257806124864,0.000210574449738,0.000423144607339,-8.185840606689451,24.0582122802734,-33.802097320556605,-0.545259773731232,-0.203770712018013,0.015158653259277002,985.63818359375,0,13.0,1,1
9.96,0.07478705,-0.15933026,9.762594,8.46086186356843e-06,-5.573351518251e-05,0.0005562816513700001,-8.201902389526369,23.779640197753896,-33.5523643493652,-0.5422551631927489,-0.202779665589333,0.020072937011718996,985.6331176757809,0,13.0,1,1
10.0,0.07479215,-0.15933041,9.753126,8.41208384372294e-06,0.000743222073652,2.3628934286534803e-05,-8.23540878295898,23.326927185058604,-33.6746864318848,-0.539149343967438,-0.19234026968479198,0.039193153381348,985.628784179688,0,13.0,1,1
10.04,0.07957703,-0.14979742,9.764961999999999,-0.000524268718436,-0.00018887557962400002,0.000423081801273,-8.17836952209473,23.9596633911133,-33.4895439147949,-0.5409985184669489,-0.200584039092064,0.025176048278809,985.623168945313,0,13.0,1,1
10.08,0.058072954,-0.16409720000000003,9.762595,-0.000258001586189,-0.000322025589412,0.000423060788307,-8.07499694824219,23.5822601318359,-33.329421997070305,-0.523501455783844,-0.194791153073311,0.034831047058106,985.6105346679691,0,13.0,1,1
10.12,0.06285784,-0.15456428,9.753127000000001,0.0006740551907569999,-5.5701792007312206e-05,0.000822513713501,-7.9898586273193395,24.3994331359863,-33.3133735656738,-0.5253645181655879,-0.20349620282650002,0.034996986389160004,985.630493164063,0,13.0,1,1
10.16,0.07481241,-0.14026476,9.764963999999999,-0.00025809943326700005,7.74641230236739e-05,2.3545115254819397e-05,-7.64860057830811,23.4546051025391,-33.1567039489746,-0.527948975563049,-0.21171630918979603,0.035147666931152,985.6279907226559,0,13.0,1,1
10.2,0.07481751,-0.16648091,9.764963999999999,-0.00032650079811000004,0.000210349084227,0.000202977738809,-8.14279747009277,24.0455513000488,-33.346080780029304,-0.529790639877319,-0.19155646860599498,0.040057182312012,985.6558227539059,0,13.0,1,1
10.24,0.07004276,-0.15218134,9.76023,0.000206033233553,-0.00018910887592900002,-6.3380051869899e-05,-7.90697574615479,23.844947814941396,-33.3706855773926,-0.5223237872123719,-0.20455805957317397,0.030759811401367,985.620727539063,0,13.0,1,1
10.28,0.07721752,-0.1712477,9.764965,0.000605458160862,0.000609846669249,0.0006023887544869999,-8.01339149475098,24.219406127929698,-33.3761978149414,-0.5148548483848571,-0.17981614172458701,0.021445274353027,985.62841796875,0,13.0,1,1
10.32,0.06049332,-0.16171469,9.762597999999999,7.27775623090565e-05,0.000343538762536,0.00033605191856599993,-8.04635524749756,23.3984107971191,-33.4000625610352,-0.512275874614716,-0.17896379530429798,0.02159309387207,985.6506958007809,0,13.0,1,1
10.36,0.06766808,-0.1640981,9.750763000000001,-0.000193587213289,0.000609862559941,0.00046918890438999995,-8.06404495239258,24.2247009277344,-33.445686340331996,-0.5045611858367921,-0.18239198625087696,0.040711402893067,985.650268554688,0,13.0,1,1
10.4,0.08201256400000001,-0.15933163,9.772067999999999,0.0006053115357640001,-0.000322235107888,-0.000329779752064,-7.8632516860961905,23.5699157714844,-33.5152969360352,-0.530288457870483,-0.181040778756142,0.021953582763672,985.6356811523441,0,13.0,1,1
10.44,0.065288305,-0.15694852,9.755497,0.000205788936,-0.000455385074019,-0.00019664264982599997,-7.91086149215698,23.5781555175781,-33.7393951416016,-0.5034137964248661,-0.199264422059059,0.045788764953613004,985.6123657226559,0,13.0,1,1
10.48,0.07724285,-0.16171516,9.769701,-0.00046004971955,-0.0007216930389400001,0.00046912606922000006,-8.33283042907715,23.604309082031303,-33.4449501037598,-0.5151609182357789,-0.184191569685936,0.036461830139160004,985.6331176757809,0,13.0,1,1
10.52,0.067688346,-0.16648193,9.764969,-0.00032694073161100004,0.001275683869608,0.00020278920419499998,-7.77496194839478,23.283695220947298,-33.2812004089355,-0.497991234064102,-0.18314360082149497,0.022418975830078,985.635375976563,0,13.0,1,1
10.56,0.06291363,-0.15694894,9.764967,0.00047195819206499994,7.727048068773e-05,0.00033592624822600004,-7.49900341033936,23.173400878906303,-33.3942527770996,-0.490670531988144,-0.1724823564291,0.027305603027343996,985.6328735351559,0,13.0,1,1
10.6,0.07008839,-0.15218244,9.762602000000001,-6.07224646955729e-05,0.00047675223322600003,-0.000596200174186,-7.86257123947144,23.307540893554698,-34.1159248352051,-0.493184804916382,-0.19045503437519098,0.041644096374512,985.6401977539059,0,13.0,1,1
10.64,0.07009345,-0.16171570000000002,9.760235,0.0007381762843579999,0.0012757077347489998,-0.0007293790695260001,-7.87711048126221,23.030441284179698,-33.9435005187988,-0.485990583896637,-0.18436191976070396,0.032327651977539,985.6327514648441,0,13.0,1,1
10.68,0.07248843,-0.18078206,9.769705,0.0007381275645460001,-5.58636675123125e-05,0.001401126966812,-8.214780807495119,23.609920501709,-34.1563301086426,-0.48299580812454207,-0.15471924841404,0.03722572326660201,985.6328735351559,0,13.0,1,1
10.72,0.07488339999999999,-0.15456612,9.776806,0.000738078611903,-0.00045532963122199994,6.95265480317175e-05,-8.01893711090088,23.8452262878418,-32.9685249328613,-0.49473047256469704,-0.196534290909767,0.013703346252441,985.6301879882809,0,13.0,1,1
10.76,0.06293893,-0.15218295,9.767338,-0.000327233865391,-0.000322163745295,0.000202663650271,-7.96081113815308,23.741378784179698,-32.586483001709,-0.472614377737045,-0.180758163332939,0.028083801269531004,985.6254272460941,0,13.0,1,1
10.8,0.06756392,-0.17124538,9.762589,0.001004296820611,0.000210475976928,-6.36733020655811e-05,-7.76648807525635,23.975212097168,-31.3213768005371,-0.484426975250244,-0.16069595515728,0.02349853515625,985.6331176757809,0,13.0,1,1
10.84,0.06995255,-0.15932892,9.7602215,-0.000459154136479,-5.60487387701869e-05,0.00046950989053600004,-7.982386112213139,24.3008766174316,-33.0008201599121,-0.47703984379768394,-0.183794811367989,0.042571067810058996,985.6356811523441,0,13.0,1,1
10.88,0.069951296,-0.15456237,9.757854,0.00073946651537,0.000609708658885,-0.000329352391418,-7.9537448883056605,24.1170349121094,-33.071460723877,-0.4793516099452971,-0.18273915350437198,0.042710304260253996,985.6331176757809,0,13.0,1,1
10.92,0.0747298,-0.14979585,9.750752,-0.000592100783251,-0.000588714785408,0.00046960046165599997,-7.4484567642211905,24.2744522094727,-33.6974258422852,-0.471662968397141,-0.181773796677589,0.033394813537598,985.6350708007809,0,13.0,1,1
10.96,0.08189824,-0.15932886,9.757854,-0.00045893061906099997,-0.00018924297182799997,-6.30260910838842e-05,-7.49900388717651,23.173400878906303,-33.3942527770996,-0.48334357142448403,-0.18094865977764105,0.03353214263916,985.623168945313,0,13.0,1,1
11.0,0.06038791,-0.14741246,9.7649555,-0.00019260245608200002,-5.6086981203407103e-05,-0.00046249461593100003,-7.3708209991455105,23.9779205322266,-32.9221992492676,-0.46635377407073997,-0.184713259339333,0.033674240112305,985.617797851563,0,13.0,1,1
11.04,0.065166414,-0.16409536,9.7602215,0.000606357469223,0.000742858683225,0.000336458266247,-7.91955709457397,24.307369232177702,-33.549774169921896,-0.45918276906013505,-0.174110487103462,0.033806800842285,985.614868164063,0,13.0,1,1
11.08,0.06755504,-0.15456225,9.753119,-0.00045889383181899995,-0.000322406820487,0.00046962141641400005,-8.04301261901856,24.033489227294897,-33.1298027038574,-0.470648050308228,-0.17796306312084198,0.043422698974609,985.650756835937,0,13.0,1,1
11.12,0.06277397,-0.15932874,9.7554865,0.000340065918863,-0.000588724738918,-0.000329320959281,-8.34845542907715,24.063781738281197,-33.469425201416,-0.453715175390244,-0.167469546198845,0.029356002807617,985.6303100585941,0,13.0,1,1
11.16,0.06277269,-0.16171198,9.7649555,0.00034007825888700006,-0.000588726659771,-6.29998976364732e-05,-8.0210018157959,24.212043762207,-32.989673614502,-0.45579695701599104,-0.166339859366417,0.03896903991699201,985.627685546875,0,13.0,1,1
11.2,0.067551196,-0.16171198,9.767323,7.377448491752149e-05,-0.000322412815876,0.00033647910459,-7.95678853988647,24.114089965820302,-32.9168510437012,-0.461276382207871,-0.16468988358974498,0.029718399047852,985.6327514648441,0,13.0,1,1
11.24,0.067549974,-0.16647853,9.7531185,7.377448491752149e-05,-0.000322412815876,0.00033647910459,-7.95678853988647,24.114089965820302,-32.9168510437012,-0.454921245574951,-0.149996802210808,0.04872989654541001,985.6327514648441,0,13.0,1,1
11.28,0.07232851,-0.16886170000000003,9.769689999999999,0.00060641852906,-0.000455572735518,7.01685785315931e-05,-8.132823944091799,24.3182373046875,-33.286590576171896,-0.45215356349945096,-0.158634141087532,0.025195121765137003,985.6151733398441,0,13.0,1,1
11.32,0.062767625,-0.15932857,9.772057,7.37991067580879e-05,-0.000988206476904,0.00020333181601,-8.24744606018066,23.4210586547852,-33.7553215026855,-0.4356920123100279,-0.162554040551186,0.025304794311523996,985.6328735351559,0,13.0,1,1
11.36,0.06993607,-0.16647841,9.748384,0.00020696927094799997,0.00034337094984900003,-6.29788846708834e-05,-7.6841716766357395,23.368713378906303,-33.3001670837402,-0.4384205937385561,-0.142334595322609,0.049094200134277,985.6586303710941,0,13.0,1,1
11.4,0.06276509,-0.16171183,9.755486,-5.9334503021091196e-05,0.00060968491016,0.000336500117555,-8.13076019287109,23.951419830322298,-33.2654457092285,-0.431215167045593,-0.165206655859947,0.039750099182128996,985.645141601563,0,13.0,1,1
11.44,0.07471335,-0.164095,9.772057,-5.93221629969776e-05,0.000609682814684,0.000336505414452,-8.04896354675293,24.1335144042969,-33.5196571350098,-0.44811323285102794,-0.159635201096535,0.030391693115233997,985.624877929688,0,13.0,1,1
11.48,0.06993225,-0.15932845,9.7507515,0.000340163824148,0.00034336495446,0.000336510653142,-8.12535285949707,24.2196884155273,-32.9740371704102,-0.44131967425346397,-0.16814748942851998,0.054173469543457003,985.6301879882809,0,13.0,1,1
11.52,0.08188051,-0.15694518,9.769689,7.38601665943861e-05,0.0007428367971439999,-0.000196115870494,-7.785455703735349,23.799606323242198,-31.6161155700684,-0.45294949412345903,-0.152916386723518,0.011695861816406,985.635375976563,0,13.0,1,1
11.56,0.060370147,-0.15217854,9.757852999999999,0.00047334627015499996,0.000609676877502,0.000203363189939,-8.17103481292725,23.7551956176758,-32.477912902831996,-0.421251952648163,-0.166258081793785,0.044981002807617,985.6200561523441,0,13.0,1,1
11.6,0.06992844,-0.15217854,9.767321,-0.000458747148514,-0.0013876942684870003,-0.00019610539311500002,-7.658818244934079,24.1823425292969,-32.8897743225098,-0.43316480517387396,-0.174882665276527,0.021429061889648996,985.6350708007809,0,13.0,1,1
11.64,0.07470697,-0.14979525,9.762587,0.000340212718584,-0.000588748545852,-0.000462416035589,-7.56237602233887,23.535202026367198,-32.943756103515604,-0.44016453623771706,-0.164777472615242,0.035743713378906,985.6675415039059,0,13.0,1,1
11.68,0.069925904,-0.15932833,9.769688,-0.000465158751467,0.000162053096574,-0.0010667324531819999,-7.80124139785767,23.732864379882802,-32.7645454406738,-0.42324987053871205,-0.16415373980998998,0.016921043395996,985.602416992188,0,13.0,1,1
11.72,0.079484224,-0.16409482,9.769688,-0.0013972519664089999,-0.00010426477820100001,-0.000267779512797,-8.27606582641602,24.025207519531197,-31.861652374267603,-0.435140579938889,-0.144511386752129,0.03596496582031299,985.6473999023441,0,13.0,1,1
11.76,0.07728258,-0.14741652,9.764971000000001,-0.0007314501563089998,-0.0015690040308979998,0.000664331251755,-8.15595245361328,23.6640090942383,-32.5518836975098,-0.427350133657455,-0.153306379914284,0.05029964447021499,985.6427612304691,0,13.0,1,1
11.8,0.0703125,-0.15218796,9.762622,0.000332919327775,-0.0009030692162919999,0.000264474248979,-8.36519622802734,24.0475807189941,-32.6190757751465,-0.415527999401093,-0.166594102978706,0.031454086303711,985.6342163085941,0,13.0,1,1
11.84,0.060766876,-0.1593381,9.762623,-6.93531183060259e-05,-0.00103577284608,0.00013011688133700002,-8.27190589904785,24.503833770752,-32.8910942077637,-0.403062075376511,-0.161185368895531,0.04104423522949201,985.6544799804691,0,13.0,1,1
11.88,0.06556064,-0.16172175,9.750788,-0.000468961399747,-0.00023680337471900003,0.000396375136916,-7.94072723388672,24.3926658630371,-33.166580200195305,-0.41090163588523904,-0.14619816839695002,0.04112625122070299,985.624877929688,0,13.0,1,1
11.92,0.067964494,-0.16887195,9.760259,-0.00020278015290400002,0.001094797858968,0.00039631742401999997,-7.82183742523193,24.6621246337891,-33.3546333312988,-0.413098812103272,-0.14555524289608,0.045969963073731,985.6397094726559,0,13.0,1,1
11.96,0.07036838,-0.17363887,9.76026,-0.0007355464622380001,-0.0018346549477429995,-0.00026953004999100003,-8.03996849060059,24.036437988281303,-33.284412384033196,-0.405867666006088,-0.139992520213127,0.036611557006836,985.6171264648441,0,13.0,1,1
12.0,0.072772264,-0.16172273,9.7578945,0.000196424458409,0.000562209810596,-0.000269587675575,-8.14584159851074,24.042610168457,-33.1914710998535,-0.40833440423011796,-0.144224390387535,0.06037807464599599,985.6471557617191,0,13.0,1,1
12.04,0.07517612,-0.15219001,9.7697315,-0.00060265767388,-0.00010355807898999999,-0.00013648741878600001,-7.9988522529602095,24.4965133666992,-33.5486221313477,-0.406295925378799,-0.162706092000008,0.027325630187987997,985.624755859375,0,13.0,1,1
12.08,0.065630436,-0.16172345,9.767365,-0.00046963451313800005,2.96217040158808e-05,-3.3872202038765e-06,-7.9436330795288095,24.4956359863281,-33.711048126220696,-0.404158085584641,-0.14278571307659196,0.017954826354981003,985.6497192382809,0,13.0,1,1
12.12,0.07281411,-0.16172381,9.757897999999999,-0.00020345309167200002,0.000828591233585,-3.4447875805199095e-06,-7.3567180633544895,23.5169677734375,-32.8204116821289,-0.39752060174942,-0.15150518715381603,0.032245635986328,985.626708984375,0,13.0,1,1
12.16,0.072828114,-0.17840709,9.765,-0.000203587667784,0.0008286131196659999,0.000262813351583,-7.84124040603638,23.7484664916992,-33.375167846679695,-0.409977793693543,-0.126685813069344,0.041808128356933996,985.6221313476559,0,13.0,1,1
12.2,0.07284206,-0.17364086,9.746065,0.000328909460222,0.00016284530283899997,0.000262755725998,-7.602918148040769,23.9190979003906,-33.6528282165527,-0.383933007717133,-0.135513439774513,0.046634674072266,985.639282226563,0,13.0,1,1
12.24,0.077635825,-0.16172482,9.755533999999999,6.24589447397739e-05,0.000296025013085,-0.000136775837746,-8.27829170227051,23.8658065795898,-33.0067481994629,-0.41510209441185,-0.144418850541115,0.05146408081054701,985.6342163085941,0,13.0,1,1
12.28,0.06570026,-0.15457536,9.757903,-0.0007366231875489998,-0.00023658489226400004,-0.000269991403911,-8.34554862976074,23.960811614990202,-32.9249610900879,-0.389059036970139,-0.148507103323936,0.042085647583008,985.6497192382809,0,13.0,1,1
12.32,0.06332433,-0.15457572,9.767373,0.000594821642153,0.000828700431157,-0.000403207086492,-8.36201477050781,24.1564407348633,-33.4727592468262,-0.38681361079216,-0.14754791557788902,0.013782501220703002,985.639282226563,0,13.0,1,1
12.36,0.06572825,-0.1498095,9.748436,6.2055274611339e-05,-0.000103383266833,0.00039568293141199995,-8.347476005554201,24.433547973632802,-33.6451835632324,-0.38513976335525496,-0.137282058596611,0.046998977661133,985.6516723632809,0,13.0,1,1
12.4,0.07291189,-0.16410948,9.760273,-0.001003342680633,0.001095060026273,0.000262467365246,-8.05711555480957,24.4944381713867,-33.231578826904304,-0.378268361091614,-0.146273776888847,0.056550979614258,985.636474609375,0,13.0,1,1
12.44,0.06575611,-0.17125966,9.767377999999999,6.17861223872751e-05,-0.000902287196368,-3.90625791624188e-06,-8.216686248779299,24.5029563903809,-33.053524017334,-0.38523429632186895,-0.135923787951469,0.047188758850098,985.6137084960941,0,13.0,1,1
12.48,0.049040765,-0.1617269,9.75791,0.0007274411618710001,-0.00036963360616900005,-0.00013712194049700003,-8.72129249572754,24.0831680297852,-33.028186798095696,-0.35481703281402605,-0.13992355763912198,0.033063888549805,985.6415405273441,0,13.0,1,1
12.52,0.056224465,-0.15696065,9.755543,-0.000337956967996,0.0006956516881469999,0.000528610136826,-8.132824897766112,24.3182373046875,-33.2865867614746,-0.358136475086212,-0.143976226449013,0.03786659240722701,985.6289672851559,0,13.0,1,1
12.56,0.0610182,-0.15934427,9.760278999999999,-0.0006044073961679999,0.001361463451758,-0.00013723724987399998,-8.14402103424072,24.6762161254883,-32.8439102172852,-0.37052440643310597,-0.13856132328510298,0.056884765625,985.6362915039059,0,13.0,1,1
12.6,0.063422084,-0.16172792,9.762648,-0.000205068121431,0.00042937957914499994,-4.13699308410287e-06,-8.329625129699709,24.133472442627,-32.4756088256836,-0.36886849999427795,-0.13299600780010198,0.038022041320801,985.641479492188,0,13.0,1,1
12.64,0.056266367000000005,-0.16172828,9.765017,6.11131836194545e-05,0.001361506991088,-0.00040366844041300005,-8.10614013671875,23.3948669433594,-33.0057182312012,-0.37206658720970204,-0.141721680760384,0.038095474243164,985.644287109375,0,13.0,1,1
12.68,0.056280315,-0.16172864,9.7579155,6.11131836194545e-05,0.001361506991088,-0.00040366844041300005,-7.916949272155759,23.572265625,-33.43017578125,-0.35076433420181297,-0.131046399474144,0.03819656372070299,985.644287109375,0,13.0,1,1
12.72,0.04912454,-0.15934564,9.753182,0.000859926221892,0.00016310735372799997,0.0009278532816099999,-8.08521461486816,24.3099937438965,-33.062492370605504,-0.353341192007065,-0.135183826088905,0.033547401428223,985.62353515625,0,13.0,1,1
12.76,0.06561339,-0.15218998,9.769731,0.000327159854351,-0.000768976344261,0.000395163835492,-7.958171844482419,24.218528747558604,-33.5386238098145,-0.360438317060471,-0.15351767838001198,0.038394927978516,985.62353515625,0,13.0,1,1
12.8,0.060837447999999995,-0.16172309,9.760263,-0.000605080276728,-0.000103164784377,-4.36772825196385e-06,-8.21462059020996,24.1361389160156,-33.032375335693395,-0.35381677746772794,-0.138379618525505,0.047942161560059,985.6357421875,0,13.0,1,1
12.84,0.05367148,-0.15219013,9.757895,-0.00020421596127599998,-0.00036970639484900004,0.000129386142362,-7.85838747024536,24.206466674804698,-33.322341918945305,-0.34754461050033597,-0.14728163182735401,0.038538932800293,985.65087890625,0,13.0,1,1
12.88,0.06562486,-0.15457352,9.757896,6.295999628491701e-05,0.00029594363877499997,0.000129754771478,-7.86683893203735,23.935260772705103,-33.459136962890604,-0.369972407817841,-0.14182125031948098,0.038603782653808996,985.618408203125,0,13.0,1,1
12.92,0.060848832,-0.15457357,9.753162,0.000462396856165,0.002027002861723,-0.00053605082212,-8.45750904083252,23.9610939025879,-32.522800445556605,-0.3587637543678279,-0.13611568510532399,0.052883148193359,985.632934570313,0,13.0,1,1
12.96,0.06563243,-0.15457372,9.774466499999999,-0.000203429342946,0.000429113570135,-0.000536066305358,-8.02130031585693,23.579910278320302,-33.414543151855504,-0.34737685322761497,-0.144622817635536,0.024561882019043,985.6078491210941,0,13.0,1,1
13.0,0.06085643,-0.16410686,9.7721,0.000196007807972,0.0006954352720639999,-0.00040292419726,-7.86751937866211,24.1976318359375,-32.858512878418004,-0.355410635471344,-0.129896506667137,0.034086227416992,985.640502929688,0,13.0,1,1
13.04,0.060860217,-0.15934043,9.7721,-0.00020350285922200002,0.000295967503916,-0.0008024138514880001,-8.136166572570799,23.6831550598145,-33.556854248046896,-0.348554939031601,-0.133965238928795,0.034168243408203,985.645751953125,0,13.0,1,1
13.08,0.058474183,-0.15695728,9.767366,6.27765257377177e-05,0.00096176326042,-3.4818076528608803e-06,-8.53623008728027,24.994201660156197,-33.4949340820312,-0.33726784586906394,-0.13795112073421498,0.015302658081055,985.6253051757809,0,13.0,1,1
13.12,0.05608803,-0.145041,9.767366,-0.000336770754075,0.00016282749129499998,-3.5132397897541498e-06,-8.02488708496094,23.945251464843697,-33.3583831787109,-0.344951748847961,-0.14695788919925698,0.029575347900391003,985.632934570313,0,13.0,1,1
13.16,0.056091845,-0.15219085,9.776836,-0.000603123335168,-0.000236640422372,-0.00013668689644,-7.90058994293213,24.4829788208008,-33.255035400390604,-0.32864773273468,-0.141612991690636,0.02964973449707,985.6249389648441,0,13.0,1,1
13.2,0.07521486,-0.15219094,9.765,-0.000564435205888,-0.000525580020621,-0.000143784622196,-8.24935150146484,24.314094543457,-32.6525192260742,-0.35505130887031605,-0.136006996035576,0.039207458496094,985.619995117188,0,13.0,1,1
13.24,0.068048984,-0.16410746,9.757899,0.000500791356899,-0.000259258173173,-0.00067643210059,-7.91306400299072,23.839054107666,-33.0614624023437,-0.34364956617355297,-0.116202309727669,0.05348396301269499,985.6582641601559,0,13.0,1,1
13.28,0.058493167,-0.14504129999999998,9.753165,0.000633912801277,0.00014022158575200002,0.000255657767411,-7.99776649475098,23.759933471679698,-33.3517189025879,-0.33701992034912104,-0.148745253682137,0.03462219238281299,985.6679077148441,0,13.0,1,1
13.32,0.06088689,-0.15457453,9.750798,-0.00029822945362,0.00040654340409699994,0.0003887999919240001,-8.18087005615234,23.588424682617198,-33.2364845275879,-0.325899809598923,-0.133760020136833,0.053623199462891,985.64794921875,0,13.0,1,1
13.36,0.06567049,-0.16410773,9.765001,-0.000298266415484,0.001338654896244,0.00038878433406399997,-7.9498586654663095,24.3838272094727,-32.702747344970696,-0.328964531421661,-0.09966216981411001,0.030019760131836003,985.6480102539059,0,13.0,1,1
13.4,0.06806418,-0.15219142,9.755533,0.00036748684942699997,-0.000126076425659,-1.07052619569004e-05,-7.8554806709289595,24.1035003662109,-32.7778739929199,-0.341384530067444,-0.132062330842018,0.049037933349609,985.6400756835941,0,13.0,1,1
13.44,0.070457935,-0.15219156,9.765003,0.0006337660597640001,0.000273403333267,0.00038875281461500004,-7.92455863952637,23.564895629882802,-33.0436515808105,-0.33495220541954,-0.13598315417766602,0.04437255859375,985.654663085938,0,13.0,1,1
13.48,0.06090209,-0.1617247,9.776838,0.000234255508985,0.000406567269238,-0.000143894751091,-8.344570159912111,24.3305740356445,-33.1007118225098,-0.328355878591537,-0.125649526715279,0.025507926940918,985.6270141601559,0,13.0,1,1
13.52,0.06329584,-0.154575,9.772103999999999,0.000234218896367,-0.000259216525592,0.000122405530419,-8.19994354248047,24.519161224365202,-33.9038772583008,-0.32642668485641496,-0.115430995821953,0.030313491821288997,985.6376953125,0,13.0,1,1
13.56,0.06568950400000001,-0.16410817,9.743698,-0.000165291596204,-0.00039236844168,-0.000543399888556,-7.87170267105103,23.298702239990202,-33.6520957946777,-0.32930597662925704,-0.109883561730385,0.039855003356933996,985.62646484375,0,13.0,1,1
13.6,0.060913533,-0.15934171,9.788675,0.0032967780716719997,-0.0018570998217910001,-0.000942889426369,-8.30236721038818,24.054069519043,-33.168025970459,-0.33123418688774103,-0.117173627018929,0.021056175231934,985.6298217773441,0,13.0,1,1
13.64,0.075256765,-0.14980875,9.765004,0.000234108767472,-0.000525514478795,0.000122358382214,-8.40283298492432,24.3285064697266,-32.783679962158196,-0.329607456922531,-0.136747732758522,0.040022850036621004,985.8519897460941,0,13.0,1,1
13.68,0.05375141,-0.16172518,9.765005,-0.002828560071066,0.0006729128072039999,-0.000143973215017,-7.8078718185424805,24.095260620117198,-32.5537757873535,-0.309049963951111,-0.126747205853462,0.044807434082031,985.578735351563,0,13.0,1,1
13.72,0.06292325,-0.15933241,9.769703,-0.00029859645292199997,0.000672918744385,-0.000143988989294,-7.72150993347168,24.2817726135254,-33.0399017333984,-0.31647914648056,-0.11121593415737199,0.030694007873534997,985.580688476563,0,13.0,1,1
13.76,0.06729144,-0.15693904,9.750729,0.0024976837448779997,-0.002123391954228,-0.00014400464715399997,-7.5720510482788095,23.8946533203125,-32.5783729553223,-0.323241651058197,-0.120195582509041,0.054506301879883,985.6878051757809,0,13.0,1,1
13.8,0.064873636,-0.14025544,9.769663000000001,-0.0025566010735929997,0.00120581057854,0.000260432076175,-8.4554443359375,23.5942726135254,-32.5016555786133,-0.312107414007187,-0.139128640294075,0.040349006652832,985.7029418945309,0,13.0,1,1
13.84,0.06723562,-0.16647075,9.772028,0.00037314248038500003,0.000673135160469,0.000127389386762,-8.169618606567381,24.8630065917969,-32.9278755187988,-0.315405011177063,-0.109798952937126,0.030941009521483997,985.5598754882809,0,13.0,1,1
13.88,0.064817876,-0.14025404,9.762556,0.00010709557682299999,-0.000125856080558,0.00039382054819699997,-7.999426364898679,23.652542114257802,-32.5753364562988,-0.31323498487472495,-0.132701620459557,0.031023025512695,985.631713867187,0,13.0,1,1
13.92,0.05284044,-0.15693633,9.755452,0.00024052261142099997,-0.0010580054949969999,-0.000538169697393,-8.26443290710449,24.4052810668945,-32.5785446166992,-0.292281985282898,-0.113061353564262,0.04055595397949201,985.6393432617191,0,13.0,1,1
13.96,0.067151904,-0.15455236,9.760183999999999,-0.000691313878633,-0.00012594345025700003,-0.0009375281515529999,-8.222911834716799,24.3911514282227,-32.045223236084,-0.30954372882843,-0.11743600666523,0.050083160400391,985.66162109375,0,13.0,1,1
14.0,0.06473413,-0.15455164,9.757814,-2.52551981247962e-05,-0.0006586189847439999,0.000127850624267,-8.08230876922607,24.207027435302702,-32.5180244445801,-0.30259096622467,-0.12121312320232401,0.05016517639160201,985.646240234375,0,13.0,1,1
14.04,0.05992639,-0.15931748,9.745975999999999,0.00010817148722700002,-0.000126030819956,-0.000138350063935,-8.47786045074463,23.8899307250977,-33.4393157958984,-0.300901889801025,-0.111215308308601,0.06442546844482401,985.6571655273441,0,13.0,1,1
14.08,0.047948986,-0.16646667,9.764911,-2.47173011302948e-05,0.000140241405461,0.000128081126604,-7.69025993347168,23.3628196716309,-32.9909477233887,-0.27101600170135504,-0.10589893162250501,0.040801048278808996,985.64697265625,0,13.0,1,1
14.12,0.067040265,-0.1593162,9.760174000000001,-2.47173011302948e-05,0.000140241405461,0.000128081126604,-7.876949310302731,23.5566596984863,-32.819553375244105,-0.302644610404968,-0.109966471791267,0.040865898132324,985.64697265625,0,13.0,1,1
14.16,0.05745274,-0.14978237,9.762539,0.00010870967526000001,0.000939145451412,-0.001070224912837,-7.50976467132568,24.269432067871104,-33.2257766723633,-0.29149293899536105,-0.13786636292934398,0.045658111572266,985.6543579101559,1,1.0,2,2
14.2,0.07176423,-0.17123117,9.767271000000001,-2.4179113097488897e-05,-0.000126161845401,0.000527785508893,-7.62767553329468,24.3697357177734,-33.213474273681605,-0.30413001775741605,-0.09911961853504199,0.036250114440918,985.6569213867191,1,1.0,2,2
14.24,0.062176794,-0.15216424,9.769635000000001,0.000242405454628,6.95246853865683e-06,-4.7310022637248e-06,-7.49634218215942,24.0708541870117,-32.523365020752,-0.297890841960907,-0.126991108059883,0.022103309631348,985.6406860351559,1,1.0,2,2
14.28,0.07409841,-0.15216364,9.760164,0.0005089903716,0.000140066724271,0.00039485815796099996,-7.882739067077639,24.1828994750977,-32.085460662841804,-0.310459434986114,-0.09767065942287499,0.031634330749512,985.6259765625,1,1.0,2,2
14.32,0.062120974,-0.15931274,9.764896,-2.33722967095673e-05,0.0005394968902690001,-0.000803448085207,-7.92219591140747,23.8302192687988,-32.5976333618164,-0.27997714281082203,-0.11577202379703501,0.031704902648926,985.6206665039059,1,1.0,2,2
14.36,0.08121228,-0.15931202,9.760159,0.000376370619051,-0.000792126171291,0.0006614045705650001,-7.95996952056885,24.005226135253896,-32.063159942627,-0.316446602344513,-0.100922301411629,0.050702095031738004,985.6329956054691,1,1.0,2,2
14.4,0.052505523,-0.15931131,9.764891,0.000376639538445,0.00013993569882600002,-0.000270585704129,-7.6145515441894505,23.5390281677246,-32.935939788818395,-0.281063199043274,-0.10999496281146999,0.046024322509766,985.64111328125,1,1.0,2,2
14.44,0.06920689,-0.15216084,9.767255,-0.000155723420903,0.000273049925454,-0.00040362827712699996,-8.3402795791626,24.123161315918,-31.9344749450684,-0.284457921981811,-0.109299853444099,0.03187370300293,985.6708374023441,1,1.0,2,2
14.48,0.05483958,-0.16169329,9.76962,-0.000155454326887,-0.000659099256154,0.00012911867816,-8.35120010375977,24.6929740905762,-32.8899459838867,-0.278234213590622,-0.108461394906044,0.036665916442871004,985.64013671875,1,1.0,2,2
14.52,0.066761196,-0.14739291,9.769617,0.000111130648293,0.0006724364357070001,-0.000270239834208,-8.04078674316406,24.192893981933604,-31.9847030639648,-0.28614240884780895,-0.11216436326503801,0.031999588012695,985.691284179688,1,1.0,2,2
14.56,-0.6000494000000001,0.06948614,9.779083,-2.14895117096603e-05,0.0006723491242159999,-0.00040316727245199994,-7.95320129394531,23.7487449645996,-32.973011016845696,-0.269804954528809,-0.09728659689426401,0.0462646484375,985.6580200195309,1,1.0,2,2
14.6,0.8171345999999999,-0.39286923,9.760143,-0.0021517474669960003,0.000938621349633,-0.16818204522132899,-8.10127639770508,24.0314254760742,-32.8127632141113,-0.8940112590789799,0.5495228767395021,0.055610656738281,985.6298828125,1,1.0,2,2
14.64,0.1096957,0.31258184,10.15783,-0.021992012858391002,-0.008648794144392001,-0.283763080835342,-8.20410537719727,24.0405349731445,-32.874439239502,-0.23069998621940602,-0.315259695053101,-0.271625518798828,985.60888671875,1,1.0,2,2
14.68,0.6306665,-0.16168986,9.982655000000001,-0.21320652961731,-0.049262009561062005,0.026894556358457004,-8.1430721282959,23.833717346191396,-31.9479293823242,-0.783664524555206,-0.907574117183685,-0.338516235351562,985.5458374023441,1,1.0,2,2
14.72,0.54460204,0.53184485,10.129419,-0.55102801322937,-0.029022045433521,0.16031892597675304,-8.39506244659424,24.8620910644531,-32.046253204345696,-0.582607805728912,-0.6229771375656129,-0.11511421203613302,985.5148315429691,1,1.0,2,2
14.76,-0.32296026,-1.2031811000000001,9.96608,-0.715610921382904,-0.21451109647750896,0.20812276005744898,-8.43351745605469,25.2994728088379,-30.911155700683604,-0.10754214227199602,-0.46806722879409796,-0.21869277954101604,985.520263671875,1,1.0,2,2
14.8,-0.24651128,-1.257996,10.763824000000001,-1.0646176338195799,0.287361145019531,-0.5202510952949521,-9.58009719848633,26.3854446411133,-30.4900779724121,0.270665109157562,-0.525572419166565,-1.46834468841553,985.5762329101559,1,1.0,2,2
14.84,0.47043145,-2.625997,10.5271015,-1.3724784851074199,0.448881685733795,-0.6218504309654239,-9.51778793334961,27.1805267333984,-29.314456939697298,-0.879511117935181,1.07056522369385,-0.48637580871582003,985.593505859375,1,1.0,2,2
14.88,-0.99460644,-2.580714,13.871955999999999,-1.61429309844971,0.9050807356834408,-0.36671975255012496,-9.22737503051758,28.8739852905273,-28.1495666503906,-0.23830658197402999,-0.29445528984069796,-3.82735824584961,985.585815429688,1,1.0,2,2
14.92,-1.6160088,-2.7308597999999997,13.064737,-0.9092214703559879,1.5506303310394298,-0.41692018508911105,-8.419934272766112,29.9985885620117,-27.954875946044897,-0.23779606819152802,0.055653333663941,-4.12225437164307,985.611450195312,1,1.0,2,2
14.96,-1.6710043999999997,-1.0315818,10.4395075,1.25113308429718,1.8805956840515101,-0.040083076804876,-6.8168158531189,28.1822891235352,-30.1742057800293,-0.46857535839080794,-0.559739351272583,-1.8392257690429699,985.6419067382809,1,1.0,2,2
15.0,-3.1193128,-0.8742847,9.459484,2.2424943447112997,1.7077565193176298,0.25046768784523005,-4.28619766235352,25.496826171875,-33.640369415283196,-0.25366258621215804,-0.38072085380554205,0.08924198150634802,985.656860351562,1,1.0,2,2
15.04,-4.068132,-1.2079431,10.66202,1.4745726585388201,1.2201321125030502,-0.111455507576466,-2.01953125,21.6152725219727,-35.8411064147949,1.0829393863678,0.552259385585785,-1.21567440032959,985.6261596679691,1,1.0,2,2
15.08,-3.7670321,-0.37617803,10.7945795,1.2142493724823,0.9440957903862,0.21331684291362804,-1.24320220947266,19.393276214599602,-37.5243721008301,0.018678665161133,0.565762281417847,-1.8085412979126,985.62548828125,1,1.0,2,2
15.12,-4.0729675,0.25062487,10.1578,1.59534752368927,0.832109987735748,0.429698556661606,-0.012271881103516,16.121726989746097,-38.831356048584,0.26080942153930703,0.304743230342865,-1.42805480957031,985.631225585938,1,1.0,2,2
15.16,-4.333495,0.03374715,8.867672,1.7873615026474,1.12186145782471,0.375902891159058,1.71609115600586,14.0006589889526,-40.0513572692871,-0.14731502532958998,1.33083403110504,-0.42667770385742204,985.6338500976559,1,1.0,2,2
15.2,-4.3215733,1.0418745999999999,8.635683,1.79255509376526,1.36447536945343,0.343945115804672,4.15895462036133,10.441168785095199,-40.7584075927734,-0.3932204246521,1.2452323436737098,-0.229859352111816,985.6636352539059,1,1.0,2,2
15.24,-5.0409616999999995,1.9594375,9.016801,1.71785378456116,0.953816175460815,0.542084276676178,6.57163238525391,6.6437520980835,-43.1405372619629,-0.052565097808837995,0.752768516540527,-1.08253002166748,985.6107788085941,1,1.0,2,2
15.28,-5.5333095000000005,2.4241776,8.545725,1.59548199176788,1.05022239685059,0.44527852535247797,8.16849327087402,3.5033855438232404,-43.2798347473145,0.016798496246338,1.1727695465087902,-0.738152980804443,985.6405639648441,1,1.0,2,2
15.32,-6.4319406,2.3479132999999996,8.046242,1.6189178228378303,1.3287887573242199,0.39933913946151706,9.98500823974609,0.990185737609863,-43.5666618347168,0.36428022384643605,0.9497356414794921,-1.63835000991821,985.645751953125,1,1.0,2,2
15.36,-6.515615,3.7611980000000003,5.522803,1.8641951084136998,1.43891036510468,0.49734351038932795,12.0220947265625,-2.9506139755249,-42.0333099365234,1.13269662857056,1.4735124111175502,0.574890613555908,985.64794921875,1,1.0,2,2
15.4,-5.982694599999999,5.045785400000001,5.9796705,1.85194480419159,1.2500923871993999,1.0535444021225,14.4541664123535,-6.62633275985718,-41.5001449584961,-0.119112491607666,0.05887269973754901,0.060665607452392994,985.64013671875,1,1.0,2,2
15.44,-5.9349245999999996,5.4128112999999995,5.709807,1.2187789678573602,0.904014825820923,0.9719186425209041,15.947517395019501,-9.49520874023438,-41.100490570068395,0.15615320205688502,0.5100741386413571,-0.39598512649536105,985.665771484375,1,1.0,2,2
15.48,-6.1428742,5.9704995,6.0175405,1.15632820129395,0.828381061553955,0.9661929607391361,16.6088333129883,-12.511828422546401,-39.3322257995605,0.068579196929932,0.078510761260986,-1.1799540519714398,985.6145629882809,1,1.0,2,2
15.52,-6.288685299999999,5.627308,4.2231984,1.15632820129395,0.828381061553955,0.9661929607391361,17.136451721191403,-15.494892120361301,-38.7000846862793,0.376547336578369,0.9597201347351071,-0.228981494903564,985.6145629882809,1,1.0,2,2
15.56,-5.6506095,6.42094,3.9793741999999996,1.1005352735519398,0.9383695721626278,0.8046725392341609,18.5257530212402,-17.7239875793457,-37.8599281311035,0.147188663482666,0.561704158782959,-0.07885360717773401,985.626586914063,1,1.0,2,2
15.6,-4.5314865,6.61397,3.6267202000000003,1.28855466842651,1.00934255123138,0.886431634426117,18.6264533996582,-19.7908096313477,-35.675930023193395,-0.827471256256104,1.1933736801147499,-0.357021331787109,985.6417846679691,1,1.0,2,2
15.64,-4.5315,6.5067224999999995,3.0396528,1.07670068740845,0.7181262373924259,1.1912301778793302,18.350414276123,-22.5253372192383,-35.2424354553223,-0.980329036712646,0.8232517242431641,-0.315284729003906,985.5933227539059,1,1.0,2,2
15.68,-4.737044999999999,6.3375106,1.9649417000000002,1.08801317214966,0.7895010113716121,1.04728662967682,19.095344543457,-24.7262535095215,-33.3808174133301,-0.46793460845947293,1.7955222129821797,-0.11800622940063499,985.5752563476559,1,1.0,2,2
15.72,-4.239959,6.540089,0.7268938,1.0234292745590199,0.982180953025818,0.6177181005477911,19.0274810791016,-26.687477111816396,-31.2540092468262,-0.7418293952941891,1.41136455535889,1.0854588747024498,985.610961914063,1,1.0,2,2
15.76,-4.0392209999999995,6.642571,1.096176,0.9432682991027829,0.8903018832206729,0.745283544063568,19.6633911132813,-27.7788276672363,-29.517501831054698,-0.745196342468262,2.18684005737305,0.824334144592285,985.574829101562,1,1.0,2,2
15.8,-3.4967260000000002,7.643548,1.8797188000000002,0.454978317022324,0.8152008652687069,0.883501589298248,19.3880844116211,-29.143165588378896,-28.9333381652832,-0.599036455154419,0.901397705078125,-0.217557668685913,985.5956420898441,1,1.0,2,2
15.84,-3.0426583,7.317039,0.8949613999999999,0.046183552592993,0.4684575796127321,1.1399637460708603,18.4098739624023,-29.9012718200684,-28.5072860717773,-1.14087057113647,1.51105308532715,0.376589775085449,985.5972290039059,1,1.0,2,2
15.88,-2.4906043999999996,7.893793,1.197962,-0.170197978615761,0.601748645305633,1.11919105052948,18.226474761962898,-30.704914093017603,-28.8169212341309,-0.9930830001831059,1.1453933715820301,0.58183491230011,985.627807617188,1,1.0,2,2
15.92,-1.8071058999999998,8.542045,0.97544384,-0.152221515774727,0.7206586003303531,1.0255812406539901,17.284378051757802,-31.745418548584,-28.1489601135254,-1.6698379516601598,0.7613554000854491,0.661638021469116,985.5997924804691,1,1.0,2,2
15.96,-2.961442,8.449097,1.7731897,-0.5093509554862979,0.637301743030548,1.18949866294861,16.9022521972656,-32.2610893249512,-28.3678359985352,-0.7715542316436771,0.090867042541504,0.64213752746582,985.607299804687,1,1.0,2,2
16.0,-3.4776742,7.3766226999999995,2.0832919999999997,-1.3782062530517598,0.984577715396881,0.20852428674697898,18.0777263641357,-29.3679084777832,-30.950809478759798,0.34994721412658697,1.59853172302246,0.251261711120606,985.5639038085941,1,1.0,2,2
16.04,-2.5982037,8.308484,2.424168,-1.27887034416199,0.8034828305244449,0.6343634724616999,18.316349029540998,-28.565143585205103,-30.8036003112793,-0.333127975463867,0.75672721862793,0.59635853767395,985.591064453125,1,1.0,2,2
16.08,-2.2469015,7.7007494,3.4207589999999994,-1.48047125339508,0.690298497676849,0.856870412826538,18.543748855590803,-27.8247013092041,-32.036735534668004,-0.5706655979156489,0.9246311187744141,-0.026387214660645003,985.5706176757809,1,1.0,2,2
16.12,-1.7235266,7.9414606,3.8941982000000004,-1.6308064460754401,0.7628695964813229,0.788959920406342,18.458833694458,-25.691139221191396,-33.0723037719727,-0.736591815948486,0.796330451965332,-0.072441577911377,985.5706176757809,1,1.0,2,2
16.16,-1.2551192,7.4385886,4.0551667,-1.6815396547317498,0.9085443615913391,0.6482120156288149,19.248420715332,-24.266456604003896,-34.0471839904785,-1.64011549949646,0.648037910461426,0.26758694648742704,985.577880859375,1,1.0,2,2
16.2,-3.0356097,6.363730400000001,5.0588593,-1.9870036840438798,1.3548898696899399,0.028095541521907002,21.6938171386719,-21.870979309082,-34.9491004943848,-0.471534490585327,1.46989107131958,-0.24542665481567397,985.5729370117191,1,1.0,2,2
16.24,-3.1383889,5.574866,4.945233,-2.36490559577942,1.62506723403931,-0.231429204344749,23.9579811096191,-17.3808326721191,-34.6369247436523,-0.378412008285522,1.6972246170043899,0.187880039215088,985.552612304688,1,1.0,2,2
16.28,-3.3439337999999994,5.241207,5.811627400000001,-2.5137763023376496,1.9189469814300502,-0.174970209598541,27.18603515625,-14.622371673584,-33.8330612182617,-0.459840774536133,1.4906415939331101,0.531696319580078,985.590454101563,1,1.0,2,2
16.32,-2.6269767,4.790768,6.673288,-2.7417423725128196,1.60669147968292,-0.029162202030419995,29.7864837646484,-10.6072654724121,-33.9298286437988,-2.0709958076477,1.12329530715942,-0.9663147926330559,985.5908203125,1,1.0,2,2
16.36,-3.8076019999999997,4.5166907,6.3773865999999995,-2.6246964931487997,1.66221833229065,-0.19214744865894298,32.213912963867195,-7.59732484817505,-33.479217529296896,-1.28063130378723,0.391873359680176,0.734119415283203,985.584716796875,1,1.0,2,2
16.4,-4.579553,2.9580273999999998,7.291125,-2.76624321937561,1.1318502426147499,-0.220510050654411,33.7784957885742,-3.0781269073486297,-31.983158111572298,-0.580976009368897,1.64199280738831,-0.33701229095459,985.5997924804691,1,1.0,2,2
16.44,-3.7359316,2.7196999,7.492336,-2.8931429386138903,1.1221295595169098,-0.360725283622742,35.1685256958008,0.43443965911865207,-29.8624076843262,-1.6358761787414597,0.596944332122803,-0.1574387550354,985.5955200195309,1,1.0,2,2
16.48,-4.1374483,1.666291,7.4662957,-2.6767609119415297,1.1242600679397599,-0.365119457244873,36.881862640380895,4.40859508514404,-29.1272239685059,-2.01799273490906,0.8474080562591549,-0.276469230651856,985.581787109375,1,1.0,2,2
16.52,-5.287005000000001,0.57474995,6.3276699999999995,-2.2618408203125,0.949423611164093,-0.49335050582885703,38.0479736328125,7.92171382904053,-26.2021598815918,-1.37647342681885,1.2208080291748,0.702298641204834,985.57666015625,1,1.0,2,2
16.56,-5.5139713,-0.07350369,6.4081616,-2.02828145027161,0.9606088995933529,-0.6842989921569821,38.9158210754395,10.7344388961792,-23.7290382385254,-0.61492395401001,1.2323420047759999,0.972772121429443,985.5764770507809,1,1.0,2,2
16.6,-4.309381,-0.805172,6.2258945,-2.02188992500305,0.8082762360572819,-0.557931959629059,39.253898620605504,14.052216529846199,-21.5887565612793,-2.5716137886047403,0.9236885905265809,0.507045745849609,985.591430664062,1,1.0,2,2
16.64,-5.9823184000000005,-2.0444765,5.3500295,-1.87754821777344,0.910408616065979,-0.815992712974548,39.9888572692871,15.9500894546509,-18.656703948974602,-1.6034131050109899,1.5752632617950402,1.50747346878052,985.5859985351559,1,1.0,2,2
16.68,-6.0611916,-2.4615502,6.334785,-1.94852137565613,0.854349076747894,-1.1074755191803,39.690177917480504,19.3034133911133,-15.881490707397498,-0.79132080078125,1.18963158130646,0.43322134017944297,985.5831909179691,1,1.0,2,2
16.72,-6.699302,-2.828575,7.390556299999999,-2.19193410873413,0.673920094966888,-0.9221196174621579,39.2429809570312,22.2013626098633,-12.671825408935499,-1.39560222625732,0.765607833862305,-1.06973648071289,985.613891601563,1,1.0,2,2
16.76,-8.073502000000001,-3.5769242999999995,6.287439,-1.9690276384353602,0.8833774924278259,-1.12305498123169,39.0267486572266,24.2621536254883,-9.67971611022949,0.585906982421875,0.49682450294494607,-1.2020139694213898,985.58056640625,1,1.0,2,2
16.8,-8.302938000000001,-3.8557677000000004,5.908686599999999,-1.65970158576965,1.5339872837066697,-1.2121376991272,38.1588134765625,26.555587768554698,-6.67778015136719,0.381088256835937,0.32721567153930703,-0.735885143280029,985.639282226563,1,1.0,2,2
16.84,-8.608852,-4.3014407,5.255338,-1.46063041687012,1.3627461194992099,-0.990695834159851,37.0843963623047,29.0237121582031,-2.49948310852051,0.8054351806640629,0.10402250289916999,-1.3605318069458001,985.6087036132809,1,1.0,2,2
16.88,-8.56584,-5.045023400000001,4.346332,-1.1248059272766102,1.4767293930053702,-0.9317069053649899,35.6443023681641,30.3602294921875,0.184709548950195,0.667882442474365,0.525047302246094,-0.784671545028687,985.6254272460941,1,1.0,2,2
16.92,-8.381824499999999,-4.944926000000001,4.1332830000000005,-0.866479575634003,1.19576609134674,-0.649412035942078,34.8192138671875,30.902526855468697,3.59044551849365,0.511277198791504,0.132506370544434,-0.907112836837769,985.6103515625,1,1.0,2,2
16.96,-8.365101,-5.962585,4.0764694,-0.866479575634003,1.19576609134674,-0.649412035942078,33.586837768554695,31.8539962768555,6.41912841796875,0.357212543487549,0.883074760437012,-1.5179717540741,985.6103515625,1,1.0,2,2
17.0,-8.243223,-5.185636,3.0680406000000002,-0.683520495891571,0.9110742211341859,-0.43888923525810203,32.6914291381836,32.0680541992188,8.23823738098145,0.335144996643066,0.348933696746826,-0.564678907394409,985.623168945313,1,1.0,2,2
17.04,-8.140463,-5.683741,3.7190206,-0.418536067008972,0.8245216012001041,-0.331963419914246,31.7708587646484,33.206954956054695,9.69916915893555,-0.07818746566772501,0.17007064819335901,-1.45475125312805,985.6513061523441,1,1.0,2,2
17.08,-8.6304,-5.459713,2.7176936,-0.30308809876441994,0.8410332798957829,-0.339686512947083,31.4135055541992,32.6609420776367,10.8639659881592,0.640249252319336,0.28522253036498996,-1.0705180168151898,985.6360473632809,1,1.0,2,2
17.12,-8.647135,-5.667057499999999,1.9507191000000002,-0.104016922414303,0.670990526676178,-0.23049701750278498,31.0672454833984,32.8633003234863,11.213418960571301,0.640215873718262,0.27064847946167,-0.160687923431396,985.63037109375,1,1.0,2,2
17.16,-8.240858,-5.347698,2.2513535,0.30411222577095004,1.01453804969788,-0.256063312292099,29.6491394042969,33.9580688476562,12.214714050292999,0.289718627929687,0.217113971710205,-0.881532907485962,985.6602172851559,1,1.0,2,2
17.2,-8.075961999999999,-4.8472095,2.5306827999999997,0.249517515301704,1.03464484214783,-0.350871741771698,28.4760894775391,33.7547225952148,13.100233078002901,0.06268596649169901,-0.5599637031555179,-1.0458456277847301,985.60986328125,1,1.0,2,2
17.24,-7.562139,-5.481162,2.1566641,0.42608502507209794,0.7479557991027829,-0.039681605994701004,28.7134323120117,33.555591583252,12.9983263015747,-0.479385375976563,-0.066398620605469,-1.23228132724762,985.6298217773441,1,1.0,2,2
17.28,-7.495228,-5.8863187,0.16584635,0.497191429138184,0.829048931598663,0.08921530097723,28.0625686645508,34.0520858764648,13.5314769744873,-0.775562286376953,0.519877433776856,0.674487471580505,985.6124877929691,1,1.0,2,2
17.32,-8.530062,-5.7266392999999995,0.883108,0.796131074428558,0.7685952186584469,-0.056326296180487,27.589111328125,33.819690704345696,13.233114242553699,0.05681800842285201,0.3138108253479,0.46672886610031106,985.657470703125,1,1.0,2,2
17.36,-8.764278,-5.8934684,1.0914214,0.79000586271286,1.01347279548645,-0.311856359243393,26.5461807250977,34.740085601806605,12.416156768798801,0.8149690628051759,0.470715045928955,-0.552753269672394,985.660034179688,1,1.0,2,2
17.4,-8.479887,-5.547893,0.5943082,0.384140491485596,0.6052104234695429,-0.24128264188766502,25.8317794799805,35.0721588134766,12.275857925415002,0.24943733215332,0.006073951721191,0.37103179097175604,985.657470703125,1,1.0,2,2
17.44,-8.599388000000001,-6.6418175999999995,1.0014665,0.469228506088257,0.594690918922424,0.030759101733565,25.207633972168,35.8575477600098,12.0181446075439,0.516793251037598,1.20456647872925,-0.5658435225486761,985.6652221679691,1,1.0,2,2
17.48,-8.993729,-6.115113,0.48541576,0.41490018367767295,0.298148185014725,0.085353881120682,25.170406341552702,35.6642608642578,12.651065826416,0.661873817443848,0.7446045875549309,0.259031176567078,985.623901367188,1,1.0,2,2
17.52,-8.377139999999999,-5.895851,1.2216151000000002,0.102778032422066,0.500814497470856,-0.038882449269295,24.990348815918,35.4957046508789,12.611690521240199,0.385558128356934,0.556233882904053,-0.7518640756607059,985.623901367188,1,1.0,2,2
17.56,-8.707678,-6.75143,1.0132344000000002,-0.303087323904037,0.285498172044754,0.127964481711388,24.8602600097656,35.584220886230504,13.242431640625,0.432435035705566,1.36462068557739,-0.698987007141113,985.635986328125,1,1.0,2,2
17.6,-7.871248,-5.073601200000001,0.59660345,-0.09522423893213301,0.19188758730888397,0.078697554767132,24.8010177612305,35.2123870849609,13.735225677490199,-0.136699676513672,0.32371997833252003,-0.325730472803116,985.630981445313,1,1.0,2,2
17.64,-7.761348,-5.6646532999999994,1.0795095,0.234342038631439,0.09122218936681802,0.247945889830589,25.0951042175293,35.0138511657715,13.393585205078098,-0.47666788101196295,-0.225329875946045,-0.9041500687599179,985.6261596679691,1,1.0,2,2
17.68,-8.4783535,-5.9125133000000005,-1.1219919,0.29013556241989097,0.25687059760093695,-0.03195196390152,25.129150390625,35.098274230956996,13.614352226257301,-0.184465408325195,0.910417079925537,0.55656635761261,985.622680664063,1,1.0,2,2
17.72,-8.992218,-5.485906,-0.8331966000000001,0.691873490810394,0.38510164618492104,-0.259385585784912,24.4953079223633,35.822807312011705,11.8989925384521,1.22457122802734,0.48859405517578103,2.03970098495483,985.637451171875,1,1.0,2,2
17.76,-8.652889,-5.0306983,0.24861169,-0.22718235850334198,-0.13647805154323597,-0.04833010211587001,25.1309509277344,35.311576843261705,12.138893127441401,-0.063982963562012,-0.7860431671142579,-0.300012171268463,985.658569335937,1,1.0,2,2
17.8,-9.2026005,-5.7647476,0.42378142,-0.528118908405304,0.010661413893104,-0.049528367817402,24.7269668579102,35.1435699462891,12.9038333892822,1.50390148162842,1.02108430862427,-0.210425764322281,985.6681518554691,1,1.0,2,2
17.84,-8.036364,-5.071212999999999,2.6702529999999998,-0.6942996382713321,-0.137676581740379,0.282301366329193,25.0247993469238,35.1059150695801,13.629985809326199,-0.057869911193848,-0.49191761016845703,-2.6787512302398704,985.6812133789059,1,1.0,2,2
17.88,-8.320799000000001,-5.7123137,0.47348619,-0.26273447275161704,-0.264842480421066,0.375778406858444,25.7164993286133,34.857658386230504,14.2307815551758,-0.078850746154785,0.237731456756592,-0.032273665070534,985.6610717773441,1,1.0,2,2
17.92,-8.227628999999999,-5.271406,0.15627779999999997,0.192000210285187,0.281238168478012,0.16112792491912803,25.6594619750977,34.224925994873,14.045640945434599,-0.174138069152832,0.062865734100342,-0.7761404514312741,985.6779174804691,1,1.0,2,2
17.96,-8.404516000000001,-5.5645489999999995,-0.19170415,0.319832175970078,0.634506165981293,-0.143670454621315,25.0228424072266,34.3663902282715,13.9814968109131,0.31074333190917997,0.44108438491821295,0.42101556062698403,985.657958984375,1,1.0,2,2
18.0,-7.2932467,-4.444407,0.13970092,0.06323716044426,0.39162600040435797,-0.20585505664348602,24.417526245117198,35.2214584350586,14.7175998687744,-0.896203994750977,-0.7195029258728031,-1.33181440830231,985.6475219726559,1,1.0,2,2
18.04,-9.30558,-6.968298,-0.3905557,-0.005871464964002,-0.190141096711159,0.226642087101936,24.99169921875,34.179000854492195,14.305196762084998,0.35316276550292997,1.2784109115600601,0.363097369670868,985.5963745117191,1,1.0,2,2
18.08,-7.854945,-4.6350675,0.50661075,-0.298685431480408,-0.5585891604423521,-0.064840510487557,25.4627990722656,34.1460800170898,14.1575469970703,0.022004127502442003,-0.18080949783325198,-1.11421883106232,985.572143554688,1,1.0,2,2
18.12,-8.091581,-5.5502453,0.0994487,0.12475715577602399,0.022778341546655,-0.09027352929115301,24.864933013916,34.482292175293004,13.3831729888916,-0.6020145416259771,-0.0038056373596190005,0.398785710334778,985.572143554688,1,1.0,2,2
18.16,-9.43713,-5.6408095000000005,0.61549556,0.17948541045188895,-0.10798280686140099,0.166854605078697,25.37548828125,34.8020629882812,13.747694015502901,0.7324924468994141,0.5905690193176271,-0.898810267448425,985.5753784179691,1,1.0,2,2
18.2,-10.120678,-6.081715,-0.15621565,0.102120988070965,0.374980956315994,0.060062080621719,25.3736686706543,34.16845703125,13.400127410888699,1.67697620391846,0.7748475074768059,0.096609555184841,985.547241210938,1,1.0,2,2
18.24,-8.932934,-4.963956400000001,-0.78116035,0.082813434302807,0.572320997714996,0.104137510061264,24.8277015686035,34.2890129089355,14.016095161438,2.45688819885254,0.9320144653320309,1.74906980991364,985.5541381835941,1,1.0,2,2
18.28,-6.3733830000000005,-4.816192,-0.14201891,-0.457141667604446,0.827451586723328,0.65128368139267,25.25244140625,34.0539779663086,14.9651937484741,-2.53022336959839,-0.33076286315917997,-2.79458856582642,985.626220703125,1,1.0,2,2
18.32,-6.1917862999999995,-4.8376412,-1.3492955,0.30931577086448697,1.10828161239624,0.17551046609878498,25.192756652832,32.944084167480504,15.7321949005127,-2.9650430679321302,0.10137367248535199,0.718003690242767,985.6281127929691,1,1.0,2,2
18.36,-8.911531,-4.349068,0.54919755,0.24500083923339802,0.39069339632988,-0.001189984963276,24.967208862304698,34.049514770507805,16.241155624389602,0.33640289306640603,-0.36079549789428705,-1.1903338432312,985.64794921875,1,1.0,2,2
18.4,-7.891078,-4.5492625,-0.82615024,0.24500083923339802,0.39069339632988,-0.001189984963276,24.513557434082,34.2565689086914,16.7608528137207,0.14567756652832,-0.5032901763916021,-1.36235415935516,985.64794921875,1,1.0,2,2
18.44,-8.204191,-5.50734,-4.1591743999999995,0.11410692334175099,0.7929635047912601,-0.176292538642883,23.6135597229004,34.0458984375,16.9888515472412,-0.119452476501465,0.207405090332031,2.1906144618988,985.5949096679691,1,1.0,2,2
18.48,-6.818083000000001,-5.0235332999999995,-0.6864918000000001,0.213176757097244,1.55009949207306,-0.325296103954315,21.7460632324219,34.720001220703104,17.8530540466309,-1.15482187271118,-0.555252552032471,-0.9876533150672909,985.642456054688,1,1.0,2,2
18.52,-8.510168,-6.2390045999999995,-0.7267375,0.35752031207084706,1.0034861564636202,-0.553262293338776,20.6472282409668,35.903656005859396,17.7991542816162,-0.245529651641846,0.528090000152588,-1.50939357280731,985.6201782226559,1,1.0,2,2
18.56,-8.450614999999999,-5.7837934,-2.8075259999999997,0.34660172462463396,0.17111574113369,-0.54846853017807,19.262464523315398,36.9249038696289,17.7988166809082,2.03449249267578,0.273383617401123,0.34589982032775896,985.612182617188,1,1.0,2,2
18.6,-7.497087,-6.455877,-3.4111663999999995,0.34806677699089,0.679113268852234,-0.6367520689964289,18.6093769073486,37.262001037597706,17.186870574951197,-0.355930328369141,0.18250226974487302,0.9728159904479979,985.59130859375,1,1.0,2,2
18.64,-7.136253999999999,-5.9315543,-2.353031,0.09732865542173401,0.9193325042724609,-0.275624066591263,17.3837471008301,37.5366821289062,17.2826766967773,-0.071430206298828,0.271042346954346,0.614410400390625,985.59423828125,1,1.0,2,2
18.68,-7.573647500000001,-6.37246,-1.8109455,0.166571378707886,0.299082726240158,-0.41717073321342496,16.356164932251,37.7857666015625,17.888355255127,-0.18102598190307603,-0.095953464508057,-0.38368988037109397,985.6347045898441,1,1.0,2,2
18.72,-7.255832000000001,-6.019734,-0.9800613000000001,0.3874807953834529,-0.40505650639534,-0.37815523147583,16.310510635376,38.5335350036621,17.3127460479736,0.607526302337647,-0.40946102142334,-0.544519662857056,985.637329101563,1,1.0,2,2
18.76,-6.3835597,-7.1017413000000005,-1.6949601000000003,0.41983860731124895,-0.395735532045364,-0.60319197177887,15.380622863769501,38.7170753479004,16.290533065795902,-0.9235844612121579,0.667139530181885,-0.009670972824097,985.669677734375,1,1.0,2,2
18.8,-6.476808,-6.558353,-1.3540869,0.36178216338157604,-0.458319842815399,-0.575628101825714,14.8536033630371,38.5929412841797,15.378211975097699,0.130048751831055,-0.43895721435546897,-0.402778148651123,985.680053710938,1,1.0,2,2
18.84,-6.503139,-8.176599000000001,-1.5316308,0.39547148346900896,-0.05604976043105099,-0.72729480266571,14.1040725708008,39.577178955078104,14.8202457427979,-0.931400299072266,0.9548411369323729,-0.065887451171875,985.700927734375,1,1.0,2,2
18.88,-5.516151,-6.8824762999999995,0.3857992,0.581094443798065,-0.152189910411835,-1.04674053192139,10.588144302368198,41.080230712890604,12.6566219329834,-0.402954578399658,-0.8424530029296879,-1.29701364040375,985.7572631835941,1,1.0,2,2
18.92,-5.757573000000001,-7.900135499999999,-1.7565229,0.38561901450157204,-0.11423996835946999,-0.947537541389465,9.32585525512695,42.0055999755859,12.4120674133301,-0.10349178314209,0.46935415267944297,0.328685164451599,985.825805664063,1,1.0,2,2
18.96,-4.8159933,-8.200428,-0.8498880999999999,0.29014515876770003,0.21865481138229395,-1.05140066146851,7.49346923828125,41.6072387695313,11.870912551879899,-0.605682373046875,0.08670949935913098,-0.45230782032012895,985.789794921875,1,1.0,2,2
19.0,-5.0550256,-8.519786,-1.2570508,0.18401870131492604,-0.064838506281376,-0.906524538993835,5.43140411376953,43.04792785644529,11.7964324951172,-0.5745534896850589,0.47646617889404297,0.8360310196876529,985.8226928710941,1,1.0,2,2
19.04,-4.3524365,-8.638949,0.040172286,0.164711207151413,-0.322099715471268,-0.7669748663902279,4.19177913665772,42.6772232055664,12.1631145477295,-0.43892574310302707,-0.459378719329834,-1.85186219215393,985.8097534179691,1,1.0,2,2
19.08,-4.3118495999999995,-9.113221000000001,-1.1363312,0.18788108229637102,-0.090538136661053,-0.71530944108963,3.78432655334473,42.5601768493652,10.4621105194092,-1.28466129302979,1.27638339996338,1.9334032535552998,985.90771484375,1,1.0,2,2
19.12,-5.052761,-8.82961,0.5727852,0.25685727596283,-0.5282283425331121,-0.48441338539123496,2.73984146118164,42.266845703125,10.7941951751709,0.736974716186523,-0.120341300964355,-1.80021214485168,985.9403686523441,1,1.0,2,2
19.16,-3.9916862999999996,-8.801009,-0.83333683,0.08881237357854901,-0.075091935694218,-0.7507290244102479,1.60277462005615,42.4671401977539,9.72594356536865,-0.638531923294067,0.46311759948730497,0.49587458372116106,986.0835571289059,1,1.0,2,2
19.2,-3.7144995,-8.462583,-0.66526926,-0.005329873878509,0.224113896489143,-0.5620440840721129,0.542962074279785,43.265419006347706,10.458420753479,-0.280080556869507,-0.345823287963867,-0.223831862211227,986.001586914063,1,1.0,2,2
19.24,-4.0539074,-8.53408,-0.22734067,-0.15686321258544902,0.10347272455692301,-0.721167623996735,-0.945502281188965,42.8196868896484,10.944822311401401,0.048549652099609,-0.549687385559082,-0.48493948578834495,985.863403320312,1,1.0,2,2
19.28,-2.8589985,-8.941619000000001,-1.0795374,-0.06564961373806,0.192954808473587,-0.9087870121002201,-2.31632423400879,42.853767395019496,9.92231750488281,-0.9503581523895259,-0.29361820220947304,0.128484010696411,985.8147583007809,1,1.0,2,2
19.32,-4.068331,-9.377759,-0.96354824,0.013313445262611,0.160197898745537,-0.8042579293251041,-4.00449657440186,42.326240539550795,10.6752328872681,0.895957231521606,-0.064805030822754,0.233680486679077,985.8859252929691,1,1.0,2,2
19.36,-3.15543,-9.418273,-0.20131296,-0.031959850341082,0.036227777600287996,-0.8133123517036441,-5.68796586990356,41.909049987793004,10.497154235839801,0.077244520187378,0.161486625671387,-0.315585166215897,986.0219116210941,1,1.0,2,2
19.4,-3.4661589,-8.817686,-0.44277138,-0.06711313873529401,-0.09546549618244199,-0.5888080000877379,-6.3964095115661594,42.1410980224609,10.7467136383057,0.5013854503631591,0.46659183502197293,-0.77662318944931,986.1193237304691,1,1.0,2,2
19.44,-3.3395362,-10.135637,-0.8357308000000001,-0.076566964387894,0.017585538327693998,-0.229015097022057,-7.06457710266113,42.5693817138672,10.208740234375,0.731306552886963,1.0695266723632801,0.07587790489196801,985.998901367188,1,1.0,2,2
19.48,-3.332408,-9.344388,-0.24630126,0.080027185380459,-0.09533246606588401,-0.251119136810303,-7.46331119537354,42.1434211730957,10.1411399841309,0.585467576980591,0.282632827758789,-0.283726096153259,985.9548950195309,1,1.0,2,2
19.52,-3.1290874,-9.339625,0.39759415,0.257926613092422,-0.510119557380676,-0.039930462837219,-7.098083972930911,42.116668701171896,10.08642578125,0.13250708580017098,-0.19727611541748102,-0.7442049980163571,985.942016601562,1,1.0,2,2
19.56,-3.045249,-9.320564,-0.3433226,0.14074695110320998,-0.235281407833099,0.171790391206741,-6.928540229797361,42.3808364868164,9.96785736083984,-0.07549238204956099,-0.6727142333984379,-0.05143061280250599,985.942016601562,1,1.0,2,2
19.6,-3.5543222,-9.546975,-0.059260525,0.030886830762029003,-0.016500938683748002,0.14449347555637398,-6.96533536911011,42.925605773925795,10.3265724182129,0.9315965175628659,0.62043571472168,-0.282214254140854,986.0393676757809,1,1.0,2,2
19.64,-2.6581333,-9.566041,-0.28888133,0.10971657186746601,-0.033278875052929,-0.04019647836685201,-7.09724235534668,42.3805160522461,10.609747886657699,-0.166590452194214,0.015867233276367,-0.561433911323547,985.68212890625,1,1.0,2,2
19.68,-2.7537534,-9.067935,-0.28178194,0.27709633111953696,0.245154336094856,-0.047120593488216,-6.71777486801147,41.9987335205078,9.95773792266846,-0.32020664215087896,-0.225481033325195,0.311566650867462,985.66455078125,1,1.0,2,2
19.72,-3.3584227999999996,-9.799602,0.123007424,0.158452853560448,0.158335328102112,-0.047786280512809996,-6.5511369705200195,42.365875244140604,9.29470252990723,0.35218644142150896,-0.115859031677246,-0.572292149066925,985.7554321289059,1,1.0,2,2
19.76,-2.5912883,-8.307668,-0.49246734,0.28402099013328497,0.397353768348694,-0.13180884718895,-6.98834943771362,41.956993103027294,8.539173126220701,0.159581422805786,0.834821701049805,-0.09800171852111801,985.6669311523441,1,1.0,2,2
19.8,-3.4851356,-10.207141,-0.7836354999999999,0.17376646399498,0.5655322670936579,0.229049265384674,-7.59230375289917,42.28731536865239,8.0740213394165,0.9177045822143559,0.731598854064941,0.641970098018646,985.697631835938,1,1.0,2,2
