Timestamp,Ax,Ay,Az,Gx,Gy,Gz,Mx,My,Mz,LiAx,LiAy,LiAz,P,Value,Type,GroupType,Activities
0.0,0.041571736,-0.1582554,9.77385,-0.0009274134,0.0007372648700000001,-0.0005315756400000001,-6.523123,23.948335999999998,-36.84583,-0.018534131000000002,-0.028663397,0.036727905,989.9262,0,13.0,1,1
0.04,0.0439274,-0.14633816,9.764378,-0.0009274134,0.0007372648700000001,-0.0005315756400000001,-7.0195229999999995,24.800188000000002,-36.357277,0.0049092397,-0.03798479,0.04147148,989.9262,0,13.0,1,1
0.08,0.055842697999999996,-0.15110388,9.778578999999999,0.00027133798,0.001403001,-0.0005314343,-6.6657906,24.499277,-36.394172999999995,-0.0379978,-0.037957847,0.022535324,989.99677,0,13.0,1,1
0.12,0.046248853,-0.15348634,9.773841000000001,-0.00026096386000000005,0.00020452599999999999,0.00013449683,-6.673561,23.965694,-37.1316,-0.0045435987,-0.037508488,0.036750793,990.0225,0,13.0,1,1
0.16,0.055774182,-0.16063535,9.773839,0.000671472,-6.184349e-05,-0.0005311514,-6.9338945999999995,23.616512,-36.994064,-0.02795928,-0.022935256,0.017820358,990.0077,0,13.0,1,1
0.2,0.039010704,-0.1582512,9.764366,-0.00012714596000000002,-0.00032821292,-0.0010636419,-6.7755485,24.238657,-36.66995,-0.0044660605,-0.027757451000000002,0.050964355,990.018,0,13.0,1,1
0.24,0.04136634,-0.16063365,9.778564999999999,-0.00025997375,0.0012696288000000001,-0.00053086865,-6.694187599999999,23.6827,-36.649956,-0.0093163885,-0.041891962000000005,0.041503906,989.9901,0,13.0,1,1
0.28,0.043721974000000004,-0.16539934,9.764358999999999,6.6721695e-06,0.0006037855000000001,0.0002682205,-6.336433,23.754501,-37.017223,-0.009035993,-0.008427799,0.0509758,990.0027,0,13.0,1,1
0.32,0.048467517,-0.1558654,9.773826,0.00027331797,-0.00046153154,2.0461157e-06,-6.231241000000001,24.010704,-36.509537,-0.023702536,-0.03194949,0.036782265,989.99286,0,13.0,1,1
0.36,0.043653548,-0.1415649,9.769088,7.332128e-06,0.0006036784,0.00066797715,-6.712176299999999,23.876856,-37.120453000000005,-0.01874242,-0.03632526,0.022590637,990.0454,0,13.0,1,1
0.4,0.050789,-0.15586370000000002,9.769084,-0.00012549589,-6.216489999999999e-05,2.3288885e-06,-6.782478,23.96892,-36.88405,-0.0186892,-0.026850536,0.041528699999999995,990.0027,0,13.0,1,1
0.44,0.038805217,-0.15109631,9.769082000000001,0.00027430807999999997,0.00020409741999999998,2.4703622e-06,-6.8657960000000005,23.78535,-36.552532,0.0049985459999999995,-0.03155078,0.051002502000000005,990.0129400000001,0,13.0,1,1
0.48,0.053661287,-0.14872572,9.766761,8.322124e-06,0.0008698336,-0.00039686212999999996,-6.867317999999999,23.783876,-36.475227000000004,-0.023557402,-0.036188662,0.027335167,990.018,0,13.0,1,1
0.52,0.061380982,-0.15112245,9.771546,-0.0001245059,-0.00019548352999999998,-0.00039672062999999996,-7.120286,24.442486,-36.3978,-0.034184333,-0.03116244,0.022504807,990.0003,0,13.0,1,1
0.56,0.05661133,-0.15827253,9.778647,0.00013411493,7.208155e-05,-0.0006663344,-6.9139485,24.16188,-36.875084,-0.019543203999999998,-0.031050682000000003,0.046177864000000006,990.0054,0,13.0,1,1
0.6,0.049451800000000004,-0.13444003,9.754977,-0.0006675520599999999,-0.00059326674,-1.7101702e-06,-6.706226299999999,23.77683,-36.73059,-0.01916486,-0.05475934,0.06511402,990.0081,0,13.0,1,1
0.64,0.0494619,-0.14874002,9.762080000000001,-0.0005344921400000001,-0.00059325085,0.00039772167999999996,-6.984547999999999,23.621805,-37.063553000000006,-0.019024983,-0.021573752,0.03670311,990.0207,0,13.0,1,1
0.68,0.056641817000000004,-0.16065666,9.776284,0.00013119978,-6.060313e-05,0.0005308377,-6.856802,23.688270000000003,-36.317284,-0.023740273,-0.02598457,0.02250576,990.0383,0,13.0,1,1
0.72,0.04470241,-0.13205752,9.78102,-0.0001352139,0.00033888654,0.00039763784,-6.6623410000000005,24.028017000000002,-35.751259999999995,-0.009349074,-0.044881865,0.03671074,990.0208,0,13.0,1,1
0.76,0.051882297,-0.15350726,9.771552,-0.0001353118,-6.0571409999999995e-05,0.00053075387,-6.626089,23.851536,-36.208420000000004,-4.131347e-06,-0.030663684,0.04144478,990.01825,0,13.0,1,1
0.8,0.044722736,-0.15112424,9.764451,-0.0005348833999999999,0.0004720763,0.00026439602000000005,-7.112814,24.343931,-36.08525,-0.009629484,-0.01640886,0.036706924,990.0031,0,13.0,1,1
0.84,0.047122805999999996,-0.15112448,9.778655,0.00026386854,-0.0004599975700000001,0.0003974701,-6.558801700000001,24.96879,-37.361946,-0.004632052,-0.030232236000000003,0.031980515,990.0034,0,13.0,1,1
0.88,0.051912755,-0.15350798,9.773922,0.00026386854,-0.0004599975700000001,0.0003974701,-6.558801700000001,24.96879,-37.361946,-0.02793729,-0.034928247,0.036712646,990.0034,0,13.0,1,1
0.92,0.05909258,-0.15589151,9.785758999999999,-0.00013570306999999998,-0.0012589294000000001,-0.0002683615,-6.4709477,23.944517,-36.853645,-0.0087545775,-0.02072744,0.027241707,990.0107,0,13.0,1,1
0.96,0.054322958,-0.14874189999999998,9.781025,-0.0005352748,7.266594e-05,-2.0875596e-06,-6.715762599999999,24.242199,-37.064293,-0.017869469,-0.030412078,0.046175003,990.0310699999999,0,13.0,1,1
1.0,0.051943183,-0.14635894,9.762088,-0.00040231254999999996,-6.0460246e-05,-0.0001353294,-6.409778,23.843615,-36.626213,-0.017761678,-0.044446692,0.046177864000000006,990.0054,0,13.0,1,1
1.04,0.042393744000000004,-0.15827563,9.778661,-0.00040231254999999996,-6.0460246e-05,-0.0001353294,-6.409778,23.843615,-36.626213,-0.008198455,-0.015882984,0.008300781,990.0054,0,13.0,1,1
1.08,0.047183692,-0.14397618,9.771559,0.00026337936,0.00020587156000000003,0.00013094457,-6.912425999999999,24.163351000000002,-36.95239,-0.017351177,-0.053836062999999997,0.041441917,990.0263,0,13.0,1,1
1.12,0.05197367,-0.15589282,9.766826,-0.00013619225,-0.0008593760400000001,-0.00013541323,-6.860251,24.159533,-36.960205,-0.007522639,-0.029865757000000003,0.05091095,990.0336,0,13.0,1,1
1.16,0.04959386599999999,-0.15350977,9.764461,-0.00013629027,-0.0004598864,0.00013086072,-6.1760215999999994,24.009829,-36.67196,-0.0076240674,-0.020540372,0.05090618,990.0285,0,13.0,1,1
1.2,0.04960406,-0.13921031,9.764461,-0.0008021775,0.00047223503,-2.339133e-06,-6.726417,24.23189,-36.523154999999996,-0.0076811463,-0.039348528,0.04617691,990.0059,0,13.0,1,1
1.24,0.047224313,-0.14397714,9.783399000000001,0.00012982992,0.00020593509999999998,-0.00026869695,-6.9531064,24.441332,-36.962387,-0.02174823,-0.043693706,0.01777649,990.0004,0,13.0,1,1
1.28,0.05201423,-0.15351048,9.773931,0.000765717,-0.0005458047,-0.00015991443,-7.090963400000001,23.996264,-37.06907,-0.021426197,-0.028875828,0.027253151,990.0231,0,13.0,1,1
1.32,0.049634516,-0.14397761,9.769198,0.0008987769,-0.00054578873,0.0007721491999999999,-6.4164085,24.206015,-36.415442999999996,-0.0070886128000000005,-0.037984744,0.041462900000000004,990.0184300000001,0,13.0,1,1
1.36,0.054424465,-0.15589425,9.769198,9.973148999999999e-05,0.000120016826,-2.6840367e-05,-7.057893300000001,23.71092,-36.672546000000004,-0.011775911000000002,-0.018841073,0.05566597,989.9859,0,13.0,1,1
1.4,0.04009521,-0.13444501,9.762097,9.963370399999999e-05,0.0001200327,-0.0005595141,-6.769897,23.506495,-36.704964000000004,-0.0017161257999999998,-0.042173058,0.046204567,990.0359,0,13.0,1,1
1.44,0.05444473,-0.15112826,9.773933999999999,0.0007653255,-0.0013446888,-0.00016008213,-6.7618504,24.251913000000002,-37.365691999999996,-0.03463615,-0.022660702,0.017803192,989.9936,0,13.0,1,1
1.48,0.04728505,-0.14636195,9.776303,0.0007652275999999999,-0.0009451991,-2.6966154e-05,-6.901772500000001,24.173662,-37.493522999999996,-0.005786903,-0.031818748,0.041480064,990.0285,0,13.0,1,1
1.52,0.044905305,-0.15351203,9.769202,0.00036565644999999995,-0.00027939357,0.0007719397500000001,-6.646142500000001,24.412512,-36.700066,-0.015529528,-0.022266611000000002,0.036744118,990.0308,0,13.0,1,1
1.56,0.04252553,-0.14874569,9.771571,-0.0005665461,0.0006527278,0.00023926649,-6.632582000000001,24.319853,-36.69673,0.0036330259999999997,-0.01716803,0.05095291,990.0333,0,13.0,1,1
1.6,0.049705386,-0.14874592,9.755,0.00049861986,-0.00027936196,-0.00055972295,-6.858186,23.792710999999997,-36.93906,-0.005706504,-0.030553742999999998,0.06043625,990.0029,0,13.0,1,1
1.64,0.052105427,-0.16304585,9.776307000000001,0.0015637856,-0.00014618813,-0.00042660697,-6.9576725999999995,24.436914,-36.730470000000004,-0.024492495,-0.01629524,0.022558212,990.0031,0,13.0,1,1
1.68,0.05211559,-0.16542938,9.778674,9.895046e-05,-0.0012114359,0.00010598288000000001,-6.8491919999999995,23.695635,-36.70381,-0.0052975602,-0.011375426999999999,0.027295113,990.0057,0,13.0,1,1
1.72,0.06168532400000001,-0.15827978,9.773941,0.00036516843999999995,0.00012015948999999999,0.0003722568,-6.5177154999999996,24.216604,-36.55442,-0.03324392,-0.0108141005,0.017830849,990.01825,0,13.0,1,1
1.76,0.049745977000000004,-0.12491411,9.773942,0.0007645445,-0.00081193016,-0.0005598905999999999,-6.9474545,23.70917,-36.9974,-0.014139193999999999,-0.05348997,0.032039642,990.0361,0,13.0,1,1
1.8,0.047366202,-0.15113041,9.759739999999999,0.0004981308999999999,-0.0002792826,-0.00016045873,-6.731281299999999,23.595335000000002,-36.71611,-0.00915046,-0.029612094,0.04624176,990.0031,0,13.0,1,1
1.84,0.05454606,-0.14874747,9.776311,-0.00043407257,-0.0005455825599999999,-0.00016050064,-6.817069500000001,24.252786999999998,-37.20327,-0.028326176,-0.024524316,0.022573471,990.0208,0,13.0,1,1
1.88,0.05455622,-0.14874771,9.773945,0.0004979352,0.00065285474,-0.0002937005,-6.727258,23.968042,-37.046479999999995,-0.018597644,-0.02908966,0.041514397,989.9982,0,13.0,1,1
1.92,0.054566354000000004,-0.16066435,9.757375,9.836372999999999e-05,-0.00054555084,-2.7426518e-05,-7.003353999999999,23.972417999999998,-36.234344,-0.003786929,-0.019397616,0.06991958599999999,990.0004,0,13.0,1,1
1.96,0.05218661,-0.16066459,9.764478,9.826594e-05,-0.0005455349500000001,-0.00016062637,-6.945091199999999,23.974487,-36.55138,-0.003968835,-0.009668781999999999,0.055719375999999994,989.99554,0,13.0,1,1
2.0,0.047416955,-0.15113172,9.773947999999999,0.00023132586,-1.2887285e-05,0.00050512137,-6.592880999999999,23.67211,-36.510979999999996,-0.017822586,-0.0188981,0.022581099999999996,990.0031,0,13.0,1,1
2.04,0.04981702599999999,-0.14398208,9.771582,0.0008969201,-0.00041232940000000004,0.0006381955,-6.619320399999999,23.595053,-37.11827,-0.0031175129999999997,-0.032681316,0.05099392,990.00824,0,13.0,1,1
2.08,0.06416654599999999,-0.15828201,9.783418,0.0008969201,-0.00041232940000000004,0.0006381955,-6.619320399999999,23.595053,-37.11827,-0.02207033,-0.017994046,0.032063483999999996,990.00824,0,13.0,1,1
2.12,0.04983729,-0.13921604,9.769217,0.0004973486,-0.0002791556,-0.000160794,-7.2195279999999995,24.086256,-36.515633,0.006657891,-0.032024086,0.055737495,990.0056,0,13.0,1,1
2.16,0.040287822,-0.14874938,9.776319,9.777688e-05,-0.00014598176000000002,0.0005049537000000001,-6.938024,24.350145,-37.036358,0.006976817,-0.031474918,0.027338982,990.0129400000001,0,13.0,1,1
2.2,0.049857587,-0.15828273,9.762116,0.0008965289500000001,0.00025352382,0.00037171197,-6.830384700000001,23.34502,-37.53302,0.0021052286,-0.016569376,0.046286583,990.0129400000001,0,13.0,1,1
2.24,0.04986775,-0.15828308,9.7786875,0.0008965289500000001,0.00025352382,0.00037171197,-6.830384700000001,23.34502,-37.53302,-0.026500229,-0.02152124,0.013141632,990.0129400000001,0,13.0,1,1
2.28,0.049877852,-0.13921708,9.776321000000001,-0.00043514825,-1.27762105e-05,-0.00029411959,-6.763373,24.25044,-37.288387,-0.021103386000000002,-0.021617636000000003,0.046277045999999995,990.0132,0,13.0,1,1
2.32,0.0451082,-0.13206753,9.773955,-0.00030208797999999997,-0.0012111819,0.0003716282,-7.007783,24.073915,-36.701508000000004,0.01712881,-0.0497514,0.046284676,990.0004,0,13.0,1,1
2.36,0.05706781,-0.14398411,9.752652000000001,0.00023034808999999998,-0.00041220237999999997,-0.0002942453,-7.140339999999999,25.003458,-36.88944,-0.025521051,-0.03504777,0.055755615,990.0359,0,13.0,1,1
2.4,0.052298248,-0.16543388,9.773957000000001,0.0004965662999999999,-0.00054534443,0.00023834451,-7.4296136,24.205986,-37.10614,-0.0018263087,-0.0112481415,0.051020622,990.04846,0,13.0,1,1
2.44,0.04949683,-0.15350738,9.769185,0.0004965662999999999,-0.00054534443,0.00023834451,-7.4296136,24.205986,-37.10614,-0.021097578,-0.015898183,0.036821365,990.04846,0,13.0,1,1
2.48,0.053839505,-0.14634684,9.766777000000001,0.00023015263,0.0018515143,-0.00029432913,-7.134688000000001,24.2713,-36.924454,-0.015373137,-0.025338218,0.046369553,990.0205,0,13.0,1,1
2.52,0.053815365,-0.14872950000000001,9.776244,-0.00016428775,-0.00027982984,-0.00029217196,-7.242082000000001,24.275993,-36.75421,-0.0011303052000000001,-0.029857903999999998,0.055844307,990.0104,0,13.0,1,1
2.56,0.044231652999999996,-0.15826204,9.769141000000001,0.0001052774,0.00011911653,0.00024185240000000003,-6.792014599999999,24.434286,-37.21775,-0.00076301023,-0.015326023000000001,0.051115035999999996,990.0056,0,13.0,1,1
2.6,0.041817605,-0.14872834,9.771504,0.00023866758999999997,-0.00041355292000000004,0.00010879396000000001,-6.6032595999999995,23.873632,-37.367996000000005,-0.005112581,-0.020232767,0.03217697,990.0231,0,13.0,1,1
2.64,0.05374306400000001,-0.15349427,9.764401,0.0007717641,-0.0001473125,0.0009079407000000001,-6.625408599999999,23.589164999999998,-36.80905,0.0049142316,-0.019689858,0.065327644,990.0155,0,13.0,1,1
2.68,0.05849877,-0.15826026,9.7620325,0.0007717641,-0.0001473125,0.0009079407000000001,-6.625408599999999,23.589164999999998,-36.80905,-0.009114824,-0.0051972120000000005,0.055861472999999995,990.0155,0,13.0,1,1
2.72,0.053694844000000005,-0.1415767,9.762030000000001,0.0010385446,-1.4230034e-05,-0.00029028155,-6.7824774,23.968916,-36.884052000000004,-0.028049484,-0.028228715,0.041675567999999996,990.01044,0,13.0,1,1
2.76,0.04650104,-0.14395937,9.754926,0.0010385446,-1.4230034e-05,-0.00029028155,-6.825521000000001,23.981576999999998,-37.340065,-0.008738525,-0.032748416,0.03221321,990.01044,0,13.0,1,1
2.8,0.053646654,-0.13680896,9.776228999999999,0.00013131776000000002,-0.0007552503,-0.00029453973,-6.5451345000000005,23.769787,-36.985954,0.005512911999999999,-0.041941404,0.05115795,990.0155,0,13.0,1,1
2.84,0.04884273,-0.15110806,9.773859,0.00079733995,0.0008426073,0.00010503360000000001,-6.758944500000001,24.148943,-36.821228000000005,-0.0041907392,-0.018217877,0.022751808,990.0104,0,13.0,1,1
2.88,0.053598404,-0.15587401,9.785692999999998,-0.00026769133,0.00070941163,-0.00016118278,-6.879899000000001,24.2463,-36.654315999999994,-0.008855108,-0.013576626999999999,0.032221794,990.0077,0,13.0,1,1
2.92,0.05596423,-0.15587342,9.776223,-0.0005337751,-0.00022273172000000002,-0.00042739918,-7.032402,24.630472,-36.961234999999995,-0.0040239245000000005,-0.01815249,0.05116272,990.03577,0,13.0,1,1
2.96,0.048770428,-0.14157316,9.769117,-9.108335e-07,-0.00035592727,0.0009042799,-6.758402,23.780653,-36.722775,-0.008661486,-0.027535409,0.03223133,990.0204,0,13.0,1,1
3.0,0.041576624,-0.14157256,9.764381,0.0005319532,-8.9649184e-05,0.0011706954,-7.301186599999999,24.010077,-36.9605,-0.008088811999999999,-0.027700692000000002,0.027493477000000002,990.0281,0,13.0,1,1
3.04,0.05828178,-0.16063821,9.78095,-0.00079939386,-0.0008886347599999999,-0.0005602582,-7.0418324000000005,23.989498,-36.922276000000004,0.006168335699999999,0.0058923809999999995,0.04643917,990.0255,0,13.0,1,1
3.08,0.053477943,-0.14872119,9.771478,0.0005324178,0.00070922304,-0.0005601588,-6.9413667000000006,23.715063,-37.306618,-0.017398361,-0.022595808,0.03223896,990.0098,0,13.0,1,1
3.12,0.048673987,-0.15348718,9.783313,-0.00053261337,-0.0007555519999999999,-0.00056005915,-7.185341,24.276594,-36.993946,0.0062750243,-0.017675355,0.051178932,990.0179400000001,0,13.0,1,1
3.16,0.048649907,-0.15348658,9.766739999999999,0.00013340858,0.00044283171999999997,-2.7327914999999997e-05,-6.954628,24.43986,-36.885082000000004,-0.012383286,-0.02719459,0.04171276,990.0204,0,13.0,1,1
3.2,0.051015705,-0.15586928,9.778573,-0.00039899080999999996,-0.0010219434,0.00037224556000000004,-6.8006034,24.057157999999998,-36.655464,0.0065229908,-0.02240996,0.04645157,990.01526,0,13.0,1,1
3.24,0.041432023,-0.1511021,9.780938,7.1537215e-07,0.00030959834,0.00023918727000000003,-6.592583,24.304247,-36.086104999999996,-0.0032931156,-0.02699545,0.0133161545,989.995,0,13.0,1,1
3.28,0.050967515,-0.15825137,9.773835,0.00040042144,0.0011085083000000001,0.0005056027,-7.09273,24.995217999999998,-36.665344,0.0012107305,-0.013116448999999999,0.046452522,990.02,0,13.0,1,1
3.32,0.058113099999999994,-0.15825078,9.76673,-0.0011972414,0.00070899684,-0.00029324536,-7.0518054999999995,23.716812,-36.981766,-0.027426139,-0.013090893999999999,0.022784232999999997,990.0426,0,13.0,1,1
3.36,0.041359692999999996,-0.14395049,9.759627,-0.00026490376,0.00017632726,-2.6830065e-05,-6.7788906,23.603575,-36.940212,0.0060216932999999995,-0.027473211,0.046456337,990.0047599999999,0,13.0,1,1
3.4,0.055675,-0.15348299999999998,9.7690935,-0.00026467128,0.00044260546999999996,-0.00015988847,-6.7769322,24.3431,-37.29172,-0.022625483999999998,-0.017828122,0.022788047999999998,990.01465,0,13.0,1,1
3.44,0.05326101,-0.1439493,9.766725,2.1092127999999995e-06,-9.010171999999999e-05,-0.00015968917,-6.9268274000000005,23.992163,-37.479042,-0.0033188462,-0.008123591999999999,0.060668945,990.0199,0,13.0,1,1
3.48,0.050846934,-0.14871529,9.766722999999999,2.1092127999999995e-06,-9.010171999999999e-05,-0.00015968917,-6.9268274000000005,23.992163,-37.479042,-0.008072536,-0.022468641,0.065402985,990.0199,0,13.0,1,1
3.52,0.048433005999999994,-0.1534813,9.766721,-0.0006634481,-9.013947e-05,0.0007725159,-7.162106,23.824479999999998,-37.355995,0.006855447,-0.017817244,0.046463965999999995,990.03265,0,13.0,1,1
3.56,0.050798804,-0.15348074,9.759616000000001,-0.0006632159,-0.0015549145,0.0006394575,-6.7372312999999995,23.695356,-37.105971999999994,-0.017050397,-0.013298913999999998,0.04646206,990.03,0,13.0,1,1
3.6,0.048384786,-0.1558634,9.773817999999999,-0.0002635097,0.000176101,0.00077271496,-6.987156,24.356913,-37.18315,-0.0021168515,-0.008036062,0.013328551999999999,990.0222,0,13.0,1,1
3.64,0.06270009,-0.15109625,9.783284,0.0005359027,4.2867643e-05,0.0007729141499999999,-6.835494500000001,23.708893,-37.399555,-0.016481776,-0.0125015825,0.02754116,990.0400400000001,0,13.0,1,1
3.68,0.048336565,-0.14632908,9.780914,0.0005359027,4.2867643e-05,0.0007729141499999999,-6.835494500000001,23.708893,-37.399555,0.0025870278,-0.007448375,0.04175186,990.0400400000001,0,13.0,1,1
3.72,0.045922577,-0.12487899999999999,9.759608,0.000136661,0.00070861966,-0.0010911974,-6.520079,23.951284,-37.000440000000005,0.012308318,-0.054911762,0.06069374,990.0476,0,13.0,1,1
3.76,0.033948958,-0.15347776,9.769074,-0.0003957383,-0.00062299747,0.00010732360500000001,-6.8411455000000005,24.441053,-37.364540000000005,0.0076181777,-0.0073515326,0.04648971599999999,990.0350300000001,0,13.0,1,1
3.8,0.048264265,-0.15109387,9.7548685,-0.0002623482,0.00017591244,-0.00015889283,-6.849597500000001,24.169842000000003,-37.50134,-0.016316194,-0.026390359,0.037024497999999996,990.0299,0,13.0,1,1
3.84,0.06496948,-0.15347657,9.776172,-0.00012872553999999998,-0.0008894265,0.0002407801,-6.4943433,23.870409,-37.615547,-0.015784766999999998,-0.016971782,0.027554512000000003,990.0324,0,13.0,1,1
3.88,0.05299586,-0.14870942,9.780904,-0.00012872553999999998,-0.0008894265,0.0002407801,-6.4943433,23.870409,-37.615547,-0.0058879927000000006,-0.026166558,0.037028313,990.0324,0,13.0,1,1
3.92,0.050581872,-0.14632553,9.776167,4.664529e-06,-0.0010226223,0.00024087974,-6.175341,23.747457999999998,-37.27259,-0.005570531,-0.026060387,0.041766167,989.98914,0,13.0,1,1
3.96,0.036218345,-0.14632496,9.77143,-0.00039434468,0.0008415135699999999,0.0005073948,-6.9554696,24.176012,-37.4084,0.018039826000000002,-0.03542839,0.041772842000000004,990.02484,0,13.0,1,1
4.0,0.057703345999999996,-0.15347418,9.773795,-0.00039434468,0.0008415135699999999,0.0005073948,-6.9554696,24.176012,-37.4084,-0.015428953,-0.021229117999999998,0.022835732,990.02484,0,13.0,1,1
4.04,0.05289945,-0.16300672,9.771426,-0.00026072212,-0.0004901412999999999,-0.00055766973,-6.922399499999999,23.890667,-37.01188,-0.0056202746999999996,0.007466048,0.04177761,990.0097,0,13.0,1,1
4.08,0.055265307,-0.1391733,9.766689,-0.00026072212,-0.0004901412999999999,-0.00055766973,-6.922399499999999,23.890667,-37.01188,0.0037165955,-0.025669992000000003,0.051252365,990.0097,0,13.0,1,1
4.12,0.045681535999999995,-0.14870587,9.766686,0.0006716158,0.0007082425,0.0006408512000000001,-6.741659599999999,23.796854,-37.57313,-0.000820823,-0.020864666,0.046521187,989.9942599999999,0,13.0,1,1
4.16,0.055217087000000005,-0.14870527,9.761950500000001,-0.00039341534,-0.00049021665,-0.00015799671999999998,-6.9741387,24.632544,-37.278267,-0.009992056,-0.020349428,0.060733795,990.0121,0,13.0,1,1
4.2,0.051225572999999996,-0.15587443,9.773858,0.0008052383999999999,-0.0004902544,0.00037473462999999997,-7.0930285,24.363083,-37.090214,-0.019705392,-0.0060325265000000005,0.013391495,989.9993,0,13.0,1,1
4.24,0.059211254000000005,-0.15351120000000001,9.778667,0.00040599692,0.00017549759999999998,0.00037483417,-7.084875599999999,24.002157,-37.37829,-0.016632613,-0.0012161136,0.027446747,990.0296599999999,0,13.0,1,1
4.28,0.05683422,-0.1630446,9.766833,-0.00027135632,0.0003105328,-0.00042906932999999995,-6.619320399999999,23.595053,-37.11827,-0.016576491000000002,-0.0060638785,0.027443886,990.04486,0,13.0,1,1
4.32,0.044897497,-0.16542819,9.769202,-0.00011099383,0.0002571532,0.0006574588,-7.0544139999999995,24.451921,-37.101364000000004,-0.0069716796,-0.0008615106300000001,0.027449607999999997,990.0298,0,13.0,1,1
4.36,0.042520404000000005,-0.14874557,9.759734,0.00042151440000000003,-0.00014230062,-0.00040785775999999997,-6.584590400000001,23.4171,-37.498129999999996,0.0074465684999999995,-0.019613147,0.07006264,990.01984,0,13.0,1,1
4.4,0.05209279,-0.1463626,9.773938000000001,0.0008208649,-0.00014228049999999998,0.000524195,-6.867723,24.258081,-37.27276,-0.011462058999999998,-0.0054016409999999996,0.01798153,990.0071,0,13.0,1,1
4.44,0.04732579,-0.15351275,9.783408,0.00028810967,-0.001074366,0.0007904580599999999,-6.6328807,23.687716,-37.121604999999995,-0.0020086057,-0.019227862,0.03692627,990.01965,0,13.0,1,1
4.48,0.049728512999999995,-0.15827966,9.766839,0.0005543021,0.0006567072,0.0005240892,-7.222434,24.189226,-37.0601,-0.011630133,6.0543418e-05,0.022725105,990.0044,0,13.0,1,1
4.52,0.042571604000000006,-0.13921371,9.762105,0.00015470482,0.00039041133,-8.595467e-06,-6.861092,23.895685,-37.483523999999996,0.007541448,-0.018949926000000002,0.04639721,990.0273,0,13.0,1,1
4.56,0.05453396,-0.15351370000000003,9.766841000000001,2.1423474999999997e-05,-0.00027535832000000004,0.00039082547,-7.165149700000001,23.821531,-37.20138,0.00225221,-0.018834919,0.06060314,990.02484,0,13.0,1,1
4.6,0.049766988,-0.16304716,9.764476,0.00028761596000000003,0.0015888729000000002,0.00025761462000000005,-7.451219999999999,23.553228,-36.44874,-0.016693398,-0.0045203716,0.03692913,990.0172,0,13.0,1,1
4.64,0.05455959,-0.14874777,9.77868,-0.00011198149999999999,-0.00080795,0.0006570355,-6.815005,23.885970999999998,-37.18212,-0.016853653,-0.013688475,0.032201767,990.00726,0,13.0,1,1
4.68,0.05696228,-0.14159822,9.771579,0.0005536849,0.00039049150000000003,-0.00014196498999999999,-6.930851,23.619457,-37.148678000000004,-0.021625452000000003,-0.018158793,0.022735596,989.99677,0,13.0,1,1
4.72,0.047415465,-0.15351495,9.771581,-0.00024538624,-0.00027527817000000003,-0.0005414917,-6.474833,23.677725,-37.222359999999995,-0.0027072318,-0.013323367,0.027470589,989.99677,0,13.0,1,1
4.76,0.049818188,-0.15589851,9.76448,0.0006865959,0.00079000543,-0.00014207081,-6.9965863,23.715937,-37.14419,0.0019291975,-0.008635700000000001,0.027468681000000002,990.0222,0,13.0,1,1
4.8,0.035491556,-0.15589887,9.766849,2.0682608e-05,0.0005237096,-0.00027528178,-7.1211275999999994,24.178637,-36.921124,-0.0031284802000000004,-0.013281896999999999,0.027470589,990.0452,0,13.0,1,1
4.84,0.054623604000000006,-0.14636603,9.7692175,2.0435808e-05,0.0003905917,-0.00014222955,-6.442848000000001,24.12896,-37.022736,-0.0224386,-0.013213947,0.02273655,990.00464,0,13.0,1,1
4.88,0.045076847,-0.15589944,9.76685,-0.00011284565,-0.00027517793999999997,-0.0005417563,-6.634402799999999,23.686241,-37.044296,-0.01298495,0.0011911392,0.036940575,990.0174,0,13.0,1,1
4.92,0.040309846,-0.15113324,9.755015,-0.00011284565,-0.00027517793999999997,-0.0005417563,-6.634402799999999,23.686241,-37.044296,-0.0032324158,-0.013174787,0.05114174,990.0174,0,13.0,1,1
4.96,0.033152938,-0.15113354,9.771587,0.00015322355,0.00025749387,-0.00067502,-6.7423399999999996,24.059229000000002,-36.972504,0.020064875,-0.012948871,0.036943436,990.0121,0,13.0,1,1
5.0,0.045115232000000005,-0.15590039,9.766853999999999,0.00015322355,0.00025749387,-0.00067502,-6.7423399999999996,24.059229000000002,-36.972504,-0.008351911,0.001509577,0.027474402999999998,990.0121,0,13.0,1,1
5.04,0.05468762,-0.14875093,9.766855,0.0005524504,0.00012437598999999998,-0.0006751258999999999,-6.6078253,23.869211,-37.13608,-0.01769105,-0.01730895,0.036945343,990.0095,0,13.0,1,1
5.08,0.052310525999999996,-0.15590104,9.77159,-0.0002466207,-0.00080770947,-9.389012e-06,-6.281757,24.121916,-37.2781,-0.022327557,-0.016942888,0.03221512,990.02484,0,13.0,1,1
5.12,0.059493035,-0.14398494,9.750287,-0.0002466207,-0.00080770947,-9.389012e-06,-6.281757,24.121916,-37.2781,-0.012867533,-0.021699697,0.07009125,990.02484,0,13.0,1,1
5.16,0.052336127,-0.16066828,9.766858000000001,0.0004189222,0.0002575941,-0.0012079163,-6.967645599999999,24.164228,-36.789963,0.0014816001,-0.021523505,0.046420097,990.0199,0,13.0,1,1
5.2,0.054514587,-0.14636335,9.78341,0.0004189222,0.0002575941,-0.0012079163,-6.967645599999999,24.164228,-36.789963,-0.02216499,-0.026218176,0.018034935,990.0199,0,13.0,1,1
5.24,0.061688125,-0.14159694,9.78341,-0.00024285546000000002,0.0003870132,0.00025582605,-6.9796834,24.25836,-36.870598,-0.022622585,-0.031202689,0.008563042,990.0325,0,13.0,1,1
5.28,0.056912124,-0.141597,9.764472,-0.0013081555,0.0013191248000000001,-0.00014366348999999998,-6.939003,23.98038,-36.860603000000005,-0.018085673,-0.01195541,0.027503967,990.00464,0,13.0,1,1
5.32,0.059305847,-0.14398038,9.762107,0.00015654514,-0.00014560664,-0.00014367921,-7.275696000000001,24.929628,-37.249184,-0.017936628,-0.021585032,0.04170513,990.02765,0,13.0,1,1
5.36,0.04975003,-0.15589693,9.764474,-0.00050928135,0.00025387318,-1.0537013e-05,-6.981503999999999,23.624751999999997,-37.218163,0.005945325,-0.016983002,0.06063938,990.0098,0,13.0,1,1
5.4,0.059313415999999994,-0.1415973,9.77631,-0.00050928135,0.00025387318,-1.0537013e-05,-6.981503999999999,23.624751999999997,-37.218163,-0.013108052,-0.016878143,0.027500153,990.0098,0,13.0,1,1
5.44,0.04975766,-0.15589702,9.778678,2.3313973e-05,-1.2436765e-05,-0.00014371063999999998,-6.9278073000000004,23.622404,-37.303284000000005,0.0015967339000000002,-0.012101963,0.03696537,990.0149,0,13.0,1,1
5.48,0.056931138,-0.15828043,9.759739999999999,-0.000109880755,-0.0008113783599999999,0.00038890535000000006,-6.812939999999999,23.519154,-37.16098,-0.012564801,0.0022033453,0.060638428,990.0224599999999,0,13.0,1,1
5.52,0.052155167,-0.14874741,9.755006,-0.00037623342,-0.00027874077,0.0002557317,-6.904816599999999,24.170717,-37.338913,-0.012978278000000001,-0.02160883,0.05117035,990.0225,0,13.0,1,1
5.56,0.035429657,-0.14874747,9.766843,-0.0005094279,0.00078652875,-0.0008095476,-7.274311,24.825184,-36.62741,0.015866157,-0.012622103,0.05589485,990.0019,0,13.0,1,1
5.6,0.052162766,-0.15113088,9.776311,-0.00024314870999999998,-0.00041188672,-0.00014377350000000002,-7.1455020000000005,23.734766,-37.50727,-0.017515216,-0.007882193000000001,0.013284683,990.00726,0,13.0,1,1
5.64,0.049776673,-0.14874765,9.747906,-0.0005095014,0.00012075091999999999,-1.0631367000000001e-05,-6.619863499999999,23.963345999999998,-37.21672,-0.008221369000000001,-0.007637858399999999,0.041695595,990.02295,0,13.0,1,1
5.68,0.045000672,-0.14159796,9.759742,2.3093715000000003e-05,0.0010528625,0.00065514265,-6.918812299999999,23.525323999999998,-37.06804,-0.013151254499999999,-0.0123808235,0.05116558,990.0204,0,13.0,1,1
5.72,0.056953967,-0.15113118,9.757375,-0.00037641666,0.00012076284,0.00025565307999999995,-6.673997,23.22764,-36.85739,-0.008291304000000001,-0.012199432,0.055901527,990.0077,0,13.0,1,1
5.76,0.05695775,-0.15589779999999998,9.762111,0.0001561782,0.000120768775,-0.00027699437,-6.815548,24.254263,-37.280570000000004,-0.008429669,-0.017138556,0.051164627000000004,990.0002,0,13.0,1,1
5.8,0.049791873,-0.14874807,9.755008,2.2983701999999997e-05,0.00052024855,-0.0005433259,-6.681171000000001,23.95833,-36.74507,-0.008080509,-0.017095566,0.046429634000000004,989.9975599999999,0,13.0,1,1
5.84,0.049795687000000005,-0.15351471,9.769212,-0.00041180814,-0.0008666205000000001,0.0009988915,-6.992700999999999,23.98273,-36.775482000000004,-0.0083658025,-0.008168563,0.022747992999999998,990.0174,0,13.0,1,1
5.88,0.049799502,-0.16066465,9.762111,-0.0009444769000000001,0.0004649649,-0.00086533534,-7.112133999999999,24.081557999999998,-36.685875,0.0058618225,-0.008097798,0.060624122999999995,990.0077,0,13.0,1,1
5.92,0.04741341,-0.14636508,9.776314999999999,-0.00081135554,0.0008644447,-0.00019956133000000002,-6.597309599999999,23.773607000000002,-36.97814,-0.0041148476,-0.01314877,0.041683197000000005,990.0231,0,13.0,1,1
5.96,0.056976825,-0.15113172,9.771581,-0.000811392,0.0011307666,0.00019989681000000001,-6.4543433,23.854803,-37.004925,0.0009180940699999999,-0.0036560893,0.051150322000000005,990.0281,0,13.0,1,1
6.0,0.052200794,-0.16066489,9.769214,-0.00067827106,-0.00086659665,0.00033303906,-6.631901700000001,24.057478,-37.297356,-0.004104417,-0.0035974383,0.041683197000000005,990.0408,0,13.0,1,1
6.04,0.06176424,-0.15351519,9.771581,0.00038695603,0.0009976205,0.00046618123,-6.806553999999999,24.157183,-37.045326,-0.032548107,-0.00841032,0.0038061142,990.03076,0,13.0,1,1
6.08,0.037869036,-0.15113202,9.766847,-0.00014571252,-0.00020079501,-0.00033278212999999997,-6.655978,24.245745,-37.458633,0.0056322627000000005,-0.012879685,0.051154137,989.9927,0,13.0,1,1
6.12,0.033093005,-0.14874879,9.752645,0.0005200404,-0.0002007891,0.00033299185,-6.987156,24.356913,-37.18315,0.015048128000000001,-0.012551546,0.055893898,990.0307,0,13.0,1,1
6.16,0.030706942,-0.15351549,9.757379,0.00078631984,0.00019869069,0.00033297614,-6.9734583,24.370169,-37.878895,0.005532291,-0.0124231875,0.03222561,990.0028699999999,0,13.0,1,1
6.2,0.046990246,-0.16065434,9.78101,0.00038680922999999995,0.0003318546,0.00033296042000000004,-7.0632696,24.654917,-38.035686,-0.008529726,-0.0030391812,0.027529716,990.0333,0,13.0,1,1
6.24,0.061315715,-0.15827075,9.769173,-0.00054098107,-0.0011335835,-6.466397e-05,-6.9464755,24.078932000000002,-37.173157,-0.022283074,0.00647147,0.02279377,990.0260000000001,0,13.0,1,1
6.28,0.03740272,-0.14158744,9.764437,-0.00054098107,-0.0011335835,-6.466397e-05,-6.9464755,24.078932000000002,-37.173157,0.016035885,-0.017316833,0.060669900000000006,990.0260000000001,0,13.0,1,1
6.32,0.03977868,-0.15350348,9.773904,0.0003912592,-0.00046781544000000004,-6.460628e-05,-6.511084599999999,23.854204,-36.765190000000004,-0.0030264333000000004,-0.0027275084999999998,0.027535439,990.018,0,13.0,1,1
6.36,0.046934425999999994,-0.14635327,9.764434,0.0007908676,6.479446e-05,0.0003349252,-6.866201400000001,24.259558,-37.35006,-0.012593519,-0.0073780715000000005,0.027538299999999998,989.9954,0,13.0,1,1
6.4,0.058869958,-0.14396966,9.771535,0.00012521236,6.477265e-05,0.0002018249,-6.7700033,24.612837,-37.07762,-0.017405856,-0.031054512000000003,0.037010193,990.0081,0,13.0,1,1
6.44,0.051686317,-0.15826902,9.778636,0.00012548151,0.00046420275,-0.0001975336,-7.0613427,24.18218,-37.315459999999995,-0.017311923,-0.021534367999999998,0.018074036,990.0081,0,13.0,1,1
6.48,0.04450264599999999,-0.14158574,9.771532,-0.00027385785,-0.00033476675000000005,-0.00033063392,-6.696115,24.155432,-37.37018,-0.003031265,-0.02613166,0.02754879,990.0259,0,13.0,1,1
6.52,0.051658392000000004,-0.14158538,9.762063000000001,0.00012575078000000002,0.00033100112,-0.00033057624,-6.8771534,23.617105,-37.233795,0.0017310417999999998,-0.016483605,0.055957794000000005,990.0383,0,13.0,1,1
6.56,0.056424199999999994,-0.14635155,9.780999000000001,0.00012575078000000002,0.00033100112,-0.00033057624,-6.8771534,23.617105,-37.233795,-0.026957217999999998,-0.021139473,0.018084526,990.0383,0,13.0,1,1
6.6,0.044460772999999995,-0.15826768,9.783364,0.0006585167999999999,0.00046413727,6.89553e-05,-6.8431044000000005,23.701527,-37.01303,0.0062043034,-0.015928984,0.027564049,990.0411,0,13.0,1,1
6.64,0.037277102,-0.16065058,9.762058999999999,-0.0006727936,6.461969e-05,-6.4087304e-05,-7.195314,24.003904000000002,-37.053436,0.0015826039000000002,-0.0065763444,0.027561187999999997,990.0385,0,13.0,1,1
6.68,0.046822727,-0.15350041,9.757322,-0.0006727936,6.461969e-05,-6.4087304e-05,-7.195314,24.003904000000002,-37.053436,0.0063114576,0.0028379559999999996,0.055968285,990.0385,0,13.0,1,1
6.72,0.049198687000000005,-0.15111676,9.764422999999999,-0.00014002691,-6.856007499999999e-05,6.912835e-05,-6.9525633000000004,24.07304,-36.863937,-0.01703303,-0.006516844,0.022828102000000003,990.0232,0,13.0,1,1
6.76,0.056354403,-0.14634985,9.764422,0.0003927392,-0.0012670032000000001,-0.00033028782,-6.9188127999999995,23.525323999999998,-37.06804,-0.021571886000000002,-0.020720601,0.037034035,989.9979,0,13.0,1,1
6.8,0.053950578,-0.1654158,9.7620535,-6.599934e-06,-0.0004680776,0.0002024016,-6.7267156,23.599752,-36.948029999999996,-0.0069559813,-0.0018909872,0.046499252000000005,990.0259,0,13.0,1,1
6.84,0.051546693,-0.16064888,9.771522000000001,-0.00093857106,-0.0004680995,0.000868249,-6.7889705000000005,24.437233,-37.37236,0.0070709623,-0.00186041,0.051235199999999995,989.9987,0,13.0,1,1
6.88,0.04675293,-0.15111539,9.771519999999999,-0.00013948883999999998,0.0008634580999999999,-0.00059643073,-6.659458,23.504744,-37.029816,0.0024942271,-0.0021722168,0.041762352,990.0133,0,13.0,1,1
6.92,0.044349074,-0.15111503,9.764417,-0.00067198614,-0.0004681431,6.941665e-05,-6.932372999999999,23.617985,-37.071373,0.003099829,-0.011590123,0.05596733,989.98615,0,13.0,1,1
6.96,0.053894700000000004,-0.15111473,9.783353,0.0003934122,-0.0015334283,0.00033579019999999994,-6.969871,24.004827,-37.93506,-0.02066657,-0.016364902,0.008623123,989.9987,0,13.0,1,1
7.0,0.05388075,-0.14634785,9.769149,-0.00013908511,-6.871297e-05,0.0006021637,-6.979684,24.25836,-36.870598,-0.006117694,-0.025705292999999997,0.03703308,990.0188,0,13.0,1,1
7.04,0.041917263999999996,-0.1558806,9.754945,0.00012736535,-0.00033505072,-0.00019672627,-7.289149,23.915945,-36.87986,-0.006729133399999999,-0.011623979,0.041769028,990.0139999999999,0,13.0,1,1
7.08,0.05146292,-0.14396384,9.764412,-0.0006714477000000001,0.0012628228,-6.351058000000001e-05,-7.2874894,24.023335999999997,-37.656242,-0.011376165,-0.016184047,0.046507835,990.0211,0,13.0,1,1
7.12,0.056228757000000004,-0.16064647,9.759675999999999,-0.00040499738,-0.00020193646,6.970501e-05,-7.0508265,24.086576,-37.157524,-0.0068037435,-0.006910443299999999,0.055974007,989.99615,0,13.0,1,1
7.16,0.04915613,-0.14158264,9.771522000000001,0.00012776896,0.0009964632,-0.00019655321,-7.3548837,24.012423000000002,-36.875378000000005,0.0070143340000000005,-0.026014403,0.037017822,990.0165,0,13.0,1,1
7.2,0.046869934,-0.15350160000000002,9.769162,-0.00053788617,0.0007301253999999999,-0.0007291273,-6.988678,24.355439999999998,-37.10585,0.006797295,-0.016597003,0.041752815,990.0243,0,13.0,1,1
7.24,0.046864867000000004,-0.15111819,9.769163,-0.0008062128999999999,0.00033097801,0.00046843235000000003,-6.7311435,23.70125,-37.415188,-0.0116369575,-0.0024425387,0.013339996000000002,990.0341,0,13.0,1,1
7.28,0.042080015,-0.15826786,9.769162,-0.00014037430000000002,-0.0011337671,-0.00059681025,-7.0789256,23.902132,-36.988434000000005,0.0028164759999999996,0.0022723675,0.05594921,990.01624,0,13.0,1,1
7.32,0.05163452,-0.15111789,9.769162,-0.00027348346,-0.0006011434,-6.41575e-05,-7.0387883,23.992442999999998,-37.076879999999996,-0.0020423532,-0.0067237616,0.051223755,990.0014,0,13.0,1,1
7.36,0.05401939,-0.16065088,9.780997,0.0009145614500000001,0.0007380817599999999,-0.00034264236000000007,-6.867723,24.258081,-37.27276,0.0026612878000000003,0.0027049929999999997,0.041755676,989.9987,0,13.0,1,1
7.4,0.05879408,-0.16065079,9.764426,0.00024882052000000006,0.0003386,5.6852383e-05,-6.766714599999999,23.615354999999997,-37.55865,-0.0069683976000000005,-0.0019822717,0.0559597,990.0191,0,13.0,1,1
7.44,0.05161935,-0.16065064,9.757324,-0.00028376235,0.00020543413,-0.00020944251,-6.834515,24.078654999999998,-37.575314,0.0023536123000000003,-0.0067356230000000005,0.05596161,990.0091,0,13.0,1,1
7.48,0.037274897,-0.15111741,9.773894,-0.0001505555,0.00087121595,0.0008558419000000001,-6.631901700000001,24.057478,-37.29736,0.0026889815999999998,-0.002300024,0.037017822,989.9913,0,13.0,1,1
7.52,0.0635587,-0.148734,9.764425,-0.00054998044,-0.0011261611,-0.00020940066,-6.620704700000001,23.6995,-37.740044,-0.030685168,-0.006995395,0.027549743999999998,990.0016,0,13.0,1,1
7.56,0.051604092000000004,-0.15588376,9.771526,0.00024901598,7.2252406e-05,-7.622171e-05,-6.641331699999999,23.416501999999998,-37.2584,-0.0067681447,-0.011784538999999998,0.037018776,990.0194,0,13.0,1,1
7.6,0.05637884,-0.15350035,9.776259,-0.0004167247,-0.00032722935,-0.00020935881,-6.9735955999999995,24.264252,-37.179817,-0.0066492669999999995,-0.0021965355,0.041754723,989.9888,0,13.0,1,1
7.64,0.044424266,-0.14158383,9.766791,-0.0005497851,0.00033854452000000007,-0.00034247478,-6.828564599999999,23.978628,-37.185455,-0.0065598786,-0.011920273,0.03228283,990.01184,0,13.0,1,1
7.68,0.051588922999999995,-0.1582666,9.76679,-0.0009492099000000001,-0.00085988484,0.00019017790000000001,-6.701523,23.887167,-37.661583,-0.0061208046999999995,-0.007242291999999999,0.04648304,990.0015,0,13.0,1,1
7.72,0.04919395,-0.16303304,9.757321000000001,-0.0009492099000000001,-0.00085988484,0.00019017790000000001,-6.701523,23.887167,-37.661583,-0.010800008,0.011706635,0.027543067999999997,990.0015,0,13.0,1,1
7.76,0.056358545999999995,-0.1439667,9.75732,-1.7055296e-05,-0.00085989287,-0.00034243292999999996,-7.170259,24.185406,-37.067917,-0.02049375,-0.021628663,0.046482086,990.01685,0,13.0,1,1
7.8,0.058743357999999996,-0.15588298,9.766789,0.00011615153999999999,0.0007379945,0.00019021987,-7.102023,24.460161,-37.325462,-0.0016044453,-0.0070615113,0.06069088,990.0015,0,13.0,1,1
7.84,0.044398904,-0.14634973,9.764421,-0.00028322462,-6.0968995999999994e-05,-7.605413000000001e-05,-7.2513747,23.740935999999998,-37.41433,-0.01110306,-0.011808515,0.027551651,990.02167,0,13.0,1,1
7.88,0.049173623,-0.15349945,9.757319,-0.00015001766,0.0002053389,0.00032344065,-6.980525,23.994516,-37.39392,-0.0060604177,-0.01663898,0.055955887,990.0369999999999,0,13.0,1,1
7.92,0.061118066,-0.15826592,9.771522000000001,-0.00015001766,0.0002053389,0.00032344065,-6.980525,23.994516,-37.39392,-0.020167131,-0.0024694204,0.027545929,990.0369999999999,0,13.0,1,1
7.96,0.058723092000000005,-0.13681623,9.776256,0.0005158697,0.0010042706,0.00032348253,-6.4567065,23.589482999999998,-37.450935,-0.00084432587,-0.030623302,0.046491622999999996,990.0147,0,13.0,1,1
8.0,0.049158454000000004,-0.16303220000000002,9.754951,0.00011644479,-0.0007267904,-0.0007417601,-6.8179107000000005,23.98894,-37.726593,-0.010564007,0.0027290583,0.041757584,990.0269,0,13.0,1,1
8.04,0.03720385,-0.15588227,9.757318,-0.00028298015,-6.100868e-05,0.00019036647000000002,-6.7383175,24.431938,-37.30287,-0.0010231175,-0.006670921999999999,0.032292366,990.04474,0,13.0,1,1
8.08,0.03958866,-0.14396569,9.759685000000001,0.0006491741999999999,-0.0007268063000000001,-0.00047540215999999994,-7.211237,23.831247,-37.502784999999996,0.013844378000000001,-0.020557642,0.04650116,989.98926,0,13.0,1,1
8.12,0.037193686000000004,-0.15588197,9.764419,0.0006491741999999999,-0.0007268063000000001,-0.00047540215999999994,-6.8771534,23.617105,-37.233795,0.018020358,-0.011369571,0.060700417,989.98926,0,13.0,1,1
8.16,0.043274283,-0.15114737,9.776374,-1.6566468e-05,-0.00019418253000000002,-0.0006085392700000001,-6.9834309999999995,24.097483,-37.938385,0.0069479419999999995,-0.016051903,0.036909103,990.0096,0,13.0,1,1
8.2,0.048101038,-0.14638194,9.759807,-0.00042064092,0.0015376176,5.5278768e-05,-7.1374564,24.480185000000002,-38.168,-0.016747285,-0.020530462,0.032176018,990.03015,0,13.0,1,1
8.24,0.04575804,-0.14876634,9.764545,0.00037206087,-0.00072723435,0.00044776475999999996,-6.981068,24.362806,-37.49237,-0.007048021999999999,-0.01098761,0.027436256000000003,990.0096,0,13.0,1,1
8.28,0.050584733,-0.14161769,9.771651,0.00023845063999999999,-6.137118e-05,-0.00035137672,-7.007102000000001,23.81154,-37.30213,-0.011648033,-0.010989666,0.027432442,990.02496,0,13.0,1,1
8.32,0.050631672,-0.15353528,9.766921,-0.00029463338,-0.00072708755,0.00031421918999999997,-6.807395,23.893335,-37.56865,-0.007091563,-0.0106227845,0.03690338,990.0045,0,13.0,1,1
8.36,0.05306852,-0.1583029,9.781129,0.0009033358000000001,0.00073772325,0.00031402532,-6.788428,24.068941,-37.273907,0.0024250224,0.003453523,0.027424812000000003,990.00964,0,13.0,1,1
8.4,0.04833564,-0.15353754,9.766931,-0.000428696,-0.00019430883999999997,0.0005801474,-6.981068,24.362806,-37.49237,-0.01170833,-0.00578171,0.01795578,990.04785,0,13.0,1,1
8.44,0.053162365999999996,-0.1440056,9.769300999999999,0.00023664153999999998,-0.00019423544,-0.00035215204,-7.001014,23.817434,-37.61136,-0.011590477,-0.0102516115,0.032159805,990.0249,0,13.0,1,1
8.48,0.031700194,-0.15592307,9.759837,-0.00056275836,-0.0007267938,0.0003134438,-7.094848599999999,23.729471,-37.43778,0.021547645,-0.0055229366,0.06056118,990.00464,0,13.0,1,1
8.52,0.053256273,-0.15354094,9.764576,0.00063521083,0.00060485903,0.0008458817599999999,-6.8526416,24.166895,-37.34673,0.0022369995999999997,-0.005863309000000001,0.04634857,990.007,0,13.0,1,1
8.56,0.050913274,-0.13447592,9.769314999999999,-0.0001641891,0.0006049325,4.6740257e-05,-7.219390400000001,24.192173,-37.214706,-0.011776518,-0.024630113999999998,0.041614532,989.987,0,13.0,1,1
8.6,0.05335009,-0.15592656,9.774053,-0.00016464137,-0.0009928894,0.0001797044,-7.093571000000001,24.731370000000002,-37.188663,-0.006713971500000001,-0.0052826107,0.013205528000000001,990.0074,0,13.0,1,1
8.64,0.046227276,-0.15592769,9.762221,0.00036753812999999996,-0.0005933422,-0.0002199632,-6.8314710000000005,24.081602,-37.729923,-0.011146843,-0.0053740440000000006,0.041604996,989.9921,0,13.0,1,1
8.68,0.046274185,-0.16069543,9.769327,-0.00016554592,-0.0007264267,-0.00022015702999999997,-6.5033374,23.967487,-37.850796,0.0077834576,-0.005387156999999999,0.05106926,990.0079,0,13.0,1,1
8.72,0.046321124000000005,-0.15593007,9.771699,-3.284037e-05,-0.00019372147000000002,0.00031228083999999996,-6.823456,23.61476,-37.318915999999994,0.012747422,-0.0148527175,0.051065445,990.0102,0,13.0,1,1
8.76,0.053537756,-0.16069767,9.793008,0.00023302335,-0.00019364801,0.0005784029,-7.198763400000001,24.475168,-37.696358000000004,-0.006197188,0.004255876,0.013185501,990.0201400000001,0,13.0,1,1
8.8,0.04641497,-0.14639917,9.771707000000001,9.941314e-05,-0.0004598905,-0.00048705447,-7.241401700000001,24.013622,-37.354836,-0.006213218,-0.014477044,0.013187408000000001,990.0175,0,13.0,1,1
8.84,0.051241725999999994,-0.15831676,9.755141,-0.000564491,5.7476907000000004e-05,0.00013111843000000002,-6.6442380000000005,23.519476,-37.80287,-0.010933238999999999,-0.0001784116,0.046322823,989.9926,0,13.0,1,1
8.88,0.053678572,-0.16070119,9.764614,0.001032952,-0.0004750814,0.00013092462999999999,-6.6413326,23.416506,-37.2584,0.008152269,-0.00019359589,0.0463171,990.003,0,13.0,1,1
8.92,0.058505237,-0.14640263,9.771721000000001,0.001032952,-0.0004750814,0.00013092462999999999,-6.6413326,23.416506,-37.2584,-0.02992564,-0.014695972,0.017903328,990.003,0,13.0,1,1
8.96,0.058552176,-0.14640382,9.77646,-0.0009653216699999999,-7.546079e-05,0.0006631686999999999,-6.876717599999999,24.355162,-37.508003,-0.015920047,-0.010278195,0.02262783,989.9827,0,13.0,1,1
9.0,0.049039482999999995,-0.15355483,9.774096499999999,-0.0009653216699999999,-7.546079e-05,0.0006631686999999999,-6.876717599999999,24.355162,-37.508003,-0.0017185584,-0.00553225,0.06523609,989.9827,0,13.0,1,1
9.04,0.04908642,-0.16308904,9.766999,-3.4120647e-05,5.7844023e-05,-3.0086667e-06,-6.963921000000001,23.9048,-37.545196999999995,-0.016252026,0.00884378,0.036824226,990.02075,0,13.0,1,1
9.08,0.056303054000000005,-0.16547349,9.762269,-0.00043404672999999995,-0.0010073461,0.00039627132000000004,-6.864434700000001,23.260603,-37.753788,-0.0012969859,0.008645132,0.06522083,989.9858,0,13.0,1,1
9.12,0.041335464,-0.14877513,9.776415,0.0010302383,-0.00034148296,0.00039607754999999997,-6.606303,23.870686,-37.213387,0.014338803,-0.01961258,0.036938667,989.9753400000001,0,13.0,1,1
9.16,0.05261582,-0.15352532,9.76215,0.0010302383,-0.00034148296,0.00039607754999999997,-6.606303,23.870686,-37.213387,-0.004827615,-0.009660572,0.04641533,989.9753400000001,0,13.0,1,1
9.2,0.050218344000000005,-0.14875850000000002,9.773986,0.0009073583,5.4403063e-05,0.00013230921,-6.5661664,23.960997,-37.301840000000006,-4.2233616e-05,-0.019295946,0.065351486,990.0010000000001,0,13.0,1,1
9.24,0.040651143,-0.15590817,9.759782000000001,-0.0002877771,-7.928829000000001e-05,-0.00053207227,-6.5439099999999994,23.139120000000002,-37.488132,0.00959703,-0.00059609115,0.046408653,989.97296,0,13.0,1,1
9.28,0.047813237,-0.15114143,9.759780000000001,0.0005113172,0.00018700375,0.0005332542,-7.5199679999999995,24.859022,-37.361378,0.0042548366,-0.014750451000000001,0.07008743,989.98816,0,13.0,1,1
9.32,0.050195456,-0.15590778,9.77635,0.0005113172,0.00018700375,0.0005332542,-7.5199679999999995,24.859022,-37.361378,-0.005295194699999999,-0.014740228999999999,0.027480125,989.98816,0,13.0,1,1
9.36,0.059747517,-0.14399126,9.766881,0.00037830597000000003,0.00058645377,6.852788000000001e-07,-6.902751400000001,23.8039,-37.31777,-0.015221335,-0.014435142,0.03222084,989.9911,0,13.0,1,1
9.4,0.04540047,-0.14399102,9.776349,-0.0005537262999999999,0.00058644183,0.00013387471,-6.841146000000001,24.441053,-37.364540000000005,-0.005998954,-0.0144030005,0.02275467,989.9884599999999,0,13.0,1,1
9.44,0.04778278,-0.15114072,9.762145,-0.0005537262999999999,0.00058644183,0.00013387471,-6.8872333,24.450770000000002,-37.665946999999996,-0.010676205,-0.009593368,0.046427727,989.9884599999999,0,13.0,1,1
9.48,0.050165057,-0.15114048,9.750308,0.00024529482000000004,0.00032011402,-0.0006650415,-6.699159,24.152485000000002,-37.21557,0.0036228076000000002,-0.019137233,0.06536579,989.9858,0,13.0,1,1
9.52,0.05732712,-0.1535236,9.77398,0.0002454415,-0.00034569946000000004,0.00013396903999999998,-6.74927,23.789492000000003,-37.186607,0.0037245043,-0.0045960396999999995,0.046432495,989.99396,0,13.0,1,1
9.56,0.040590197,-0.14875683,9.773978,0.0002454415,-0.00034569946000000004,0.00013396903999999998,-6.797857799999999,23.427967000000002,-37.23495,-0.0009988062,-0.009149373,0.027499199,989.99396,0,13.0,1,1
9.6,0.04775232,-0.15828973,9.769244,0.00051183085,-0.00061202724,-0.00013231543999999999,-6.957971000000001,23.804776999999998,-37.155342,-0.005733151,0.00017184019,0.032230377000000004,990.01404,0,13.0,1,1
9.64,0.040574998,-0.14875647,9.762141,-0.0008196751,0.00045322434999999997,8.7401713e-07,-6.752611999999999,23.154410000000002,-37.45687,-0.000585217,-0.013810903000000001,0.046437263,989.98596,0,13.0,1,1
9.68,0.047737062000000004,-0.14875627,9.771609,0.0006451355,-0.0006120511,0.0005335372400000001,-7.04213,23.357359,-37.347145000000005,0.013318151,-0.018683061,0.055908203,990.01416,0,13.0,1,1
9.72,0.05250925,-0.15352264,9.769242,-2.0580760000000002e-05,5.3726748e-05,0.0005335687,-6.8626146,23.894213,-37.406220000000005,-0.0058374964,-0.0043049157,0.055909157,990.0115,0,13.0,1,1
9.76,0.057281435,-0.15352246,9.76924,0.00011265063999999999,0.00045318855,0.0011993898,-7.0693574,24.649023,-37.726467,-0.015661057,0.0051493496,0.036973,989.9761,0,13.0,1,1
9.8,0.042934417999999995,-0.1487557,9.771607000000001,0.00011272386500000001,0.0008526505,-0.00053163193,-7.118925,23.917738,-37.599056,0.00820563,-0.008989975,0.018037796000000002,989.9792,0,13.0,1,1
9.84,0.04053691,-0.15828866,9.769239,-0.00041983445,-7.946705e-05,1.0312651e-06,-6.746225999999999,23.792437,-37.341217,-0.0015053675,-0.008779420999999999,0.055919647,990.0419300000001,0,13.0,1,1
9.88,0.05247879,-0.15590516,9.7716055,0.00037918665,0.00045315287000000006,-0.000531569,-6.9450917,23.97449,-36.55138,-0.0015364029000000002,-0.0037373751000000003,0.041721344,990.0269999999999,0,13.0,1,1
9.92,0.062030792,-0.16067159,9.783441,0.0007787336999999999,5.3667143e-05,-0.0002652218,-6.7945156,24.063051,-36.964690000000004,-0.015854277,0.005672559000000001,0.008579254,990.02185,0,13.0,1,1
9.96,0.050073683,-0.15113825,9.781074,0.0005124914,0.00031997106,0.0006669153,-7.020364,24.53634,-36.880596000000004,-0.0156875,-0.008272082,0.03225708,990.0118,0,13.0,1,1
10.0,0.04289639,-0.14160493,9.773971000000001,-2.0067018000000002e-05,0.00031995922,-0.00013200089,-7.003514999999999,23.4462,-37.358295,-0.0058507696,-0.022272392999999998,0.022792816,989.9889,0,13.0,1,1
10.04,0.04527867,-0.16067103,9.764503,0.00037948,-0.0010116322,0.001066452,-7.0531898,23.821259,-37.60354,-0.0009154155999999999,0.01108259,0.036994934,989.997,0,13.0,1,1
10.08,0.052440763,-0.14875442,9.7574,0.00037955347,-0.0007453281399999999,0.0005338517,-7.009710000000001,24.546651999999998,-37.42173,0.008646816,-0.012924924499999999,0.07013416,989.9897,0,13.0,1,1
10.12,0.049980104000000004,-0.14875269,9.766862,-1.9846877e-05,0.0007193972,0.00013440935,-6.9138107,24.267797,-37.57416,-0.0009035654400000001,-0.01756829,0.046470642,990.0147,0,13.0,1,1
10.16,0.045190155999999995,-0.15828559,9.773963,-0.00028601433999999996,-7.957453e-05,-0.0005313167,-6.646846000000001,24.254583,-37.922462,0.0039231293,-0.007961481999999999,0.041736603,990.00464,0,13.0,1,1
10.2,0.04756993,-0.15351877,9.762126,-1.908424e-05,-0.00034599002999999995,1.5782716000000003e-06,-7.356811,24.485159,-37.5956,0.018203605,-0.0031624584999999997,0.05594349,990.0024,0,13.0,1,1
10.24,0.047559767999999995,-0.14875194,9.75739,-0.0001520466,0.0009855576,0.0004011359,-6.907317599999999,23.799482,-37.085854,-0.000975579,-0.012236028999999999,0.055952072,989.9847,0,13.0,1,1
10.28,0.05471933,-0.15828475,9.764491,0.0009133147,-0.0006123537000000001,0.00026801988,-7.0999574999999995,24.093344000000002,-37.304317,0.0037875734000000004,0.001894936,0.06541824,989.9949,0,13.0,1,1
10.32,0.047539473,-0.14875141,9.776326,-0.00021085085,0.0008953410400000001,-0.00031361287,-7.088462400000001,24.3675,-37.322132,-0.0061684363,-0.017410263,0.03227806,989.9822,0,13.0,1,1
10.36,0.04752934,-0.15590099,9.776325,-0.0014091744,0.0015611148999999998,-4.7255075e-05,-6.65155,24.144245,-36.99147,0.0032160506,-0.003655523,0.0228014,989.975,0,13.0,1,1
10.4,0.04273939,-0.1511342,9.755019,-0.0014091744,0.0015611148999999998,-4.7255075e-05,-6.65155,24.144245,-36.99147,0.0128063,-0.0035839677,0.06541157,989.975,0,13.0,1,1
10.44,0.047509015,-0.13683426,9.757386,5.5758400000000005e-05,0.0010284514,8.598665600000001e-05,-6.745247,24.162198999999998,-37.51697,0.0077232905000000004,-0.022351786000000002,0.05121708,989.9848,0,13.0,1,1
10.48,0.04988879,-0.16543339999999998,9.764486,0.00018901423999999998,-0.00030314387,0.00035234447999999997,-7.130963,24.011870000000002,-37.679695,-0.0015778542000000001,0.01073125,0.060681343,990.01776,0,13.0,1,1
10.52,0.05943823,-0.16066661,9.769219,-0.00034351973,-0.00043631764,0.00035238638999999996,-6.876717,24.355162,-37.508003,-0.020807087,0.005763799,0.032273293,990.0174599999999,0,13.0,1,1
10.56,0.047478615999999994,-0.15113327,9.764484,-0.0011423697,0.0010284038,8.611241e-05,-7.1611275999999995,24.194244,-37.531746000000005,-0.006647125,-0.0137132555,0.041736603,989.9975,0,13.0,1,1
10.6,0.05224824,-0.13921660000000002,9.764483,5.614966999999999e-05,-0.0008358232400000001,0.0006187861,-6.8801975,23.614164000000002,-37.079190000000004,-0.015827216,-0.027347818,0.03227806,990.0157,0,13.0,1,1
10.64,0.054628044,-0.153516,9.76685,0.00045572128,-3.6891535e-05,0.00021935417000000003,-6.8224773,23.984526000000002,-37.494675,0.007827725,0.0012501478,0.055952072,990.0005,0,13.0,1,1
10.68,0.054617822,-0.14636585,9.766849,0.00045572128,-3.6891535e-05,0.00021935417000000003,-6.8224773,23.984526000000002,-37.494675,-0.016282413,-0.0034977943,0.022812843,990.0005,0,13.0,1,1
10.72,0.049827933,-0.1487489,9.766848,0.00018960098000000002,-0.00017008121,-0.00044635169999999996,-6.7206273,23.605642,-37.257248,-0.0063870847,-0.012614489,0.037023544,990.008,0,13.0,1,1
10.76,0.056987464,-0.14636537,9.762113000000001,0.0008554886,-0.0008358868700000001,-4.6835920000000005e-05,-7.0055804,23.813017000000002,-37.37944,-0.020532835,-0.007600173399999999,0.02755928,990.0026,0,13.0,1,1
10.8,0.042637914000000006,-0.14159858,9.759744,0.0008554886,-0.0008358868700000001,-4.6835920000000005e-05,-7.0055804,23.813017000000002,-37.37944,-0.0013986938,-0.021829724,0.065434456,990.0026,0,13.0,1,1
10.84,0.05457729,-0.15113148,9.769213,-0.0007422112400000001,-0.0004364447,-0.0005793839,-6.9423455999999995,23.3453,-37.130863,0.008228783,-0.021774738999999998,0.055968285,990.0009,0,13.0,1,1
10.88,0.049787343,-0.14874795,9.769212,-0.0007422112400000001,-0.0004364447,-0.0005793839,-6.9423455999999995,23.3453,-37.130863,-0.00623649,-0.017001927,0.027563095,990.0009,0,13.0,1,1
10.92,0.052167057999999995,-0.14636442,9.771577,0.00045630801,0.0006288029,-0.00031302612999999996,-7.283061,23.921835,-37.18908,-0.0010087788,-0.0074694157,0.04650116,990.01624,0,13.0,1,1
10.96,0.049767047,-0.14636418,9.755006,0.00058956386,-0.0008359503,-4.6668283e-05,-7.1961555,23.74006,-37.57676,-0.020084355,-0.01686272,0.027565956000000003,990.00085,0,13.0,1,1
11.0,0.04497707,-0.14874724,9.771577,-0.000475602,-0.00030333439999999997,0.00035284742,-6.860549400000001,23.527395000000002,-37.38507,0.008582998,-0.0025991052,0.03703308,989.99036,0,13.0,1,1
11.04,0.05213663,-0.15113029,9.778675999999999,-7.603038e-05,9.612353499999999e-05,-0.0003129004,-6.651848299999999,23.51211,-37.416340000000005,0.0037354901,-0.012277067,0.046503067,989.9852,0,13.0,1,1
11.08,0.05929622,-0.14159682,9.771573,-0.0004754063,0.0006287395,-0.0007123321400000001,-6.9117455,23.90098,-37.553017,-0.00026503205,-0.01253362,0.041761400000000004,989.99835,0,13.0,1,1
11.12,0.055662632000000004,-0.16307449999999998,9.776414,-0.00047530863,-0.0019012772000000001,0.0011519208,-7.024547,23.63741,-37.67418,-0.01059708,0.011374593,0.027450562,990.01385,0,13.0,1,1
11.16,0.046138614,-0.15115899,9.774049,-0.00034589678,-0.0008369502,0.00048237922999999996,-7.060799,23.81389,-37.217009999999995,-0.01057373,-0.0075790434999999995,0.036917686,990.0085,0,13.0,1,1
11.2,0.060513555999999996,-0.15830973,9.757482000000001,0.00018102574,-0.00030339172,-0.00045217312000000006,-6.861092599999999,23.895685,-37.48353,-0.010938525,0.006633073000000001,0.046383858,990.0014,0,13.0,1,1
11.24,0.055769295,-0.16069385,9.776423,-0.00035194851999999997,0.0010282435,8.031182e-05,-6.9805245,23.994513,-37.39392,-0.010955673,-0.0073406845,0.046385765,989.99866,0,13.0,1,1
11.28,0.05580482,-0.15831146,9.766957000000001,0.00031349846,-0.00017012248,-0.0011182566,-7.040853,24.35926,-37.09803,-0.0016835593,-0.0023463666,0.05585575,989.9862,0,13.0,1,1
11.32,0.051060557,-0.15831232,9.757491,0.0015115773000000002,0.0011615125,-0.00045261357000000004,-6.6810327,24.064245,-37.444153,-0.0067718959999999995,0.007043615,0.032179832,990.0218,0,13.0,1,1
11.36,0.058265805,-0.17022955,9.771699,-0.00021981876000000001,0.00036262046,-0.0001864445,-7.0598206999999995,24.183653,-37.39277,-0.0257384,0.016525223999999998,0.03690815,990.00397,0,13.0,1,1
11.4,0.04635185,-0.14639765,9.7646,-0.00035331884,-0.00030311366,-0.00058606523,-6.96903,24.268673,-37.41173,0.00249473,-0.007646337,0.027433395,989.9938,0,13.0,1,1
11.44,0.055947005999999994,-0.1606982,9.755135000000001,-0.0010194513,0.0004958897,-5.358024e-05,-6.846009700000001,23.804497,-37.5575,-0.0020907708,-0.0029291064,0.0653038,990.0245,0,13.0,1,1
11.48,0.053592622,-0.15593249,9.7740755,4.5469759999999993e-05,0.00022962933999999996,-5.372701e-05,-6.965580999999999,23.797411,-36.768814,-0.0020685978,-0.0027374923,0.032162666,990.0044,0,13.0,1,1
11.52,0.04884839,-0.15355012,9.766976,0.00031110029999999997,-3.657525e-05,-0.0003203366,-6.8901699999999995,23.341475,-37.13868,-0.0068558156000000006,-0.0027467906,0.03689289,989.9894400000001,0,13.0,1,1
11.56,0.051273822999999996,-0.15831754,9.757511000000001,-0.00022187418999999997,9.663829400000001e-05,7.8990386e-05,-6.738073,23.431513,-37.629290000000005,-0.011787076,0.0020888448,0.04162693,989.9819,0,13.0,1,1
11.6,0.044139683,-0.15593508,9.76225,-0.00022187418999999997,9.663829400000001e-05,7.8990386e-05,-6.738073,23.431513,-37.629290000000005,0.0120667,0.0019839405999999998,0.041623116,989.9819,0,13.0,1,1
11.64,0.048955023,-0.15116942,9.762253,0.00017691476000000002,0.0002299074,0.00034501267,-6.384042,23.76274,-37.24132,0.0025592968,-0.012285724,0.055820465,989.9721699999999,0,13.0,1,1
11.68,0.04421076,-0.15355358,9.771724,0.00030972998,-3.635281e-05,0.0006111818,-6.820114,24.249844,-37.04866,0.016757924,-0.017008692,0.04161644,990.0101300000001,0,13.0,1,1
11.72,0.053805918,-0.14163801,9.781198,-0.0006227180000000001,0.00036317663,0.000344719,-6.624291400000001,24.064844,-37.683884,-0.016892027,-0.016896531,0.017942429,989.982,0,13.0,1,1
11.76,0.05145153400000001,-0.15355536,9.75516,0.0004422028,-0.00016939951,7.825627e-05,-6.8314710000000005,24.081602,-37.729927,-0.012105875,0.0024748295999999998,0.036881447000000005,990.0024,0,13.0,1,1
11.8,0.051487118,-0.16070604,9.769366,0.0004422028,-0.00016939951,7.825627e-05,-6.8314710000000005,24.081602,-37.729927,0.0068238303,0.00712125,0.04634857,990.0024,0,13.0,1,1
11.84,0.051522672,-0.14402398,9.748064999999999,0.00034950205000000003,0.0016052285000000002,7.966047e-05,-6.63386,23.317953,-36.945847,0.006492960999999999,-0.011607021,0.06528759,990.00494,0,13.0,1,1
11.88,0.053948075,-0.14402485,9.778842,0.00034915967,-0.0002589271,-0.00031996003,-7.096914,24.096289000000002,-37.458923,-0.012673397,-0.021135703,0.041612625,989.95966,0,13.0,1,1
11.92,0.061153352,-0.16309193,9.771744,-5.0656759999999996e-05,0.00014060238,-5.3791067000000004e-05,-7.0106896999999995,24.176888,-37.24597,-0.01756332,0.007517308,0.027406693,990.02045,0,13.0,1,1
11.96,0.061188877,-0.13926002,9.740973,-0.00018415707999999998,-0.00039197376000000005,0.0004786939,-7.0506883,24.192492,-37.856598,-0.03174892,-0.011733383,0.060541153,990.02045,0,13.0,1,1
12.0,0.044495106,-0.15832713,9.769383,-0.00018415707999999998,-0.00039197376000000005,0.0004786939,-7.0506883,24.192492,-37.856598,0.011086206999999999,-0.00233756,0.03213215,990.02045,0,13.0,1,1
12.04,0.04453063,-0.15117815,9.767019,-0.00031800047,-0.0017234419000000001,-0.0007200211999999999,-6.752719,24.260752,-37.82953,0.01658858,-0.012057856,0.046323776,989.96246,0,13.0,1,1
12.08,0.052004427,-0.14165250000000001,9.771780999999999,-0.00031800047,-0.0017234419000000001,-0.0007200211999999999,-6.752719,24.260752,-37.82953,-0.011893421000000001,-0.007309258000000001,0.027381897000000002,989.96246,0,13.0,1,1
12.12,0.05710441,-0.1535767,9.7741785,-0.0005863032,0.0006711815400000001,7.195352e-05,-7.058298599999999,24.185126999999998,-37.470078,-0.022299092000000003,-0.0026450454999999997,0.02259159,990.0056,0,13.0,1,1
12.16,0.049991727,-0.14404503,9.776551,7.893682e-05,5.4810735e-06,-0.0007272297500000001,-7.0432167,24.093943,-37.54405,-0.012884118,-0.011906311000000001,0.027324677000000002,989.9930400000001,0,13.0,1,1
12.2,0.05482858400000001,-0.14881301,9.757617999999999,7.893682e-05,5.4810735e-06,-0.0007272297500000001,-7.0432167,24.093943,-37.54405,-0.008186739,-0.0022984445,0.04626274,989.9930400000001,0,13.0,1,1
12.24,0.045325994,-0.1392813,9.778928,0.0006110186,0.0001387283,-0.0008606233,-6.9974275,23.452092999999998,-37.66752,0.0061630122,-0.016241103,0.027321815,989.9806,0,13.0,1,1
12.28,0.04777291400000001,-0.14881578,9.767097,0.0004773112,-0.00026065632000000003,0.0002044047,-7.112837,23.92363,-37.908276,0.0016559213,-0.020925865,0.046254158,989.99054,0,13.0,1,1
12.32,0.045440077999999995,-0.15120044,9.771836,0.0006099194,0.00027206464,-0.0008610943300000001,-6.653775,23.984842,-38.136565999999995,-0.0026567765,-0.010955051,0.022581099999999996,990.00354,0,13.0,1,1
12.36,0.038327396,-0.14643529,9.77421,0.00020989591,-0.0014588995000000002,-0.0011276458,-6.731686,24.06954,-37.51364,0.0021167248000000002,-0.01081121,0.027311325,990.02356,0,13.0,1,1
12.4,0.03599456,-0.16788623,9.755277,7.618802e-05,-0.0011924942,-0.0007284076400000001,-7.2092795,24.570776000000002,-37.854294,0.011550214,0.008220822,0.055713654,989.9830300000001,0,13.0,1,1
12.44,0.040831417,-0.14643815,9.786056,7.563819000000001e-05,0.00027233245999999997,0.00020346217,-6.825084700000001,24.71963,-37.614273,0.016495977,-0.015627325,0.041502952999999995,990.00854,0,13.0,1,1
12.48,0.048058182000000005,-0.15597263,9.778959,0.0006077201,-0.000393368,0.00046954230000000003,-6.6393743,24.156029999999998,-37.60991,-0.0026815534000000003,0.0034734905,0.036764145,990.00366,0,13.0,1,1
12.52,0.055284917,-0.15120745,9.760028,7.453842e-05,-0.00039327872000000005,0.0002029908,-6.92835,23.990694,-37.401733,-0.012203813,-0.0058928877,0.046230315999999994,989.9906599999999,0,13.0,1,1
12.56,0.038612664,-0.16074198,9.752931,-5.9169237000000004e-05,-0.00039318942999999997,6.959724000000001e-05,-6.7076106,23.881273,-37.352364,-0.0029147752,-0.005940959,0.0462265,989.9788,0,13.0,1,1
12.6,0.048229337000000004,-0.14644372,9.762404,-0.00059235096,0.0005390054,0.00020251953000000001,-6.854706299999999,24.533714,-37.367874,0.0017050691,-0.0058532953,0.05568981,990.0093400000001,0,13.0,1,1
12.64,0.04828638,-0.15121171,9.757675,-0.00019342694999999999,0.0006722525999999999,6.9125876e-05,-6.529371299999999,23.416224,-37.660553,-0.002810765,-0.010666548999999999,0.0746212,989.9917,0,13.0,1,1
12.68,0.053123236,-0.14882979,9.778986,0.0008712867,-0.0001266058,-0.0004637415,-6.7521759999999995,23.892462,-37.73107,-0.0030492171999999995,-0.010274291,0.022542952999999998,989.9966,0,13.0,1,1
12.72,0.043620646,-0.15121445,9.771889999999999,0.00020494709999999998,-0.00039283220000000004,-0.00019766125,-6.76283,23.882149,-37.18994,-0.008014433,-0.0009470582,0.017801285,990.0194,0,13.0,1,1
12.76,0.043677688,-0.15836570000000003,9.755324,-0.00019507656000000004,0.00013988858,-0.00033105494,-7.076179499999999,23.272942999999998,-37.56791,-0.007990506,0.0037293136,0.041466712999999995,990.0194,0,13.0,1,1
12.8,0.060464025,-0.15360054,9.774267,-0.00032878458,0.00027313584,-0.00033129056,-6.820411999999999,23.617704,-37.47353,-0.017003782,-0.0059681833,0.05565834,990.00964,0,13.0,1,1
12.84,0.04618165,-0.15121871,9.762435,-0.0005956496,-0.0010583545,0.00020110578,-6.913810300000001,24.267796,-37.57416,-0.0025751293,-0.025133178,0.046182632,990.0018,0,13.0,1,1
12.88,0.039068997,-0.16075319,9.769544,6.959018e-05,-0.0010582652000000001,-0.0007312353699999999,-7.02922,24.739332,-37.814921999999996,0.007245019,0.003260687,0.041438103,990.0171,0,13.0,1,1
12.92,0.053465455999999995,-0.14883813,9.760079,-0.00019782547,-0.00012598105,0.00020039882,-7.151153999999999,24.466928,-37.472256,-0.016631424,-0.006198689300000001,0.031965256000000004,989.977,0,13.0,1,1
12.96,0.036793202000000004,-0.15122285,9.769553,0.00020109863999999997,-0.0005253656,-0.0005987844,-7.208874000000001,24.096567,-37.056767,0.012131713,-0.0012662262,0.03196144,990.0152,0,13.0,1,1
13.0,0.036850244,-0.15122429,9.757722,0.00020109863999999997,-0.0005253656,-0.0005987844,-7.208874000000001,24.096567,-37.056767,0.012467589,-0.0062673837,0.04615593,990.0152,0,13.0,1,1
13.04,0.05602652,-0.14645913,9.776666,0.00046631472999999996,-0.00012571324,0.00046600774,-6.550105599999999,24.239576,-37.551567,0.0029521286,-0.006046653000000001,0.050886154,990.0427,0,13.0,1,1
13.08,0.06328711,-0.15831909,9.771721000000001,-0.00059111,-0.00012698577,0.0007356831299999999,-6.612253699999999,23.970713,-37.60325,-0.013877232,-0.0014212279999999999,0.022690772999999997,989.9897,0,13.0,1,1
13.12,0.05369073,-0.14640179999999997,9.745678,-0.00059111,-0.00012698577,0.0007356831299999999,-6.612253699999999,23.970713,-37.60325,0.0053240284,-0.01545091,0.07477665,989.9897,0,13.0,1,1
13.16,0.046484232,-0.15355074,9.771713,0.00048632355,5.4276607e-06,0.00034438976,-6.5721169999999995,24.061024,-37.6917,0.010097317,-0.0058545023,0.04637432,990.0152,0,13.0,1,1
13.2,0.034497947,-0.14639995,9.76224,0.00035352032999999995,0.00013852803,-5.4932025000000004e-05,-7.2184114,24.561935000000002,-37.390465,0.015095241,0.0035961121000000003,0.046375275,990.0204,0,13.0,1,1
13.24,0.044020712000000004,-0.1630821,9.77881,-4.5599023e-05,-0.00039416127000000003,-0.00045425384000000006,-6.8601136,24.265448000000003,-37.659286,-0.0037531592,0.01335451,0.0037698746,990.0155599999999,0,13.0,1,1
13.28,0.048763752,-0.15593132,9.77407,-0.00017804776000000002,0.0005378291,0.00061131356,-6.913267599999999,23.899506,-37.47571,0.0007895902,0.0035035908000000003,0.02744484,990.0058,0,13.0,1,1
13.32,0.036777437,-0.14639726,9.766966,-0.0007103249,-0.00026117603,-5.432422e-05,-6.698914,23.152060000000002,-37.541992,0.0011517294000000001,-0.0011168271,0.013245583,990.0210000000001,0,13.0,1,1
13.36,0.031960845,-0.15354624,9.757492999999998,-2.728778e-05,9.901486999999999e-05,-0.00036941952000000004,-6.923240700000001,23.626823,-37.535202000000005,0.015125547,-0.015305862,0.055862427,989.9879,0,13.0,1,1
13.4,0.05104330000000001,-0.151162,9.759857,0.0006388562999999999,0.00076474703,3.0206342e-05,-7.152974,23.833317,-37.81982,0.0008460395,-0.010363683,0.07007027,990.0185,0,13.0,1,1
13.44,0.048616587999999995,-0.1511612,9.769322,0.00077236886,-0.0009663638000000001,3.0358321999999997e-05,-6.8900323000000006,23.447392999999998,-37.837757,0.0011592843,-0.0053149313,0.046405792,990.0037,0,13.0,1,1
13.48,0.036630273,-0.15831009,9.778789,0.0013053553,9.8842196e-05,-0.00036896351999999997,-6.652391000000001,23.8804,-37.514793,0.010376281999999999,0.009276122,0.022743225,990.0159,0,13.0,1,1
13.52,0.0461531,-0.13447633,9.771684,0.0013053553,9.8842196e-05,-0.00036896351999999997,-6.652391000000001,23.8804,-37.514793,0.015110392,-0.028703107999999998,0.055888176,990.0159,0,13.0,1,1
13.56,0.043726385,-0.13924205,9.776414,-0.0006913045699999999,0.0008976747,0.00043028809999999995,-6.4458923,24.126015,-36.868126000000004,0.00033707544,-0.024004578999999998,0.036958694,990.00854,0,13.0,1,1
13.6,0.048469424000000004,-0.1392411,9.788247,-0.0006913045699999999,0.0008976747,0.00043028809999999995,-7.118084,24.181583,-37.075737,0.005056672,-0.0284774,0.032232285,990.00854,0,13.0,1,1
13.64,0.038873047,-0.13685694,9.776408,0.0010401033,0.0006313012,0.00016412418000000002,-6.559673299999999,23.492682000000002,-36.813534000000004,0.009463545,-0.018954976999999998,0.036972046,990.0061599999999,0,13.0,1,1
13.68,0.055565536,-0.153539,9.77167,-0.0002911217,0.0008975595,0.000430592,-6.9186745,23.631239,-37.767117,-0.014237095,0.005035192,0.027506827999999997,990.0294,0,13.0,1,1
13.72,0.041189373,-0.14162165,9.759830000000001,0.00010870684999999999,-0.00030091952,-0.000101887796,-7.1626496,24.19277,-37.454445,5.7648867e-05,-0.013913393000000001,0.032248497,990.01636,0,13.0,1,1
13.76,0.041152567,-0.16783689999999998,9.755094,-2.4096604000000003e-05,-0.00030097703,3.1422154e-05,-6.806553999999999,24.157183,-37.04533,0.0046866313,0.005119577,0.06539154,990.0093,0,13.0,1,1
13.8,0.04111576,-0.14638641,9.764558000000001,0.00037573193999999996,0.000631071,0.00016473205000000002,-6.855142599999999,23.79566,-37.09367,0.014308828999999999,-0.004164383,0.055930138,990.0017,0,13.0,1,1
13.84,0.053028464000000004,-0.16783509,9.766921,0.00024292860000000002,0.00023153957000000003,0.00043119987999999996,-6.806416499999999,24.263102,-37.744403999999996,-0.0047272034,0.014923677,0.051200867000000004,990.02716,0,13.0,1,1
13.88,0.048211872999999995,-0.15115121,9.762185,0.00037644102,-0.00016799182000000001,-0.00023443782000000002,-6.530457,24.152804999999997,-37.857459999999996,-0.014339019,0.0007397979499999999,0.041736603,990.0169999999999,0,13.0,1,1
13.92,0.036225617,-0.16544995,9.769282,0.0005099537000000001,-0.0003012073,-0.00036744378,-6.8520985,23.798609,-37.24828,0.009439174,0.01046589,0.022806167999999998,990.0146,0,13.0,1,1
13.96,0.033798903,-0.15114942,9.755075999999999,-0.00015548141999999999,0.00076399866,-0.00023413391,-6.4839644,23.668885999999997,-36.758522,-0.00020244718,-0.008381292,0.05595398,990.01184,0,13.0,1,1
14.0,0.04093179,-0.15591505,9.778744999999999,0.0007769786999999999,-0.0001681645,-0.00023398187000000001,-6.609889999999999,24.236029000000002,-37.15723,0.018926557,-0.0035808831,0.051223755,990.0146,0,13.0,1,1
14.04,0.05116135,-0.15354821,9.762235,0.0005110175,0.00049756764,0.0002988018,-6.612391499999999,23.864794,-36.904167,-0.0014845915,-0.0036077052,0.046361923,990.0324,0,13.0,1,1
14.08,0.049484192999999996,-0.16071555,9.7812395,0.000777688,-0.0007009113999999999,0.0002989538,-7.0628649999999995,24.180708,-37.23816,-0.006575428,0.015462621999999999,0.017954826,990.01715,0,13.0,1,1
14.12,0.04950449,-0.15118289,9.764669999999999,-0.00083014753,0.0006322816500000001,-0.00023793807,-6.983026,23.623278,-37.140859999999996,-0.011457149,0.0012716502,0.03689289,990.0227699999999,0,13.0,1,1
14.16,0.04474497,-0.15833327,9.769406,-3.4953962e-05,-3.289862e-05,-0.00023954692999999998,-6.7597857,23.885096,-37.34455,0.003019698,0.0013404638000000001,0.027422905,990.0375,0,13.0,1,1
14.2,0.044765234,-0.15833381,9.75994,-3.514954e-05,0.0006329228599999999,-0.00023963075000000002,-6.823456299999999,23.614760999999998,-37.318915999999994,0.02200709,-0.003782943,0.06055641,990.0152,0,13.0,1,1
14.24,0.049565345,-0.16071755,9.778879,-0.00056797697,-0.000299151,0.0009587068300000001,-6.9283494999999995,23.990692000000003,-37.401737,-0.0017858854999999998,0.010307311999999999,0.04161358,990.0453,0,13.0,1,1
14.28,0.04958567,-0.16071802,9.764678,9.761712999999999e-05,-0.0006985931,-0.0006392722,-6.6773086,23.80482,-38.199387,-0.011123463500000002,0.010523841,0.04161358,990.02545,0,13.0,1,1
14.32,0.040046364,-0.15595195,9.762313,0.0007632113000000001,0.00076617603,-0.00010672427,-6.835356699999999,23.81481,-38.098633,0.0027962327000000003,0.0012316257,0.036883354,989.9923,0,13.0,1,1
14.36,0.042456567,-0.14880264,9.757581,0.00036354162000000006,-3.2739829999999997e-05,0.0002926656,-6.720191499999999,24.343698999999997,-37.531452,0.012369203999999998,0.0015102178,0.05108738,990.02026,0,13.0,1,1
14.4,0.049646555999999994,-0.15595302,9.764683,-3.6127777999999996e-05,0.0007662396,0.00015942383,-6.8702245,23.886847,-37.0197,-0.0023883579999999997,0.0060917735,0.060555458,990.0049,0,13.0,1,1
14.44,0.04966685,-0.15833676,9.781255,-0.00043579718,0.0006331134,-0.000106975844,-6.5606217000000004,24.335179999999998,-37.709509999999995,0.002029378,0.005684211999999999,0.027407646,990.0049,0,13.0,1,1
14.48,0.052077055,-0.1607205,9.776523,-0.00083546666,0.0008994610400000001,-0.00037337553999999997,-6.931256299999999,24.093664,-37.946205,-0.012600828,0.010296494,0.022670746000000002,990.03546,0,13.0,1,1
14.52,0.035368025,-0.14403802,9.7599535,-0.00016987256999999997,0.0007663348,-0.00024030147999999998,-6.7417974,23.690939,-36.874054,0.0060783364,-0.013385147,0.036875725,990.0129,0,13.0,1,1
14.56,0.04733783,-0.16072151,9.750486,-0.0003032261,0.00089952454,0.0006917202999999999,-6.7392970000000005,24.062176,-37.127113,0.010641098,-0.003957629,0.07001399999999999,990.0434,0,13.0,1,1
14.6,0.047358155,-0.15118894,9.776527999999999,0.0002292101,0.00036692455999999996,0.00069163647,-6.9003882,24.06922,-36.87175,0.0057574026,0.00097356737,0.036873817,990.02075,0,13.0,1,1
14.64,0.040208727,-0.15118942,9.774161999999999,0.0002292101,0.00036692455999999996,0.00069163647,-6.9003882,24.06922,-36.87175,-0.0037142783,-0.008570239,0.036872864,990.02075,0,13.0,1,1
14.68,0.047398715999999994,-0.160723,9.774164,0.0002290144,-0.00043199136,-0.0009063426,-7.029358,24.633417,-37.115845,0.0057250485,-0.013635963000000001,0.046336174,990.01544,0,13.0,1,1
14.72,0.04263925599999999,-0.15357363,9.769432,-0.0009697980999999999,0.0003670198,-0.0005070364599999999,-7.230747999999999,24.023933,-37.895973,0.0006013997,-0.013957381000000001,0.022657393999999997,990.0362,0,13.0,1,1
14.76,0.025930226,-0.1511909,9.769434,-3.788821e-05,0.00023389362,-0.00010764651000000001,-6.885167999999999,24.083948,-37.6448,0.0292653,-0.0046817809999999994,0.055791855,990.0366,0,13.0,1,1
14.8,0.04028988,-0.15834126,9.769436,-3.788821e-05,0.00023389362,-0.00010764651000000001,-6.885167999999999,24.083948,-37.6448,-0.008973815,0.004961744000000001,0.036854744,990.0366,0,13.0,1,1
14.84,0.042700082,-0.14880863,9.778907,0.000494548,-0.00016554838,-0.0005072042,-6.766417,24.247495999999998,-37.13378,0.009707294,-0.0041792393,0.036859512000000004,990.02625,0,13.0,1,1
14.88,0.057059765,-0.15119237,9.76944,0.000494548,-0.00016554838,-0.0005072042,-6.766417,24.247495999999998,-37.13378,0.00016875938000000001,-0.003959924,0.055800438,990.02625,0,13.0,1,1
14.92,0.042740642999999995,-0.1535761,9.757606,-1.3159675e-05,-1.4101051e-05,-0.00051491713,-6.796581,24.429869,-36.985832,-0.009444494,-0.0036365985999999998,0.041599274,990.0165400000001,0,13.0,1,1
14.96,0.045150876,-0.14642677,9.755239999999999,0.00011980257,0.00051856245,0.0010828944,-6.678967999999999,23.697428,-37.423004,0.004460331,-0.012971431,0.06527424,990.00635,0,13.0,1,1
15.0,0.05712068,-0.17026016,9.774179,0.0006522387,-1.4037547e-05,-0.0003819269,-6.786225,23.80804,-37.951843,-0.005414393000000001,0.015372336,0.051067352,990.0289300000001,0,13.0,1,1
15.04,0.054941267,-0.14881578,9.776566,0.00025256936000000004,0.0014507315,-0.00011569483,-7.2473516,24.113646,-37.744698,-0.010341056,-0.003821075,0.032107353,990.04675,0,13.0,1,1
15.08,0.0573591,-0.15834957,9.769467,-1.4168996e-05,0.0005186944999999999,0.00054991385,-7.011232000000001,24.545177,-37.344425,-0.02021864,0.010398388,0.027370453,990.0115400000001,0,13.0,1,1
15.12,0.047827363,-0.16073349,9.760000999999999,-0.00027929238,0.00038447027000000004,-0.00025301237000000004,-6.784841,23.703598,-37.33007,-0.0060908757,0.010621607,0.04157543,990.0318599999999,0,13.0,1,1
15.16,0.040685594,-0.15358439,9.767105,-0.0001464037,0.0010503036999999998,-0.00025312767999999996,-6.608368,24.237501,-37.234535,0.013199303,-0.003784299,0.055773735,990.0119,0,13.0,1,1
15.2,0.045493364,-0.16311821,9.776575999999999,-0.00014667262,-0.00028123206,0.00014623073999999998,-6.967944,23.532091,-37.21483,0.013289511,0.0005052984,0.041560173,990.0219999999999,0,13.0,1,1
15.24,0.05508089,-0.15358582,9.771844,-0.00028009972,-0.00028118835,0.00067874714,-6.5961933,24.249289,-37.852973999999996,-0.0056383386,-0.0042000413,0.032090187,990.0221,0,13.0,1,1
15.28,0.04793912,-0.15120313,9.760011,-1.4053105e-05,-0.0012132501,-0.000120315846,-7.098978999999999,24.463106,-37.480072,-0.01976617,0.0007842332,0.027353287,990.04755,0,13.0,1,1
15.32,0.043187199999999995,-0.1535871,9.77185,0.0002519935,-1.4784979999999998e-05,0.00014588458,-7.006123,24.181307,-37.47789,-0.005298529000000001,-0.0038228482000000003,0.036821365,990.0297,0,13.0,1,1
15.36,0.05038488,-0.15358779,9.762383,-0.00014774958,-0.00014789928,-0.0001205467,-7.0945506,24.361609,-37.01291,0.004639052,-0.003929749000000001,0.046284676,990.0272,0,13.0,1,1
15.4,0.045633018,-0.15120524,9.778955999999999,-1.4860911e-05,-0.0010799611,0.00041196980000000004,-6.9237833,23.99511,-37.63365,-0.01892402,-0.0038155168,0.008407593,990.0222,0,13.0,1,1
15.44,0.057610422,-0.16550556,9.774224,0.00065065955,-0.0008136014,0.0001455385,-6.880495,22.982025,-37.504059999999996,-0.018811889,0.020217925,0.041547775,989.99945,0,13.0,1,1
15.48,0.050468624000000004,-0.15120655,9.760024000000001,0.0007835486,-0.0006804,-0.00012089273999999999,-6.7251935,23.601225,-37.025333,-0.014233526000000002,-0.0036029815999999997,0.036810875,989.9872,0,13.0,1,1
15.52,0.055276364,-0.15359053,9.762393,-0.00014909546,-0.00014768076999999998,-0.00038743942,-6.966964999999999,23.901854,-37.390587,-0.014150161000000001,0.006191313299999999,0.046281815,990.0227,0,13.0,1,1
15.56,0.05530435,-0.15120795,9.75056,-0.00014909546,-0.00014768076999999998,-0.00038743942,-6.966964999999999,23.901854,-37.390587,0.0046805143,-0.007995099,0.06995392,990.0227,0,13.0,1,1
15.6,0.050552427999999996,-0.15120867,9.757665,0.0006493137999999999,0.0005181963,0.0005444354599999999,-6.579481599999999,23.05323,-37.631596,9.864569e-06,0.0014386475,0.0699482,990.02527,0,13.0,1,1
15.64,0.05297026,-0.16789225,9.776605,-0.0008156928,-0.0012128132000000002,0.00067747803,-7.006558999999999,23.443253,-37.203682,-0.004646033,0.010780439,0.027334213,990.0126,0,13.0,1,1
15.68,0.06255782,-0.15835986,9.7671385,-1.7014477999999998e-05,0.00051828375,0.00014473093,-6.933459,24.354565,-37.268271999999996,-0.033200517,0.00598228,0.027329445,990.0179,0,13.0,1,1
15.72,0.05063626,-0.15359399,9.764773,-1.7014477999999998e-05,0.00051828375,0.00014473093,-6.933459,24.354565,-37.268271999999996,0.00032774732000000005,0.0012609065,0.036797523,990.0179,0,13.0,1,1
15.76,0.053054094,-0.14644486,9.776612,-0.00015044169,-0.0006800939999999999,-0.0002548583,-6.7152199999999995,23.873909,-36.965843,-0.014068305500000001,-0.008352667,0.022589684,990.02045,0,13.0,1,1
15.8,0.06264159,-0.15597862,9.77188,0.00011533611999999999,-0.00068000663,0.00014438477,-6.779594400000001,23.445642000000003,-38.16261,-0.008781124,0.0011277795,0.041521072,990.01544,0,13.0,1,1
15.84,0.050720035999999996,-0.13929632,9.764782,-0.00015124903,-0.0009462787,0.0006769012,-7.0145740000000005,23.910095000000002,-37.61469,-0.0083588585,-0.013041823999999999,0.03678322,990.0183,0,13.0,1,1
15.88,0.0531379,-0.15121344,9.767151,0.00024795540000000003,-0.00041360332000000004,1.0996067000000001e-05,-6.9208775,23.892141,-37.089188,-0.013280977,0.0012147278,0.022577286000000002,990.0129,0,13.0,1,1
15.92,0.06989509,-0.14406428,9.776622,-0.00028494562,-0.00041355967000000006,0.00014403867,-7.395564599999999,24.290405,-36.885376,-0.031659096,-0.008056431999999999,0.022574425,989.99316,0,13.0,1,1
15.96,0.048413903,-0.144065,9.757688,0.0005137328,-0.0010793057,-0.0005218664,-7.263413000000001,23.83507,-37.49497,0.0067761727,-0.02241312,0.06518078,990.0157,0,13.0,1,1
16.0,0.05800146,-0.16551512,9.783729,0.00011398978000000001,-0.00028031432999999997,0.00027696584999999997,-6.995064299999999,23.71741,-37.221497,-0.0026969686,0.015752584,0.041505814,990.0361,0,13.0,1,1
16.04,0.050698400000000005,-0.15597874,9.776616,-0.00095077895,0.0002522372,-0.00025545395,-7.119606,24.18011,-36.99843,-0.007423196,0.0011152476,0.027310371,990.0183,0,13.0,1,1
16.08,0.050719947,-0.14167967,9.767147999999999,-0.00014956114,-0.00028126343,0.00067505107,-7.1171045,24.551348,-37.251488,-0.017357226,-0.0035873652,0.01784134,990.0110000000001,0,13.0,1,1
16.12,0.041181922,-0.15359652,9.764783999999999,-0.0009487166,0.0005177180999999999,-0.0001239857,-6.9283494999999995,23.99069,-37.401737,0.011321533500000001,-0.008674204,0.036771774,990.0085,0,13.0,1,1
16.16,0.05315301,-0.15121385,9.762417999999998,-0.0008157664599999999,-0.00014803794,0.00054171495,-6.773644,23.345620999999998,-37.77275,0.0018840022,-0.009084821,0.060435295,990.0136,0,13.0,1,1
16.2,0.06273419,-0.14644775,9.767154,-0.0008157664599999999,-0.00014803794,0.00054171495,-6.773644,23.345620999999998,-37.77275,-0.02680675,0.00038895010000000003,0.0320282,990.0136,0,13.0,1,1
16.24,0.06275570400000001,-0.15598142,9.778992,-0.0002835504,0.0005178191999999999,-0.0010563586,-6.9428887,23.713589000000002,-37.229313,-0.022029322,0.00026865304,0.027287482999999998,989.9936,0,13.0,1,1
16.28,0.043658077999999996,-0.14406553,9.776628,-0.0002835504,0.0005178191999999999,-0.0010563586,-6.979002499999999,23.995985,-37.471222,-0.0077821165,-0.01889883,0.027284622,989.9936,0,13.0,1,1
16.32,0.055629134000000004,-0.14406607,9.7718935,-0.0009495478999999999,-0.00054741063,-0.00025749987,-7.1288979999999995,23.645056,-37.658546,-0.007596761,-0.009044841,0.032021522999999996,990.0136,0,13.0,1,1
16.36,0.04609111,-0.16074958,9.762427,0.00038182357000000005,0.00038472877,0.0008076744999999999,-6.6915493,24.159853,-37.602097,0.016470376000000002,-0.004366815,0.05095482,990.01624,0,13.0,1,1
16.4,0.05328238,-0.15360028,9.779,0.00038161577000000004,-0.0012131328999999999,0.00040811163,-6.6543493,23.140873000000003,-37.16328,0.011875968,0.004813418,0.050945282,990.01904,0,13.0,1,1
16.44,0.043744295999999995,-0.14883426,9.776635,-0.00051358226,0.0007564974000000001,-0.00020861783,-7.032157000000001,23.630045000000003,-37.28765,0.002599094,-0.009547919,0.017799376999999998,990.01636,0,13.0,1,1
16.48,0.04615578,-0.15836784,9.760067,-0.00024747415,-0.0015071539,-0.00020870694,-6.8319073,23.34355,-37.455715000000005,0.012281414,-0.009572074,0.055672646,990.0113,0,13.0,1,1
16.52,0.04139757,-0.15836844,9.771905,-0.0009134718,-0.00044185654000000003,0.00072330947,-7.0365853000000005,23.731543,-37.754814,0.0028549097,-0.0052217543,0.041459084,990.01135,0,13.0,1,1
16.56,0.06531817,-0.15598562,9.767173,-0.0003810478,-0.00030866495,-7.572720999999999e-05,-6.872694500000001,24.727873000000002,-37.83837,-0.0064616203,-0.0051632524,0.055660247999999996,990.0015,0,13.0,1,1
16.6,0.051000297,-0.15121964,9.76244,-0.000114939845,-0.0005749470400000001,0.00045681547,-7.0693574,24.649023,-37.726467,0.0032628067,-0.00031153857999999994,0.050924300000000006,989.9888,0,13.0,1,1
16.64,0.053411722,-0.14168699999999998,9.779012,0.00095011585,-4.2281543e-05,5.725259e-05,-7.201944999999999,24.366304,-36.842667,-0.006491691,-0.01918517,0.027254105,990.0266,0,13.0,1,1
16.68,0.046263575999999994,-0.14645416,9.762443,-0.00011535545,-0.00017540581999999998,0.00019032147000000002,-6.647962599999999,23.778898,-37.04763,-0.011182383,-0.00445576,0.031993866,990.0143400000001,0,13.0,1,1
16.72,0.051064967999999995,-0.15122119,9.762445,1.7594575e-05,9.094383e-05,-0.0007418732000000001,-7.1288979999999995,23.645056,-37.658546,0.0027378574,-0.013960555,0.05093193,990.0143400000001,0,13.0,1,1
16.76,0.039137065,-0.15122172,9.764814,0.0005500186,0.00035729337999999995,0.00045645918,-6.985633999999999,24.358385000000002,-37.260452,-0.0019309707,-0.0044124722,0.03672695,990.01184,0,13.0,1,1
16.8,0.046328247,-0.15360555,9.767184,0.0004166528,-0.00017530456999999999,-0.00020941957999999998,-6.730164500000001,24.071014,-37.590942,0.016789626000000002,0.00054197013,0.046196938,990.00183,0,13.0,1,1
16.84,0.043959945,-0.14168969,9.77192,0.00028328705000000003,0.0008899927000000001,-0.00034266657999999995,-6.771281200000001,23.61094,-37.326736,-0.0021493286,-0.013464226999999999,0.031995773,990.0274,0,13.0,1,1
16.88,0.051151246,-0.14884004,9.757719,0.00041623720000000003,-0.00017523704,0.00045619198,-7.0894413,23.997736,-37.146370000000005,-0.006978496999999999,-0.013162851000000001,0.041467667,990.02496,0,13.0,1,1
16.92,0.051172793,-0.15360716,9.764823,1.6555568e-05,-0.00044151928,0.00018978701,-6.926284299999999,23.623875,-37.380592,0.0023761056,0.001199618,0.050935745,989.9844400000001,0,13.0,1,1
16.96,0.044024615999999996,-0.14407456,9.760091000000001,0.00028266365,9.114631999999999e-05,0.0008554877000000001,-6.843509700000001,24.175734,-37.810562,-0.0023480356,0.0011974722,0.03199768,990.0074,0,13.0,1,1
17.0,0.04154533,-0.1393058,9.774285,0.0008150877000000001,0.00062381173,0.0004559248,-6.833972,23.710367,-37.476859999999995,0.006621003,-0.017804429,0.031998634,989.997,0,13.0,1,1
17.04,0.03905934,-0.14168671,9.774275999999999,-0.0007784899,0.0003555278,0.00045435182999999996,-6.873131,23.989819,-37.564163,-0.002942305,-0.008685693000000001,0.036746025,990.0026,0,13.0,1,1
17.08,0.04624176,-0.17266965,9.767176,-0.0009117700999999999,8.923173000000001e-05,-0.00021149022999999997,-6.9357147,22.9829,-37.341633,-0.007936232,0.02453284,0.03201008,990.00256,0,13.0,1,1
17.12,0.034304917000000004,-0.15122041,9.769544999999999,0.000552845,0.0004887254,-0.00034470056,-6.972372,23.633589,-37.681995,0.015788615,-0.017914087,0.041484833,990.0099,0,13.0,1,1
17.16,0.048657,-0.1488375,9.767178999999999,0.000552845,0.0004887254,-0.00034470056,-6.972372,23.633589,-37.681995,-0.007979143000000001,-0.013107225,0.027280807,990.0099,0,13.0,1,1
17.2,0.058229268,-0.15837091,9.7742815,-0.00011318903,-0.00031018257,0.0007204582000000001,-7.114061,24.554295,-37.406096999999995,-0.012766453999999998,0.015208736,0.036743164,989.99786,0,13.0,1,1
17.24,0.046292484,-0.14883807,9.771914500000001,-0.0002464691,0.00022246904,0.00018777413,-6.834515,24.078657,-37.575314,-0.0033156722999999996,-0.008319497,0.032013893,989.995,0,13.0,1,1
17.28,0.04630515,-0.14883843,9.771916000000001,0.0001528825,0.00035564677000000006,-0.00034491,-6.487712,23.508009,-37.826316999999996,0.0014106482,-0.008280143,0.027277946,990.0106,0,13.0,1,1
17.32,0.039148152,-0.15360525,9.748244999999999,0.00015276026,0.00075514044,-0.0003449625,-6.5736384,24.05955,-37.614395,0.010506112,-0.0035040677000000003,0.06989002,990.02075,0,13.0,1,1
17.36,0.04872039,-0.15122232,9.776653,-0.00011367774,0.00022252849999999998,-0.00034501476000000004,-6.658777000000001,23.242369,-37.63044,0.0010693967,-0.008350164,0.046214104000000006,989.9979,0,13.0,1,1
17.4,0.041563362,-0.13930622,9.760083,-0.00011367774,0.00022252849999999998,-0.00034501476000000004,-6.658777000000001,23.242369,-37.63044,-0.013386641000000001,-0.017936066,0.050948143,989.9979,0,13.0,1,1
17.44,0.04874575,-0.14645633,9.779023,-0.00038023809999999995,-0.00057637936,0.0003206702,-6.7556553,23.15146,-37.302258,-0.017905023,0.0009050667,0.017799376999999998,990.0235,0,13.0,1,1
17.48,0.041588724,-0.14169016,9.767188,-0.0009129922,0.00022258806,-7.8855985e-05,-6.787342,23.332361,-37.077009999999994,0.0010802485,-0.018080309,0.022535324,990.0259,0,13.0,1,1
17.52,0.05116102,-0.14407372,9.771922,-0.0009129922,0.00022258806,-7.8855985e-05,-7.0040584,23.81449,-37.45674,0.00078522414,-0.022622137999999996,0.032009125,990.0259,0,13.0,1,1
17.56,0.055953502999999995,-0.15122387,9.774291,0.00028530712,0.00035576583,0.00058688136,-6.904816,24.170717,-37.338913,-0.003512919,-0.0038469732,0.055671692,990.0111699999999,0,13.0,1,1
17.6,0.058356047,-0.15360752,9.76719,0.00028518487999999997,-0.0009757937,-0.00034527657999999995,-6.9112024000000005,23.53269,-37.454563,-0.01332204,0.00548698,0.04146576,989.98065,0,13.0,1,1
17.64,0.05119905,-0.15360776,9.776662,-0.0005138849,0.0010215952,-0.00034532897,-7.0000353,24.187199,-37.787113,-0.017914947,0.0007875114699999999,0.017792702,989.9884599999999,0,13.0,1,1
17.68,0.053601623,-0.15360808,9.755357,-0.00011453328000000002,-0.0003099644,5.4092496e-05,-6.931691000000001,23.355608,-37.671997,-0.008210029,-0.008627847,0.041464806,990.0111699999999,0,13.0,1,1
17.72,0.060783982,-0.15122512,9.767194,-0.00051412935,8.952927600000001e-05,-7.91178e-05,-6.821934,23.616234,-37.396225,-0.0035616420000000003,0.0009843408999999999,0.04146576,990.0136,0,13.0,1,1
17.76,0.051237077,-0.14884213,9.757728,0.00041785410000000004,0.00022270707,0.00032030362999999995,-7.0105509999999995,24.282804000000002,-37.945053,0.0061931536,-0.00819087,0.050936699999999994,989.9808,0,13.0,1,1
17.8,0.05363965,-0.15360907,9.767197,0.0012166796,-0.0005762208000000001,-0.0012776439999999999,-6.727801299999999,24.336332000000002,-37.144928,0.001295384,0.0011410564,0.031996727,990.0088,0,13.0,1,1
17.84,0.058432132000000005,-0.14884278,9.776667,-0.00011502198999999998,-0.00017672713,-0.0007450646,-6.573095299999999,23.69126,-37.515945,-0.01759404,-0.0033213198,0.00832653,989.99603,0,13.0,1,1
17.88,0.053665012000000005,-0.14169323,9.7577305,1.8013713999999998e-05,0.0002227666,-0.00047880123,-6.982589999999999,24.361332,-37.41507,-0.012616489,-0.007963747,0.041466712999999995,990.0062,0,13.0,1,1
17.92,0.044118077,-0.14407685,9.7695675,0.00028420734,-0.0008424771,-0.00021253762000000002,-6.745682700000001,23.424149,-37.242767,0.011533789,-0.017705262,0.050930023,989.9912,0,13.0,1,1
17.96,0.060860097,-0.15122697,9.769568,-0.0002663629,-0.00058595353,-4.9993599999999995e-05,-6.481464,24.040121,-37.011590000000005,-0.0076070167,0.0013782978,0.05092907,990.00397,0,13.0,1,1
18.0,0.05408603,-0.14170355,9.786176,-0.00039964309999999996,7.9856014e-05,-0.00018320393,-6.4878497,23.402092,-37.12724,-0.003016431,-0.01294744,0.022483826000000002,990.0166,0,13.0,1,1
18.04,0.056503862,-0.14408752,9.7719755,0.00039781886,-0.00045253453000000004,-0.00031699854,-6.9784603,23.627699,-37.372772,-0.017792173,0.001038909,0.008275032,990.0141,0,13.0,1,1
18.08,0.05175197,-0.15838793,9.769608999999999,-0.001066701,0.00074469025,0.00061150175,-6.8751955,24.356634,-37.58531,-0.008322213,0.0014396459,0.04615593,990.00397,0,13.0,1,1
18.12,0.054169774000000004,-0.15838858,9.769612,-0.00040118064,0.000611576,-0.0003207192,-6.946476,24.078934,-37.173157,-0.0034570545,0.0061820745,0.046152115,990.0193,0,13.0,1,1
18.16,0.05897754400000001,-0.15838924,9.779084,0.00079697167,-5.4170006e-05,-0.0007203083999999999,-7.2635508,23.72915,-36.79589,0.0063179694,0.006052375,0.0414114,989.99677,0,13.0,1,1
18.2,0.06856507,-0.15362337,9.762514999999999,0.00013091281,-0.00032044217,-0.00018779200000000002,-6.9610147,23.801828,-37.000732,-0.017422765,0.015539393,0.06034565,990.012,0,13.0,1,1
18.24,0.05425358,-0.15362409,9.774353999999999,-2.51428e-06,-0.0003203985,-0.00085369707,-6.6784253,23.329138,-37.324554,-0.017383046,-0.0032613724,0.022471427999999998,990.0044,0,13.0,1,1
18.28,0.04472193,-0.14885825,9.767256,-2.7835486000000002e-06,7.911909e-05,-0.0007206545,-7.1756663,23.91714,-37.359320000000004,0.0016557573999999998,-0.013241619,0.04139805,989.9916400000001,0,13.0,1,1
18.32,0.056699365,-0.15124210000000002,9.769625999999999,-0.0004027959,7.920645999999999e-05,-0.00018825352999999998,-6.8978868,24.440454000000003,-37.124813,-0.0032947995,-0.013329551,0.05086422,990.00214,0,13.0,1,1
18.36,0.059117197999999996,-0.15362611,9.764894,0.00039588247000000003,7.9250145e-05,0.00034426284,-6.652391000000001,23.8804,-37.514793,-0.0032957121999999998,-0.008666366,0.055595398,989.9916400000001,0,13.0,1,1
18.4,0.061535,-0.15601012,9.776732,0.00039588247000000003,7.9250145e-05,0.00034426284,-6.652391000000001,23.8804,-37.514793,-0.00328964,-0.008590951999999999,0.03665638,989.9916400000001,0,13.0,1,1
18.44,0.05439326,-0.15601084,9.762532,-0.00027044554000000003,0.0006119693,-0.0005880735,-6.729621000000001,23.702723000000002,-37.492496,-0.0032512954999999997,0.010329112,0.027181625,989.98694,0,13.0,1,1
18.48,0.0496414,-0.17031118,9.753064,-0.00013755674999999998,7.938127e-05,0.00034391672999999995,-6.961802499999999,25.170547,-36.77276,0.0014220476,0.01018326,0.055583954000000005,990.0123,0,13.0,1,1
18.52,0.049669325,-0.15124556,9.767271000000001,-0.00013782602,-0.0005863646499999999,-0.00045514629999999996,-7.094413,24.467527,-37.71199,0.011039238,-0.018448532,0.046111107,989.992,0,13.0,1,1
18.56,0.05208713,-0.15362957,9.776742,0.00012822059,-0.00045316308,-0.00032210372999999997,-7.2595277000000005,24.101860000000002,-37.126259999999995,0.0015967563,0.0003055036,0.055571555999999994,990.0073,0,13.0,1,1
18.6,0.056894900000000005,-0.15363029,9.769642999999999,-0.00040468032,-0.0004531193700000001,-5.590325e-05,-6.833674,24.342503,-37.05199,-0.012541681499999999,0.0049738884,0.027160645,990.0097,0,13.0,1,1
18.64,0.042583406,-0.15839753,9.755443,-0.0004049496,-0.00031991772,0.00034345518,-6.786362599999999,23.702126,-37.252759999999995,0.0020190476999999997,-0.009188591999999999,0.046095847999999995,989.99725,0,13.0,1,1
18.68,0.04261133,-0.1512483,9.76018,0.0005268867,-0.00071934785,-0.0003224499,-6.8725877,23.621529000000002,-37.465714,0.0021343455,-0.008692667,0.046100616,990.0079,0,13.0,1,1
18.72,0.04263925599999999,-0.14648244,9.767283,0.0006597754,-0.0007193041000000001,7.690861999999999e-05,-6.2636304,24.033673999999998,-37.506683,0.016532395,-0.004040912,0.050828934000000006,990.00037,0,13.0,1,1
18.76,0.045057118,-0.15124970000000001,9.764918,0.00012687459999999998,0.0007454769,-0.0004558385,-6.6262493000000005,23.325315,-37.332370000000004,0.011619925500000001,-0.0039165020000000005,0.05556488,989.9997599999999,0,13.0,1,1
18.8,0.04986483,-0.15601698,9.764922,0.00012687459999999998,0.0007454769,-0.0004558385,-6.6262493000000005,23.325315,-37.332370000000004,-0.002663765,-0.003961757,0.041358948,989.9997599999999,0,13.0,1,1
18.84,0.04033315,-0.15363434,9.76019,0.00039265206,0.00047924844,7.656243e-05,-6.922262,23.996585999999997,-37.71096,-0.0025716536,0.0009469539,0.031887054,990.0079,0,13.0,1,1
18.88,0.0379712,-0.15840158,9.750722999999999,-0.00014024909,-0.001251761,7.6447e-05,-6.985633999999999,24.358385000000002,-37.260459999999995,0.016685609,-0.008559331,0.060292244,990.0002,0,13.0,1,1
18.92,0.045168817,-0.15363571,9.769664,0.00012579752,-5.3295902e-05,-0.0009889319,-6.8757386,24.724923999999998,-37.68376,0.01208692,0.0009769946000000001,0.055553436,990.0029,0,13.0,1,1
18.96,0.047664582999999996,-0.15840489,9.769673,0.00012552826,-0.00071904185,0.000742006,-6.7235336,23.708614,-37.801712,0.007288974,0.00095555186,0.046066284000000006,990.018,0,13.0,1,1
19.0,0.038215518,-0.14172468,9.767316000000001,0.00012552826,-0.00071904185,0.000742006,-6.963921000000001,23.9048,-37.545196999999995,-0.0025072992000000002,-0.018145666,0.03186226,990.018,0,13.0,1,1
19.04,0.043029547,-0.14887533,9.772053999999999,0.0001269141,0.00021164454,-0.00045962449999999996,-7.0437593,24.462232999999998,-37.642497999999996,0.0073182657,-0.01832676,0.01764965,990.0131,0,13.0,1,1
19.08,0.03350416,-0.15602598,9.772058,-0.0009390500999999999,-0.00045403148,0.00020586490000000003,-7.0021005,24.554016,-37.808258,0.011882417,0.01015687,0.05078602,990.0055,0,13.0,1,1
19.12,0.043097973,-0.15602681,9.757857000000001,-0.00040674803,-0.00018766205000000002,-6.0592312e-05,-7.005282000000001,24.445154000000002,-36.954567,0.021232966000000002,-0.0091305375,0.05551529,989.9852,0,13.0,1,1
19.16,0.057471602999999996,-0.16079423,9.776798,-0.0002739199,7.870741e-05,-0.00019389164,-6.797422,24.166021,-37.509155,-0.012297053,0.0050290674,0.041306496,989.9802,0,13.0,1,1
19.2,0.045556365999999994,-0.14649537,9.764963999999999,0.00025838194,0.0008777085499999999,-6.0875027e-05,-7.2925982000000005,24.387204999999998,-37.52278,0.0014256610999999998,-0.0044049323,0.027104378,990.0082,0,13.0,1,1
19.24,0.040810764,-0.14649627,9.760234,-0.00027457973999999997,0.00034513036,-0.00019417441000000002,-6.844732799999999,24.806396,-37.30838,0.0062538459999999995,-0.0042528063,0.041306496,990.0286,0,13.0,1,1
19.28,0.057574272,-0.15603021,9.753135,-0.0001417515,0.00061149977,-0.00046063150000000004,-6.816932,24.358706,-37.902347999999996,-0.01770933,-0.004314095,0.06970978,989.9878,0,13.0,1,1
19.32,0.045659005999999995,-0.15841433,9.757873,-8.923482000000001e-06,7.8921556e-05,-0.0008602467999999999,-6.9035926,23.540054,-37.841087,0.020657896999999998,-0.008997545,0.060237885,990.0137300000001,0,13.0,1,1
19.36,0.057642700000000005,-0.14411548,9.7697115,0.0005233783999999999,-5.4182819999999994e-05,-0.00072723016,-6.8831033999999995,23.717133,-37.623653000000004,-0.0031558573,-0.004226014,0.046031,990.0259,0,13.0,1,1
19.4,0.06006685,-0.15364942,9.764981,-0.0004090569,-0.00045360312999999993,7.157613e-05,-6.7152199999999995,23.873909,-36.965843,-0.0078206435,0.009838045,0.06969738,990.0138,0,13.0,1,1
19.44,0.05293137,-0.14650041,9.764983,-0.0004093867,-0.00018723363999999996,7.143474e-05,-6.637989500000001,24.051584,-36.98814,-0.008204497,-0.008716464,0.036561012000000004,990.0188,0,13.0,1,1
19.48,0.048185766,-0.1369681,9.760253,0.0006220441999999999,0.00042790093,0.0002566083,-6.600759,24.244870000000002,-37.62106,0.010970697,-0.01821813,0.064964294,989.9783,0,13.0,1,1
19.52,0.055389702,-0.16556838,9.772092,-4.4075277e-05,0.00069427036,-0.00027616479999999997,-6.9554696,24.176012,-37.4084,0.0015078001000000001,0.019518808000000002,0.050750732,990.0138,0,13.0,1,1
19.56,0.045864344,-0.15365282,9.757892,-0.00031072084999999997,-0.0007704135,-0.00027630624,-6.65155,24.144247,-36.99147,0.005904726700000001,0.00028316677,0.050746917999999995,989.9963,0,13.0,1,1
19.6,0.045898527,-0.15127036,9.779199,-0.00031105065,0.00016174572,-0.00014328962,-6.855142,23.79566,-37.09367,0.020164616,-0.004295692,0.046013832000000005,990.01636,0,13.0,1,1
19.64,0.04593277,-0.14650461,9.765,-0.00017822263,0.0004281152,-1.0273012000000001e-05,-6.798400999999999,23.796259,-37.333397,0.0058282130000000005,-0.0041835904,0.03654194,989.9937,0,13.0,1,1
19.68,0.06269628,-0.15365532,9.765002,0.00022059169999999998,0.0005613801,0.000655234,-6.5134478,23.588884,-37.211205,-0.008743938,-0.0040356815,0.050745964000000005,989.9813,0,13.0,1,1
19.72,0.060340582999999996,-0.14888957,9.755537,-4.6054220000000005e-05,-0.00010435599,-0.0008096449000000001,-6.875196000000001,24.356635999999998,-37.58531,-0.0036775096999999996,-0.013658926000000002,0.05547428,990.02167,0,13.0,1,1
19.76,0.06754452,-0.14889047,9.776845,0.00021993197,-0.00023746043999999997,-0.00014399638000000002,-6.8022860000000005,23.529467,-37.702114,-0.01317995,-0.004003495,0.031801223999999996,989.98096,0,13.0,1,1
19.8,0.05562919400000001,-0.15365785,9.748441,0.00021993197,-0.00023746043999999997,-0.00014399638000000002,-6.8022860000000005,23.529467,-37.702114,0.0013433135999999998,0.0055799633,0.074409485,989.98096,0,13.0,1,1
19.84,0.055663465999999995,-0.13935897,9.76975,8.611430500000001e-05,0.001094226,-0.00041059492,-6.53266,24.413706,-37.179527,-0.01336341,-0.018143624,0.03653145,990.01215,0,13.0,1,1
19.88,0.05091786400000001,-0.1536595,9.772119,8.578461999999999e-05,0.000295332,0.00078768516,-6.5009737,24.232807,-37.404778,0.005767945,-0.013179511000000001,0.046001434,990.0373,0,13.0,1,1
19.92,0.06051171,-0.14651048,9.767388,0.00021861264,-0.00010408829,-0.00014456181000000002,-7.1917276,23.638565,-37.109596,-0.0038248747999999996,-0.0084917545,0.06493282,990.00964,0,13.0,1,1
19.96,0.05494553,-0.15364102,9.774419,-0.00018021229,-0.00010419365,0.0003883481,-6.7597857,23.885096,-37.34455,-0.0125174895,-0.0036519468,0.031867027,990.0195,0,13.0,1,1
20.0,0.062116504,-0.15125784,9.767317,-3.8482394e-05,0.00029253787999999995,0.00025510776,-6.6007586,24.244867000000003,-37.62106,-0.026690677000000003,0.00079859793,0.027126312000000003,990.0045,0,13.0,1,1
20.04,0.06450766,-0.14172474,9.76495,-0.00030481038,-0.00077272364,0.0005214184,-6.475375,24.046015,-37.320809999999994,-0.012019832,-0.008573025,0.036595345,990.0174599999999,0,13.0,1,1
20.08,0.03821999,-0.15364113,9.760214999999999,-0.00017166443,-0.0007727215400000001,0.000920887,-6.6626085999999995,24.60814,-37.247864,0.011848408999999999,-0.008532912,0.046066284000000006,990.0325,0,13.0,1,1
20.12,0.043001055999999996,-0.14649135,9.764949,0.0010267445,2.6227993999999997e-05,0.0006545658,-6.7226925,23.972462,-37.278393,0.021620791,-0.008398294,0.060269355999999996,990.0274699999999,0,13.0,1,1
20.16,0.05017203,-0.14887467,9.776785,9.4626535e-05,0.00082517765,0.00012192881000000002,-6.65155,24.144247,-36.99147,-0.0026615225,0.0013080537,0.031868935,989.9971,0,13.0,1,1
20.2,0.057343005999999995,-0.14410812,9.767317,-0.00017170122,-0.00010692601999999999,-0.00014439231,-6.9791408,23.89007,-36.77215,-0.007408563000000001,-0.008130595,0.027134895,990.025,0,13.0,1,1
20.24,0.04539478,-0.14172485,9.757848,-0.0009706611999999999,0.0013578134,0.00038823424,-6.714103,24.349588,-37.840675,0.0015842803,-0.022429094,0.036605835,990.0152,0,13.0,1,1
20.28,0.05495566,-0.15364131,9.769685,0.0004940637,0.00015939385000000002,-0.00014440278999999998,-6.8707666,24.255136,-37.11815,0.00649368,0.0011798292,0.046071053,990.0050699999999,0,13.0,1,1
20.32,0.052567005,-0.1584079,9.781521000000001,0.0004940637,0.00015939385000000002,-0.00014440278999999998,-6.840901400000001,23.44063,-37.690964,0.011122203999999998,0.005908236,0.05080509,990.0050699999999,0,13.0,1,1
20.36,0.05017841,-0.15125808,9.772052,-0.00017173789,-0.00010692002,-0.00041072389999999997,-6.430672599999999,24.140745000000003,-37.641174,-0.0035384037,0.0012496561,0.01766777,990.0278,0,13.0,1,1
20.4,0.05256957,-0.15602463,9.762583,9.456565e-05,0.0008251875,-1.1255383e-05,-7.157539999999999,23.828897,-37.587906,0.005838886,-0.0034382491999999996,0.060278893,990.01764,0,13.0,1,1
20.44,0.047791064,-0.15840802,9.764951,9.455308e-05,0.00055887364,-1.1260562999999999e-05,-6.6101885,23.603891,-37.5821,0.005584784000000001,0.0064229667,0.031879425,990.02795,0,13.0,1,1
20.48,0.0430125,-0.15602475,9.764951,0.00049401494,0.00029255974,0.0006545238400000001,-6.924900500000001,23.519432000000002,-36.75882,0.00580607,-0.012513176,0.05555153,990.0101,0,13.0,1,1
20.52,0.059743106,-0.15602475,9.769685,0.0006271609,0.00029256172000000004,0.00012188687,-6.7402754,23.692411,-36.95136,0.0008651017999999999,0.006523758,0.05081749,989.9901,0,13.0,1,1
20.56,0.054964542000000005,-0.14410836,9.774419,9.451641e-05,0.0002925637,0.0006545133699999999,-6.814025999999999,24.255735,-37.35788,-0.013133778999999998,-0.0029709785999999998,0.03188038,990.0028699999999,0,13.0,1,1
20.6,0.054965824,-0.15364161,9.767319,0.0006271362,-0.0011721717,0.00012187642,-6.617661,23.702444,-37.894653000000005,-0.01799722,-0.002617821,0.027149200000000002,990.0231,0,13.0,1,1
20.64,0.045407504,-0.15364161,9.764951,0.0004939663,0.00055888353,0.000121871126,-6.993542,23.718884,-37.298798,0.0059730075,0.007214069399999999,0.03188896,990.0155,0,13.0,1,1
20.68,0.043018877999999997,-0.15125832,9.762584,-0.00017183615000000002,-0.0006395359,0.0005213397,-7.062321000000001,23.812418,-37.13971,0.0016075223999999998,-0.002401054,0.0318861,989.9880400000001,0,13.0,1,1
20.72,0.0430201,-0.15602487,9.783889,0.00076025724,-0.00077269186,-1.129735e-05,-6.7733455000000005,23.977755,-37.347878,0.016285982,0.00722903,0.031885147,990.0252,0,13.0,1,1
20.76,0.035851687,-0.15840825,9.779155000000001,0.0007602453699999999,-0.0010390058,0.00012185541,-6.5861125,23.415627999999998,-37.420821999999994,0.016338848,0.0072250366,0.041353226,990.01324,0,13.0,1,1
20.8,0.050192355999999994,-0.16317484,9.760216999999999,-0.0005713465,-0.000106898195,-1.1307828e-05,-6.709132,23.8798,-37.275059999999996,-0.016903404,0.007530153,0.036622047000000005,990.0131,0,13.0,1,1
20.84,0.045413792,-0.15125844,9.772053999999999,0.0007602206,-0.00037321209999999997,0.00025500287,-7.2004232,24.36778,-36.919975,0.011474244,-0.0024852007999999997,0.036616325,990.0157,0,13.0,1,1
20.88,0.040635318,-0.14410865,9.762585000000001,-0.0012371605000000001,0.00029257959,0.000121839694,-6.812504,24.257206,-37.435184,0.016403928,-0.0120880455,0.0697546,990.00323,0,13.0,1,1
20.92,0.05258608,-0.16555825,9.772053999999999,0.00022756457000000003,-0.00037320813999999996,0.0001218344,-6.7332087,24.068068,-37.436333000000005,0.0024511814000000003,0.006816268,0.046078682,990.0182,0,13.0,1,1
20.96,0.052972853,-0.14173493,9.772089999999999,-0.00043823782,-0.0003732061,-0.00041080266,-6.774431699999999,24.714338,-37.544785,-0.007217064499999999,-0.0024204403,0.0223732,990.0438,0,13.0,1,1
21.0,0.043429732,-0.14888510000000002,9.764989,0.00028918564,-0.0007963136999999999,-0.0004100136,-6.501815000000001,23.968957999999997,-37.9281,-0.0028137191999999998,-0.006732434,0.031850815,989.9985,0,13.0,1,1
21.04,0.038666397000000005,-0.15365209999999999,9.757889,0.0005535536,2.9501389e-06,0.00012178335,-6.7623935,24.620203,-37.464146,0.0068252087,0.0028481781,0.046052933,990.01855,0,13.0,1,1
21.08,0.033903062000000005,-0.15365252,9.769727,0.00081955164,-0.00052962994,-0.00014466874,-6.8536196,23.79713,-37.170975,0.021263842,-0.0016445369,0.046053885999999995,990.0311,0,13.0,1,1
21.12,0.050648898,-0.14650306,9.774463,2.0445063e-05,-0.0009290780000000001,-0.0005442107,-6.9665289999999995,24.63991,-37.664795,-0.0021194108,-0.011134966999999999,0.05078411,990.01886,0,13.0,1,1
21.16,0.04827547,-0.14888677,9.774465,2.0445063e-05,-0.0009290780000000001,-0.0005442107,-6.9665289999999995,24.63991,-37.664795,0.012069453,-0.010942832,0.050786972,990.01886,0,13.0,1,1
21.2,0.06502128,-0.14650387,9.772098,-0.0011782944,0.0008020267999999999,-0.00041118904,-6.997128999999999,24.084229,-37.242645,-0.021680959,-0.006404549,0.036580086,990.0292,0,13.0,1,1
21.24,0.05069837,-0.14173770000000002,9.7720995,-0.0011782944,0.0008020267999999999,-0.00041118904,-6.997128999999999,24.084229,-37.242645,-0.0074901804,0.0029625744,0.036577225,990.0292,0,13.0,1,1
21.28,0.04115525,-0.14888796,9.760264999999999,1.9809318e-05,-0.00079581694,0.00052078033,-6.751197,24.262224,-37.90683,0.016574178000000002,0.012650028,0.064982414,990.00885,0,13.0,1,1
21.32,0.045951545,-0.16080478,9.757899,0.00028596618,0.0013347360999999998,-0.00041139335,-7.100500599999999,24.461634,-37.402763,0.016214494,0.0077361614,0.04604339599999999,990.0341,0,13.0,1,1
21.36,0.048357964,-0.1584219,9.762635000000001,-0.0005131403400000001,-0.00026313343999999995,-1.1987664e-05,-7.071422599999999,25.01584,-37.747616,-0.0027715787,0.017031431,0.03183365,990.0165,0,13.0,1,1
21.4,0.048374444,-0.13935605,9.767371,-0.0005131403400000001,-0.00026313343999999995,-1.1987664e-05,-7.071422599999999,25.01584,-37.747616,0.00215156,-0.0020278096,0.05077076,990.0165,0,13.0,1,1
21.44,0.048390925,-0.15603945,9.772107,-0.0005132995,-0.0007957394,0.00025426009,-7.012753999999999,24.543707,-37.26712,0.0024400911999999998,-0.0018900185999999998,0.022362708999999998,990.02435,0,13.0,1,1
21.48,0.03406799,-0.15365654,9.77921,0.00041848837,0.00040273367999999995,-0.0005448237000000001,-7.070336999999999,24.27926,-37.550713,0.03550838,-0.006250545400000001,0.046042442,990.03937,0,13.0,1,1
21.52,0.053203702,-0.15365696,9.767375,0.0002851714,0.00066907535,0.00025405575000000003,-6.7422023,24.165146,-37.671585,0.006720323,-0.006410718,0.055506705999999996,990.0165,0,13.0,1,1
21.56,0.041270673,-0.15127409,9.750807,0.0006844863499999999,0.00080225914,0.00038714558,-6.664865,23.236479,-37.321224,0.0062800013,0.0032384992,0.046040535,990.00885,0,13.0,1,1
21.6,0.046067000000000004,-0.16080758,9.776847,0.0006844863499999999,0.00080225914,0.00038714558,-6.664865,23.236479,-37.321224,0.015733163999999997,0.0031248927,0.050771712999999996,990.00885,0,13.0,1,1
21.64,0.038913727,-0.16795787,9.776849,0.0005510106,-0.00012979483000000002,-0.00014562241000000002,-7.1286,24.27719,-37.233672999999996,0.020604376,0.012756139,0.036566734,990.0345,0,13.0,1,1
21.68,0.055659592,-0.14650872,9.786319,0.0005510106,-0.00012979483000000002,-0.00014562241000000002,-7.1231922999999995,24.545456,-36.94227,0.001077462,-0.01601258,0.03183174,990.0345,0,13.0,1,1
21.72,0.055676043,-0.1512757,9.76975,-0.0002480961,0.00066917855,0.0005200992,-6.9454966,24.448698,-37.348907000000004,-0.008091688,0.0028035939,0.031824112,990.0219,0,13.0,1,1
21.76,0.04852286,-0.13935968,9.77212,-0.0005145708599999999,0.00026973055,-0.00041207456,-6.974980400000001,24.368696,-37.801594,0.006492052,-0.016177848,0.022353172,990.03705,0,13.0,1,1
21.8,0.041369617000000004,-0.14412668,9.762650500000001,1.7901737e-05,-0.0011949810000000001,-0.00041214272000000005,-7.0064216,23.54917,-37.902763,-0.0028195679999999997,-0.011198297,0.031824112,990.03705,0,13.0,1,1
21.84,0.043776035,-0.15127692,9.776856,-0.00024857293,-0.0011949552,-0.00041221082,-6.729078299999999,23.334432999999997,-37.394042999999996,0.011308547,-0.006575063000000001,0.036553382999999995,990.0397,0,13.0,1,1
21.88,0.048572302000000005,-0.15366057,9.774491000000001,0.0001507421,0.00013664997999999999,0.0005198267,-6.708291,24.143648000000002,-36.751740000000005,0.01627158,-0.0018608123000000002,0.05548954,990.0397,0,13.0,1,1
21.92,0.04868361400000001,-0.15604663,9.776867999999999,1.7425016e-05,0.0005361496,-0.0005455049700000001,-7.095391800000001,24.097761,-37.536232,0.0018742829999999998,-0.0067409426,0.036530495,990.0222,0,13.0,1,1
21.96,0.044020772,-0.15843275,9.765042999999999,0.00015042405,-0.0007954039599999999,-1.2941309e-05,-6.671496,23.598879,-37.110455,-0.007853791,0.007691040600000001,0.031796455,990.01465,0,13.0,1,1
22.0,0.03448525,-0.15128353,9.767412,-0.000114716095,0.0004011644,-1.7282437e-05,-6.6664944,24.34135,-37.616577,0.00636648,-0.0018809438,0.022324562000000003,990.0452,0,13.0,1,1
22.04,0.039289117,-0.14651754,9.760311999999999,-0.0009138958,-0.00013142971,0.00064840785,-7.225340400000001,24.292196,-37.60457,0.015785288,-0.011425689,0.060198784000000005,990.04,0,13.0,1,1
22.08,0.04648292,-0.14175159,9.776886,0.0008169253,-0.00026454998,0.00038199252,-6.991584,24.458408,-37.650314,0.0152658,-0.01140815,0.05072975,990.00726,0,13.0,1,1
22.12,0.053676695,-0.15843514,9.779255000000001,1.774545e-05,0.0005344353,-0.00015073881000000002,-7.210259,24.201012,-37.678540000000005,-0.009042274,0.012392028999999999,0.03179264,990.0124,0,13.0,1,1
22.16,0.04892099,-0.14890262,9.772155,-0.0003819604,0.0018660525,-0.00041715428,-6.975117999999999,24.262781,-37.102515999999994,-0.00903352,0.0025789738,0.027050018,990.03015,0,13.0,1,1
22.2,0.041775346,-0.14651993,9.76269,-0.0009148242,-0.00066391076,0.0005148519000000001,-7.017755499999999,23.80123,-36.760999999999996,-0.009525724000000001,-0.016180456,0.04125786,990.0376,0,13.0,1,1
22.24,0.039409547999999996,-0.14652053,9.7650585,0.0005496809,0.00066770636,0.00024843658,-6.632445,24.425767999999998,-37.395813000000004,0.014030471000000001,-0.006710857,0.060194015999999996,990.0376,0,13.0,1,1
22.28,0.046603322,-0.14175454,9.781630499999999,-0.00038265667,0.0013335337,-1.7978746e-05,-6.7989440000000005,24.164548999999997,-37.431854,0.009318072,-0.016174376,0.036520958,990.00464,0,13.0,1,1
22.32,0.053797066,-0.16082135,9.774531,0.00041605883999999997,1.9919826e-06,0.0002482377,-7.1020226,24.460161,-37.325462,-0.004754983,0.021969885,0.027048111,990.0174,0,13.0,1,1
22.36,0.056211114000000006,-0.16082191,9.774533,0.00041582669999999997,-0.00026428618,0.0005144541,-6.9766397,24.261307000000002,-37.025208,-0.013824455,0.007682174399999999,0.022309303,990.0302,0,13.0,1,1
22.4,0.056235194,-0.14413956,9.748496000000001,0.00014904668,-0.0003973688,0.00024793914,-6.837559,24.075708,-37.4207,-0.004250396,-0.020705536,0.064920425,990.0177,0,13.0,1,1
22.44,0.044309735,-0.1608231,9.767437,0.000101691214,0.00016474818,-0.00018456331,-7.187703999999999,24.01127,-37.43996,0.010078944,0.0031227617999999998,0.050714493,989.9926,0,13.0,1,1
22.48,0.053893447000000004,-0.15844041,9.769805999999999,0.0007672489,0.0008305755999999999,-5.1504845e-05,-7.0667496,23.913916,-37.606873,0.0048675053,-0.006244719,0.055451393,990.02527,0,13.0,1,1
22.52,0.068256974,-0.14890789999999998,9.769808,0.0007672489,0.0008305755999999999,-5.1504845e-05,-7.0667496,23.913916,-37.606873,-0.018836677,-0.01093483,0.04124832,990.02527,0,13.0,1,1
22.56,0.058721422999999995,-0.13699207,9.774545,-0.00043163692999999997,0.0008306509700000001,-0.0004511775,-7.081832,24.005104,-37.532897999999996,-0.023926392,-0.0063728243000000006,0.012836456000000001,990.0278300000001,0,13.0,1,1
22.6,0.06113541,-0.15129235,9.762711999999999,-0.00043163692999999997,0.0008306509700000001,-0.0004511775,-7.081832,24.005104,-37.532897999999996,-0.0095802285,0.0030359924,0.050706863,990.0278300000001,0,13.0,1,1
22.64,0.05876958400000001,-0.15367624,9.760345,0.00010053055,3.177869e-05,8.1255304e-05,-6.941910000000001,24.083353,-37.405066999999995,-8.2518905e-05,0.0029729456,0.06964111,989.9953,0,13.0,1,1
22.68,0.068353236,-0.14891025,9.762715,0.00036661432,0.00029813225,8.115565e-05,-7.1270776,24.278662,-37.310978000000006,-0.0049479827,-0.0064478815000000005,0.04596805599999999,990.0282,0,13.0,1,1
22.72,0.07554707,-0.14176103,9.757983,0.0007658561,3.1854040000000006e-05,0.00034737205999999996,-7.069250599999999,23.542679999999997,-37.353809999999996,-0.024058335,-0.0013711601,0.050704955999999995,990.01544,0,13.0,1,1
22.76,0.046892315,-0.15844455,9.757985000000001,-0.00016648148999999997,0.00016504967000000002,-5.2201154e-05,-7.308659,24.108629999999998,-37.27305,-0.0046699233,-0.0012631565,0.036499977,990.0285,0,13.0,1,1
22.8,0.05169618,-0.14891204,9.760356,0.0002327602,0.0001650873,-0.00045177437000000004,-7.112432000000001,23.449425,-37.11075,-0.009842436999999999,-0.0059202759999999995,0.031767845,990.0310699999999,0,13.0,1,1
22.84,0.061279892999999995,-0.14652935,9.769826,0.00049884396,0.0005645989,0.00021391580000000002,-6.986613,23.988623,-37.0847,0.0045305938,-0.010457575,0.055440903,990.0155599999999,0,13.0,1,1
22.88,0.06608379,-0.14891323,9.767461,-3.4020064000000005e-05,3.2004755e-05,-5.2499526999999995e-05,-7.2012644,24.103931,-37.443295,-0.009691611,-0.0012917519,0.050697327,990.0184300000001,0,13.0,1,1
22.92,0.055720747,-0.14889348,9.767387,-0.0005639376,0.00043103797,8.182158e-05,-7.147865299999999,23.469445999999998,-37.953285,-0.009277154000000001,0.008279949,0.03657055,990.0184300000001,0,13.0,1,1
22.96,0.07005128,-0.16080964,9.75555,-2.6409063e-05,0.00029708512,0.00048339395999999994,-6.910522,23.270315,-38.05519,-0.028120182,0.008322284000000001,0.041305542,990.0136,0,13.0,1,1
23.0,0.043753505,-0.14889312,9.750815,-2.6409063e-05,0.00029708512,0.00048339395999999994,-6.910522,23.270315,-38.05519,0.00039903074999999996,0.008185655,0.05077362,990.0136,0,13.0,1,1
23.04,0.046134472,-0.15842602,9.772119,-0.00029255380000000003,0.00016389939999999998,0.0006166253,-6.818049,23.883024,-37.02751,0.010070771,0.008070037,0.04130459,990.0133,0,13.0,1,1
23.08,0.05090540599999999,-0.15127593,9.776853,0.0007727954,-0.0011676939,-0.0009812332,-6.9729147,24.001879000000002,-37.78045,0.0008913949000000001,-0.0012031496000000001,0.04130745,990.02136,0,13.0,1,1
23.12,0.06523594,-0.15604225,9.767383,0.0007727954,-0.0011676939,-0.0009812332,-7.183819000000001,24.278063,-37.07125,-0.008750983,-0.0011013597,0.04604435,990.02136,0,13.0,1,1
23.16,0.050887644,-0.15127546,9.760282,-2.6066801999999998e-05,0.0004301875,8.406690999999999e-05,-7.0055804,23.813017000000002,-37.37944,0.010140672,0.01312314,0.060248375,990.0188,0,13.0,1,1
23.2,0.05565858,-0.13697553,9.765014,0.00010717670400000001,0.0001638577,-0.0001822123,-7.0970509999999996,23.990370000000002,-36.75985,-0.008691393,-0.020183146000000003,0.046045302999999996,990.0010000000001,0,13.0,1,1
23.24,0.05325979,-0.15604165,9.769748,-0.0002922113,3.0685900000000004e-05,-0.00018217557,-7.083897,24.371922,-37.554043,-0.008617286,0.0034206063,0.022370337999999997,990.00354,0,13.0,1,1
23.28,0.058030725,-0.160808,9.772115,-2.5809872999999998e-05,-0.0006351177599999999,0.00035049283,-6.821934,23.616232,-37.396225,-0.004003715,0.0033955276,0.050777435,990.0263699999999,0,13.0,1,1
23.32,0.048462212000000005,-0.15842447,9.769746000000001,0.000107433516,0.00029697397,-4.8944203e-05,-6.899708,23.806849,-37.472374,-0.004223183,0.013039588999999999,0.0271101,990.0086699999999,0,13.0,1,1
23.36,0.055623055,-0.13935798,9.767379,0.00024067725,0.0009627497,-4.890762e-05,-6.7687798,23.982172,-37.579796,-0.018687084,-0.010626495,0.031847954,990.0289300000001,0,13.0,1,1
23.4,0.053224266,-0.15365744,9.769744000000001,-0.00015871112,-0.00010252769,0.0006169188,-7.0774035,23.903605,-37.065735,0.0006679855,-0.010329217,0.031852722,990.0038,0,13.0,1,1
23.44,0.06038505,-0.14889064,9.753173,0.000107690445,0.00029693224,-0.00071462383,-7.000715700000001,24.449572,-37.186485,-0.00378282,-0.0008451342599999999,0.060258865,990.0089999999999,0,13.0,1,1
23.48,0.060376227000000005,-0.15365708,9.774478,0.00077356584,-0.00036887126000000004,-4.879755e-05,-6.562824000000001,24.596079,-37.03158,0.0009481273599999999,0.013272673,0.046052933,989.9938,0,13.0,1,1
23.52,0.050807714000000004,-0.14889029,9.769741999999999,-0.00015845419,-0.00010256936400000001,0.00035071291,-7.1670774999999995,24.294268,-37.921603999999995,-0.008656091999999999,-0.0011265129,0.022379875,990.0093,0,13.0,1,1
23.56,0.04362911,-0.14650676,9.765008,-0.0004246846,0.00029689056,-0.00018188208999999998,-6.8209550000000005,23.985994,-37.571979999999996,-0.013683435,-0.010376528000000001,0.036589622,989.9991,0,13.0,1,1
23.6,0.036450565,-0.14888981,9.762638,0.00037434872000000004,3.0560770000000005e-05,8.447049e-05,-7.09387,24.099234,-37.613533000000004,0.009919148000000001,0.0036395937,0.0460577,990.0042,0,13.0,1,1
23.64,0.057950795,-0.15365613,9.762639,-0.00029135542000000003,0.00096265244,0.00021766507000000002,-6.852641,24.166895,-37.34673,-0.0044711344,-0.0009693205400000001,0.069732666,990.0169999999999,0,13.0,1,1
23.68,0.06033179,-0.14888933,9.776841000000001,0.00037451996,-0.00010262495000000001,0.0003508597,-6.78302,24.337208,-36.982506,-0.009347558,-0.010602593,0.031856537000000004,990.0123,0,13.0,1,1
23.72,0.055543125,-0.1512725,9.767371,-0.00029118417,0.00056315085,0.00088352815,-6.656521000000001,24.614035,-37.557083,-0.014088388500000002,0.008297071,0.0460577,990.0144,0,13.0,1,1
23.76,0.055534244,-0.16080537,9.762636,-0.00015794057,0.00042997900000000004,-4.8540678e-05,-6.378497,24.136923,-37.648994,-0.004517149,0.00821197,0.06972885,990.0144,0,13.0,1,1
23.8,0.05791527,-0.14650545,9.762635000000001,-0.0005573289,-0.00023582457,0.00021781179,-6.582770299999999,24.050710000000002,-37.150562,-0.01438646,-0.010596305,0.03659439,990.00714,0,13.0,1,1
23.84,0.05790639,-0.15603834,9.762634,0.0005080203,0.0010957408999999999,0.00035100646,-6.7626919999999995,23.988066,-37.889015,-0.024286855,0.008276612,0.027126312000000003,989.9843,0,13.0,1,1
23.88,0.05819586,-0.15366217,9.767395,0.00037503360000000003,0.001228871,0.00035107977,-7.0441956999999995,23.724178,-37.36829,-0.015966296,0.008212745,0.04127693,989.9971,0,13.0,1,1
23.92,0.053723633,-0.15843627,9.769789999999999,-0.0008257435400000001,0.0008288348299999999,8.108312600000001e-05,-6.7362523,24.06512,-37.281723,-0.011228911999999999,0.003239438,0.031804085,989.9868,0,13.0,1,1
23.96,0.051348984,-0.14175364,9.765058,-0.0003001554,-0.00022739646,6.559241e-05,-6.705109599999999,24.252512,-37.605427,-0.006682299,-0.006036654,0.0318079,990.0046,0,13.0,1,1
24.0,0.046584368,-0.1489039,9.750855,9.917174000000001e-05,0.00057157496,-6.762842499999999e-05,-6.837016,23.707418,-37.32225,-0.0020934828,-0.010853171000000002,0.06494713,990.0173300000001,0,13.0,1,1
24.04,0.05376929,-0.15605411,9.760325,9.902494e-05,-0.00049366464,6.546665e-05,-7.130963,24.011871,-37.679695,-0.0016597584,0.012731135,0.0649395,990.0278,0,13.0,1,1
24.08,0.056174397,-0.15843776,9.77453,-0.0005669113,-0.00022732498,-0.00060038595,-6.993542,23.718884,-37.298805,-0.0062572993000000006,0.0078112334,0.04126358,990.00745,0,13.0,1,1
24.12,0.07052904,-0.14175520000000003,9.788735,-0.00016758443,-0.000626775,-0.00020097505,-6.7718240000000005,23.979229999999998,-37.42519,-0.025007192,-0.0064384937,0.0033845901000000003,990.00745,0,13.0,1,1
24.16,0.046645224000000006,-0.15605524,9.767432000000001,-0.00043404687000000005,-0.0007599091,0.00033159388,-6.660543400000001,24.241323,-37.22672,-0.010763958,0.0030579716,0.031790733,990.0126,0,13.0,1,1
24.2,0.06099987,-0.15367231,9.755597,-0.00043404687000000005,-0.0007599091,0.00033159388,-6.660543400000001,24.241323,-37.22672,-0.020334434,0.0030926764,0.05072689,990.0126,0,13.0,1,1
24.24,0.06818482,-0.14652285,9.781637,9.8291406e-05,3.9086190000000005e-05,-0.00020116364,-6.937344,24.087772,-37.636986,-0.010366272,0.007927552,0.04125595,990.0224599999999,0,13.0,1,1
24.28,0.06103033,-0.14890653,9.77217,9.8291406e-05,3.9086190000000005e-05,-0.00020116364,-6.937344,24.087772,-37.636986,-0.015068728500000001,-0.011010393500000002,0.031787872,990.0224599999999,0,13.0,1,1
24.32,0.07060516,-0.15605673,9.760335000000001,0.00023115585999999998,-9.402414e-05,-6.8131456e-05,-6.620406599999999,24.331636,-37.31517,-0.024515755,0.008001089,0.04598713,990.0278,0,13.0,1,1
24.36,0.04672134,-0.16797349,9.762704,-3.53067e-05,0.00017231560000000002,0.00019812153000000002,-6.9835687,23.991566,-37.239309999999996,-0.0007111280999999999,0.008213699,0.045989037,990.0302,0,13.0,1,1
24.4,0.058686137,-0.15367422,9.753236,0.00036402031999999997,3.9181459999999995e-05,-6.825721e-05,-7.322219400000001,24.201288,-37.276379999999996,-0.0005221590400000001,0.003264472,0.055452347,990.0129400000001,0,13.0,1,1
24.44,0.051531613,-0.15367457,9.765075,0.00036402031999999997,3.9181459999999995e-05,-6.825721e-05,-6.7009797,23.518877,-37.563133,0.009338810999999999,-0.0016838461,0.055446625,990.0129400000001,0,13.0,1,1
