Timestamp,Ax,Ay,Az,Gx,Gy,Gz,Mx,My,Mz,LiAx,LiAy,LiAz,P,Value,Type,GroupType,Activities
0.0,0.04937166,-0.14690767,9.767806,-0.013856156729161741,0.19927577674388885,-0.13481329381465912,2.50259017944336,5.838839530944824,-46.77753067016602,0.005609750747680664,0.056509800255298615,0.04873943328857422,985.7261352539062,0,13.0,1,1
0.04,0.051765442,-0.14929105,9.767807000000001,0.002619912615045905,0.0022460201289504766,0.0007486699614673853,-5.358155250549316,23.12411499023437,-34.49111175537109,0.001042056828737259,0.061183929443359375,0.03926563262939453,985.5071411132812,0,13.0,1,1
0.08,0.0350399,-0.15405764,9.770174,8.98748985491693e-05,-0.0002839745138771832,-0.0001834512804634869,-5.364350318908691,24.22456359863281,-34.554550170898445,0.02505066990852356,0.06563460826873779,0.04399776458740234,985.5426025390624,0,13.0,1,1
0.12,0.056552827,-0.15882434,9.767809,0.0002229960518889129,-0.0006834423984400928,0.00021600676700472832,-5.633540630340576,24.07837677001953,-35.351341247558594,-0.0037427656352519993,0.06562980264425278,0.039261817932128906,985.5336303710938,0,13.0,1,1
0.16,0.04938692,-0.15405785,9.767807000000001,-4.3356441892683506e-05,0.00024866923922672873,-0.00031664076959714293,-5.625387191772461,23.71745300292969,-35.6394157409668,0.00104600191116333,0.06972438842058183,0.04872608184814453,985.5386962890624,0,13.0,1,1
0.2,0.049390733,-0.13975829999999997,9.765442,-0.0005760247004218401,0.00024867505999282,8.28173360787332e-05,-5.315379142761231,23.691577911376953,-35.53170394897461,0.010473530739545822,0.05507873743772507,0.04398822784423828,985.5587158203124,0,13.0,1,1
0.24,0.05895412,-0.14929147,9.774911,-0.0005760617204941808,0.00011552317300811409,-0.0007161459070630372,-5.4327473640441895,23.42359161376953,-35.420955657958984,-0.003635171800851822,0.050109155476093285,0.029781341552734375,985.5823974609376,0,13.0,1,1
0.28,0.05417815,-0.1588247,9.765442,8.969142800197004e-05,-0.000949734414462,-5.0372036639600985e-05,-4.989883899688722,23.100311279296875,-34.700439453125,-0.003871139138936997,0.06893929839134216,0.04398250579833984,985.5647583007812,0,13.0,1,1
0.32,0.05896175,-0.14929165,9.772544,-4.350306699052453e-05,0.0007813247502781451,0.0007485598907805978,-5.202876091003418,23.323013305664066,-35.83540725708008,0.000907640904188156,0.05913551896810532,0.03451251983642578,985.56689453125,0,13.0,1,1
0.36,0.06374538,-0.15644158,9.772545,-0.0001766979694366455,0.00011554104276001452,-5.0403468776494265e-05,-5.132712364196777,23.125030517578125,-35.372737884521484,-0.018089480698108677,0.06358890235424043,0.043975830078125,985.5848999023438,0,13.0,1,1
0.4,0.051799655,-0.14929189,9.758341,8.95814737305045e-05,-1.7610960640013218e-05,-5.041906842961907e-05,-5.4046478271484375,23.6080322265625,-35.59004592895508,0.0057049840688705436,0.05406168103218079,0.04871177673339844,985.5706176757812,0,13.0,1,1
0.44,0.05180341,-0.15644176,9.767811,0.0011548082111403346,-0.0002839209046214819,-0.0001835928414948285,-5.651123523712157,23.798328399658203,-35.02431106567383,-0.0033607929944992065,0.06353304535150528,0.043972015380859375,985.5799560546876,0,13.0,1,1
0.48,0.06853661,-0.15405862,9.763077000000001,8.95079574547708e-05,-0.0005502307321876287,0.0006153390859253705,-5.545388221740723,23.686241149902344,-34.41817092895508,-0.013008330017328262,0.06837938725948334,0.03923892974853516,985.548095703125,0,13.0,1,1
0.52,0.056590855,-0.14690883,9.75124,0.0007552610477432609,-1.7593090888112783e-05,8.269160753116012e-05,-5.662480354309082,23.630084991455078,-35.70557403564453,-0.003294404596090317,0.05885651707649231,0.06764602661132812,985.58056640625,0,13.0,1,1
0.56,0.058984637,-0.14690895,9.760710000000001,0.0004889086121693254,-0.00015074509428814056,-5.0482049118727446e-05,-5.972190856933594,24.2880973815918,-35.38841247558594,-0.012974467128515244,0.049098990857601166,0.04397010803222656,985.5430297851562,0,13.0,1,1
0.6,0.058988362999999995,-0.14929236,9.763077000000001,0.0004888715920969844,0.00038189260521903634,-0.00044997158693149686,-5.666749000549316,24.25780487060547,-35.04878616333008,-0.008227121084928513,0.053611963987350464,0.04870319366455078,985.5913696289062,0,13.0,1,1
0.64,0.049432576,-0.15167566,9.760712,-0.00017695460701361299,-1.757522113621235e-05,-0.0005831452435813844,-5.031949043273926,23.48273468017578,-35.332210540771484,0.001659411936998367,0.05838000029325485,0.03923130035400391,985.5584106445312,0,13.0,1,1
0.68,0.06377578,-0.15644236,9.774915,0.000355640600901097,-0.0006833590450696647,0.00021578662563115358,-5.461932182312012,23.975727081298828,-35.44876480102539,-0.007944874465465546,0.0628189966082573,0.03922748565673828,985.5687866210938,0,13.0,1,1
0.72,0.05660993,-0.14929260000000003,9.765446,-0.00017702812328934667,-0.00028387919883243734,-0.0004500188515521586,-5.412801265716553,23.96895980834961,-35.30196762084961,0.0013255365192890167,0.06723927706480026,0.0439605712890625,985.5742797851562,0,13.0,1,1
0.76,0.06139353,-0.15167601,9.748876,-0.0004433805006556213,0.0010477062314748764,8.25973111204803e-05,-5.609464168548584,23.89011383056641,-35.19006729125977,-0.01302015408873558,0.05255558341741562,0.053424835205078125,985.5628051757812,0,13.0,1,1
0.8,0.059007406,-0.14690955,9.76308,-0.0004433805006556213,0.0010477062314748764,8.25973111204803e-05,-5.634519577026367,23.708614349365234,-35.175586700439446,-0.00847645103931427,0.042937606573104865,0.03922080993652344,985.5628051757812,0,13.0,1,1
0.84,0.056574225,-0.16359134,9.760708000000001,-0.00017710134852677584,-1.755141420289874e-05,0.00021573941921815282,-5.6360416412353525,23.707141876220703,-35.098278045654304,-0.0036250166594982147,0.07160250097513199,0.03922176361083984,985.5388793945312,0,13.0,1,1
0.88,0.042188644000000004,-0.14929058,9.758337,0.0006218095659278332,0.0011808760464191435,0.0007483555236831307,-5.9074339866638175,23.82185363769531,-35.21714401245117,0.015623595565557482,0.05231262743473053,0.06290149688720703,985.5517578125,0,13.0,1,1
0.92,0.061307847,-0.15882368,9.763071,-0.00030956667615100736,-0.00015082184108905494,-0.00031659548403695226,-5.2407875061035165,23.3921012878418,-34.601863861083984,0.0008555576205253601,0.061202473938465125,0.04869365692138672,985.5653686523438,0,13.0,1,1
0.96,0.05652803,-0.15167387,9.741766,-0.0008420860976912081,0.00024863373255357146,-0.0007160212262533605,-5.459867477416992,23.608909606933594,-35.42761611938477,0.0011164769530296326,0.04674815386533737,0.05815887451171875,985.5371704101562,0,13.0,1,1
1.0,0.063697755,-0.14929058,9.7465,0.0003563353675417602,0.00038179167313501233,-0.0012486528139561415,-5.386116981506348,23.04558563232422,-35.02109909057617,-0.013218954205513,0.051241032779216766,0.058156013488769524,985.532958984375,0,13.0,1,1
1.04,0.05891794,-0.1540571,9.774907,0.0003563353675417602,0.00011547579197213054,-5.0231523346155875e-05,-5.470926284790039,24.07280349731445,-35.68400955200195,-0.00855371356010437,0.056009061634540565,0.03921890258789063,985.5474853515624,0,13.0,1,1
1.08,0.051748246,-0.14929058,9.763071,0.0003563353675417602,0.00024863373255357146,-5.0231406930834055e-05,-5.892894744873048,24.098957061767575,-35.38956832885742,0.005790196359157561,0.05124563723802567,0.04868888854980469,985.5662231445312,0,13.0,1,1
1.12,0.063697755,-0.15167387,9.765438,9.001948637887836e-05,-0.00015084008919075131,-5.0231523346155875e-05,-5.484922409057617,23.42741394042969,-35.41313934326172,-0.02282672002911568,0.06044892966747284,0.05341911315917969,985.5402221679688,0,13.0,1,1
1.16,0.054138154,-0.15644039,9.755969,0.00022317742696031928,0.0006481075542978942,0.0006155582959763706,-5.367554664611816,23.695396423339844,-35.52389144897461,0.0007629059255123137,0.0602417066693306,0.04868507385253906,985.5427856445312,0,13.0,1,1
1.2,0.05891794,-0.14929058,9.741766,9.001948637887836e-05,0.00011547579197213054,-0.0008491791668348013,-5.755474090576173,23.80596923828125,-35.00867462158203,-0.003830853849649429,0.050869233906269073,0.05341911315917969,985.5487670898438,0,13.0,1,1
1.24,0.05652803,-0.16359024,9.767805000000001,0.000755809189286083,-0.0005503139109350741,-5.0231523346155875e-05,-5.9713497161865225,24.55194091796875,-34.86509323120117,0.005636557936668396,0.0648297518491745,0.029745101928710938,985.5693969726562,0,13.0,1,1
1.28,0.044578522,-0.1540571,9.75597,-0.0001762963947840035,0.0006481075542978942,-0.00018338934751227495,-5.447829246520996,23.51477813720703,-35.346981048583984,0.010748367756605148,0.05991563946008682,0.05341339111328125,985.5263061523438,0,13.0,1,1
1.32,0.063697755,-0.15167387,9.765438,0.0004894933081232011,-0.0010829456150531767,0.0007487162365578115,-5.463592529296875,23.868335723876953,-34.67238235473633,-0.0036427974700927726,0.050551332533359535,0.05814933776855469,985.551513671875,0,13.0,1,1
1.36,0.061307847,-0.1659735,9.758337,0.0012884410098195074,0.00024863373255357146,0.0004824003553949297,-5.025860786437988,23.488624572753906,-35.64142608642578,-0.022663477808237083,0.05979792028665544,0.04867839813232422,985.5645141601562,0,13.0,1,1
1.4,0.054138154,-0.15882368,9.753603,-0.00044261227594688535,-1.7682148609310392e-05,-0.0004497053450904786,-5.45790958404541,24.34843444824219,-35.77912902832031,-0.003486502915620804,0.05952305346727371,0.05814361572265625,985.5343627929688,0,13.0,1,1
1.44,0.05652806,-0.15644045,9.765438,0.0006226512487046421,-0.0004171559703536332,-0.0001833894639275968,-6.045834064483643,23.745079040527344,-35.42227554321289,-0.0035809688270092006,0.06879105418920517,0.0344696044921875,985.5494384765624,0,13.0,1,1
1.48,0.04696843,-0.1540571,9.772539,-4.3138454202562564e-05,0.0007812654948793353,0.0006155582959763706,-5.554788589477539,24.257526397705078,-35.45094680786133,0.005662497133016586,0.05476661026477814,0.048676490783691406,985.5475463867188,0,13.0,1,1
1.52,0.07086748,-0.14929058,9.765438,0.0012884410098195074,0.0006481075542978942,-5.0231406930834055e-05,-5.43663215637207,23.156795501708984,-35.7896614074707,-0.013586781919002531,0.04968394339084625,0.048675537109375,985.5823974609376,0,13.0,1,1
1.56,0.051748246,-0.15167384,9.755969,-0.00030945433536544437,0.00038179167313501233,-0.0005828632856719196,-5.495438575744629,23.52301788330078,-35.57107925415039,0.00536968931555748,0.05418635159730911,0.04393863677978516,985.5402221679688,0,13.0,1,1
1.6,0.051748246,-0.15167384,9.753603,9.001948637887836e-05,-0.0005503139109350741,-0.0005828632856719196,-5.322309494018555,23.421844482421875,-35.74580764770508,0.0009422041475772858,0.053808584809303284,0.058135986328125,985.5325317382812,0,13.0,1,1
1.64,0.063697755,-0.15644045,9.755969,-0.0003466291527729481,0.00019268266623839736,0.00029096554499119515,-5.454758644104004,23.24504089355469,-35.56108474731445,0.0009698048233985901,0.06790420413017273,0.05813407897949219,985.5629272460938,0,13.0,1,1
1.68,0.054138124,-0.15882368,9.758337,-0.00047978709335438907,-0.0006062649772502482,-0.0003748242743313313,-5.358560562133789,23.598323822021484,-35.28863906860352,0.005817055702209473,0.06274233013391495,0.05812931060791016,985.5564575195312,0,13.0,1,1
1.72,0.05891794,-0.15167387,9.758337,0.00045231849071569735,0.0004589985474012792,0.00029096554499119515,-5.629953384399414,23.71303558349609,-35.40750503540039,-0.008558239787817001,0.057888984680175774,0.05339336395263672,985.5487670898438,0,13.0,1,1
1.76,0.05891794,-0.14929058,9.753601,0.0003191605501342565,-0.00033994909608736634,-0.0001085083931684494,-5.741776466369629,23.81922912597656,-35.70441818237305,-0.003943201154470444,0.048470377922058105,0.0628652572631836,985.55126953125,0,13.0,1,1
1.8,0.05652803,-0.15167387,9.772539,-8.03132716100663e-05,5.9524725656956434e-05,0.0004241234855726361,-5.4366326332092285,23.15679931640625,-35.7896614074707,0.000972464680671692,0.04815946519374848,0.043923377990722656,985.55419921875,0,13.0,1,1
1.84,0.04332626,-0.1493185,9.772644,-8.03132716100663e-05,5.9524725656956434e-05,0.0004241234855726361,-5.4366326332092285,23.15679931640625,-35.7896614074707,0.014117114245891571,0.057412445545196526,0.04381656646728516,985.55419921875,0,13.0,1,1
1.88,0.052931488,-0.1469364,9.756077000000001,-0.0006156655726954341,-0.00033950741635635495,-0.000375990173779428,-5.65943717956543,23.63303375244141,-35.86017990112305,0.004466649144887924,0.04768578708171845,0.05801582336425781,985.556396484375,0,13.0,1,1
1.92,0.050587296,-0.15647061,9.767918,0.00031080670305527747,0.0005907284794375299,0.00015102361794561148,-5.139205455780028,23.593345642089844,-35.86104202270508,-0.0005254298448562622,0.04272758960723877,0.03907203674316406,985.541748046875,0,13.0,1,1
1.96,0.050632954,-0.15408842,9.758453,4.405059735290706e-05,-0.0003413056838326156,-0.0002486389130353928,-5.852214813232423,23.82097625732422,-35.37956619262695,0.004696141928434372,0.052149191498756416,0.05326747894287109,985.5494384765624,0,13.0,1,1
2.0,0.055458426,-0.1517063,9.756089999999999,0.00030992619576863945,-0.0010070239659398792,-0.0001156696816906333,-5.451714515686035,23.24798583984375,-35.715694427490234,-0.009636376053094864,0.05672001093626022,0.048526763916015625,985.5396728515624,0,13.0,1,1
2.04,0.06267381,-0.14932407,9.767930999999999,4.317020648159087e-05,-0.000607478606980294,0.0010825631907209754,-5.716177940368652,23.63243103027344,-35.62044906616211,-0.00937708094716072,0.06156591325998306,0.04378700256347656,985.5592651367188,0,13.0,1,1
2.08,0.04599017,-0.15409185,9.758467,0.0011079935356974602,-0.0004742492455989122,-0.00011604698374867439,-5.659031867980957,23.15882873535156,-35.062652587890625,0.005224727094173431,0.04227705299854279,0.05324745178222656,985.5474853515624,0,13.0,1,1
2.12,0.057985365,-0.1517096,9.756103,-0.0006234999746084213,-0.00034101976780220866,-0.0003825515741482377,-5.7950687408447275,23.34736633300781,-34.82177352905273,-0.004572886973619461,0.0513388067483902,0.06270885467529297,985.5570678710938,0,13.0,1,1
2.16,0.06281084,-0.15171070000000003,9.758474,-0.0002244662900920957,0.0007243151776492597,0.0002830496523529291,-5.226654052734375,24.143409729003906,-35.57181167602539,-0.009653914719820023,0.05116553604602814,0.04850006103515625,985.5401000976562,0,13.0,1,1
2.2,0.043737292000000004,-0.16124494,9.763212,0.0007071990985423326,0.00032491280580870807,-0.00011661287862807512,-5.521472930908203,22.97175598144531,-35.38084030151367,0.00929386168718338,0.05083498358726502,0.04849433898925781,985.5324096679688,0,13.0,1,1
2.24,0.05334255,-0.14217986,9.751381,-0.0004916626494377851,5.866834544576705e-05,-0.0002499595284461975,-5.165377140045166,22.93616485595703,-34.971729278564446,0.00414995476603508,0.05526849627494812,0.06269168853759766,985.5529174804688,0,13.0,1,1
2.28,0.05099833,-0.1636305,9.770323,-0.0004916626494377851,5.866834544576705e-05,-0.0002499595284461975,-5.101133346557617,24.050472259521484,-35.970638275146484,0.004189543426036836,0.06491822749376297,0.034282684326171875,985.5529174804688,0,13.0,1,1
2.32,0.053433925,-0.15648179,9.770327,-0.00035894484608434135,0.000724529498256743,-0.0002501481212675572,-5.5400047302246085,23.534202575683594,-35.94978713989258,-0.0007589198648929597,0.050478838384151466,0.04374504089355469,985.5254516601562,0,13.0,1,1
2.36,0.053479582000000005,-0.14218329,9.758495,0.0003059643495362252,5.8882782468572266e-05,-0.00025052553974092007,-5.081921577453613,23.22565460205078,-36.00232315063477,0.003998052328824997,0.0406157523393631,0.04373741149902344,985.5433349609376,0,13.0,1,1
2.4,0.06786466,-0.15886728,9.758499,-0.00036026546149514616,-0.00034051958937197924,0.0001487596891820431,-5.6490583419799805,23.43151092529297,-35.003162384033196,-0.014610968530178068,0.045245237648487084,0.04846382141113281,985.5478515625,0,13.0,1,1
2.44,0.055960834,-0.15648516,9.756136,0.000171926076291129,-0.0008730798726901412,0.0001485709799453616,-5.558566093444824,22.88439178466797,-35.446998596191406,-0.01937791705131531,0.0590943694114685,0.04371929168701172,985.561279296875,0,13.0,1,1
2.48,0.05600649,-0.16125281,9.76561,-9.483008761890233e-05,0.0003254130424465984,0.00028154032770544285,-5.326874256134033,23.41741943359375,-35.513893127441406,-0.0004136860370635986,0.06867586076259613,0.048450469970703125,985.5386962890624,0,13.0,1,1
2.52,0.05605215,-0.14218773,9.760879,0.0005705194780603051,5.9168582083657384e-05,1.5035737305879593e-05,-5.398155212402344,23.13971710205078,-35.101734161376946,-0.00014611706137657166,0.044475167989730835,0.04844188690185547,985.5414428710938,0,13.0,1,1
2.56,0.06087765,-0.14457212,9.765617,-9.571042028255759e-05,-0.0010060234926640987,-0.0010504164965823293,-5.710228443145753,23.53240966796875,-35.23059463500977,-0.004653364419937135,0.03457600623369217,0.048431396484375,985.5545043945312,0,13.0,1,1
2.6,0.048973800000000005,-0.15648963,9.765621000000001,-0.0007619404932484031,-0.0008727940730750562,0.0004141322860959917,-5.2345619201660165,23.50391387939453,-35.610164642333984,0.009459562599658966,0.0628158450126648,0.0389556884765625,985.5165405273438,0,13.0,1,1
2.64,0.05618918,-0.15172423,9.753789999999999,0.00016972507000900802,0.00032569884206168354,-0.0005181620363146067,-5.140727519989014,23.59187316894531,-35.78373336791992,-0.00016901642084121704,0.057975664734840386,0.057888984680175774,985.54248046875,0,13.0,1,1
2.68,0.05145508,-0.14934207,9.767998,0.0001692848454695195,-0.00020686144125647843,0.0004137549549341202,-5.2577972412109375,23.95602035522461,-35.24811172485352,0.004433285444974899,0.04359450936317444,0.03894615173339844,985.5341186523438,0,13.0,1,1
2.72,0.06345022,-0.15172644,9.746696,0.00030200250330381095,0.0008584735915064813,0.0008130400674417615,-5.226408958435059,23.14298248291016,-35.89823532104492,-0.010053936392068865,0.03847191482782364,0.06261157989501953,985.5595703125,0,13.0,1,1
2.76,0.051546395,-0.14934425,9.772739999999999,-0.00036422730772756035,-7.356057176366448e-05,-0.00011925410944968462,-5.551200866699219,23.89218139648437,-35.50710678100586,-6.149709224700928e-05,0.042901188135147095,0.034193992614746094,985.5377197265624,0,13.0,1,1
2.8,0.06832141,-0.1517287,9.753807,-9.835165110416709e-05,-0.0003398049448151141,0.0002800310030579567,-5.376005172729492,23.42418670654297,-35.66068649291992,-0.01937476918101311,0.05674635618925095,0.05312347412109375,985.5552978515624,0,13.0,1,1
2.84,0.06517440000000001,-0.14456029,9.758472,-0.00023194987443275752,-0.0006060494342818856,0.0006793161737732589,-5.6955509185791025,23.91542816162109,-36.10209655761719,-0.01810332015156746,0.03754337877035141,0.053188323974609375,985.5252075195312,0,13.0,1,1
2.88,0.060408562,-0.15647699,9.763207000000001,-0.00022762597654946148,-0.00020727748051285744,-0.0002509363694116473,-5.816643714904785,23.90686798095703,-35.236106872558594,-0.008548445999622345,0.04697976261377335,0.057919502258300774,985.5474853515624,0,13.0,1,1
2.92,0.06520229599999999,-0.15171076,9.756107,0.0005739883054047822,-0.00034086828236468136,-0.0002497934037819505,-5.507476806640625,23.617149353027344,-35.65171432495117,-0.013024657964706421,0.04687514901161194,0.03424263000488281,985.5196533203124,0,13.0,1,1
2.96,0.05565667,-0.13979478,9.772677999999999,0.0007070117862895131,-0.0004740044532809407,-0.0007824829081073402,-4.993876934051514,23.93985748291016,-35.44180679321289,0.0013211779296398165,0.03739186376333237,0.029509544372558594,985.5355224609376,0,13.0,1,1
3.0,0.058060527,-0.14217837,9.770313,0.00044056129991076887,-0.0004739826545119285,-0.00024990877136588097,-5.455301284790039,23.61332702636719,-35.6595344543457,0.0018186531960964203,0.032850615680217736,0.034241676330566406,985.525146484375,0,13.0,1,1
3.04,0.05329469,-0.15886162,9.772682000000001,0.0009730585152283312,-0.0015392241766676307,1.6349484212696552e-05,-5.448372840881348,23.88306427001953,-35.445430755615234,0.0019545778632164,0.04673339426517487,0.03896903991699219,985.5303344726562,0,13.0,1,1
3.08,0.06047833,-0.15886201,9.77505,-0.000891287112608552,0.0003250086738262325,0.000415765680372715,-5.183067321777344,23.76245880126953,-35.01735305786133,0.0017466023564338686,0.051184363663196564,0.04369926452636719,985.5436401367188,0,13.0,1,1
3.12,0.05810237,-0.15409581,9.753746000000001,0.00017384192324243486,0.0007245044689625503,0.0008151817601174116,-5.654029369354247,23.90129852294922,-35.56877517700195,-0.012452509254217148,0.04155343025922775,0.048431396484375,985.5567626953124,0,13.0,1,1
3.16,0.05333656,-0.15171282,9.758482,8.202329627238214e-05,-0.00034657452488318086,-0.0006806963356211783,-5.761424064636231,23.90599822998047,-35.39853286743164,-0.012100670486688614,0.05101226270198822,0.04369258880615234,985.5311279296876,0,13.0,1,1
3.2,0.05335051,-0.158863,9.772686,0.0007476784521713853,-0.001012342283502221,0.00011819362407550214,-5.576799392700195,24.07897186279297,-35.5910758972168,0.0166214220225811,0.050602421164512634,0.0436859130859375,985.5491333007812,0,13.0,1,1
3.24,0.055754364,-0.15648009,9.767954,-0.0008503514109179378,5.294295260682702e-05,0.00011813605669885874,-5.716177940368652,23.632434844970703,-35.62044906616211,-0.007634274661540984,0.05502178519964218,0.038949012756347656,985.5343627929688,0,13.0,1,1
3.28,0.048598588,-0.1493306,9.767955,-0.00018469613860361278,0.0008519123657606543,-0.0001482375664636493,-5.552722930908203,23.890708923339844,-35.4297981262207,0.00663863867521286,0.03552035987377167,0.03894329071044922,985.5394897460938,0,13.0,1,1
3.32,0.046222687,-0.16839717,9.767956,-0.0007174623897299169,-0.0007459609769284724,-0.0002814530162140727,-5.344021797180176,23.87542724609375,-35.46106338500977,0.012032762169837952,0.06852009147405624,0.03893375396728516,985.51416015625,0,13.0,1,1
3.36,0.053406327999999996,-0.14456473,9.763223,0.0003476665879134089,-0.001012254972010851,-0.0008141425205394626,-5.2626609802246085,23.31946563720703,-35.44106674194336,0.01682956144213676,0.039878584444522865,0.043666839599609375,985.5491333007812,0,13.0,1,1
3.4,0.06775972,-0.16124798,9.767958,0.00048068995238281786,0.00031934620346874,-0.0006810423219576478,-5.9634952545166025,23.55888366699219,-35.57803726196289,-0.0024462714791297913,0.05377539992332458,0.0341949462890625,985.5590209960938,0,13.0,1,1
3.44,0.072553456,-0.16363163,9.765592999999999,-0.00018523426842875781,-0.0002132637309841812,-0.0002816262422129512,-5.242578029632568,23.97075271606445,-36.02116394042969,-0.026577752083539963,0.05823888629674912,0.04839420318603516,985.5369262695312,0,13.0,1,1
3.48,0.06300783,-0.1588654,9.753758,-0.0005848425207659602,0.0011183375027030706,-0.00014852581080049274,-5.259181022644043,24.06046295166016,-35.8698844909668,-0.00761120766401291,0.05809734761714935,0.05312538146972656,985.5296630859376,0,13.0,1,1
3.52,0.053462178,-0.15886576,9.756126,8.081269334070385e-05,0.0007188855088315903,-0.000548057141713798,-5.417229652404785,24.070453643798828,-35.76913070678711,-0.003261327743530273,0.033622808754444115,0.053119659423828125,985.5068359375,0,13.0,1,1
3.56,0.06781554,-0.15886606,9.770331,-0.0007182694971561433,0.0008520654519088566,-1.5483121387660503e-05,-6.1296958923339835,23.929798126220703,-35.18920516967773,-0.008178748190402985,0.047452062368392944,0.038909912109375,985.5427856445312,0,13.0,1,1
3.6,0.05587995,-0.1540999,9.770332000000002,-0.00018577234004624188,-8.001843525562435e-05,0.0010497227776795628,-5.488371849060059,23.898670196533203,-36.05605697631836,-0.007991425693035126,0.0567406639456749,0.04364013671875,985.532470703125,0,13.0,1,1
3.64,0.046334325999999995,-0.15886678,9.763231,0.0003467250207904726,-0.00021315456251613798,0.0006501913303509356,-5.238149166107178,23.86925506591797,-35.55400085449219,0.006493072956800461,0.042334817349910736,0.04363536834716797,985.5556030273438,0,13.0,1,1
3.68,0.053517967,-0.15410058,9.767967,-0.0005855150520801544,-0.00021313272009138015,-0.0004151299363002181,-5.594244480133057,23.904842376708984,-35.96311950683594,0.006363697350025177,0.04655376821756363,0.04836463928222656,985.5353393554688,0,13.0,1,1
3.72,0.053531945,-0.14933436,9.746663999999999,-0.0005855150520801544,-0.00021313272009138015,-0.0004151299363002181,-5.396196842193604,23.87924194335937,-35.4532470703125,0.0012912899255752563,0.04599159210920334,0.057826042175292976,985.5353393554688,0,13.0,1,1
3.76,0.063105464,-0.14933471,9.760867999999999,-0.00045249165850691503,0.00045267888344824314,-0.00014887179713696241,-5.461389064788818,23.607437133789066,-35.35031509399414,-0.008601248264312744,0.045401595532894135,0.04361629486083984,985.5331420898438,0,13.0,1,1
3.8,0.051597178,-0.16602845,9.765642999999999,-0.0008522344287484884,0.0005858804215677083,-0.000681618694216013,-5.43176794052124,23.79335021972656,-35.59670639038086,0.004684615880250932,0.044637441635131836,0.05299854278564453,985.52294921875,0,13.0,1,1
3.84,0.061623693,-0.13744058,9.749115,-0.0009855269454419613,0.00018642848590388891,-0.0005485183792188764,-5.190837860107422,23.228878021240234,-35.7547721862793,-0.014537818729877472,0.025466717779636383,0.06719970703125,985.5206909179688,0,13.0,1,1
3.88,0.05211228,-0.14935811,9.753855,-0.0003241539234295488,0.00031601605587638915,0.0001107718562707305,-5.330461502075195,23.78276824951172,-35.457733154296875,0.009061478078365326,0.034981317818164825,0.05772590637207031,985.5287475585938,0,13.0,1,1
3.92,0.05455035,-0.14459275,9.76096,0.00047432939754799014,0.0005824073450639844,-0.00028890115208923817,-5.708569049835205,23.639801025390625,-36.00697708129883,-0.0002883933484554291,0.02562692761421204,0.04825496673583984,985.5235595703124,0,13.0,1,1
3.96,0.04981875400000001,-0.1493605,9.779902,0.0008733386057429017,-0.0006159386830404401,0.0006430054199881853,-4.974526882171631,23.22095489501953,-36.17256546020508,0.004781980067491531,0.039646461606025696,0.015103340148925781,985.5360717773438,0,13.0,1,1
4.0,0.05703661,-0.14221187,9.765704,0.0003402424044907093,-0.0007490211864933372,0.00011017464566975832,-5.247441291809082,23.33419418334961,-36.214115142822266,-0.00489385798573494,0.034732311964035034,0.04350376129150391,985.518798828125,0,13.0,1,1
4.04,0.047525227,-0.15889598,9.77281,-0.0003260117955505848,0.00044947568676434463,-0.0004226560704410076,-5.528646469116211,23.70244598388672,-35.268524169921875,0.0044313035905361176,0.04887186735868454,0.048233985900878906,985.5344848632812,0,13.0,1,1
4.08,0.049963295,-0.14221425,9.753876,-0.0005927920574322343,0.0004495510656852275,-0.0008223289623856543,-5.500004768371582,23.51860046386719,-35.339168548583984,0.0040646977722644815,0.02916940301656723,0.0576925277709961,985.5447387695312,0,13.0,1,1
4.12,0.047621578,-0.15413179,9.76335,-0.0005932563217356801,0.00044962644460611045,0.0005090513732284306,-5.763489246368407,24.27281188964844,-35.419681549072266,0.013460468500852585,0.03834470361471176,0.04821586608886719,985.5396728515624,0,13.0,1,1
4.16,0.05722934,-0.14459987,9.756252,-0.0007268788176588714,5.022803088650107e-05,-0.00042325328104197984,-5.929987907409668,24.011592864990234,-35.45572280883789,-0.015084493905305862,0.0378991961479187,0.057674407958984375,985.5597534179688,0,13.0,1,1
4.2,0.05727756,-0.13983454,9.77046,-6.155353912618011e-05,-8.285454532597214e-05,0.00024233735166490078,-5.577778339385986,23.709209442138672,-35.41531753540039,-0.0012043006718158722,0.023663535714149475,0.038735389709472656,985.5171508789062,0,13.0,1,1
4.24,0.052545965,-0.16366847,9.760996,7.113990432117134e-05,0.0009824843145906923,0.0002421382232569158,-4.912378311157227,23.48982238769531,-36.12089157104492,0.008121974766254425,0.0420973151922226,0.04819202423095703,985.5171508789062,0,13.0,1,1
4.28,0.062153697,-0.14936997,9.768102,-0.0015272196615114806,0.0005830858135595918,0.00037509726826101536,-5.300595283508301,22.96825408935547,-36.03054809570313,-0.016052663326263428,0.04150078445672989,0.04344844818115234,985.5380859375,0,13.0,1,1
4.32,0.062201917,-0.14222135,9.751535,-0.0007287364569492638,0.00018368748715147376,-2.4575507268309593e-05,-5.6959877014160165,23.17737579345703,-35.827884674072266,-0.006325073540210724,0.031579174101352685,0.052906036376953125,985.5274658203124,0,13.0,1,1
4.36,0.05986017,-0.14698906,9.770478,-6.341123662423342e-05,-8.255297143477947e-05,-0.0006905645132064818,-5.181163311004639,22.869426727294922,-36.120155334472656,-0.0014721304178237915,0.02195919305086136,0.038697242736816406,985.5282592773438,0,13.0,1,1
4.4,0.05512857400000001,-0.15414007,9.756279,6.928238144610077e-05,5.0680333515629166e-05,-2.497364766895771e-05,-5.398453235626222,22.507583618164066,-35.52660751342773,0.008028097450733185,0.040840283036232,0.05289363861083984,985.5252075195312,0,13.0,1,1
4.44,0.05995655,-0.14699148,9.761019000000001,-0.00033065589377656584,-0.00034871808020398015,-2.517271786928177e-05,-5.674518585205077,23.724220275878906,-35.78621292114258,-0.011470943689346312,0.031052745878696438,0.05762290954589844,985.5508422851562,0,13.0,1,1
4.48,0.06239468,-0.15890901,9.751553999999999,-0.00019796231936197728,0.0016487264074385164,-2.5371671654284e-05,-5.632316589355469,23.447715759277344,-35.853519439697266,-0.011821143329143524,0.035672202706336975,0.05761814117431641,985.5184936523438,0,13.0,1,1
4.52,0.055273086,-0.16129346,9.756292,0.0007336788112297653,5.090652848593891e-05,-2.557074185460806e-05,-5.377528190612793,23.422718048095703,-35.58338165283203,-0.0023051947355270386,0.03552689403295517,0.06234645843505859,985.5333862304688,0,13.0,1,1
4.56,0.062491,-0.15414484,9.777600999999999,-6.573308201041073e-05,0.00018413978978060183,0.0005068620666861534,-5.3187222480773935,23.056495666503906,-35.80196762084961,-0.017031922936439514,0.04968930035829544,0.029201507568359375,985.5236206054688,0,13.0,1,1
4.6,0.067319006,-0.15176274,9.758669,0.00020011830201838168,0.0013826367212459445,-0.000558600528165698,-5.012300491333008,23.395965576171875,-35.63809585571289,-0.007774673402309419,0.040065355598926544,0.04340076446533203,985.5287475585938,0,13.0,1,1
4.64,0.060197473,-0.16129704,9.768141,6.649586430285126e-05,0.00045060654520057136,-0.0002924839500337839,-5.283012390136719,23.24829864501953,-36.35758590698242,-0.00785287842154503,0.04943317174911499,0.04812908172607422,985.5087890625,0,13.0,1,1
4.68,0.060245663,-0.14938183,9.749208,0.00013649536413140595,-0.0002815714105963707,-0.00043696718057617545,-5.842103958129883,24.199581146240234,-36.0191535949707,-0.002980660647153855,0.03488551080226898,0.057589530944824226,985.5467529296876,0,13.0,1,1
4.72,0.050734222,-0.15891613,9.76815,-0.00013028495595790446,-0.0005478118546307087,0.0002286235685460269,-5.73362398147583,23.45830535888672,-35.99249649047852,0.0019958242774009705,0.034397341310977936,0.03864002227783203,985.5322265625,0,13.0,1,1
4.76,0.07468146,-0.16130061,9.761053,-0.00026390739367343485,-0.00014826262486167252,0.000494740204885602,-5.388044357299805,23.5183219909668,-35.7413215637207,-0.012036994099617004,0.04844460636377335,0.043364524841308594,985.5113525390624,0,13.0,1,1
4.8,0.06278014,-0.16368507,9.765792,-0.0003975296567659825,-0.0009471348603256047,-0.0007038802723400295,-5.298094749450684,23.339488983154297,-36.28361129760742,-0.011648178100585938,0.05302281677722931,0.04809093475341797,985.5350341796876,0,13.0,1,1
4.84,0.0437091,-0.15653642,9.782366,-0.0001316782145295292,-0.0005475856596603991,0.00036118441494181747,-4.943521499633789,23.30242919921875,-35.79718780517578,0.026709243655204773,0.043169282376766205,0.033878326416015625,985.5372924804688,0,13.0,1,1
4.88,0.06526643,-0.15415432,9.758699,0.00013417316949926317,-0.0005475102225318551,-0.00017164665041491392,-5.669112205505371,23.99248504638672,-35.49480438232422,-0.015974555164575573,0.033459462225437164,0.043338775634765625,985.5018920898438,0,13.0,1,1
4.92,0.05575499,-0.14938898,9.751602,-0.00013260720879770815,-0.0002811189624480903,0.0002276281593367457,-5.719765186309815,23.99777984619141,-35.564292907714844,0.003059349954128265,0.03342840075492859,0.057537078857421875,985.5304565429688,0,13.0,1,1
4.96,0.05580318,-0.15415664,9.772911,0.0005327180260792375,-0.0005473594646900891,-0.00017204467440024018,-5.575277328491211,24.0804443359375,-35.66837692260742,0.0032939575612545013,0.028616942465305332,0.03859233856201172,985.5385131835938,0,13.0,1,1
5.0,0.051071554000000005,-0.1589243,9.784752000000001,0.0002659376768860966,-0.0001478102058172226,9.407202014699578e-05,-5.344021797180176,23.87542724609375,-35.46106338500977,-0.0062227919697761536,0.04728582501411438,0.029114723205566406,985.532470703125,0,13.0,1,1
5.04,0.06306922400000001,-0.15415896,9.77292,-0.000666632317006588,-0.0006803665892221035,-3.9284874219447374e-05,-5.446169853210449,23.622169494628906,-36.12336349487305,-0.001140408217906952,0.02800729870796204,0.04330921173095703,985.51025390625,0,13.0,1,1
5.08,0.063117474,-0.15416010000000002,9.756353,-0.00013446496450342238,-0.00041397532913833857,-0.00030579970916733146,-5.4604105949401855,23.97719955444336,-35.52606964111328,-0.010835520923137665,0.032520055770874016,0.05750465393066406,985.5336303710938,0,13.0,1,1
5.12,0.04643634,-0.14701147,9.751624000000001,-0.00013492946163751185,0.0005182056338526309,0.00062610674649477,-5.5708489418029785,23.97895050048828,-35.20121383666992,0.008238274604082108,0.023037627339363098,0.062235832214355476,985.495849609375,0,13.0,1,1
5.16,0.060823917000000005,-0.14939596,9.749261,-0.00013492946163751185,0.0005182056338526309,0.00062610674649477,-5.707183837890625,23.535358428955078,-35.38520431518555,-0.011232491582632065,0.032766573131084435,0.05750083923339844,985.495849609375,0,13.0,1,1
5.2,0.051312475999999996,-0.15178038,9.746899,0.0006635537138208747,-0.00014750863192602992,9.32759721763432e-05,-5.363424777984619,22.96176147460937,-35.48159408569336,0.007882162928581238,0.032285474240779884,0.05275440216064453,985.5289306640624,0,13.0,1,1
5.24,0.05493635,-0.1565186,9.758628999999999,-0.0010684283915907145,-1.4199933502823114e-05,9.287794819101691e-05,-5.317743301391602,23.42626190185547,-35.97772216796875,-0.006632421165704727,0.032270647585392005,0.062220573425292976,985.5060424804688,0,13.0,1,1
5.28,0.053730667,-0.14933921,9.756151,0.0006621604552492499,0.0003853492671623826,0.00022583670215681195,-5.259181022644043,24.06046295166016,-35.86989212036133,-0.008899681270122528,0.03227949142456055,0.057705879211425774,985.516357421875,0,13.0,1,1
5.32,0.056102514000000006,-0.1493388,9.763251,0.0010787288192659616,-0.0009490051306784152,-3.315292997285724e-05,-5.723649978637695,23.730987548828125,-35.93300247192383,-0.00840219110250473,0.0370902493596077,0.04823589324951172,985.5018310546876,0,13.0,1,1
5.36,0.06325418,-0.14457186,9.765616,0.0005520442500710487,-0.0005504967994056642,0.0010346593335270884,-6.179369926452638,24.30485534667969,-35.43445205688477,-0.008479278534650803,0.022832043468952182,0.034035682678222656,985.5347900390624,0,13.0,1,1
5.4,0.041726947,-0.15648772,9.749044,1.9586383132264015e-05,-1.7893296899273988e-05,0.0006352600757963955,-5.450735092163086,23.61774444580078,-35.89144515991211,0.010499637573957443,0.03712179511785507,0.06244468688964844,985.5450439453124,0,13.0,1,1
5.44,0.044098824,-0.15172069,9.760878,0.0006855501560494304,0.0007810260285623372,0.00023586099268868568,-5.354400157928467,24.076942443847656,-36.31808471679688,0.015172019600868225,0.032016582787036896,0.048239707946777344,985.5173950195312,0,13.0,1,1
5.48,0.056030303,-0.17078657,9.767978999999999,-0.000645854976028204,-0.0002842656977009028,0.00023593573132529855,-5.547178268432617,24.264892578125,-35.83746719360352,0.005714230239391328,0.05086694657802582,0.03876876831054688,985.530029296875,0,13.0,1,1
5.52,0.06318191,-0.14695329999999998,9.751406,0.00015326656284742055,0.00024833792122080917,0.0006354840588755907,-5.392472267150879,23.619815826416016,-36.2084846496582,-0.017929691821336746,0.03169114142656326,0.04823780059814453,985.5074462890624,0,13.0,1,1
5.56,0.055994153,-0.15171938,9.753772,0.00041975665953941643,-0.0006837960099801421,-0.00029654701938852673,-5.597288131713867,23.901893615722656,-35.80850601196289,0.0011567622423171995,0.03170949965715408,0.06717872619628906,985.5462036132812,0,13.0,1,1
5.6,0.055976093,-0.15886874,9.753771,0.00041993081686086947,-0.0002843504771590233,0.00036931742215529084,-5.266110420227051,23.79072570800781,-36.08398818969727,-0.0036299191415309906,0.03640592843294144,0.052974700927734375,985.5156860351562,0,13.0,1,1
5.64,0.06551760400000001,-0.15648510000000002,9.763239,0.00028694674256257713,-1.806291402317584e-05,-0.00016323995077982545,-5.471362590789795,23.334754943847656,-35.40980529785156,-0.008257586508989334,0.031450264155864716,0.05297279357910156,985.5079956054688,0,13.0,1,1
5.68,0.051160157000000005,-0.14456828,9.763237,-0.0007781428284943104,-0.0002844069676939398,0.00010315055260434748,-5.9481143951416025,24.099834442138672,-35.22713851928711,0.006025236099958421,0.011879362165927887,0.05296802520751953,985.510986328125,0,13.0,1,1
5.72,0.060701727999999996,-0.15886743,9.760867,-0.00024533664691261947,0.0006476701819337903,-0.0008288805256597698,-5.323830604553223,23.420372009277344,-35.66849899291992,-0.003606412559747696,0.03093310445547104,0.0435028076171875,985.53662109375,0,13.0,1,1
5.76,0.051124036,-0.16601686,9.760866,0.0005537848919630051,-1.8147664377465844e-05,-0.000562489905860275,-5.561036586761475,23.72541046142578,-36.26567459106445,0.006094265729188919,0.0499105304479599,0.03876686096191406,985.5234985351562,0,13.0,1,1
5.8,0.063055456,-0.16124989,9.760863,0.00015448496560566127,-0.00015133374836295846,-0.000296099518891424,-5.8259358406066895,23.371810913085934,-35.89622497558594,-0.00857190415263176,0.04491940885782242,0.06717681884765625,985.5318603515624,0,13.0,1,1
5.84,0.060647517000000005,-0.15648286,9.765596,0.00028781735454685986,0.0007807434885762633,0.0005029230960644783,-5.396059513092041,23.98516082763672,-36.15232467651367,-0.003734719008207321,0.0400625541806221,0.04823780059814453,985.552001953125,0,13.0,1,1
5.88,0.048679948,-0.13979949,9.760860000000001,0.0002879912208300084,0.0005143993184901774,0.00010352378012612462,-5.17629861831665,23.5059814453125,-35.92720031738281,0.0009866431355476382,0.011515617370605469,0.03877067565917969,985.5494384765624,0,13.0,1,1
5.92,0.06539118,-0.14933215,9.758491000000001,0.00055448105558753,0.00011489732423797251,-2.955965464934707e-05,-5.172956466674805,24.14106369018555,-35.65693664550781,-0.008390944451093674,0.03049015998840332,0.03403759002685547,985.5448608398438,0,13.0,1,1
5.96,0.053423643,-0.14456518,9.763226,-0.0001111342862714082,-0.0010835523717105386,-0.0006952747353352606,-5.627452373504639,24.084266662597656,-35.66056442260742,0.001069970428943634,0.025538481771945957,0.05297374725341797,985.5576782226562,0,13.0,1,1
6.0,0.060575335999999994,-0.15409781,9.758488999999999,-0.000643592095002532,0.0006474725087173282,0.00010374741395935416,-5.354973793029785,23.23297882080078,-35.34479904174805,0.0009298063814640043,0.029962293803691864,0.03876876831054688,985.5405883789062,0,13.0,1,1
6.04,0.050997585,-0.14933081,9.770323,-0.0005102602299302816,0.0006474442197941244,0.00010382203618064524,-5.573212146759033,23.71363067626953,-35.64723205566406,0.0053848251700401315,0.024827778339385983,0.04823780059814453,985.5582275390624,0,13.0,1,1
6.08,0.06531897,-0.16124673,9.756119,-0.00011061222176067531,0.00038110016612336034,0.0001038967166095972,-5.732644557952881,23.82806396484375,-36.16825485229492,-0.00890318304300308,0.0343552827835083,0.05297279357910156,985.5403442382812,0,13.0,1,1
6.12,0.058131218,-0.15886305,9.758484,0.0004221937560942024,0.0003810718772001565,-2.9186659958213568e-05,-5.48948860168457,23.42298889160156,-35.18122100830078,-0.008764136582612991,0.02955511212348938,0.05297279357910156,985.515380859375,0,13.0,1,1
6.16,0.07006264,-0.15886258,9.753748,0.0005555255338549613,-0.0008173778187483549,0.00037036166759207845,-5.287035942077637,22.87559509277344,-36.027217864990234,-0.008687511086463928,0.03884104639291763,0.057705879211425774,985.5484619140624,0,13.0,1,1
6.2,0.058095098,-0.16601194,9.767949,-0.00019903722568415105,0.0005903821438550949,-0.0006119265453889966,-5.323287963867188,23.05207824707031,-35.57005310058594,-0.0037898235023021702,0.04358048737049103,0.024565696716308597,985.521240234375,0,13.0,1,1
6.24,0.056406587,-0.14696299,9.749075,0.0004669266345445066,0.0003240380901843309,0.0007197275990620254,-5.266546249389648,23.05267333984375,-35.80978012084961,-0.0035087056457996373,0.02942423522472382,0.06717872619628906,985.5416870117188,0,13.0,1,1
6.28,0.061930895,-0.15651427,9.756245,0.0009980245959013698,-0.0008741344208829106,5.328049883246422e-05,-5.357582092285156,23.96808624267578,-35.46439743041992,-0.009841982275247574,0.03430881351232529,0.05757904052734375,985.553955078125,0,13.0,1,1
6.32,0.052410603,-0.14698227,9.749147,0.0007211457705125213,-7.52510386519134e-05,0.0008459285600110887,-5.785362243652344,24.200176239013672,-36.258888244628906,-0.00504181906580925,0.02960182726383209,0.06230926513671875,985.54443359375,0,13.0,1,1
6.36,0.06439942,-0.15174975,9.768089,0.0003212926385458559,0.0001911263098008931,-0.0008852872997522353,-5.672996997833253,23.72569274902344,-35.8635139465332,-0.004952061921358109,0.029277466237545013,0.04336357116699219,985.5596313476562,0,13.0,1,1
6.4,0.050099372999999996,-0.15413399,9.753889,-0.0008775079622864722,-0.0002082858845824376,-0.0003528178203850985,-5.226408958435059,23.14298248291016,-35.89823532104492,-0.0004054419696331024,0.03838223218917847,0.057559013366699226,985.52197265625,0,13.0,1,1
6.44,0.045358895999999996,-0.14936839,9.768094999999999,-0.00047841333434917033,0.00019124947721138602,0.00031280925031751394,-5.621800899505615,23.35211181640625,-35.69557571411133,0.014020431786775587,0.033372163772583015,0.04808235168457031,985.5292358398438,0,13.0,1,1
6.48,0.054957867,-0.14698608,9.749161,5.383932148106396e-05,-0.0003413207596167922,0.00017948885215446353,-5.167304515838623,23.40890121459961,-35.691951751708984,-0.005106333643198013,0.02368920296430588,0.057545661926269524,985.5347290039062,0,13.0,1,1
6.52,0.052607268,-0.14222045,9.751533,0.00018661798094399276,-7.49432947486639e-05,4.616833757609129e-05,-5.1929030418396,23.59569549560547,-35.77592086791992,0.0044187307357788095,0.023578114807605743,0.062275886535644524,985.547607421875,0,13.0,1,1
6.56,0.052646577,-0.14937122,9.768106,0.00018661798094399276,-7.49432947486639e-05,4.616833757609129e-05,-5.344021797180176,23.87542724609375,-35.46106338500977,0.013776205480098723,0.028408274054527283,0.038600921630859375,985.547607421875,0,13.0,1,1
6.6,0.05029607,-0.14460577,9.751539,-0.0004795507702510804,0.00019143411191180348,0.0003123217611573636,-5.720606803894043,23.73393249511719,-36.08761596679688,0.004493966698646545,0.02353455126285553,0.0670003890991211,985.5506591796876,0,13.0,1,1
6.64,0.055115223,-0.14937325,9.756277,0.0005853336770087482,5.833772593177855e-05,4.58433642052114e-05,-5.768054962158202,24.268394470214844,-35.18776321411133,-9.294599294662476e-05,0.01879089325666428,0.04805946350097656,985.5328369140624,0,13.0,1,1
6.68,0.055154562000000004,-0.14699091,9.746813000000001,-8.121444261632858e-05,-0.00034101295750588184,0.00031183427199721336,-5.60185432434082,23.897476196289066,-35.57659149169922,-0.0047585517168045035,0.03747144341468811,0.0669870376586914,985.5056762695312,0,13.0,1,1
6.72,0.062363565,-0.14937516,9.765754,-0.0003479095466900617,-0.00020779346232302487,-0.00048727577086538076,-5.064476013183594,23.39978790283203,-35.63027572631836,-0.004608374089002609,0.02304999530315399,0.0385732650756836,985.5358276367188,0,13.0,1,1
6.76,0.062402904,-0.15175937,9.768124,-0.0004814465355593711,-0.0006072057294659318,-8.796446491032839e-05,-5.32978105545044,23.52039337158203,-36.0583610534668,-0.014110531657934187,0.03233305364847183,0.033832550048828125,985.5436401367188,0,13.0,1,1
6.8,0.05288267,-0.1517603,9.758659,5.0806120270863175e-05,5.8645528042688966e-05,-0.0002212849212810397,-5.326331615447998,23.04913330078125,-35.41543960571289,0.014413025230169296,0.0274474248290062,0.048030853271484375,985.5311279296876,0,13.0,1,1
6.84,0.05531186,-0.15176125,9.753928,5.042695556767285e-05,0.00019186496501788497,4.4868444092571735e-05,-5.600875377655028,24.26723861694336,-35.75234603881836,0.004760656505823135,0.026959605515003204,0.04802036285400391,985.5752563476562,0,13.0,1,1
6.88,0.045791625999999995,-0.14461245,9.746830000000001,-0.0006157419411465527,0.00019192654872313145,-8.845201227813959e-05,-5.8113975524902335,23.64891815185547,-36.06864929199219,0.009512625634670258,0.02227485179901123,0.0480194091796875,985.5393676757812,0,13.0,1,1
6.92,0.060170352,-0.15652979999999997,9.765772,0.0001828264503274113,-0.0004738015995826572,-0.00035493029281497,-5.475790977478027,23.43625259399414,-35.8769645690918,-0.004527334123849869,0.03623303771018982,0.05747795104980469,985.5219116210938,0,13.0,1,1
6.96,0.057819784000000006,-0.14938094,9.772877000000001,-0.00021702641970478,-0.0004737400449812412,-0.00048825074918568123,-5.329780578613281,23.52038955688477,-36.0583610534668,0.0046525783836841575,0.02678634226322174,0.02907085418701172,985.5526123046876,0,13.0,1,1
7.0,0.055469245,-0.15414847,9.758678,0.0005815421463921666,0.00045842706458643084,-0.0002220975002273917,-5.759657859802246,22.907039642333984,-35.8022575378418,0.0048684217035770425,0.03612509369850159,0.04326629638671875,985.532470703125,0,13.0,1,1
7.04,0.05789846,-0.14938284,9.746844,4.853119025938213e-05,-0.00020730108371935785,0.0003103718627244234,-5.231518268585205,23.506858825683594,-35.7647705078125,0.00014398619532585144,0.021826937794685364,0.06693458557128906,985.5760498046876,0,13.0,1,1
7.08,0.057937800000000005,-0.16368346,9.751583,0.0001813098497223109,-0.00034039744059555227,0.00031020934693515295,-5.353994369506836,23.602741241455078,-35.52055740356445,0.0002565234899520874,0.03137819468975067,0.05272769927978516,985.53759765625,0,13.0,1,1
7.12,0.060367018,-0.14700146,9.768156,0.0005804045358672737,0.00019229587633162737,-0.000488900812342763,-5.439240455627441,23.89190673828125,-35.90925979614258,-0.014093577861785887,0.026536941528320312,0.03378582000732422,985.5430908203124,0,13.0,1,1
7.16,0.0556266,-0.15176906,9.770527000000001,0.00031370963552035386,-0.0004734323301818222,4.356855060905218e-05,-5.655008316040039,23.531536102294922,-35.39302062988281,0.004829384386539459,0.036152854561805725,0.04325294494628906,985.5533447265624,0,13.0,1,1
7.2,0.058055817999999995,-0.168453,9.756329,0.00031333029619418085,5.9261044953018434e-05,0.0003097217995673418,-5.420709133148193,23.32946014404297,-35.34031677246094,-0.004661194980144501,0.045636847615242,0.05271530151367188,985.543701171875,0,13.0,1,1
7.24,0.0656172,-0.13986321,9.746895,0.00031295124790631235,5.932254134677351e-05,0.00044271728256717324,-5.136597633361816,22.858238220214844,-35.7414436340332,-0.004921451210975647,0.02654321491718292,0.05741024017333984,985.5361938476562,0,13.0,1,1
7.28,0.05372101,-0.13986452,9.758736,0.0004465717065613717,-7.732535596005619e-05,-0.00035943445982411504,-5.319265365600586,23.424785614013672,-35.90041732788086,-4.437938332557678e-05,0.017052248120307922,0.03846931457519531,985.5567016601562,0,13.0,1,1
7.32,0.06333396,-0.15893205,9.7753105,0.0004448285617399961,-0.0006096741417422892,-0.00022702355636283755,-5.599108695983887,23.26828765869141,-36.15607070922852,-0.009875208139419556,0.0361093133687973,0.03372955322265625,985.5438842773438,0,13.0,1,1
7.36,0.063387215,-0.15178348,9.756378,0.00031115676392801106,0.0007219887338578701,3.9072067011147744e-05,-5.543591499328613,23.899547576904297,-35.89362716674805,-0.019656512886285785,0.02664344012737274,0.05740165710449219,985.5269165039062,0,13.0,1,1
7.4,0.05388093,-0.15893467,9.770586,0.0003106431977357716,0.0007220720872282983,-0.00022746383910998705,-5.390407085418701,23.25299835205078,-36.18734359741211,0.003988325595855713,0.021443799138069156,0.03845500946044922,985.5221557617188,0,13.0,1,1
7.44,0.05154434,-0.15178616,9.754021,-0.001154608093202114,0.0005889976164326072,-0.00022768409689888358,-5.773898601531982,23.26207733154297,-35.20496368408203,0.003641698509454727,0.021118223667144772,0.06211948394775391,985.5496826171876,0,13.0,1,1
7.48,0.06115725599999999,-0.15893732,9.7658615,4.3299602111801505e-05,0.00018960706074722109,0.0004378853482194245,-5.69126033782959,23.70801544189453,-34.93585205078125,-0.001007281243801117,0.02109813690185547,0.038440704345703125,985.524169921875,0,13.0,1,1
7.52,0.056430727,-0.15893859999999999,9.751663,0.0007085754768922925,-0.0002097832912113517,-0.0006275983178056778,-5.660415649414063,23.263267517089844,-35.684425354003906,-0.0007279515266418457,0.049613654613494866,0.05263614654541016,985.5523681640624,0,13.0,1,1
7.56,0.056484044000000004,-0.15417339,9.756403,4.2272120481356985e-05,-0.00020969990873709318,-0.0006278184591792524,-5.416686058044434,23.702163696289066,-35.67068099975586,0.003646712750196457,0.03999131917953491,0.05263233184814453,985.5377197265624,0,13.0,1,1
7.6,0.05653739,-0.15417464,9.761142999999999,4.1758321458473795e-05,0.0004561732348520309,0.0011030144523829222,-5.087029457092285,23.58952331542969,-35.86885452270508,-0.006323833018541336,0.025802507996559143,0.062099456787109375,985.5406494140624,0,13.0,1,1
7.64,0.05420074,-0.15894254,9.7540455,0.000573876197449863,0.0008557303808629513,-0.0007614169153384863,-5.495546340942383,24.62936019897461,-35.9437370300293,-0.0014656931161880493,0.035009726881980896,0.06208992004394531,985.5431518554688,0,13.0,1,1
7.68,0.054254085,-0.15894385,9.763519,4.073083982802928e-05,-0.00034260761458426714,0.0007031003478914499,-5.466498374938965,23.97130584716797,-35.21684646606445,-0.0015068426728248596,0.020542517304420468,0.04314422607421875,985.5535888671876,0,13.0,1,1
7.72,0.051917434000000005,-0.15894513,9.751688,-0.00021198335161898282,0.00036291626747697586,-3.3281859941780574e-05,-4.992109298706055,22.940902709960934,-35.84553146362305,0.007822979241609573,0.0346425324678421,0.05734157562255859,985.5487060546876,0,13.0,1,1
7.76,0.059140503,-0.15417989,9.763529,5.381873052101582e-05,-0.0003027901111636311,0.0004991296445950866,-5.7578372955322275,23.54065322875977,-35.45469284057617,0.0034744925796985626,0.029729381203651425,0.03839397430419922,985.546142578125,0,13.0,1,1
7.8,0.04963416,-0.1517979,9.763534,-0.00047932675806805486,-0.0008353384910151362,0.0010315412655472755,-5.923219680786133,23.755107879638672,-36.36556625366211,0.008170358836650848,0.02457892894744873,0.057322502136230476,985.5487060546876,0,13.0,1,1
7.84,0.059247077,-0.16609888,9.756437,-8.036669169086963e-05,-0.000435781228588894,0.0003655313048511744,-5.245620727539063,23.967803955078125,-35.86655044555664,-0.006254423409700394,0.04801730811595917,0.052577972412109375,985.5469970703124,0,13.0,1,1
7.88,0.056910485,-0.15656705,9.763544,-0.00048035435611382127,0.0002300918567925692,0.0006316270446404816,-5.698052406311035,23.54419708251953,-35.84903335571289,-0.006009269505739212,0.02880948781967163,0.03836631774902344,985.546630859375,0,13.0,1,1
7.92,0.06652337,-0.15418513,9.749346000000001,0.0008501975680701435,0.0007628904422745109,9.85549413599074e-05,-5.613211631774902,23.729232788085934,-36.25786209106445,-0.011009179055690764,0.019552811980247498,0.06677055358886719,985.559814453125,0,13.0,1,1
7.96,0.052237332000000004,-0.14941986,9.773022000000001,0.0008501975680701435,0.0007628904422745109,9.85549413599074e-05,-5.613211631774902,23.729232788085934,-36.25786209106445,0.003199081867933273,0.024421855807304386,0.03836250305175781,985.559814453125,0,13.0,1,1
8.0,0.057070404000000005,-0.15895428,9.756456,0.00031705194851383567,9.718420915305614e-05,-3.4823198802769184e-05,-5.541526317596436,23.532730102539066,-35.87248229980469,-0.006336063146591186,0.01924759149551392,0.06676006317138672,985.549560546875,0,13.0,1,1
8.04,0.05951363,-0.15180574,9.754094,-0.00048240949399769306,-0.00030220625922083855,-3.5043456591665745e-05,-5.218095779418945,23.30828094482422,-35.062362670898445,-0.011184908449649809,0.01925167441368103,0.06675529479980469,985.5477905273438,0,13.0,1,1
8.08,0.057177007,-0.1351241,9.754099,-0.00048240949399769306,-0.00030220625922083855,-3.5043456591665745e-05,-5.3585615158081055,23.59832000732422,-35.28863906860352,-0.006436623632907867,0.009523332118988035,0.05254364013671875,985.5477905273438,0,13.0,1,1
8.12,0.057230324000000006,-0.14942507,9.751736,0.00018286639533471322,0.00023050885647535321,9.789434261620043e-05,-5.594680309295653,23.16679382324219,-35.68891143798828,-0.0015924274921417234,0.023655205965042114,0.04780101776123047,985.583740234375,0,13.0,1,1
8.16,0.05728367,-0.15419294,9.763578,4.86809149151668e-05,-0.000301956053590402,0.00023061188403517008,-5.54511308670044,23.8980712890625,-35.81632614135742,-0.0015688203275203705,0.033113569021224976,0.04779529571533203,985.5732421875,0,13.0,1,1
8.2,0.057178467999999996,-0.15419038,9.763569,0.00018132505647372452,-0.0003018726129084825,-0.00016908219549804926,-5.5963096618652335,24.27165985107422,-35.9842643737793,0.003169797360897064,0.018833890557289124,0.03832149505615234,985.5585327148438,0,13.0,1,1
8.24,0.059453636,-0.15895416,9.754089,0.00044712709495797753,9.768459131009875e-05,-0.0003024602774530649,-5.775825500488281,23.73480987548828,-35.92518615722656,-0.006015900522470474,0.033013686537742615,0.05728054046630859,985.596923828125,0,13.0,1,1
8.28,0.05471444,-0.149422,9.761194,0.00032055185874924064,-4.188762977719307e-05,0.0004945882828906177,-5.646855354309082,23.17060852050781,-35.681095123291016,0.008123092353343964,0.013796553015708923,0.04780769348144531,985.573974609375,0,13.0,1,1
8.32,0.054754972,-0.15895610000000002,9.765932000000001,-0.00034562888322398067,0.00022449175594374537,-0.0005708427634090184,-5.203962326049805,24.059593200683594,-36.03231430053711,0.003278058022260666,0.02764357626438141,0.04306411743164063,985.5584716796876,0,13.0,1,1
8.36,0.061965257,-0.16372366,9.761202,-0.0010118096834048627,-0.00017491863400209695,-0.00017153657972812653,-5.163281440734863,23.78160858154297,-36.022315979003906,-0.01586639136075974,0.036899611353874213,0.043056488037109375,985.52587890625,0,13.0,1,1
8.4,0.05961597,-0.1565748,9.763573,-8.009521116036923e-05,0.0003577767056412995,-0.00030486215837299824,-5.147357940673828,23.95426940917969,-35.572967529296875,-0.006480827927589417,0.03651419281959534,0.0572509765625,985.5668334960938,0,13.0,1,1
8.44,0.05009687,-0.15419258,9.744638,-0.0006131179397925736,0.0008904719143174588,0.0004939179052598773,-5.216436386108398,23.41567230224609,-35.8387451171875,-0.0019775666296482086,0.012141138315200806,0.05250740051269531,985.5875244140624,0,13.0,1,1
8.48,0.057307184000000004,-0.14942698,9.756477,-0.0010129829170182347,0.00035790359834209085,-0.0007046711398288608,-5.072926998138428,23.12857437133789,-35.76707458496094,0.007241390645503999,0.02633833885192871,0.04777050018310547,985.5491333007812,0,13.0,1,1
8.52,0.069297254,-0.14466144,9.758849,0.0005845213891007006,0.0004911251016892493,9.410892380401492e-05,-5.308748722076416,23.32917785644531,-35.74247360229492,-0.021473456174135208,0.02614393830299377,0.05249786376953125,985.562255859375,0,13.0,1,1
8.56,0.06216812,-0.13274606,9.765955,-0.0006142911734059452,0.00035803060745820403,0.00022709916811436412,-5.828543663024902,24.106918334960934,-36.01581954956055,0.0023114420473575588,0.0018412023782730105,0.038285255432128906,985.602783203125,0,13.0,1,1
8.6,0.06459859,-0.1470467,9.737552,-0.0012804717989638448,-0.0003076956782024354,-3.938411828130484e-05,-5.396495819091797,23.247108459472656,-35.878116607666016,-0.011973172426223757,0.015630155801773068,0.07141494750976562,985.57275390625,0,13.0,1,1
8.64,0.062249242999999996,-0.15658082,9.76833,-0.0010145470732823014,-4.131626337766647e-05,-0.00017270981334149837,-5.270133018493652,23.41801452636719,-35.75362014770508,-0.002566676586866379,0.020102500915527344,0.04300212860107422,985.5654907226562,0,13.0,1,1
8.68,0.052730202999999996,-0.14704867,9.765965,-0.0003491482348181308,0.0007576948846690358,0.0003597544273361564,-5.827159881591798,24.00247573852539,-35.39405059814453,0.002373512834310532,0.02003428339958191,0.042995452880859375,985.5731811523438,0,13.0,1,1
8.72,0.059940517,-0.15419953,9.76597,0.0004494083113968372,-0.0005738211330026388,0.0004927448462694883,-5.592424392700195,24.5384521484375,-35.61555099487305,-0.0017425455152988436,0.034173354506492615,0.04771995544433594,985.5634765625,0,13.0,1,1
8.76,0.062370956,-0.15420051,9.756505,-0.0004830883699469268,-0.0017721790354698894,9.310338646173477e-05,-5.5405473709106445,23.902496337890625,-36.04823684692383,-0.0068800821900367745,0.019330903887748718,0.0524444580078125,985.5660400390624,0,13.0,1,1
8.8,0.04807216,-0.13990183,9.754141,-0.0015487427590414884,0.0006247272831387818,0.0002260936889797449,-5.390544891357422,23.14708709716797,-35.48826217651367,0.007539317011833191,0.0048081278800964355,0.05717277526855469,985.6094970703124,0,13.0,1,1
8.84,0.07440162,-0.15896912,9.749411,0.0001819192984839901,-0.00030731482547707856,-4.038983024656773e-05,-5.315379619598389,23.691577911376953,-35.53170394897461,-0.01614540815353394,0.01439674198627472,0.06190299987792969,985.5584106445312,0,13.0,1,1
8.88,0.057712853,-0.14228709,9.768352499999999,0.0005810020375065506,-0.00017409332212992013,-0.0001737152924761176,-5.888329029083253,24.10337829589844,-35.62147903442383,-0.0018163993954658508,0.018915951251983643,0.02401924133300781,985.5744018554688,0,13.0,1,1
8.92,0.055363536,-0.14228813,9.754152000000001,-0.00021833648497704417,-0.0008398195495828986,-0.0005733566358685492,-5.290186405181885,23.978992462158203,-36.24526596069336,-0.006168603897094727,0.014127910137176512,0.05241870880126953,985.5670166015624,0,13.0,1,1
8.96,0.057793975,-0.16135533,9.756523,-0.00048504350706934934,-0.0005734402220696211,-0.0007066822145134211,-5.1958088874816895,23.69866180419922,-36.32039260864258,0.008156765252351759,0.0233335942029953,0.06661510467529297,985.5927124023438,0,13.0,1,1
9.0,0.048274994,-0.15420641,9.758894,-0.0007517504272982477,0.00022557092597708106,0.00022525578970089555,-5.691123008728027,23.813934326171875,-35.63492965698242,0.01322251558303833,0.018228158354759216,0.04766654968261719,985.5850219726562,0,13.0,1,1
9.04,0.06982469599999999,-0.15182425,9.761264,4.680616257246584e-05,-0.001239102799445391,0.0006245620315894486,-5.5747337341308585,23.712158203125,-35.56992721557617,-0.015607114881277084,0.008515939116477966,0.04766178131103516,985.5699462890624,0,13.0,1,1
9.08,0.06508541,-0.15182520000000002,9.766003,-0.0004862166242673993,0.0006251716404221952,0.0002249206881970167,-5.489894390106201,23.897201538085934,-35.9787483215332,-0.010636921972036362,0.027177989482879642,0.042916297912597656,985.5751953125,0,13.0,1,1
9.12,0.06751591,-0.15659268,9.7707405,-0.000752923428080976,9.2603440862149e-05,0.0006242268718779088,-5.924581527709961,24.27985382080078,-35.164310455322266,-0.010506760329008102,0.02186766266822815,0.03816986083984375,985.5684204101562,0,13.0,1,1
9.16,0.053217083,-0.15659375,9.763643,-0.0012859463458880782,-0.001105754403397441,9.142747148871422e-05,-5.82205057144165,23.63860321044922,-35.52751541137695,0.003928568214178085,0.01216179132461548,0.05710029602050781,985.5725708007812,0,13.0,1,1
9.2,0.06189722,-0.15418889,9.76593,4.524200630839914e-05,-4.042757791467011e-05,-4.189810715615749e-05,-5.993659019470215,23.74125671386719,-35.43008804321289,-0.004671748727560043,0.017205774784088138,0.04298019409179688,985.5936889648438,0,13.0,1,1
9.24,0.05473137,-0.13988931,9.761196,0.001363966031931341,5.420715024229139e-05,-0.00015361892292276022,-6.093581676483153,23.647403717041016,-34.94729232788086,0.004970744252204895,0.007708489894866943,0.04298019409179688,985.5584716796876,0,13.0,1,1
9.28,0.061904877000000004,-0.13750614,9.770664,0.00030404177960008383,-0.0007456072489731014,-0.0002844886039383709,-5.542069435119629,23.901020050048828,-35.9709358215332,-0.004127219319343567,0.0029358118772506714,0.03824329376220703,985.5917358398438,0,13.0,1,1
9.32,0.061908722,-0.15657239,9.749361,0.00017084716819226745,-0.0007456012535840273,0.000514443323481828,-5.4793782234191895,23.801597595214844,-35.8208122253418,0.00042545795440673834,0.02210141718387604,0.05718231201171875,985.587158203125,0,13.0,1,1
9.36,0.052352875,-0.15180598,9.782501,-0.00022866355720907452,0.000852299970574677,-1.820421312004328e-05,-5.931373119354247,24.11603546142578,-36.07749557495117,0.005141597241163254,0.012272477149963379,0.03824138641357422,985.5637817382812,0,13.0,1,1
9.4,0.049966812,-0.14942284,9.777766999999999,-0.00036185799399390817,-0.00021295760234352199,0.00024809595197439194,-5.457664489746094,23.348011016845703,-36.10554885864258,0.010012496262788773,0.012085229158401491,0.02876758575439453,985.5718383789062,0,13.0,1,1
9.44,0.06669992,-0.16133924,9.763565,-0.00036189483944326634,-0.0006124254432506858,0.00011492223711684346,-4.910994529724121,23.3853759765625,-35.49911880493164,-0.018336020410060886,0.016558036208152768,0.047699928283691406,985.6019897460938,0,13.0,1,1
9.48,0.059534073,-0.15180631,9.773033999999999,-0.00036189483944326634,-0.0006124254432506858,0.00011492223711684346,-5.540684700012207,23.79657745361328,-35.34916305541992,0.010125845670700072,0.026088118553161618,0.0287628173828125,985.6019897460938,0,13.0,1,1
9.52,0.059537828,-0.14942308,9.7683,0.0004370160750113428,-7.978775829542428e-05,0.0005143804010003805,-4.976048469543457,23.219486236572266,-36.09526062011719,-0.0049257129430770865,0.01153753697872162,0.03823184967041016,985.5897216796876,0,13.0,1,1
9.56,0.057151765,-0.15657301,9.742261,-9.565229993313552e-05,0.0009854817762970924,0.0002480486873537302,-5.020315647125244,23.8628044128418,-36.04909896850586,-0.0049868300557136536,0.03043152391910553,0.07136917114257812,985.5896606445312,0,13.0,1,1
9.6,0.059545457,-0.14942332,9.754097,0.00017059006495401266,0.0004528618883341551,-1.829856773838401e-05,-5.214807033538818,22.31079864501953,-35.543392181396484,-0.004959374666213989,0.0016448646783828735,0.0666341781616211,985.5621337890624,0,13.0,1,1
9.64,0.057159364000000004,-0.16848959,9.765934,-0.00022892031120136383,-0.0003460797597654164,0.000780633301474154,-5.6519646644592285,23.534481048583984,-35.547630310058594,-0.005286827683448792,0.03448353707790375,0.028751373291015625,985.5678100585938,0,13.0,1,1
9.68,0.059553027,-0.14942347,9.754097,-0.00022895709844306109,0.0003197158221155405,0.00011482782429084182,-5.162196159362793,23.045032501220703,-35.82541275024414,0.004646874964237213,0.005953282117843628,0.04768848419189453,985.5930786132812,0,13.0,1,1
9.72,0.052387178,-0.15180682,9.763567,-9.58359451033175e-05,-0.00047922582598403096,0.0002479700488038361,-5.101569175720215,23.31242370605469,-35.69643783569336,8.613988757133484e-05,0.020098641514778137,0.05715179443359375,985.5758056640624,0,13.0,1,1
9.76,0.059560657,-0.14704038,9.758833000000001,-0.0004953463212586938,-0.0003460619482211769,-0.00028467742959037423,-5.248420238494873,22.96443176269531,-36.03836441040039,-0.004857704043388368,0.005565807223320007,0.038211822509765625,985.5809326171876,0,13.0,1,1
9.8,0.06195438,-0.13512404,9.7612,-0.0002290673437528312,0.00018657579494174567,0.0007805703789927065,-6.001673698425293,24.20809555053711,-35.84109115600586,-0.004643559455871582,-0.00875680148601532,0.0524139404296875,985.5936889648438,0,13.0,1,1
9.84,0.052398562,-0.14942385,9.758834,-9.594601579010488e-05,-0.00021289206051733345,0.0006473967223428191,-5.334048271179199,24.14810943603516,-35.401573181152344,0.00441361591219902,0.010223358869552612,0.038211822509765625,985.5990600585938,0,13.0,1,1
9.88,0.0595721,-0.15180714,9.7541,-0.00036229850957170134,0.0013850091490894554,0.00038106506690382963,-5.454598426818848,23.771259307861328,-34.437129974365234,-0.00013449788093566897,0.024317353963851932,0.0571451187133789,985.5811157226562,0,13.0,1,1
9.92,0.0547961,-0.15895708,9.770669999999999,0.0004366122302599251,-0.0010118278441950679,-0.0002847402938641608,-5.421252250671387,23.69774627685547,-35.43876266479492,0.004727121442556381,0.02419313788414001,0.0240020751953125,985.5768432617188,0,13.0,1,1
9.96,0.06435954599999999,-0.15419067,9.746999,-0.0006286879652179778,5.344166129361838e-05,0.00024787563597783446,-5.381114959716797,23.78806304931641,-35.5272216796875,-0.004612289369106293,0.014421477913856506,0.05713653564453125,985.5897216796876,0,13.0,1,1
10.0,0.057193637,-0.15657403,9.763569,3.706524148583412e-05,-0.0012781318509951234,-0.00015161390183493495,-5.177958488464356,23.398590087890625,-35.150814056396484,0.0048670247197151175,0.009473830461502077,0.04766654968261719,985.5820922851562,0,13.0,1,1
10.04,0.06675705,-0.15419085,9.758836,-0.0004956034827046096,5.345359386410564e-05,0.0003810021444223821,-5.455301284790039,23.61332702636719,-35.6595344543457,-0.009193308651447296,0.02379666268825531,0.04293060302734375,985.5594482421876,0,13.0,1,1
10.08,0.06676084,-0.16134073,9.773039,0.00043646548874676233,5.3459560149349265e-05,-0.0002848031581379473,-5.235540866851807,23.13414764404297,-35.43440628051758,-0.004238467663526535,0.014156162738800047,0.033458709716796875,985.5723266601562,0,13.0,1,1
10.12,0.050035357,-0.16134085,9.761204,3.6955054383724935e-05,-7.969241414684802e-05,-0.00015166105004027486,-5.4418792724609375,23.414752960205078,-34.95711898803711,0.005374304950237274,0.028453722596168518,0.042926788330078125,985.6102294921876,0,13.0,1,1
10.16,0.05242905,-0.15895768,9.754103,3.691815072670579e-05,-0.00034600228536874056,0.00024779699742794037,-5.363669395446777,23.962188720703125,-35.15517807006836,-0.00428275391459465,0.023529812693595886,0.03818988800048828,985.5748291015624,0,13.0,1,1
10.2,0.061992465999999996,-0.15657447,9.749367999999999,0.000436355359852314,-0.0003459963481873274,0.0005140971625223756,-5.359402656555176,23.334476470947266,-35.81196212768555,-0.008887752890586853,0.01855719089508057,0.06659317016601562,985.5570678710938,0,13.0,1,1
10.24,0.054826587,-0.15895785,9.768307,-0.00022947089746594434,-0.0002128324849763885,-0.0006843399605713785,-5.757156848907472,23.27827453613281,-36.05531692504883,0.00022029131650924683,0.018464460968971246,0.028717994689941406,985.5679321289062,0,13.0,1,1
10.28,0.059610188,-0.14942484,9.761205,0.0003031238447874784,0.0011187528725713491,-1.8566090147942308e-05,-5.8621883392333975,23.54829406738281,-35.43906021118164,7.710233330726624e-05,0.01846466958522797,0.04765605926513672,985.5723876953124,0,13.0,1,1
10.32,0.054834187,-0.16134135,9.758838,-0.00036270235432311887,0.0011187588097527623,0.0002477340749464929,-5.1286892890930185,23.49774169921875,-35.70309829711914,0.00011799857020378113,0.03716045618057251,0.04765129089355469,985.56591796875,0,13.0,1,1
10.36,0.059970498,-0.16135012,9.765972,-0.0003627390833571553,-0.0010117621859535577,0.0006471921224147081,-5.406468391418457,22.97442626953125,-35.9376106262207,-0.004689969122409821,0.02753467857837677,0.0523834228515625,985.5782470703124,0,13.0,1,1
10.4,0.055564999999999996,-0.14944293,9.75417,-9.645993122830987e-05,0.00018666520190890878,0.0005140185239724815,-5.731122016906737,23.82953643798828,-36.24555969238281,0.009253744035959244,0.013280302286148071,0.04758071899414063,985.5885009765624,0,13.0,1,1
10.44,0.055592597,-0.14944352,9.756539,0.0005654112319462001,-0.0007478220504708588,0.0005090708145871757,-5.607262134552002,23.62921142578125,-35.86800003051758,-0.0049972236156463614,0.003775268793106079,0.03810977935791016,985.5863647460938,0,13.0,1,1
10.48,0.053230256,-0.16374387,9.751808,0.00029882957460358733,-0.0003483050968497992,-0.00015683274250477552,-5.677020072937013,23.352985382080078,-35.53314971923828,0.004793204367160797,0.02764718234539032,0.04757499694824219,985.5609130859376,0,13.0,1,1
10.52,0.050867915,-0.1542115,9.763647,3.22481500916183e-05,-0.0004814199346583337,-2.3788656108081337e-05,-5.214914321899414,23.417144775390625,-35.91604995727539,0.009171079844236374,0.0228671133518219,0.057042121887207024,985.5761108398438,0,13.0,1,1
10.56,0.058065175999999996,-0.15182881,9.761282000000001,0.0006975064752623439,0.0003176139434799552,-0.00042349006980657583,-5.63286018371582,23.816001892089844,-35.95196914672852,-0.0007294155657291412,0.01822948455810547,0.04283905029296875,985.5607299804688,0,13.0,1,1
10.6,0.055702835,-0.15182953,9.770754,0.0006975064752623439,0.0003176139434799552,-0.00042349006980657583,-5.63286018371582,23.816001892089844,-35.95196914672852,-0.005463939160108565,0.00867791473865509,0.02390003204345703,985.5607299804688,0,13.0,1,1
10.64,0.055730402000000005,-0.15898006,9.761288,0.000697240699082613,0.000317657133564353,-0.0001572881592437625,-5.701777458190918,23.803619384765625,-35.09379196166992,0.004170961678028107,0.027623862028121948,0.04283237457275391,985.5947875976562,0,13.0,1,1
10.68,0.06292769,-0.14944763,9.761289999999999,-0.0003682882525026798,-0.0004812474362552166,0.0003752298071049154,-5.630496501922607,24.081321716308594,-35.50595474243164,-0.005366921424865723,0.013258233666419985,0.038094520568847656,985.5643920898438,0,13.0,1,1
10.72,0.058175445,-0.15183152,9.7683935,-0.00010223826393485068,-8.173045353032649e-05,-0.00015751586761325598,-5.128146171569824,23.12944793701172,-35.60464859008789,-0.010103777050971985,0.023183137178421017,0.04756641387939453,985.5822143554688,0,13.0,1,1
10.76,0.06059289,-0.14706571,9.758927,0.0013484549708664415,-0.0001949902652995661,3.7283753044903283e-06,-5.087871551513672,23.32567596435547,-36.39217758178711,-0.0005201473832130432,-0.0006570965051651001,0.05703163146972656,985.5545043945312,0,13.0,1,1
10.8,0.027161837,-0.14468314,9.751828,-0.00038286391645669937,0.0003376845852471888,0.0002699303440749645,-5.383179664611816,24.15487670898437,-35.54836654663086,0.02316887676715851,-0.0010206997394561768,0.057025909423828125,985.5874633789062,0,13.0,1,1
10.84,0.04391873,-0.14468373,9.766033,-0.0003831295180134475,-6.174607551656662e-05,-0.00012965727364644408,-5.408671379089356,23.23532867431641,-35.25967788696289,0.0228925459086895,0.013419285416603087,0.04282379150390625,985.5828857421876,0,13.0,1,1
10.88,0.05111599,-0.15660079,9.78024,-0.0003831295180134475,-6.174607551656662e-05,-0.00012965727364644408,-5.543591499328613,23.899547576904297,-35.89362716674805,0.003906745463609696,0.023211732506752014,0.019151687622070312,985.5828857421876,0,13.0,1,1
10.92,0.05831325,-0.15421827,9.758938,0.000815026112832129,-0.00019486081146169454,0.0001365446951240301,-5.467339992523193,23.70745849609375,-35.740169525146484,-0.0005272515118122102,0.023322030901908875,0.05702400207519531,985.5880126953124,0,13.0,1,1
10.96,0.04639131,-0.15183564,9.756573,0.0006816026871092618,7.149811426643282e-05,0.0001364309573546052,-5.474811553955078,23.806011199951172,-36.0527229309082,0.009054996073246002,0.0042723119258880615,0.0570211410522461,985.58544921875,0,13.0,1,1
11.0,0.04163912,-0.14706971,9.761311,0.00014870509039610624,-0.0013931960565969348,0.0006689487490803003,-5.243556022644043,23.600982666015625,-35.84540557861328,0.00893496721982956,0.013544276356697084,0.05228042602539063,985.5751953125,0,13.0,1,1
11.04,0.044056565,-0.151837,9.766047,-0.0002513000508770346,-0.00019468834216240796,0.00026924721896648407,-5.336166858673097,22.882362365722656,-36.17401123046875,0.018270093947649,0.02316352725028992,0.042812347412109375,985.5679931640624,0,13.0,1,1
11.08,0.044084102,-0.14707108,9.75658,0.0004142240504734218,0.0006043024477548897,0.00013597554061561823,-6.023142814636231,23.6612548828125,-35.88277053833008,0.008925877511501312,0.013583987951278688,0.042807579040527344,985.5679931640624,0,13.0,1,1
11.12,0.029772222,-0.15183829,9.770786,-0.0005181471351534128,-0.0005940759438090026,-0.00039677019231021404,-6.073497772216798,24.298683166503906,-35.52739334106445,0.0231991596519947,0.013219475746154785,0.042799949645996094,985.5505981445312,0,13.0,1,1
11.16,0.04891908,-0.15183903,9.76132,-0.0011842024978250265,-0.0004608748713508248,0.00040206362609751517,-5.7077269554138175,23.903644561767575,-35.4836540222168,0.008741941303014755,0.008188754320144653,0.033324241638183594,985.5505981445312,0,13.0,1,1
11.2,0.041776896,-0.15660627,9.751854,-0.00011920469114556909,0.0002049579779850319,-0.0002638399600982666,-5.714656352996826,23.6339111328125,-35.697757720947266,0.01832931488752365,0.00816740095615387,0.04279136657714844,985.5735473632812,0,13.0,1,1
11.24,0.048974156,-0.15184031,9.761325999999999,0.0005463192937895657,7.184316928032786e-05,-0.00013079593190923333,-5.513426780700684,23.717174530029297,-36.04157638549805,0.003622915595769882,0.02739870548248291,0.03805732727050781,985.54345703125,0,13.0,1,1
11.28,0.044221937999999995,-0.15899085,9.763695,0.0008123696316033603,0.00033820216776803136,-0.0002640676684677601,-5.506498336791992,23.98691177368164,-35.82746887207031,0.01299581304192543,0.027187779545784,0.042786598205566406,985.5514526367188,0,13.0,1,1
11.32,0.053809105999999995,-0.14945848,9.773166,-0.00012000184506177902,-0.00019438641902524975,-0.00039733957964926964,-5.387064933776856,23.888080596923828,-35.91707992553711,-0.001684274524450302,0.02214823663234711,0.03331565856933594,985.54638671875,0,13.0,1,1
11.36,0.04380983,-0.15421422,9.766024,-0.00025342521257698536,0.0011372361332178116,2.020504325628281e-06,-5.491851806640625,23.15766906738281,-35.62723922729492,0.008491098880767822,0.012794509530067444,0.04755973815917969,985.5746459960938,0,13.0,1,1
11.4,0.053378284000000005,-0.15659772,9.761291499999999,1.4296791050583124e-05,-0.0008603613241575657,-0.0005300084594637157,-5.390109062194824,23.88513946533203,-35.76247024536133,0.00394829362630844,0.017460331320762634,0.05228996276855469,985.5771484375,0,13.0,1,1
11.44,0.0462175,-0.13514842,9.766026,0.00028523112996481364,-0.0005967725301161407,-0.0009299575467593967,-5.0387396812438965,23.31890869140625,-36.24538803100586,0.01829894259572029,-0.0016445964574813845,0.03335094451904297,985.5823974609376,0,13.0,1,1
11.48,0.051006168,-0.1446817,9.75419,0.00015198756591416898,-0.0004636006779037416,-0.0005305205122567713,-5.335325717926025,23.146209716796875,-35.65068435668945,0.008349217474460602,-0.0061612576246261605,0.05702877044677735,985.58740234375,0,13.0,1,1
11.52,0.053404927000000005,-0.16136487,9.758925999999999,0.0005513757932931185,0.00033536087721586233,0.0006678643403574824,-5.46763801574707,23.07532501220703,-36.16504287719727,0.009070709347724916,0.013138413429260254,0.0522918701171875,985.5475463867188,0,13.0,1,1
11.56,0.046244144,-0.15659855,9.763661,0.0004181322001386434,-0.0007298886775970459,0.00040151178836822515,-5.7282161712646475,23.72657012939453,-35.70109176635742,0.01819755509495735,0.017824649810791016,0.04282188415527344,985.5751953125,0,13.0,1,1
11.6,0.055812627000000004,-0.14468242,9.754192,0.00015173081192187965,0.00033538870047777886,0.00026831711875274783,-5.54525089263916,23.79216003417969,-35.11724853515625,0.004094753414392471,0.0034636110067367554,0.05702400207519531,985.5449829101562,0,13.0,1,1
11.64,0.039092153,-0.16374888,9.766029,1.8487247871235013e-05,-0.000996176851913333,-0.0001311933738179505,-5.420708656311035,23.329456329345703,-35.34031677246094,0.02348382398486137,0.031741365790367126,0.04281425476074219,985.5803833007812,0,13.0,1,1
11.68,0.051050603,-0.15183266,9.763663000000001,-0.00011475625797174874,-0.00033037323737517,0.0005345597164705397,-5.500845909118652,23.25475311279297,-35.86248779296875,0.004221286624670029,0.017398178577423096,0.047547340393066406,985.5527954101562,0,13.0,1,1
11.72,0.051059455,-0.15421613,9.763664,-0.0002479998220223933,0.00020227233471814543,0.0008008388103917241,-5.28355598449707,23.61659240722656,-36.456031799316406,0.0043656714260578156,0.0032850950956344604,0.047547340393066406,985.557861328125,0,13.0,1,1
11.76,0.05584812,-0.15183304,9.754196,0.0009502503089606762,6.91422465024516e-05,-0.0002644979977048933,-5.574872016906738,23.606239318847656,-34.870849609375,0.0046479329466819755,0.013361796736717224,0.061756134033203125,985.5631103515624,0,13.0,1,1
11.8,0.05824691,-0.15659990000000001,9.763666,0.0009502503089606762,6.91422465024516e-05,-0.0002644979977048933,-5.574872016906738,23.606239318847656,-34.870849609375,-9.685009717941284e-05,0.008255183696746826,0.03807926177978516,985.5631103515624,0,13.0,1,1
11.84,0.05825579,-0.14468373,9.751831,1.80593051481992e-05,-0.00046347561874426907,-0.00013137684436514974,-5.153010368347168,24.686431884765625,-35.5379524230957,-0.00034068897366523737,-0.0010832399129867554,0.05702018737792969,985.5784912109376,0,13.0,1,1
11.88,0.0487051,-0.15183379,9.77787,0.0005506053566932678,0.00046864384785294533,-0.0003977293963544071,-5.641012191772461,24.17692565917969,-35.66389465332031,-0.0003197677433490753,0.018057122826576236,0.042817115783691406,985.5816040039062,0,13.0,1,1
11.92,0.058273554000000005,-0.15421723,9.763668,-0.00011526994057931006,0.00020234186376910657,0.000268023693934083,-5.982163906097412,24.015411376953125,-35.44790267944336,-0.005385894328355789,0.013075366616249084,0.05228233337402344,985.5564575195312,0,13.0,1,1
11.96,0.048722833,-0.14706759,9.7542,-0.00011535550584085286,0.00033551373053342104,-0.0001314868568442762,-5.427202224731445,23.797771453857425,-35.82862091064453,0.008881792426109314,0.0034332722425460807,0.05228042602539063,985.5974731445312,0,13.0,1,1
12.0,0.04156202,-0.15898420000000002,9.749467,-0.00011544107110239563,6.921168824192138e-05,-0.00039783940883353347,-5.993520736694336,23.847171783447266,-36.12916946411133,0.023361481726169583,0.02715489268302917,0.06174564361572265,985.5564575195312,0,13.0,1,1
12.04,0.048740596,-0.14468478,9.780241,0.0001507891865912825,-0.00033024814911186695,0.0004010715347249061,-5.9957237243652335,24.108074188232425,-35.45123672485352,0.004066411405801773,-0.0015241950750350952,0.01913738250732422,985.57177734375,0,13.0,1,1
12.08,0.05591917,-0.16136797,9.766039,0.0004170195024926216,-0.0003302342956885696,-0.0005310705746524036,-5.042762756347656,22.94620513916016,-35.91501998901367,-0.005498688668012619,0.04640181362628937,0.04281139373779297,985.5440063476562,0,13.0,1,1
12.12,0.051148295,-0.15898491,9.761305,0.0001506180560681969,-6.390448834281415e-05,-0.00026479148073121905,-5.391088485717773,23.51537322998047,-35.58671188354492,0.004203431308269501,0.012901395559310913,0.052275657653808594,985.5878295898438,0,13.0,1,1
12.16,0.055936933,-0.14945199,9.751837,0.0002836903149727732,-0.0004633644712157548,-0.0005311441491357981,-5.316220760345459,23.42773056030273,-36.05502700805664,0.004182346165180206,0.017437517642974854,0.0570068359375,985.54638671875,0,13.0,1,1
12.2,0.051165998,-0.15660198,9.749471,-0.0003821850114036352,0.00046875502448529005,0.0008003986440598965,-5.626909732818604,23.71598052978516,-35.56211471557617,0.00915054976940155,0.013032615184783936,0.06174373626708984,985.5598754882812,0,13.0,1,1
12.24,0.04878503,-0.14945239999999999,9.758939999999999,0.0013487826799973845,-0.0005964946467429401,0.00026773021090775734,-5.6624813079833975,23.630088806152344,-35.705570220947266,-0.0004590339958667755,0.017936855554580692,0.03333854675292969,985.5726928710938,0,13.0,1,1
12.28,0.046403974,-0.15183593,9.754208,0.00037489569513127213,0.00021540411398746076,-0.00012805918231606483,-5.533074378967285,23.803939819335934,-35.73568344116211,0.009514618664979936,0.01796792447566986,0.06174278259277344,985.5751953125,0,13.0,1,1
12.32,0.047147572,-0.16377057,9.747173,-2.4663808289915327e-05,-0.0012493194080889225,-0.000660727615468204,-5.539705753326416,24.166339874267575,-35.52492141723633,0.009039130061864851,0.02727997303009033,0.07120990753173828,985.5726928710938,0,13.0,1,1
12.36,0.055105537,-0.14949025,9.75198,-0.0005573810776695608,0.00021543187904171648,0.000271341297775507,-6.170238494873048,24.31369400024414,-35.89828491210937,0.0026220977306365967,-0.0015182197093963625,0.05213165283203125,985.5527954101562,0,13.0,1,1
12.4,0.04561439,-0.16140829,9.770924,-0.0005573810776695608,0.00021543187904171648,0.000271341297775507,-6.093443870544434,23.75331878662109,-35.6463737487793,0.0075417086482048035,0.0216442346572876,0.0284423828125,985.5527954101562,0,13.0,1,1
12.44,0.048072755,-0.144727,9.74489,-0.00029897058266215026,0.00034664064878597856,0.0005296898307278752,-5.356901168823242,23.70571136474609,-36.06502151489258,0.016853690147399902,0.012262925505638124,0.05684661865234375,985.5888061523438,0,13.0,1,1
12.48,0.052921057,-0.15664504,9.763834,9.566973312757908e-05,0.00034742534626275296,-0.00013817142462357881,-5.021838188171387,23.86133575439453,-35.9717903137207,0.01182636618614197,0.021668300032615658,0.04736995697021485,985.5785522460938,0,13.0,1,1
12.52,0.041040003,-0.15188025,9.761475,-0.0005707797827199101,0.0003475323901511729,0.0005273355054669082,-5.326193809509277,23.155048370361328,-36.11452102661133,0.016198936849832538,0.011889487504959106,0.05209541320800781,985.5606079101562,0,13.0,1,1
12.56,0.060227662,-0.14949866,9.759113000000001,0.00022750793141312894,0.0008802712545730174,0.0007933685556054115,-5.430544853210449,23.16268920898437,-36.0988883972168,-0.007873516529798508,0.007211223244667053,0.05209159851074219,985.5609741210938,0,13.0,1,1
12.6,0.053126454000000004,-0.15426685,9.756752,-0.0001726258487906307,-0.00018488503701519218,-0.0006716515053994954,-5.515928268432617,23.34593963623047,-35.788516998291016,0.0013144537806510925,0.01157572865486145,0.0473480224609375,985.5405883789062,0,13.0,1,1
12.64,0.060364604,-0.14473544,9.761494,-0.0003064436896238476,0.0008804855751805007,-6.144808139652014e-06,-5.349130630493164,24.239295959472656,-35.32760238647461,0.0014573484659194946,0.011266142129898071,0.05206871032714844,985.5790405273438,0,13.0,1,1
12.68,0.05087346,-0.14950366,9.747295,-0.0005734195001423359,-0.0003178287297487259,0.0002598883002065122,-5.564080238342285,23.722469329833984,-36.11106491088867,-0.003442373126745224,0.006417810916900635,0.06153202056884765,985.5614624023438,0,13.0,1,1
12.72,0.060501516,-0.16618825,9.766239,-0.0005740794586017728,0.00021491014922503385,-6.710237357765436e-06,-5.564080238342285,23.722469329833984,-36.11106491088867,-0.003841694444417953,0.030219510197639462,0.047324180603027344,985.5590209960938,0,13.0,1,1
12.76,0.048620462,-0.14950709,9.761511,0.0007568401051685214,0.0006144911749288441,0.000259322696365416,-5.82813835144043,23.63271331787109,-35.218292236328125,0.005452007055282593,0.006487905979156494,0.052051544189453125,985.5620727539062,0,13.0,1,1
12.8,0.05824858,-0.14712547,9.761517,-0.0001759253500495106,0.00034828239586204285,0.0003921978350263089,-5.647941589355469,23.907188415527344,-35.87799453735352,-0.004276510328054428,0.001733824610710144,0.04731559753417969,985.5665283203124,0,13.0,1,1
12.84,0.05353725,-0.15427692,9.759157,0.0004892043070867658,0.00048154743853956466,0.00025875709252431994,-5.802540302276611,23.4459228515625,-35.13431930541992,0.00542764738202095,0.011234864592552185,0.04730701446533203,985.5416259765624,0,13.0,1,1
12.88,0.053605676,-0.14236225,9.754429,-0.00017724515055306256,-0.000583608984015882,0.0006579480832442641,-5.50801944732666,23.98543930053711,-35.75016784667969,0.00033452361822128296,0.005908757448196411,0.05676364898681641,985.5728759765624,0,13.0,1,1
12.92,0.051284254,-0.13521408,9.761536,-0.0008436947828158736,0.00021544577612075957,-0.0005407560965977608,-5.231517791748047,23.506858825683594,-35.76477432250977,0.0010127015411853788,-0.0034660547971725464,0.05675506591796875,985.5723266601562,0,13.0,1,1
12.96,0.056132525,-0.15189867,9.752074,-4.540712689049542e-05,-0.002181289717555046,-8.407281711697577e-06,-5.2376060485839835,23.500961303710934,-35.45555114746094,0.010679874569177628,-0.003347143530845642,0.061482429504394524,985.5548095703124,0,13.0,1,1
13.0,0.05620098,-0.15666695,9.76865,0.00022024897043593228,-5.065585719421506e-05,0.00012446782784536478,-5.092437267303467,23.321258544921875,-36.1602668762207,-0.003724444657564163,0.020123913884162903,0.047267913818359375,985.5550537109376,0,13.0,1,1
13.04,0.046709836,-0.15428539,9.763922,8.643112960271537e-05,8.260922913905233e-05,-8.972885552793741e-06,-5.418208122253418,23.7006950378418,-35.593379974365234,0.010409630835056305,0.020120441913604736,0.033059120178222656,985.5175170898438,0,13.0,1,1
13.08,0.058727800000000004,-0.16143687,9.759194,8.577122935093939e-05,-0.00031675741774961347,0.0009228498674929143,-5.46886157989502,23.70598602294922,-35.66286849975586,-0.0038891509175300602,0.02467159926891327,0.06145668029785156,985.54833984375,0,13.0,1,1
13.12,0.05640638,-0.13283922,9.771037,-0.0004475203750189394,-5.033446359448135e-05,0.00025677733356133103,-5.210891246795653,23.789852142333984,-36.24641799926758,0.0008897222578525543,-0.013486772775650023,0.037776947021484375,985.55322265625,0,13.0,1,1
13.16,0.056474835,-0.16620673,9.756839999999999,-0.0001818643359001726,-0.00018338527297601104,-9.821320418268442e-06,-5.111105918884277,23.77778625488281,-36.03013229370117,0.0008898153901100159,0.024406284093856808,0.04723548889160156,985.540771484375,0,13.0,1,1
13.2,0.0589332,-0.1566753,9.754478,-0.0001825243525672704,0.0006156694726087152,0.0005225276108831167,-5.567124366760254,23.719520568847656,-35.95645523071289,-0.004301954060792923,0.009879171848297121,0.04249382019042969,985.5509643554688,0,13.0,1,1
13.24,0.070951164,-0.16144358,9.768688000000001,-0.0003163421351928264,0.00048261863412335515,0.0001227709581144154,-5.227089881896973,23.405357360839844,-35.297611236572266,-0.013867642730474472,0.01943895220756531,0.04248809814453125,985.5660400390624,0,13.0,1,1
13.28,0.054290324,-0.16382857,9.773429,0.00021562978508882225,-0.00044937978964298964,-0.0005433016340248287,-5.471905708312988,23.70304107666016,-35.50825881958008,0.0004678070545196533,0.028974324464797974,0.04721546173095703,985.5611572265624,0,13.0,1,1
13.32,0.06087774,-0.15189789,9.756805,0.0003481278254184872,8.335908933077008e-05,-0.0008099000551737845,-4.986159324645996,22.84088134765625,-35.4556770324707,3.592297434806824e-05,0.005064725875854492,0.05194377899169922,985.5687866210938,0,13.0,1,1
13.36,0.057866573,-0.1423495,9.752013999999999,-0.0003167771210428328,0.000882163061760366,-0.000543205125723034,-5.316901206970215,23.690105438232425,-35.454402923583984,-0.008087124675512314,0.005064427852630615,0.05205821990966797,985.56689453125,0,13.0,1,1
13.4,0.055493176,-0.14473318,9.763850999999999,0.0004926045658066869,-0.0005842680693604053,-6.101618055254221e-06,-5.18887996673584,23.968402862548828,-36.10628890991211,0.0061680153012275704,-0.004569217562675476,0.033118247985839844,985.5795288085938,0,13.0,1,1
13.44,0.060289472000000004,-0.14950015,9.768587,-0.00017334418953396383,0.000347863300703466,-6.169837433844805e-06,-5.405190467834473,23.976322174072266,-35.68849563598633,0.0009801201522350313,0.009762868285179138,0.047324180603027344,985.5391845703124,0,13.0,1,1
13.48,0.057916075,-0.15903367,9.747284,-0.0004398192104417831,0.001546310493722558,-0.0006720276433043183,-5.880856513977051,24.004825592041016,-35.30892944335937,0.010435424745082857,0.018891632556915283,0.061519622802734375,985.5570678710938,0,13.0,1,1
13.52,0.057932555999999996,-0.1542675,9.756753999999999,-0.000972609966993332,-0.00018471675866749135,-0.00027262192452326417,-5.719222068786621,23.629493713378906,-35.46583938598633,0.005580209195613861,0.013708055019378662,0.0567770004272461,985.5698852539062,0,13.0,1,1
13.56,0.07228851,-0.14711805,9.763858,-0.00030697925831191236,8.162492304109037e-05,-6.374146323651075e-06,-5.6921024322509775,23.444171905517575,-35.45917510986328,-0.023111674934625626,0.00881776213645935,0.03783607482910156,985.5676879882812,0,13.0,1,1
13.6,0.05557567,-0.16380145,9.77096,-4.0822516893967986e-05,0.00021480869327206165,0.00012671545846387744,-5.227632999420166,23.773651123046875,-35.39606094360352,0.0008662417531013489,0.018492370843887333,0.028367996215820312,985.5394287109376,0,13.0,1,1
13.64,0.048422515,-0.15665202,9.749657000000001,0.0006248081335797906,0.00048115040408447385,0.0006592790596187115,-5.5089988708496085,23.61567687988281,-35.57441329956055,0.0050544068217277536,0.02764812111854553,0.07097244262695312,985.5498657226562,0,13.0,1,1
13.68,0.06277841,-0.15188582,9.75676,-0.0008400882361456753,0.0008806498954072596,-0.0006723685073666276,-5.4558448791503915,23.981616973876953,-35.75798416137695,-0.009331692010164259,0.008488565683364868,0.04730033874511719,985.5806884765624,0,13.0,1,1
13.72,0.0460656,-0.16141938,9.75913,-0.00044077352504245937,-5.1429728046059615e-05,-6.646907422691584e-06,-5.8823795318603525,24.00334930419922,-35.231624603271484,0.004971716552972794,0.01302717626094818,0.05202770233154297,985.570068359375,0,13.0,1,1
13.76,0.048471987,-0.15903647,9.744927,-0.00031228215084411204,0.0006238067871890963,-0.00027350103482604027,-5.464433193206787,23.60448837280273,-35.19570541381836,0.009157724678516388,0.013010770082473757,0.05203056335449219,985.5579223632812,0,13.0,1,1
13.8,0.0676077,-0.15665366,9.754398,-0.00031228215084411204,0.0006238067871890963,-0.00027350103482604027,-5.481037139892578,23.69420623779297,-35.044422149658196,-0.00507020577788353,0.01775951683521271,0.05202674865722656,985.5579223632812,0,13.0,1,1
13.84,0.062844425,-0.1495042,9.766235,0.0006196643225848675,0.0006238325731828809,-0.0002735690213739872,-5.367554664611816,23.69540023803711,-35.52389144897461,-0.010187365114688872,0.008105501532554626,0.03308868408203125,985.5707397460938,0,13.0,1,1
13.88,0.041351795,-0.14712133,9.766237,0.00022003144840709862,9.122666961047798e-05,-0.00027363724075257784,-5.500547885894775,23.886890411376953,-35.437618255615234,0.0036830045282840724,-0.0012952536344528198,0.03782558441162109,985.5785522460938,0,13.0,1,1
13.92,0.06048751,-0.13758864,9.756769,0.00035287122591398656,0.0004907521652057767,-0.0004069315036758781,-5.471768379211426,23.8089599609375,-36.207332611083984,0.00376906618475914,-0.0016543418169021606,0.052021026611328125,985.5709838867188,0,13.0,1,1
13.96,0.05811411,-0.14712219,9.759138,-0.0007125514093786478,-4.185379657428712e-05,-7.525901310145856e-06,-5.414620876312256,23.33535003662109,-35.6495361328125,-0.005272224545478821,0.0030935704708099365,0.052016258239746094,985.5741577148438,0,13.0,1,1
14.0,0.0509609,-0.13758947,9.766241,0.00021939512225799265,-0.0011070914333686233,-0.00027390988543629646,-5.664003372192383,23.62861633300781,-35.62826919555664,0.0043530911207199105,-0.0066979676485061646,0.04727649688720703,985.5892944335938,0,13.0,1,1
14.04,0.055757225,-0.1495062,9.770978,-0.000712869456037879,-0.00017496009240858257,-7.662223652005196e-06,-5.213391780853272,23.41861343383789,-35.993350982666016,-0.005465850234031677,-0.001980498433113098,0.03780651092529297,985.5562744140624,0,13.0,1,1
14.08,0.053383827,-0.15427323,9.754408,-0.0007130284793674946,0.00022453955898527056,-0.00027404632419347763,-5.363425254821777,22.96176528930664,-35.48159408569336,0.013604458421468736,0.007368415594100951,0.06621074676513672,985.5745849609376,0,13.0,1,1
14.12,0.06295991,-0.15665685,9.759144000000001,-4.739782889373601e-05,0.00035772332921624184,-0.00014095648657530546,-5.52255916595459,23.708335876464844,-35.5777473449707,-0.010231848806142807,0.016850367188453674,0.052002906799316406,985.5799560546876,0,13.0,1,1
14.16,0.048637032999999996,-0.15665726,9.766247,0.00021875891252420845,-0.00017488261801190674,0.0001252911170013249,-5.486987113952637,23.794227600097656,-35.43428421020508,0.008520212024450302,0.011800393462181093,0.05199909210205078,985.567138671875,0,13.0,1,1
14.2,0.05104345,-0.15189113,9.759148,-0.0003140318731311709,0.0006240908405743539,0.000524696777574718,-5.831045150756836,23.73568344116211,-35.76276016235352,0.008576065301895142,0.011756062507629395,0.03779411315917969,985.5516967773438,0,13.0,1,1
14.24,0.05344987,-0.15427475,9.754415,8.528298349119723e-05,-0.00017483100236859173,-0.00040747690945863724,-5.466796875,23.33917236328125,-35.641719818115234,0.01337812840938568,0.007470071315765381,0.052002906799316406,985.6027221679688,0,13.0,1,1
14.28,0.06063604400000001,-0.14712544,9.7662525,0.000750913517549634,-4.1647246689535684e-05,-0.00014122924767434597,-5.643268585205077,22.80526733398437,-35.73725509643555,-0.005531877279281615,-0.007184520363807678,0.06146335601806641,985.5801391601562,0,13.0,1,1
14.32,0.060268342,-0.16141604,9.759117,-0.0007139828521758317,-0.0009737270302139225,-8.139410056173801e-06,-5.057302474975586,22.669097900390625,-35.74259567260742,-0.00946170836687088,0.016483798623085022,0.05202198028564453,985.5980834960938,0,13.0,1,1
14.36,0.060269654000000006,-0.15188293,9.754382000000001,-0.0004459975461941213,-0.0003082082839682698,-0.0005400556838139892,-5.836153984069824,24.099552154541016,-35.629295349121094,-0.009838853031396866,0.0068108588457107535,0.04255390167236328,985.5781860351562,0,13.0,1,1
14.4,0.060270905,-0.14949967,9.763850999999999,-0.00017790202400647104,0.0004904504166916013,-0.0001398191088810563,-5.842103958129883,24.19957733154297,-36.0191535949707,-0.009949851781129835,0.0015743523836135864,0.04254817962646485,985.5579223632812,0,13.0,1,1
14.44,0.048322678,-0.14473318,9.775687,-0.0005773882148787379,0.0004904524539597332,-0.00013982458040118215,-5.6213645935058585,24.09016036987305,-35.96977996826172,0.013659168034791945,0.0063874274492263785,0.042550086975097656,985.5833129882812,0,13.0,1,1
14.48,0.05788353,-0.14949979,9.759117,-0.00044424241059459757,0.001023086137138307,-6.671762093901633e-06,-5.317743301391602,23.42626190185547,-35.97772216796875,-0.005423545837402344,0.0015137642621994019,0.04254817962646485,985.56298828125,0,13.0,1,1
14.52,0.055494875,-0.14234997,9.766217999999999,8.837712812237442e-05,0.0004904564120806754,-6.677000783383846e-06,-5.307226657867432,23.33065414428711,-35.81978225708008,-0.005862098187208176,0.001470416784286499,0.042550086975097656,985.5684204101562,0,13.0,1,1
14.56,0.060275972000000004,-0.1566496,9.75675,0.0002215227868873626,0.00022414246632251889,-0.0005393138853833079,-5.6624813079833975,23.630088806152344,-35.705570220947266,-0.00610356405377388,0.010814577341079712,0.04254722595214844,985.5813598632812,0,13.0,1,1
14.6,0.05310756,-0.15664966,9.761485,-0.0007105949334800242,0.0007567762513644992,0.00012647052062675357,-5.523537635803223,23.33857727050781,-35.4019889831543,0.008457008749246597,0.01083645224571228,0.04254722595214844,985.6014404296876,0,13.0,1,1
14.64,0.05549872,-0.16141628,9.759117,0.00048781427904032165,-0.0005748011753894389,0.00012646522372961044,-5.458345413208008,23.610382080078125,-35.50492477416992,-0.005884051322937012,0.015558421611785887,0.06621742248535156,985.596923828125,0,13.0,1,1
14.68,0.05549997,-0.14711662,9.75675,-0.00044430352863855665,0.0002241484326077625,0.000525933806784451,-5.866318225860597,24.28192901611328,-35.48134994506836,0.003666538745164871,-0.008582770824432373,0.06147956848144531,985.5565795898438,0,13.0,1,1
14.72,0.053111315,-0.14949991,9.763853,-0.0007106316043063997,-0.00017532338097225877,0.0005259285680949688,-5.6516666412353525,24.16661834716797,-35.12276077270508,0.0036361180245876312,-0.004015952348709106,0.05200672149658203,985.5872192382812,0,13.0,1,1
14.76,0.06745201,-0.16141637,9.763850999999999,-4.4854095904156566e-05,0.0003573104040697217,0.0001264495076611638,-5.222087860107422,24.1478271484375,-35.80373001098633,-0.015468176454305647,0.010469406843185423,0.04254150390625,985.5670166015624,0,13.0,1,1
14.8,0.048334062000000004,-0.14950003,9.76622,0.0002214496198575944,-0.0003084773779846728,-0.000539345433935523,-5.488914966583252,24.26696014404297,-36.15450668334961,0.003741007298231125,0.01955081522464752,0.033064842224121094,985.5702514648438,0,13.0,1,1
14.84,0.048335314000000004,-0.14473350000000001,9.75675,-0.00031119430786930025,-4.2159503209404654e-05,-0.00013987685088068247,-5.6448974609375,23.910137176513672,-36.0326042175293,0.008650019764900208,0.00044749677181243896,0.06147098541259765,985.594970703125,0,13.0,1,1
14.88,0.060286105,-0.15426655,9.749649,-0.0005775224417448044,-0.00030847341986373067,-0.0002730400301516056,-6.0116472244262695,23.93540954589844,-35.90058517456055,-0.010644681751728058,0.004766419529914856,0.056729316711425774,985.5924682617188,0,13.0,1,1
14.92,0.05789745,-0.15664996,9.761486,-0.00111016642767936,0.0004904762608930469,0.00012642861111089587,-5.661257266998291,22.999420166015625,-36.2077522277832,-0.006039366126060486,0.00919209420681,0.04252243041992188,985.5801391601562,0,13.0,1,1
14.96,0.05789876,-0.1447336,9.768587,-0.0008438627701252699,0.00022416234423872086,-6.7345681600272655e-06,-5.504432678222656,23.62009429931641,-35.80632400512695,0.00364077091217041,0.0041020214557647705,0.04251575469970703,985.5619506835938,0,13.0,1,1
15.0,0.06028989,-0.14950015,9.763853,-4.4927321141585714e-05,-0.00044162536505609745,-0.0005393715109676123,-5.21157169342041,24.05222320556641,-35.64578628540039,-0.0008221641182899475,0.003993108868598938,0.03777790069580078,985.5702514648438,0,13.0,1,1
15.04,0.06268108,-0.15188344,9.761486,0.0011534696677699685,-4.2147585190832615e-05,-6.750284228473902e-06,-5.64892053604126,23.53742980957031,-35.70223999023437,-0.005581088364124297,0.018556147813797,0.03304767608642578,985.57275390625,0,13.0,1,1
15.08,0.057902515,-0.14950027,9.754385000000001,0.0011534696677699685,-4.2147585190832615e-05,-6.750284228473902e-06,-5.64892053604126,23.53742980957031,-35.70223999023437,-0.0008689351379871367,0.009251132607460022,0.05672359466552735,985.57275390625,0,13.0,1,1
15.12,0.05551392,-0.15903337,9.761486,0.00035450982977636164,9.101226169150324e-05,-0.0006725452840328218,-5.428182125091553,23.42801284790039,-35.652870178222656,0.003883097320795059,0.0187777578830719,0.04252052307128906,985.6116333007812,0,13.0,1,1
15.16,0.057905078,-0.14235045,9.759119,0.0007539715152233839,0.00035733019467443233,-0.00027307658456265926,-5.785799026489258,23.462127685546875,-35.984676361083984,-0.0055752210319042214,-0.009670376777648926,0.047257423400878906,985.5811157226562,0,13.0,1,1
15.2,0.050736635999999995,-0.16141663,9.768589,-0.00017814637976698577,-0.0003084575291723013,-0.00027308182325214153,-5.430109024047852,23.90074157714844,-36.37309265136719,0.008865591138601303,0.014261245727539062,0.02358436584472656,985.5965576171876,0,13.0,1,1
15.24,0.050737917,-0.14950038,9.763855,0.000487631157739088,-0.00017529759497847408,0.00012638670159503818,-5.879335403442383,24.00629806518555,-35.386234283447266,0.004366539418697357,0.004931345582008362,0.05199241638183594,985.5862426757812,0,13.0,1,1
15.28,0.055692434000000006,-0.15427120000000002,9.761503,0.000487631157739088,-0.00017529759497847408,0.00012638670159503818,-5.852214813232423,23.820980072021484,-35.37957000732422,-0.005194425582885742,0.005007460713386536,0.056728363037109375,985.5862426757812,0,13.0,1,1
15.32,0.053487718,-0.14712591,9.749683000000001,0.0003699155058711767,-0.0002550140197854489,-0.0002673068083822727,-5.692644119262695,23.812461853027344,-35.5576286315918,0.004197631031274796,-0.009247735142707823,0.05196094512939453,985.5990600585938,0,13.0,1,1
15.36,0.06306249,-0.1518928,9.752051,0.0003665224649012089,-0.0002544632006902248,-0.0006682348903268576,-5.629272937774658,23.450664520263672,-36.00812911987305,-0.015104979276657103,0.009955987334251406,0.06616592407226562,985.5845947265624,0,13.0,1,1
15.4,0.05112824,-0.1566598,9.761522,0.0003665224649012089,-0.0002544632006902248,-0.0006682348903268576,-5.629272937774658,23.450664520263672,-36.00812911987305,-0.01041719689965248,0.0006686300039291383,0.042496681213378906,985.5845947265624,0,13.0,1,1
15.44,0.060703099999999996,-0.14951028,9.787562,0.000898860627785325,0.0002782162046059966,-0.0005352027947083117,-5.609762668609619,23.25798034667969,-35.61493682861328,-0.005744684487581253,0.0007006824016571045,0.023558616638183597,985.5845947265624,0,13.0,1,1
15.48,0.055938512,-0.13282777,9.756789999999999,-0.00016654975479468703,1.1924188584089281e-05,0.0001305239857174456,-5.617234230041504,23.356525421142575,-35.927494049072266,-0.0007032155990600586,-0.01348695158958435,0.05196380615234375,985.597412109375,0,13.0,1,1
15.52,0.05595374,-0.14712776,9.76626,-0.00016669661272317168,-0.00038752579712308943,0.0005299349431879818,-5.123037338256836,22.76557922363281,-35.73810958862305,0.008816346526145935,0.0052158385515213,0.03775310516357422,985.5927124023438,0,13.0,1,1
15.56,0.06313869,-0.14712812,9.761528,-0.00030000123661011463,0.00027828768361359835,-0.0002690755063667893,-5.558130264282227,23.622447967529297,-35.72120666503906,-0.010315801948308943,0.010213777422904968,0.03775501251220703,985.5875244140624,0,13.0,1,1
15.6,0.06554383,-0.15427835,9.76153,0.0007651153719052672,1.1995667591691015e-05,-0.0004022965440526605,-5.292144775390625,23.239463806152344,-35.89375305175781,-0.010392073541879654,0.015104532241821287,0.05195903778076172,985.5957641601562,0,13.0,1,1
15.64,0.055999457999999995,-0.15427871,9.754429,9.917881106957792e-05,-0.00012113840784877539,-0.00013604352716356516,-4.783408164978027,22.925621032714844,-35.87679672241211,0.003843192011117935,0.010078400373458862,0.04722118377685547,985.5906982421876,0,13.0,1,1
15.68,0.056014687,-0.14712925,9.759165,-0.0006999156321398914,0.0004115172196179629,-0.0002692644484341145,-5.670932292938232,23.358875274658203,-35.84237289428711,-0.0010390989482402804,-0.008994877338409424,0.05668830871582031,985.5829467773438,0,13.0,1,1
15.72,0.048860252,-0.14712961,9.766268,0.00023204315220937133,1.2067146599292755e-05,-0.00040248525328934187,-5.528646469116211,23.70244598388672,-35.268524169921875,0.008587177842855453,0.005244463682174683,0.03774738311767578,985.5882568359376,0,13.0,1,1
15.76,0.067994654,-0.15904643,9.766269,0.00023189635248854762,0.0004115648334845901,0.00026324158534407616,-5.6680259704589835,23.25590515136719,-35.29790115356445,-0.010590184479951859,0.01504494249820709,0.04248523712158203,985.6087036132812,0,13.0,1,1
15.8,0.06084022,-0.14713041,9.749701,0.0010306970216333866,-0.0006536748260259628,0.0007958103669807316,-5.54815673828125,23.895130157470703,-35.66171264648437,-0.010215133428573608,0.0010142922401428225,0.056689262390136726,985.5958862304688,0,13.0,1,1
15.84,0.056075633,-0.15904711,9.754436,-3.471318632364273e-05,-0.0002541771391406656,-0.00013635808136314154,-5.286194801330566,23.139442443847656,-35.5038948059082,0.003939386457204819,0.005584999918937683,0.0566864013671875,985.5861206054688,0,13.0,1,1
15.88,0.060870707,-0.15189768,9.744968,-3.486004425212741e-05,-0.00012099533341825007,-0.0009353687055408957,-5.346820831298828,22.872051239013672,-35.63287734985352,-0.01476634293794632,-0.003640785813331604,0.061420440673828125,985.606689453125,0,13.0,1,1
15.92,0.05610609,-0.15666462,9.761538999999999,0.0008970986818894744,-0.0005204454064369202,0.00012983189662918448,-5.2935285568237305,23.34391021728516,-36.515525817871094,-0.00522034615278244,0.0012727081775665285,0.042484283447265625,985.609130859375,0,13.0,1,1
15.96,0.058511198,-0.15666498,9.759174,0.00036432006163522596,-0.00012094771955162288,-0.0006691786693409085,-5.917705535888673,22.917030334472656,-35.70150375366211,-0.005022883415222168,0.015505731105804443,0.05194854736328125,985.59130859375,0,13.0,1,1
16.0,0.05374664,-0.15428205,9.771011,9.785749716684222e-05,-0.000520397734362632,-0.0001366098877042532,-4.974121570587158,22.74674987792969,-35.37503433227539,-0.00020752474665641785,0.010621324181556702,0.03774261474609375,985.5865478515624,0,13.0,1,1
16.04,0.058541656,-0.14713265,9.761545,-0.0007012370624579488,0.00014541577547788617,0.00026280106976628304,-5.444104671478272,23.25534820556641,-36.10221862792969,-0.004901506006717682,0.005803436040878296,0.04720878601074219,985.594482421875,0,13.0,1,1
16.08,0.058556914,-0.14236642,9.759178,9.756378130987288e-05,-0.00025403418112546206,0.00026273808907717466,-5.7190842628479,23.73540496826172,-36.16492080688477,-3.475695848464966e-05,-0.013391464948654177,0.056674003601074226,985.6016235351562,0,13.0,1,1
16.12,0.053792357,-0.15666647,9.761547,-0.0007015306618995965,-0.0007866420783102512,0.00039583316538482894,-5.4666595458984375,23.445091247558594,-36.34080123901367,-0.00464906170964241,0.0006068944931030272,0.04719734191894531,985.5867919921876,0,13.0,1,1
16.16,0.04902777,-0.16143341,9.761549,0.00023042806424200532,-0.00012082856846973301,0.0003957701846957207,-5.78938627243042,23.82746887207031,-35.92851638793945,0.0004545412957668304,0.014842748641967772,0.05192756652832031,985.584716796875,0,13.0,1,1
16.2,0.049043,-0.14951743,9.766285,-0.0003023504978045821,-0.0006534365238621831,-0.0006695560878142715,-6.122926712036133,23.67331695556641,-36.09905624389648,0.014638625085353853,0.01938842236995697,0.0377197265625,985.5947875976562,0,13.0,1,1
16.24,0.061007768,-0.13760139,9.763917999999999,-0.0003024972975254059,1.23770150821656e-05,-0.00013698742259293797,-5.3639678955078125,23.33005523681641,-35.580047607421875,0.0005960017442703247,-0.009109899401664734,0.0566568374633789,985.6072998046876,0,13.0,1,1
16.28,0.06417385,-0.16145326,9.763989,-0.0005689599202014506,-0.0006533888517878951,0.0002624235348775983,-5.7087059020996085,23.53388595581055,-35.307899475097656,-0.000207364559173584,0.005253583192825317,0.04238414764404297,985.585205078125,0,13.0,1,1
16.32,0.06421953400000001,-0.15430449,9.752157,0.0008929074974730611,0.00014602468581870198,0.0007938253693282603,-5.9028682708740225,23.826271057128906,-35.44905471801758,-0.014197956770658491,0.014760032296180725,0.05658054351806641,985.6082763671876,0,13.0,1,1
16.36,0.052315712,-0.1471558,9.7711,0.00035908719291910535,-0.00038946789572946727,0.0007894196314737201,-5.67992639541626,23.45595550537109,-36.07761764526367,0.009678289294242859,0.0004913657903671265,0.03763866424560547,985.56005859375,0,13.0,1,1
16.4,0.061921000000000004,-0.1495402,9.771103,-0.00017398479394614694,-0.00025623844703659415,-0.0002760326606221497,-5.860230445861816,24.28781890869141,-35.79056930541992,0.004782170057296753,0.0006285011768341063,0.032901763916015625,985.577880859375,0,13.0,1,1
16.44,0.06674647,-0.17337407,9.771109,0.00049136474262923,-0.0001230090856552124,0.0003895684494636953,-5.7031612396240225,23.90806579589844,-35.71557235717773,-0.00964520126581192,0.03402024507522583,0.051835060119628906,985.6033935546876,0,13.0,1,1
16.48,0.050062775999999996,-0.14954244,9.756908000000001,0.0006240825750865043,0.0002765361859928817,0.0003893798566423357,-5.5345964431762695,23.80246734619141,-35.658382415771484,-0.00015978142619132996,-0.008452996611595156,0.05657291412353516,985.6058959960938,0,13.0,1,1
16.52,0.059668124,-0.15192677,9.766382,0.0010231162887066603,-0.0003891820670105517,-0.00014344049850478768,-5.432609558105469,23.52950668334961,-36.12002944946289,-0.004801061004400253,0.010467514395713806,0.032894134521484375,985.58056640625,0,13.0,1,1
16.56,0.05971375,-0.15192796,9.766386,-0.00030890339985489845,0.00014352120342664418,-0.000409945088904351,-5.669111728668213,23.99248504638672,-35.49480438232422,-0.004941001534461975,0.010731548070907593,0.05183124542236328,985.6161499023438,0,13.0,1,1
16.6,0.062149345999999994,-0.14954574,9.771125999999999,0.0010222358396276832,0.00014359259512275457,-1.0659918189048767e-05,-5.177277565002441,23.136215209960934,-35.75143814086914,-0.009633202105760573,-0.003420546650886536,0.03762626647949219,985.5908203125,0,13.0,1,1
16.64,0.05263537,-0.14954694,9.761661,8.969003101810813e-05,-0.0003889676590915769,-0.00014400650979951024,-5.5898165702819815,23.8033447265625,-35.49595642089844,0.004803411662578583,0.001555800437927246,0.05182647705078125,985.5787353515624,0,13.0,1,1
16.68,0.05268103,-0.15908112,9.754562,8.969003101810813e-05,-0.0003889676590915769,-0.00014400650979951024,-5.414620876312256,23.33535003662109,-35.6495361328125,0.009651564061641691,0.015665888786315918,0.04708576202392578,985.5787353515624,0,13.0,1,1
16.72,0.05750653,-0.15669896,9.764036,0.0004887238028459251,-0.0002557382977101952,-0.00014419498620554805,-5.569082260131836,22.979995727539066,-35.604942321777344,-0.004881329834461211,0.015409961342811584,0.04707813262939453,985.58154296875,0,13.0,1,1
16.76,0.05755219,-0.15908335,9.759305,-0.00031066406518220896,-0.00025566681870259345,0.0003882480668835342,-5.6307945251464835,23.449188232421875,-35.930824279785156,-0.004952777177095413,0.005903169512748718,0.047074317932128906,985.5859985351562,0,13.0,1,1
16.8,0.057597876,-0.16385104,9.766411,5.920996773056686e-05,0.0006780673284083606,-8.164264727383854e-06,-5.9399614334106445,23.73890686035156,-35.51521301269531,0.009348828345537186,0.010602176189422607,0.032866477966308594,985.58154296875,0,13.0,1,1
16.84,0.06003344,-0.15908559,9.766415,0.00019192774198018012,-0.0001208089233841747,0.0003911209641955793,-5.616393566131592,23.6203727722168,-35.40416717529297,-0.005260594189167023,0.015432968735694884,0.05180072784423828,985.5891723632812,0,13.0,1,1
16.88,0.062468975999999996,-0.15193689999999999,9.752216,0.00032464557443745434,-0.00012073745892848821,0.0001246164902113378,-5.169369697570801,23.775718688964844,-35.713096618652344,-0.00026516616344451904,-0.0036863088607788095,0.05179500579833984,985.5919799804688,0,13.0,1,1
16.92,0.06490457,-0.15193800000000002,9.756953999999999,0.0004573633486870676,1.2491917004808785e-05,-8.730159606784582e-06,-6.066568374633789,24.56842422485352,-35.313289642333984,-0.005317386239767075,0.005856826901435852,0.05652713775634765,985.5824584960938,0,13.0,1,1
16.96,0.067340165,-0.14717256,9.766428,5.74493024032563e-05,0.0009446690091863276,0.0005237129516899586,-6.034339427947997,24.01923370361328,-35.44009017944336,-0.01543473079800606,0.010649889707565308,0.04705810546875,985.5899658203124,0,13.0,1,1
17.0,0.05782619,-0.14955701,9.749862,-0.000475622684461996,0.000944740604609251,-0.0002754233428277076,-5.403125762939453,23.60950469970703,-35.66735076904297,-0.0012805312871932983,0.0012643933296203613,0.06125831604003906,985.5670776367188,0,13.0,1,1
17.04,0.072211295,-0.14717479,9.754601,0.0004560427332762629,0.0005453380290418863,-0.000275612052064389,-5.6865577697753915,23.81835174560547,-35.86684799194336,-0.015885353088378906,0.006067678332328796,0.056522369384765625,985.6051025390624,0,13.0,1,1
17.08,0.057917535,-0.14955921,9.764074,0.0004556025087367743,0.00041225159657187765,-0.0001426427043043077,-6.050400257110597,23.740657806396484,-35.19035720825195,0.0034310445189476013,-0.00818014144897461,0.05178260803222656,985.6000366210938,0,13.0,1,1
17.12,0.06991273,-0.15909345,9.740405,5.5688578868284815e-05,-0.0005197825375944376,0.00025664252461865544,-5.703160762786865,23.90806579589844,-35.71556854248047,-0.020600747317075733,0.015582218766212462,0.06124687194824219,985.5702514648438,0,13.0,1,1
17.16,0.062788665,-0.15194477,9.768816000000001,0.0005878802621737123,0.0006787104066461325,0.0002564539317972958,-5.892895221710205,24.098960876464844,-35.38956832885742,-0.0017211399972438812,0.010877400636672974,0.03757190704345703,985.5780639648438,0,13.0,1,1
17.2,0.06283435,-0.15194584,9.75225,-7.834963616915047e-05,0.00027930797659792006,0.00038942316314205533,-5.953384399414063,23.937484741210934,-36.21762466430664,-0.006554167717695236,0.0059489160776138314,0.05176925659179688,985.60791015625,0,13.0,1,1
17.24,0.062489092,-0.15193744,9.759319,-0.00034510568366386,0.00027937951381318266,0.0002560766297392547,-6.000450134277344,23.577430725097656,-36.3432731628418,-0.006463803350925446,0.0013899803161621096,0.051766395568847656,985.5904541015624,0,13.0,1,1
17.28,0.057340264,-0.1447785,9.754551,0.00032024373649619514,-0.0005194966215640306,0.00038904586108401423,-5.072927474975586,23.12857818603516,-35.76707077026367,-0.015000872313976288,-0.0031855851411819462,0.061306953430175774,985.5658569335938,0,13.0,1,1
17.32,0.06691384,-0.15192865,9.768755,0.0008602547459304332,-0.00012300640810281038,-0.0001429630210623145,-5.229453086853027,23.14003753662109,-35.74362564086914,-0.005689762532711029,0.006347596645355225,0.03290081024169922,985.572998046875,0,13.0,1,1
17.36,0.05736822,-0.14954574,9.77586,0.0001962000096682459,0.0008088175090961157,0.00012409640476107595,-5.916428565979004,23.918930053710934,-35.45238876342773,0.0036568269133567814,0.0068415552377700814,0.04237556457519531,985.583740234375,0,13.0,1,1
17.4,0.06455183,-0.15669592,9.77586,0.000995013164356351,-0.00012326627620495856,-0.0002754350425675512,-5.701777458190918,23.80362319946289,-35.093799591064446,-0.0011541284620761874,0.0164186954498291,0.03764152526855469,985.5765380859376,0,13.0,1,1
17.44,0.06456584,-0.16384612,9.761659,0.0001959310320671648,0.0010751772206276655,-0.0002754927845671773,-5.22695255279541,23.51127624511719,-35.99668502807617,-0.006311245262622832,0.016321510076522827,0.05657768249511719,985.5556030273438,0,13.0,1,1
17.48,0.05979997,-0.14478023,9.761660000000001,0.0004621124535333365,0.0004094092291779816,-9.23441257327795e-06,-4.9443626403808585,23.03858184814453,-36.32051086425781,-0.011311147361993791,0.002134382724761963,0.061314582824707024,985.57861328125,0,13.0,1,1
17.52,0.06937355,-0.15431364,9.761662,0.00032881993683986366,0.0005425889976322651,0.00025702372658997774,-5.463890552520752,23.23619842529297,-35.09724807739258,-0.006697755306959152,0.011875122785568236,0.03764438629150391,985.579345703125,0,13.0,1,1
17.56,0.059827834,-0.15669729,9.749825999999999,0.000595001270994544,0.00014313688734546304,0.0003901240415871143,-5.599789619445801,23.53066253662109,-35.55544662475586,-0.011189579963684082,0.016858667135238647,0.051848411560058594,985.5819091796876,0,13.0,1,1
17.6,0.06223172,-0.14716454,9.766397,0.0001953930186573416,1.000087650027126e-05,-0.0005420391680672765,-5.522420883178711,23.814250946044922,-36.27682495117188,-0.006787098944187164,0.016650393605232242,0.06131553649902344,985.5797119140624,0,13.0,1,1
17.64,0.04551637,-0.15908124,9.771134,-0.0004705312021542341,0.0004094965406693518,0.0003900087322108448,-5.147656440734863,23.32213592529297,-35.99783706665039,0.01240723580121994,0.002084195613861084,0.037636756896972656,985.5718994140624,0,13.0,1,1
17.68,0.05508989,-0.15193178,9.761666,-7.11918983142823e-05,0.00014320242917165157,-0.00040899647865444416,-5.765851974487305,24.00749206542969,-35.86569595336914,-0.011708617210388184,-0.0026744157075881962,0.04237079620361328,985.6000366210938,0,13.0,1,1
17.72,0.05271396,-0.15193208,9.754566,-7.132647442631423e-05,0.0009421720751561224,-0.0005422121612355113,-5.426659107208252,23.429481506347656,-35.73017501831055,-0.0023468434810638428,0.0068147480487823495,0.05657386779785156,985.567138671875,0,13.0,1,1
17.76,0.06467742,-0.14954920000000002,9.759302,6.169694825075567e-05,0.000276404112810269,-9.63814090937376e-06,-5.588294506072998,23.80481719970703,-35.57326126098633,-0.002432778477668762,0.011338114738464355,0.02816295623779297,985.6102905273438,0,13.0,1,1
17.8,0.055131793,-0.1495495,9.761669,-0.0003379113331902772,1.0110044968314467e-05,-9.695591870695353e-06,-5.47190523147583,23.70304107666016,-35.50825881958008,0.0021611861884593964,-0.0025544911623001103,0.061309814453125,985.6026000976562,0,13.0,1,1
17.84,0.050365925,-0.15431641,9.761671,0.0009935335256159306,0.0005427636788226664,0.0001234046067111194,-5.550114631652832,23.155601501464844,-35.31019973754883,0.0018801949918270109,-0.002348378300666809,0.05184364318847656,985.57568359375,0,13.0,1,1
17.88,0.059939504000000005,-0.15193348,9.759306,0.0004607672744896263,0.0008091014460660517,0.00012334698112681508,-5.421113967895508,23.80366516113281,-36.13784408569336,-0.003295246511697769,0.0024244338274002075,0.04237556457519531,985.5731201171876,0,13.0,1,1
17.92,0.057563542999999995,-0.14716728,9.745103,0.0001943168172147125,0.00040964939398691064,-0.000542500289157033,-5.235648155212402,24.240493774414066,-35.807064056396484,-0.0029594339430332184,-0.002561226487159729,0.06604194641113281,985.5377807617188,0,13.0,1,1
17.96,0.062357305999999994,-0.15193413,9.773511,-0.00020529152243398133,-0.0005224343622103333,-0.00014308420941233635,-5.16067361831665,23.04650115966797,-35.9027214050293,-0.012122083455324171,0.011758312582969666,0.028163909912109375,985.5828857421876,0,13.0,1,1
18.0,0.048031867,-0.15431778,9.754574,-0.0003385839227121324,-0.0009218863560818137,0.00012317404616624117,-5.699573993682861,23.54272079467773,-35.77172470092773,0.011888664215803145,0.01633208990097046,0.04709529876708984,985.575927734375,0,13.0,1,1
18.04,0.05282563,-0.15193485,9.759310000000001,6.075538112781942e-05,-0.00025607476709410554,0.0007889060070738196,-5.3062477111816415,23.70041656494141,-35.99553298950195,0.0021400600671768193,0.01186339557170868,0.0518341064453125,985.5881958007812,0,13.0,1,1
18.08,0.055229515,-0.15193520000000002,9.756945,0.0008595684776082635,0.0008092105272226036,0.0001230587367899716,-5.883220672607423,23.739501953125,-35.75494384765625,0.0019025504589080808,0.002550020813941956,0.04236793518066406,985.5603637695312,0,13.0,1,1
18.12,0.06002325,-0.15431882,9.756947,0.0008595684776082635,0.0008092105272226036,0.0001230587367899716,-5.186272144317627,23.23329925537109,-35.986690521240234,-0.002824723720550537,-0.006978318095207214,0.04710197448730469,985.5603637695312,0,13.0,1,1
18.16,0.05525741,-0.1471693,9.764049,0.0005931180203333497,-0.0003891890519298613,-0.00027647276874631643,-5.629953384399414,23.71303558349609,-35.407501220703125,0.0020610503852367397,0.012157857418060304,0.03289794921875,985.5782470703124,0,13.0,1,1
18.2,0.06722087,-0.1614693,9.766417,-0.0002059640537481755,0.00027662253705784684,-0.0009423202136531472,-5.6433753967285165,23.911609649658203,-36.10991287231445,-0.011985961347818376,0.01665179431438446,0.051827430725097656,985.563720703125,0,13.0,1,1
18.24,0.05785024,-0.14717428,9.771169,-0.0006057068239897491,-0.0002559656277298928,-0.00027664576191455126,-5.701639175415039,23.90953826904297,-35.79287338256836,0.0022584907710552216,0.007124751806259154,0.04709339141845703,985.5713500976562,0,13.0,1,1
18.28,0.060439587,-0.1590956,9.756985,-7.362509495578706e-05,0.0001435974845662713,0.0003889082581736147,-5.515928268432617,23.34593963623047,-35.788516998291016,-0.0027840696275234227,0.002409026026725769,0.05179309844970703,985.5614624023438,0,13.0,1,1
18.32,0.05090791,-0.16862942,9.764088000000001,0.00011859796359203755,-0.0003182211657986045,9.988609235733747e-05,-5.799358367919923,23.55477905273437,-35.98801040649414,-0.00281573086977005,0.0256589949131012,0.04704856872558594,985.5637817382812,0,13.0,1,1
18.36,0.060495436,-0.14718057,9.759356,-0.0006806188030168414,0.00048077013343572617,-0.0002997030387632549,-5.276626586914063,23.886329650878906,-36.2419319152832,-0.0029504410922527318,0.011364206671714784,0.047046661376953125,985.5614624023438,0,13.0,1,1
18.4,0.06052333,-0.14956449,9.768827,-1.5098397852852939e-05,-0.00018497585551813245,0.00023281335597857836,-5.452800750732422,23.98456573486328,-35.91259384155273,-0.007958177477121353,0.015990644693374634,0.04230880737304688,985.559326171875,0,13.0,1,1
18.44,0.060551285999999996,-0.16386487,9.766461999999999,-0.0004148414300289005,8.138373959809542e-05,0.0003658559289760888,-5.790907382965088,23.82599639892578,-35.85121536254883,0.0021808333694934845,0.015693530440330502,0.051766395568847656,985.5821533203124,0,13.0,1,1
18.48,0.055799365,-0.15194918,9.766465,-0.00028195264167152345,-0.0011169940698891876,0.00023258267901837823,-5.620278358459473,23.35357666015625,-35.77287673950195,0.0021512359380722046,0.001429051160812378,0.03756141662597656,985.5721435546876,0,13.0,1,1
18.52,0.05582735,-0.14241679,9.761733999999999,0.0003835680836346,0.00034778693225234747,-0.00030016439268365497,-5.336710453033447,23.250652313232425,-36.2724609375,0.0022536441683769226,0.006243064999580382,0.037558555603027344,985.5529174804688,0,13.0,1,1
18.56,0.055855274,-0.15671702,9.771204,-0.00014933277270756662,-0.00018480110156815502,-3.3963879104703665e-05,-5.058388233184815,23.405681610107425,-35.93949890136719,-0.0030519068241119385,0.015544131398200987,0.04228973388671875,985.5477905273438,0,13.0,1,1
18.6,0.06305289,-0.15671773,9.75227,-0.0002827599237207324,0.0003478743601590395,0.0010311843361705544,-5.508019924163818,23.985435485839844,-35.75016784667969,-0.00289573147892952,0.015578776597976685,0.05648899078369141,985.5751342773438,0,13.0,1,1
