Timestamp,Ax,Ay,Az,Gx,Gy,Gz,Mx,My,Mz,LiAx,LiAy,LiAz,P,Value,Type,GroupType
0.0,0.06655285,-0.14521354,9.7785425,0.000367,-0.000433,0.001064677,-8.6717415,23.46404,-36.486397,1.0009166999999999,-0.84565604,-0.063960075,0.0,0,0.0,0
0.04,0.054503202,-0.14282784,9.7738,0.000368,0.000366,-0.000133,-8.273007000000002,23.89,-36.418793,1.0087368,-0.8299414,-0.0730772,989.865,0,0.0,0
0.08,0.056792915,-0.16427487,9.778525,-0.000429,0.001164652,-0.000133,-8.419453,23.067804000000002,-35.963196,1.0098803,-0.81806564,-0.06767845,989.95874,0,0.0,0
0.12,0.061472595,-0.15473932,9.78325,-0.000401,0.001274537,3.47e-05,-8.063902,23.400507,-35.65253,1.008061,-0.8120651,-0.07207012,989.95825,0,0.0,0
0.16,0.056592643,-0.14997032,9.778506,0.000532,-5.720000000000001e-05,0.000834,-8.0657215,22.766897,-36.0001,1.0059984,-0.8245764000000001,-0.07164574,989.9684,0,0.0,0
0.2,0.06605211,-0.15711770000000003,9.783233000000001,0.000532,-5.720000000000001e-05,0.000834,-8.0657215,22.766897,-36.0001,0.99534553,-0.80943966,-0.06669903,989.9684,0,0.0,0
0.24,0.061172158,-0.15473196,9.778488000000001,5.64e-07,0.000742,-9.76e-05,-8.460271,23.239866,-35.274117,0.99824005,-0.8172748000000001,-0.061569214000000004,989.9632,0,0.0,0
0.28,0.06107202,-0.16187933,9.761909,0.000401,-0.00019099999999999998,0.00043499999999999995,-8.732505999999999,23.090736,-35.916298,1.0005214,-0.8052236999999999,-0.051548004,989.97833,0,0.0,0
0.32,0.05858195,-0.14757720000000002,9.783204,2.49e-06,-0.00045700000000000005,-9.68e-05,-8.274124,23.41432,-35.54396,0.985157,-0.81869996,-0.08922100000000001,989.95795,0,0.0,0
0.36,0.0728212,-0.14042488,9.7879305,0.00013700000000000002,-0.00019099999999999998,0.0007030000000000001,-8.200778999999999,23.325205,-35.934967,0.9726078000000001,-0.8207937,-0.08860302,989.99585,0,0.0,0
0.4,0.05360186,-0.14995554,9.778450999999999,0.0008029999999999999,-0.000324,0.00057,-7.820607000000001,23.101349,-35.364582,0.9953332,-0.8150326999999999,-0.06943035,989.9351,0,0.0,0
0.44,0.04872191,-0.16186953,9.771339999999999,-0.000394,0.0010071239999999999,-0.000229,-8.265674,23.685534,-35.407166,0.99762285,-0.7943325,-0.059511185,989.9451,0,0.0,0
0.48,0.058181375,-0.15233395,9.768964,6.36e-06,0.000741,0.000837,-8.393013999999999,23.14486,-35.355903999999995,0.9767633,-0.7974274,-0.07807636,989.96277,0,0.0,0
0.52,0.061296284000000006,-0.15473506,9.7785,0.00014,-0.000857,0.001236842,-8.420134,23.33018,-35.36257,0.9864284999999999,-0.79444826,-0.06811619,989.94006,0,0.0,0
0.56,0.06685045,-0.14760414,9.790407,0.000541,-0.000325,-9.429999999999999e-05,-8.421517999999999,23.434624,-35.984344,0.96032155,-0.79736245,-0.081894875,989.94745,0,0.0,0
0.6,0.05486664,-0.15236986,9.778567,0.000923,0.001012283,0.000439,-7.6923413,22.379223,-36.342888,0.98316824,-0.7964928000000001,-0.062755585,989.91455,0,0.0,0
0.64,0.07156169400000001,-0.14045262,9.7904,-0.000808,-0.000453,-0.000359,-8.100313,23.050767999999998,-36.319313,0.950516,-0.81272155,-0.09045124,989.91705,0,0.0,0
0.68,0.07152745,-0.15713474,9.776194,-0.00014199999999999998,0.001012175,0.000173,-8.510786999999999,23.35108,-36.042685999999996,0.96794295,-0.79173046,-0.05693531,989.90674,0,0.0,0
0.72,0.076272964,-0.15475065,9.776191,0.00079,-5.31e-05,-0.0006259999999999999,-8.204259,22.584204,-35.50615,0.952327,-0.80042005,-0.075653076,989.9672,0,0.0,0
0.76,0.07145887599999999,-0.15951636,9.771453,-0.00014099999999999998,-0.000453,0.00044,-8.300021000000001,22.968977,-36.052803000000004,0.9550894,-0.79379153,-0.046845436,989.947,0,0.0,0
0.8,0.06664485,-0.15951547,9.780919,-0.00027400000000000005,-0.00018600000000000002,4.0600000000000004e-05,-8.256977000000001,22.956316,-35.596786,0.96257824,-0.7826232,-0.06539917,989.9597,0,0.0,0
0.84,0.06422067,-0.14759824,9.769079,-0.000407,-0.000453,0.000307,-8.205345,23.320787,-35.703056,0.95552397,-0.80442643,-0.055485725,989.9445,0,0.0,0
0.88,0.07135612,-0.1499807,9.776177,0.000259,7.979999999999999e-05,-0.000492,-8.04303,22.683079,-36.460594,0.9435655999999999,-0.7735541,-0.06921100599999999,989.90906,0,0.0,0
0.92,0.07371175,-0.16189626,9.788012,0.000925,0.000479,-0.00035800000000000003,-8.059335,23.404926,-35.884445,0.9546816999999999,-0.7800031999999999,-0.06856632,989.96185,0,0.0,0
0.96,0.06411788,-0.13806263,9.778539,0.00026000000000000003,0.000213,-9.2e-05,-8.259884,23.059288000000002,-36.141259999999996,0.95350647,-0.8027466,-0.058865547000000004,989.9444,0,0.0,0
1.0,0.064083636,-0.14282832,9.776167999999998,0.000127,-0.000719,-0.000225,-8.27108,23.417265,-35.698570000000004,0.96550703,-0.7914882,-0.05844879,989.93146,0,0.0,0
1.04,0.06404936,-0.15236059,9.7809,-0.000672,-0.00018700000000000002,4.14e-05,-8.038165,23.319632000000002,-36.26764,0.9395239,-0.77063566,-0.05805397,989.94916,0,0.0,0
1.08,0.059235275,-0.15235975,9.776162,-0.000405,-0.00032,-0.00035800000000000003,-7.819383599999999,22.470685999999997,-35.86676,0.93269145,-0.78283244,-0.08603954,989.9312,0,0.0,0
1.12,0.054421246,-0.14759239999999998,9.776159,0.000661,-0.0012521,4.1700000000000004e-05,-8.061591,22.033262,-35.957809999999995,0.94483733,-0.7808176,-0.07141018,989.9338,0,0.0,0
1.16,0.07350618,-0.14759156,9.776156,-0.000138,-0.000453,-9.13e-05,-8.360891,23.702013,-35.855362,0.9329028,-0.78356326,-0.04255867,989.91583,0,0.0,0
1.2,0.0639123,-0.15235728,9.773786,-0.000271,0.000213,0.00044100000000000004,-7.949034700000001,23.297258,-35.510222999999996,0.9444101999999999,-0.7721011,-0.042075157,989.91077,0,0.0,0
1.24,0.06626791,-0.15235648,9.778516999999999,-0.000537,0.000745,4.210000000000001e-05,-8.429671,23.79555,-35.696265999999994,0.9319563,-0.77517986,-0.065283775,989.9209599999999,0,0.0,0
1.28,0.066233635,-0.14043915,9.764311,-0.00067,0.001144529,-9.09e-05,-8.228442,23.878817,-36.040085,0.9152405,-0.7732278,-0.06011486,989.9436599999999,0,0.0,0
1.32,0.06619942,-0.13805506,9.771409,0.00013000000000000002,-5.39e-05,-9.08e-05,-8.268036,23.420214,-35.853184000000006,0.91776127,-0.78063774,-0.0691452,989.9462,0,0.0,0
1.36,0.07333481,-0.14997062,9.783242,-0.000269,-0.000986,-0.0010227230000000001,-8.626633,23.084564,-36.009240000000005,0.9249556999999999,-0.77383244,-0.045032499999999996,989.91077,0,0.0,0
1.4,0.080470264,-0.14520323,9.783239,-0.000802,0.000212,-0.00049,-8.245781,22.598337,-36.039474,0.9081049000000001,-0.7716213000000001,-0.058766365,989.92834,0,0.0,0
1.44,0.066096604,-0.14996895,9.787971,0.00053,-5.41e-05,0.000176,-8.034578,22.95429,-36.3238,0.9104663000000001,-0.755304,-0.072527885,989.9257,0,0.0,0
1.48,0.06367242,-0.13566837,9.766662,-0.000135,-5.42e-05,4.3e-05,-8.38831,23.255198,-36.286896,0.9073121999999999,-0.7718923000000001,-0.05776596,989.93835,0,0.0,0
1.52,0.06797099,-0.15233955,9.778454,7.23e-08,-0.000188,0.000177,-8.277031,23.517294,-36.088429999999995,0.91802573,-0.75440514,-0.05227089,989.9231599999999,0,0.0,0
1.56,0.06552911,-0.13088879,9.787919,7.23e-08,-0.000188,0.000177,-8.277031,23.517294,-36.088429999999995,0.92126995,-0.78663146,-0.05674076,989.9231599999999,0,0.0,0
1.6,0.07264680000000001,-0.16663668,9.773710000000001,-0.000131,0.001011929,0.000449,-8.203142,23.059885,-36.380990000000004,0.909451,-0.7369486999999999,-0.046847343,989.9306,0,0.0,0
1.64,0.058255434,-0.14280263,9.766603,-0.00053,-0.000453,-0.00048300000000000003,-8.358391000000001,24.073248,-36.108425,0.91161394,-0.74897224,-0.04636383,989.9356,0,0.0,0
1.68,0.06537312,-0.15471771,9.785537,0.000657,1.4599999999999999e-05,-0.0005549999999999999,-8.615136999999999,23.35872,-36.027046,0.8900280999999999,-0.74657285,-0.07429314,989.9327,0,0.0,0
1.72,0.06532112,-0.14756665,9.795001,0.000524,-0.00011899999999999999,-0.00028900000000000003,-8.371706,23.165482,-36.438175,0.9007318000000001,-0.7530357,-0.06889819999999999,989.9078,0,0.0,0
1.76,0.06526911,-0.15709844,9.780793,-0.00014099999999999998,-0.00038500000000000003,0.00011100000000000001,-8.096184,22.317133,-36.277023,0.9087870000000001,-0.7471428000000001,-0.04496765,989.9429,0,0.0,0
1.8,0.0628272,-0.14756408,9.776053,-0.0008060000000000001,0.000148,-2.2100000000000002e-05,-8.797262,23.556982,-36.08757,0.8856099000000001,-0.74807346,-0.05840397,989.9177,0,0.0,0
1.84,0.06516513,-0.14517951,9.766580000000001,0.000259,-0.00038500000000000003,-0.000288,-8.546358,23.265186,-36.186142,0.87931114,-0.7516203,-0.053402899999999996,989.95526,0,0.0,0
1.88,0.06272322,-0.16186121,9.776044,0.000926,0.0009460000000000001,-2.17e-05,-8.4948635,23.523739000000003,-35.59333,0.8766575999999999,-0.71623796,-0.06715202,989.9277,0,0.0,0
1.92,0.06984091,-0.15232679,9.787875,-5.9e-06,-0.000252,-0.000288,-8.388991,23.517569,-35.68627,0.8793203000000002,-0.7378647,-0.08093643,989.91,0,0.0,0
1.96,0.067399025,-0.15947542,9.773667,-0.000538,-0.0014506789999999999,-2.13e-05,-8.779817,23.731112,-35.715527,0.8815809000000001,-0.726233,-0.03314495,989.9124,0,0.0,0
2.0,0.05778742,-0.1475577,9.780764,-0.000271,-0.00011899999999999999,-2.11e-05,-8.336272,23.145456,-35.595634000000004,0.89324224,-0.72885805,-0.056350708,989.9399,0,0.0,0
2.04,0.06251523,-0.16185614,9.771291,-0.000404,-0.00011899999999999999,0.00011200000000000001,-8.359669,23.071348,-36.357535999999996,0.8711552,-0.7124893,-0.055865288,989.9273,0,0.0,0
2.08,0.07680261,-0.14993843,9.780755000000001,-0.00040300000000000004,0.0006799999999999999,-0.000154,-8.223334,23.514946,-36.17355,0.8636530000000001,-0.7292073,-0.06011486,989.91986,0,0.0,0
2.12,0.07436073,-0.1451706,9.783116,0.000263,1.3699999999999998e-05,-0.000154,-8.491138000000001,23.264310000000002,-36.34857,0.8694103000000001,-0.7307885000000001,-0.059446335,989.9248,0,0.0,0
2.16,0.062359214,-0.14993587,9.7760105,-0.000136,-0.000386,0.000246,-8.488775,23.529629999999997,-35.90255,0.8823087,-0.72001386,-0.040254593,989.9323,0,0.0,0
2.2,0.057527423,-0.15946767,9.766538,-0.000535,1.36e-05,-0.000553,-8.507881,23.248106,-35.498215,0.88887537,-0.7130880999999999,-0.020827293,989.9321,0,0.0,0
2.24,0.062255234000000007,-0.15469989,9.776000999999999,-0.000535,0.000413,-0.000153,-8.574457,23.080744,-36.01705,0.86233675,-0.70633084,-0.058260917999999995,989.9225,0,0.0,0
2.28,0.055033535,-0.14278224,9.773629,-0.000534,1.34e-05,-1.9600000000000002e-05,-8.476194,23.06721,-35.723465000000004,0.87366986,-0.7275723000000001,-0.05299949599999999,989.9169300000001,0,0.0,0
2.32,0.062151223,-0.14039764,9.783093,0.000665,0.000413,-0.000685,-8.349153,22.975744,-36.199593,0.8520644,-0.72034967,-0.04306698,989.90936,0,0.0,0
2.36,0.042980015,-0.15469602,9.787824,-3.9e-07,-0.001052019,0.0005139999999999999,-8.148061,22.953093,-35.844337,0.89215255,-0.6989778,-0.056778907999999996,989.9219400000001,0,0.0,0
2.4,0.06682706,-0.1523115,9.757045,-0.000399,0.000146,-0.000152,-8.334208,22.778643,-35.574493,0.8511232,-0.7111417,-0.0184412,989.9346300000001,0,0.0,0
2.44,0.057215452,-0.14277712,9.780711,-0.000399,1.31e-05,-0.000551,-8.160397999999999,22.41509,-36.349846,0.8580496999999999,-0.70884717,-0.051119804000000005,989.9144,0,0.0,0
2.48,0.062321514,-0.15708476,9.771272999999999,0.000135,0.000279,-0.000551,-8.189582000000001,22.967226,-36.377655,0.85756314,-0.69107944,-0.031511307,989.9292,0,0.0,0
2.52,0.067450434,-0.15232679,9.785508,0.000135,0.000279,-0.000551,-8.189582000000001,22.967226,-36.377655,0.84171236,-0.7085760999999999,-0.050167084,989.9292,0,0.0,0
2.56,0.06264907,-0.14755970000000002,9.764201,0.000925,0.00028199999999999997,-0.000149,-8.188603,23.336988,-36.553413,0.8376216999999999,-0.6950141,-0.058897972,989.94434,0,0.0,0
2.6,0.050678015,-0.16185889,9.7713,0.000925,0.00028199999999999997,-0.000149,-8.188603,23.336988,-36.553413,0.85033655,-0.67492557,-0.049186707,989.94434,0,0.0,0
2.64,0.06738579,-0.14279208,9.773666,-0.000273,-0.000384,-1.58e-05,-8.241757000000002,22.971048,-36.36984,0.82323617,-0.6918046,-0.039227486,989.9393,0,0.0,0
2.68,0.06497431,-0.15709123,9.7712965,-0.00014,0.000681,-1.57e-05,-8.451981,22.98486,-36.26127,0.8253466999999999,-0.68894184,-0.05293274,989.9167,0,0.0,0
2.72,0.05539316,-0.14517435,9.780764999999999,0.000792,0.0013472129999999999,-0.00028199999999999997,-7.967321000000001,22.85928,-36.405590000000004,0.8345001,-0.6897595999999999,-0.052108765,989.9313,0,0.0,0
2.76,0.052981675,-0.15232357,9.78313,0.000792,0.0013472129999999999,-0.00028199999999999997,-7.967321000000001,22.85928,-36.405590000000004,0.8523741,-0.67389095,-0.028187752000000003,989.9313,0,0.0,0
2.8,0.06012985,-0.14278999,9.766557,0.000526,-0.000251,0.000517,-8.4672,22.970129,-35.488215999999994,0.83493716,-0.6905775,-0.041898727000000004,989.9565,0,0.0,0
2.84,0.057718396,-0.15947238,9.771289999999999,-0.000139,0.000149,-0.00041500000000000006,-8.429129,23.42726,-35.597815999999995,0.8258313,-0.6773892,-0.026984215,989.9641,0,0.0,0
2.88,0.062476635,-0.14993879,9.766553,0.000793,-0.000118,-0.000148,-8.422934,22.326805,-35.534386,0.83246225,-0.68443847,-0.026503562999999997,989.9386599999999,0,0.0,0
2.92,0.064844996,-0.1475549,9.78312,0.000793,-0.000118,-0.000148,-8.169528999999999,22.406252,-35.886016999999995,0.80548906,-0.67239815,-0.04968071,989.9386599999999,0,0.0,0
2.96,0.06482345,-0.14755443,9.778385,-0.000139,0.00041500000000000006,-1.51e-05,-8.40103,23.611704,-35.766907,0.7977529999999999,-0.6794583000000001,-0.07287407,989.9717400000001,0,0.0,0
3.0,0.062411964,-0.13802078,9.768914,-0.000272,-0.000251,0.000518,-8.427469,23.53465,-36.3742,0.80879915,-0.681666,-0.034482956,989.9386599999999,0,0.0,0
3.04,0.06956011,-0.15708649,9.794951,0.000128,0.0005480000000000001,-0.000414,-8.06322,23.138134,-36.25316,0.80603594,-0.66007125,-0.06716061,989.94385,0,0.0,0
3.08,0.07192847,-0.1523194,9.7925825,-0.000271,0.00028199999999999997,0.000118,-8.237872,23.23784,-36.001129999999996,0.78080845,-0.6682446999999999,-0.057458878,989.9386599999999,0,0.0,0
3.12,0.0647372,-0.14755228,9.787847,0.001193778,-0.000384,-0.000148,-8.328663,23.152822,-35.982162,0.7957666999999999,-0.6505121,-0.04259205,989.9311,0,0.0,0
3.16,0.062325745999999994,-0.13563540000000002,9.771274,-0.000271,-0.00065,-0.000281,-8.494321000000001,23.155449,-35.49488,0.78838515,-0.6716243000000001,-0.051600455999999996,989.95636,0,0.0,0
3.2,0.06947389,-0.14278466,9.776006,-0.00021099999999999998,-0.000153,0.00082,-8.887509,23.10367,-35.970154,0.78702337,-0.6656654000000001,-0.037176132,989.9563,0,0.0,0
3.24,0.057502806,-0.1570839,9.773636999999999,5.56e-05,-0.001218077,0.00028700000000000004,-8.519917999999999,23.342241,-35.57885,0.7891895999999999,-0.65368223,-0.046207427999999995,989.9386599999999,0,0.0,0
3.28,0.08138031,-0.15470001,9.790206,0.000322,-0.000552,-0.000245,-8.482283,23.061316,-35.414246,0.7711009,-0.6449964,-0.05028438599999999,989.9585599999999,0,0.0,0
3.32,0.07418901,-0.15231624,9.780733999999999,0.000722,-0.00148446,-0.0006450000000000001,-8.517716,23.081339,-36.256783,0.7790246,-0.65297824,-0.031072617,989.941,0,0.0,0
3.36,0.06460786,-0.16184878,9.787833000000001,0.00018899999999999999,0.00024700000000000004,0.000554,-8.80517,22.917476999999998,-36.125916,0.78549814,-0.63626295,-0.04006958,989.9738,0,0.0,0
3.4,0.062196434,-0.15946504,9.766525999999999,5.6399999999999995e-05,0.00037999999999999997,-0.0005110000000000001,-8.556332000000001,22.992501999999998,-36.245636,0.7822693000000001,-0.6386826,-0.030124664,989.9408599999999,0,0.0,0
3.44,0.06695467,-0.15946448,9.771258999999999,-0.00021,0.000646,0.000155,-8.189582000000001,22.967226,-36.377655,0.7555623,-0.6266961,-0.04861641,989.93835,0,0.0,0
3.48,0.06215328,-0.14754757,9.78546,5.68e-05,-0.000552,-0.00037799999999999997,-7.918732,23.2208,-36.357246,0.77991736,-0.6373422,-0.052675247,989.9736300000001,0,0.0,0
3.52,0.059741855,-0.14754704,9.771255499999999,0.00045700000000000005,-1.99e-05,-0.00011100000000000001,-8.225833999999999,23.143707,-35.920494,0.78308463,-0.65010655,-0.019269943,989.9707599999999,0,0.0,0
3.56,0.05733037,-0.14516321,9.759418,0.00018999999999999998,-0.000286,0.000155,-8.361871,23.33225,-35.679607,0.7692486,-0.6365145999999999,-0.02330494,989.9484,0,0.0,0
3.6,0.06208861,-0.14039612,9.778354,0.00045700000000000005,-0.000553,-0.00011100000000000001,-8.5047,23.35697,-36.351906,0.77241015,-0.63522077,-0.032530785,989.9608,0,0.0,0
3.64,0.059677184,-0.14754543,9.773617999999999,-7.53e-05,0.000379,0.0012204569999999999,-8.171999000000001,23.247273999999997,-36.70469,0.7775073,-0.6360816,-0.012895584,989.9485,0,0.0,0
3.68,0.073995024,-0.15946135,9.780717,-7.53e-05,0.000379,0.0012204569999999999,-8.171999000000001,23.247273999999997,-36.70469,0.75230587,-0.6204269,-0.036346436,989.9485,0,0.0,0
3.72,0.064413846,-0.14992765,9.761777,-0.00020800000000000001,-0.000153,0.000155,-8.739542,23.927338,-36.50306,0.73325545,-0.63116556,-0.045129775999999996,989.9760000000001,0,0.0,0
3.76,0.07156202,-0.14039403,9.775977000000001,-0.00020800000000000001,-0.000153,0.000155,-8.739542,23.927338,-36.50306,0.7509971,-0.62995297,-0.025977135,989.9760000000001,0,0.0,0
3.8,0.05481112,-0.15230986,9.771241,-0.00020800000000000001,0.000113,0.00042199999999999996,-8.614158999999999,23.728482999999997,-36.202805,0.7528434,-0.6227914999999999,-0.04447651,989.9405,0,0.0,0
3.84,0.06912899,-0.15469265,9.768872,-0.00020800000000000001,0.000379,0.0009539999999999999,-8.390812,22.883959,-36.033836,0.73079276,-0.62030756,-0.029828072,989.9657599999999,0,0.0,0
3.88,0.066717565,-0.15230879,9.787808,0.000192,-0.00028700000000000004,0.000156,-8.389832499999999,23.253721,-36.209595,0.74223495,-0.6226510000000001,-0.038861275,989.9608,0,0.0,0
3.92,0.069085866,-0.15707484,9.766501,-0.00033999999999999997,-0.00042,0.00042199999999999996,-8.558939,23.727610000000002,-36.36523,0.7392466,-0.5965523,-0.005290985,989.9633,0,0.0,0
3.96,0.05711484,-0.1451579,9.780704,-0.000606,0.000246,0.000688,-8.5058155,22.88129,-35.477066,0.7597834,-0.613196,-0.03796196,989.93787,0,0.0,0
4.0,0.057093263,-0.15469053,9.759397,-0.000207,0.0006450000000000001,-0.000377,-8.4429865,22.887781,-36.026024,0.7327306,-0.58687574,-0.023302077999999997,989.97565,0,0.0,0
4.04,0.059461594000000006,-0.15707326,9.771230000000001,0.000459,0.000246,-0.00011,-8.354804,23.707907000000002,-36.16458,0.72011906,-0.61316097,-0.03707218,989.98334,0,0.0,0
4.08,0.06660974,-0.15468946,9.790166000000001,-0.000206,0.000512,0.00042199999999999996,-8.461656,23.344313,-35.89589,0.731125,-0.5961495,-0.041321754,989.938,0,0.0,0
4.12,0.08331752,-0.15230563,9.790164,0.00032599999999999996,0.0006450000000000001,2.3e-05,-8.161621,23.045753,-35.84767,0.7237505,-0.6036134,-0.03147793,989.94794,0,0.0,0
4.16,0.06178683,-0.14277199,9.771224,0.00045999999999999996,0.000512,-0.000376,-8.38997,23.147806,-35.510513,0.73354983,-0.6140304,-0.01660347,989.95825,0,0.0,0
4.2,0.06157309,-0.14038348,9.780673,0.00045999999999999996,0.000512,-0.000376,-8.38997,23.147806,-35.510513,0.7128438,-0.6033493000000001,-0.04479313,989.95825,0,0.0,0
4.24,0.07330215,-0.15229449,9.780653,0.00086,0.000246,-0.00036899999999999997,-8.8399,23.09543,-35.746056,0.6958996999999999,-0.6004944999999999,-0.039560318,989.94775,0,0.0,0
4.28,0.06371212,-0.13322747,9.78065,0.00086,0.000246,-0.00036899999999999997,-8.449617,23.250176999999997,-35.815253999999996,0.7118465,-0.6121758,-0.02016449,989.94775,0,0.0,0
4.32,0.06846148,-0.14752638,9.775913000000001,0.000196,0.000513,0.000297,-8.668835000000001,23.36107,-35.94193,0.72317123,-0.586066,-0.005542755,989.93787,0,0.0,0
4.36,0.05648154,-0.14752567,9.773543,-0.00047000000000000004,0.000113,-0.001034095,-8.620544,23.090456,-36.318455,0.7091483000000001,-0.58706254,-0.01910019,989.9580699999999,0,0.0,0
4.4,0.06601071,-0.13799185,9.78301,-0.00020299999999999997,-2.02e-05,-0.00023500000000000002,-8.378475,23.421965,-35.528328,0.68869835,-0.5954775,-0.047314644,989.9402,0,0.0,0
4.44,0.07314995,-0.14990741,9.790108,6.32e-05,-0.00028700000000000004,0.000165,-8.431192999999999,23.794076999999998,-35.618965,0.68633366,-0.5737561,-0.06112671,989.9631,0,0.0,0
4.48,0.07311952,-0.15705654,9.785371000000001,0.000463,-0.001351864,0.000298,-8.058792,23.036634,-35.785995,0.6962666999999999,-0.5558208,-0.03682995,989.9653,0,0.0,0
4.52,0.06830925,-0.15228924,9.764064,-0.00020299999999999997,0.000512,-0.000767,-8.110425,22.67217,-35.67973,0.6743889,-0.5628718,-0.017487526,989.96796,0,0.0,0
4.56,0.061109095999999995,-0.15705505,9.778263,-0.000469,-0.000686,-0.000101,-8.577501,23.077797,-35.862442,0.6968069,-0.5618706,-0.022028923,989.9631,0,0.0,0
4.6,0.053908944,-0.14513788,9.778260000000001,-0.000335,0.000113,3.19e-05,-8.306407,22.330946,-36.168453,0.71140444,-0.5725498,-0.01193428,989.9505,0,0.0,0
4.64,0.065828025,-0.15943685,9.775891,0.000198,-2.05e-05,0.0005650000000000001,-8.362712,23.068403,-36.202927,0.6945286,-0.560591,-0.021024703999999998,989.94525,0,0.0,0
4.68,0.068187475,-0.15228626,9.761685,0.000198,-0.00042,-0.000101,-8.204664,23.058413,-36.30368,0.6834423000000001,-0.57374114,0.00285244,989.96295,0,0.0,0
4.72,0.06337726,-0.13560250000000001,9.782987,-0.000621,-0.00046699999999999997,6.409999999999999e-05,-8.383882,23.153698000000002,-35.819736,0.6949204999999999,-0.5808388000000001,-0.01568222,989.9427,0,0.0,0
4.76,0.07529628,-0.15466806,9.771148,-8.82e-05,-0.000334,-0.000468,-8.394399,23.249306,-35.977676,0.6587918,-0.55467725,-0.020037651,989.94794,0,0.0,0
4.8,0.048976927999999996,-0.15228406,9.771146,-0.000221,-0.0006,-0.000335,-8.343637,22.137667,-35.53553,0.68467873,-0.55210835,-0.033836365,989.9577,0,0.0,0
4.84,0.06806569999999999,-0.15228322,9.787713,0.00044500000000000003,0.000465,-0.000734,-8.309014999999999,23.066055,-36.288047999999996,0.6529398,-0.55441487,-0.038154602,989.9200400000001,0,0.0,0
4.88,0.06564534,-0.14751595,9.780608,4.5799999999999995e-05,-0.00046699999999999997,-0.000202,-8.532799,23.172527,-36.182808,0.67840326,-0.55647194,-0.023507117999999997,989.9678,0,0.0,0
4.92,0.06561488,-0.15704834,9.768769,0.000446,0.000998,0.00046399999999999995,-8.346246,22.872774,-35.65513,0.6704513000000001,-0.5445863000000001,0.00531292,989.96295,0,0.0,0
4.96,0.051245034,-0.15228102,9.759298,-0.00022,0.000332,-0.000734,-8.282438,23.249026999999998,-36.379837,0.6771275999999999,-0.53723854,-0.013219833,989.9576400000001,0,0.0,0
5.0,0.063164115,-0.14513043,9.771131500000001,0.000713,6.54e-05,-0.00020099999999999998,-8.938568,23.583170000000003,-36.83717,0.66293323,-0.5568919,-0.003101349,989.9302,0,0.0,0
5.04,0.06313366,-0.14989626,9.792434,0.000713,6.54e-05,-0.00020099999999999998,-8.938568,23.583170000000003,-36.83717,0.6521392,-0.5461294,-0.045528412000000004,989.9302,0,0.0,0
5.08,0.06549311,-0.1427457,9.780595,0.00018,-6.78e-05,-0.000334,-8.414887,23.072224,-36.19511,0.658961,-0.55336297,-0.026219368,989.9302,0,0.0,0
5.12,0.05112326,-0.15227798,9.756921,-0.000352,-0.00020099999999999998,0.000332,-8.012567500000001,23.132839999999998,-36.18367,0.67508405,-0.52705586,0.012054443,989.9554,0,0.0,0
5.16,0.046313018,-0.14751074,9.768752000000001,4.79e-05,6.53e-05,-0.0006,-8.349695,23.344034,-36.298046,0.6630043999999999,-0.53889966,0.007683754,989.94794,0,0.0,0
5.2,0.053926885,-0.1642046,9.785364,4.79e-05,0.001130519,6.55e-05,-7.9808807,22.951939000000003,-36.40892,0.6673583000000001,-0.52567923,-0.024891853,989.94244,0,0.0,0
5.24,0.058695287,-0.14513806,9.780629,-9.13e-05,-0.000199,-6.54e-05,-8.163005,23.150195999999998,-36.469444,0.6454456000000001,-0.53786623,-0.015070915,989.9705,0,0.0,0
5.28,0.056293964,-0.1522876,9.780627,-9.13e-05,-0.000199,-6.54e-05,-8.163005,23.150195999999998,-36.469444,0.6534208,-0.52701956,-0.005393981999999999,989.9705,0,0.0,0
5.32,0.058672458,-0.15467066,9.76879,4.210000000000001e-05,-6.579999999999999e-05,-0.000465,-8.49364,22.893076,-36.095512,0.6249815,-0.5280279999999999,-0.019005775,989.95514,0,0.0,0
5.36,0.044321625999999996,-0.14990379999999998,9.771156,0.0008410000000000001,0.001132625,6.790000000000001e-05,-8.542771,22.899843,-36.242302,0.6551741999999999,-0.52537584,-0.013853073,989.9602699999999,0,0.0,0
5.4,0.053869843,-0.14513692,9.794827,0.0008410000000000001,0.001132625,6.790000000000001e-05,-8.542771,22.899843,-36.242302,0.6394634,-0.52888566,-0.04207611,989.9602699999999,0,0.0,0
5.44,0.05385840000000001,-0.16420296,9.785357000000001,0.000708,0.000733,-6.52e-05,-8.396463,23.616121,-35.998825,0.64435536,-0.5061277,-0.008346558,989.95026,0,0.0,0
5.48,0.06101668,-0.15943602,9.782989,0.000708,0.000733,-6.52e-05,-8.396463,23.616121,-35.998825,0.6381124,-0.5096049,-0.017621994,989.95026,0,0.0,0
5.52,0.058615386,-0.15466923,9.7782545,-0.00049,6.73e-05,-0.000198,-8.118141,23.771147,-35.665859999999995,0.6195078,-0.5157657999999999,-0.031292915,989.9476,0,0.0,0
5.56,0.05143428,-0.15705228,9.771152,-0.000357,0.00046699999999999997,-0.000198,-8.3001585,22.863058,-35.353725,0.6305972,-0.50405604,0.0022249220000000003,989.9577,0,0.0,0
5.6,0.049032927000000004,-0.15705192,9.775886,-0.000357,0.00046699999999999997,-0.000198,-7.8413949999999994,22.292135000000002,-36.006890000000006,0.61976075,-0.5029875,-0.03075409,989.9577,0,0.0,0
5.64,0.053801327999999995,-0.14751855,9.782986,0.000309,0.000334,-6.500000000000001e-05,-8.372685,22.795720000000003,-36.26242,0.6299619000000001,-0.5091405,-0.01129818,989.9402,0,0.0,0
5.68,0.0585697,-0.15466812,9.773515,-0.000357,-0.000865,0.00020099999999999998,-8.200099,23.062834,-36.5356,0.6284926,-0.49823558,-0.0016336439999999999,989.94244,0,0.0,0
5.72,0.058558285,-0.1427514,9.771148,0.000176,-0.000332,0.00020099999999999998,-8.284939,22.87779,-36.126778,0.6161357,-0.49605894,0.008174896,989.93005,0,0.0,0
5.76,0.053767085,-0.15228429999999998,9.778248,-0.000356,6.720000000000001e-05,-0.000198,-8.358284,22.966905999999998,-35.735764,0.6213807,-0.5020814,-0.01496315,989.95294,0,0.0,0
5.8,0.05375564,-0.152284,9.773512,-0.000356,6.720000000000001e-05,0.000202,-8.644758,23.172804,-35.780654999999996,0.6055236999999999,-0.50099695,-0.01478672,989.9602699999999,0,0.0,0
5.84,0.058524042000000005,-0.16181679999999998,9.775878,0.00031,6.720000000000001e-05,-6.47e-05,-8.360104,22.333296,-36.083332,0.60619485,-0.47353423,0.009407997,989.9454,0,0.0,0
5.88,0.06807223,-0.14990017,9.771142999999999,0.001108753,-6.6e-05,6.850000000000001e-05,-8.411843,23.07517,-36.34972,0.5999365,-0.5006970000000001,0.0096035,989.9454,0,0.0,0
5.92,0.046551704000000006,-0.1546664,9.766408,0.00031,-0.000199,0.000601,-8.289367,22.979288,-36.59394,0.6209901999999999,-0.48880150000000006,0.005217552,989.9555,0,0.0,0
5.96,0.053709984,-0.13321665,9.761672,-8.94e-05,0.000333,-0.000331,-8.221269,23.148127,-36.152405,0.6023147,-0.51837486,0.015229225,989.9604,0,0.0,0
6.0,0.0536986,-0.15466592,9.768773,0.00031,0.0002,0.000468,-8.676307000000001,23.45962,-36.25448,0.5995125,-0.48262766,0.006103516,989.94794,0,0.0,0
6.04,0.06324679,-0.14513242,9.773506,0.0007099999999999999,0.000333,0.000335,-8.289909,23.347578,-36.692387,0.5919579,-0.48510414,0.006439209,989.9554,0,0.0,0
6.08,0.058455527,-0.13798234,9.764036,0.000177,0.0002,-0.00046399999999999995,-8.646142999999999,23.277248,-36.402428,0.5796716,-0.50173724,-0.007424355,989.9429,0,0.0,0
6.12,0.056054235,-0.14274862,9.7593,4.41e-05,-6.61e-05,-0.00046399999999999995,-8.436899,22.893673,-36.33524,0.5769523,-0.48978922,0.002381325,989.9376,0,0.0,0
6.16,0.060822605999999994,-0.15704802,9.764033999999999,-0.00035499999999999996,-0.000332,-0.000198,-8.481464,22.90486,-36.71395,0.579172,-0.46376508,0.012160301,989.9429,0,0.0,0
6.2,0.056127935999999996,-0.13560060000000002,9.771144,0.00031099999999999997,-0.000466,0.000202,-8.218224000000001,23.151072,-36.30702,0.57309127,-0.49601597,-0.011368752,989.9427,0,0.0,0
6.24,0.06329003,-0.15466663,9.787713,0.000295,-0.000647,0.000185,-8.170615,23.142832000000002,-36.082916,0.57398003,-0.45006369999999996,-0.020388603,989.9505,0,0.0,0
6.28,0.05133292,-0.15466651,9.775877000000001,-0.00023799999999999998,-0.00037999999999999997,0.000185,-8.488531,22.529203,-36.228972999999996,0.601114,-0.46781674,0.008201599,989.9631,0,0.0,0
6.32,0.05371523,-0.14989969,9.768774,-0.000637,0.000286,-0.00021400000000000002,-8.769025,23.847338,-36.955738000000004,0.5886849000000001,-0.46093208,0.003788948,989.9554,0,0.0,0
6.36,0.056097507000000005,-0.1546661,9.778242,-0.00010400000000000001,0.000152,5.2000000000000004e-05,-8.150286999999999,22.793692,-36.98943,0.56700885,-0.4537082,-0.010092735,989.96796,0,0.0,0
6.4,0.056089908,-0.14036623,9.768773,0.000695,-0.000647,-0.00021400000000000002,-8.410321000000001,23.076643,-36.427025,0.5594982,-0.4799049,-0.019234657,989.9403699999999,0,0.0,0
6.44,0.048912585,-0.15466568,9.773505,0.000562,-0.00024700000000000004,-0.00021400000000000002,-8.127977,23.60438,-36.42443,0.58052653,-0.47722173,0.00479126,989.9682,0,0.0,0
6.48,0.058464587,-0.15228227,9.771138,0.0009609999999999999,0.00041900000000000005,0.000984,-8.321894,22.896341,-36.89201,0.56801164,-0.44664448,0.005102158,989.9403699999999,0,0.0,0
6.52,0.048897355999999996,-0.14513218,9.756934,-0.001435505,0.000152,0.00031800000000000003,-8.147081,23.322855,-36.020096,0.5639715000000001,-0.46750012,0.00081,989.9703,0,0.0,0
6.56,0.048889786,-0.14274879999999998,9.771137,0.000429,-0.00011399999999999999,-0.00047999999999999996,-8.295997999999999,23.341686,-36.383163,0.5611768,-0.45587259999999996,0.001114845,989.9678,0,0.0,0
6.6,0.051272064000000006,-0.16181478,9.768769,0.000429,-0.00011399999999999999,-0.00047999999999999996,-8.295997999999999,23.341686,-36.383163,0.5452509,-0.4356031,-0.01291275,989.9678,0,0.0,0
6.64,0.07516351,-0.14513165,9.773503,-0.00037,-0.00024700000000000004,0.0012506589999999999,-8.318147,23.057219,-35.824220000000004,0.53166294,-0.44707432,-0.012485504,989.94775,0,0.0,0
6.68,0.060816467,-0.15228131,9.768767,-0.0006360000000000001,0.001084444,0.000851,-8.645058,22.540670000000002,-36.20552,0.5285708,-0.44018608,-0.012164116,989.9454300000001,0,0.0,0
6.72,0.06558865,-0.14036468,9.771134,-0.0009029999999999999,-0.00011399999999999999,-8.09e-05,-8.282874000000001,22.510973,-36.10563,0.53067374,-0.46193670000000003,-0.002403259,989.94775,0,0.0,0
6.76,0.056021452,-0.14274785,9.775867,0.000296,0.000152,5.2300000000000004e-05,-8.212572,22.418910999999998,-36.342026000000004,0.5519066999999999,-0.4453652,0.007370949,989.94525,0,0.0,0
6.8,0.063183546,-0.15466401,9.787703500000001,0.000429,0.000285,-0.00034700000000000003,-8.075557,22.600134,-36.758666999999996,0.5398301999999999,-0.42885846,0.012392998,989.9454300000001,0,0.0,0
6.84,0.065565825,-0.14989729999999998,9.785336000000001,0.000562,-0.00011399999999999999,0.00018600000000000002,-8.231647,23.34965,-37.009426,0.52778006,-0.44082338,-0.015721321,989.9505,0,0.0,0
6.88,0.06077844,-0.15228036,9.768765,0.000562,-0.00011399999999999999,0.00018600000000000002,-8.44437,22.992224,-36.647797,0.5252551,-0.43386802,-0.020170212,989.9505,0,0.0,0
6.92,0.07033044,-0.15704677,9.7758665,-0.000103,-0.00024700000000000004,0.000319,-8.327684,23.522585,-36.157920000000004,0.4989054,-0.43640286,-0.000949,989.9707599999999,0,0.0,0
6.96,0.055983424000000004,-0.1403636,9.766396499999999,-0.000103,-0.00024700000000000004,0.000319,-8.651253,23.64112,-36.26896,0.53410316,-0.448766,0.018288612,989.9707599999999,0,0.0,0
7.0,0.055975825,-0.15942961,9.775865,2.9999999999999997e-05,0.00041900000000000005,-0.00021400000000000002,-8.623588999999999,23.087511,-36.163845,0.53620285,-0.41368803,0.004347801,989.9529,0,0.0,0
7.04,0.046408594000000004,-0.15704623,9.775864,-0.000769,0.00041900000000000005,0.000452,-8.278416,23.621737,-36.7102,0.533655,-0.42164817,-0.00014099999999999998,989.9555,0,0.0,0
7.08,0.06074041,-0.14512959,9.764028,-0.001035078,1.91e-05,-8.06e-05,-8.538748,23.27255,-36.57267,0.49776286,-0.43857902,-0.004603386,989.9555,0,0.0,0
7.12,0.06312269,-0.15227932,9.761659,-0.00036899999999999997,-0.00024700000000000004,0.00018600000000000002,-8.403255,23.4523,-36.912003000000006,0.5144807,-0.42217398,0.005132675,989.9454300000001,0,0.0,0
7.16,0.06553656,-0.15227982,9.780599,-0.00036899999999999997,-0.0009130000000000001,0.001251036,-8.412386999999999,23.443462,-36.448174,0.5070452,-0.42510290000000006,0.024324417,989.9454300000001,0,0.0,0
7.2,0.07034224,-0.13798082,9.780600999999999,-0.000502,0.000552,-8.05e-05,-8.290889,22.977814000000002,-36.516632,0.49609283,-0.43356990000000006,-0.008671761,989.9580699999999,0,0.0,0
7.24,0.07511699,-0.15704694,9.766396499999999,0.00042800000000000005,0.0008179999999999999,0.00018700000000000002,-8.556874,23.360792,-36.344086,0.4983141,-0.4172956,0.02473545,989.93286,0,0.0,0
7.28,0.051212907,-0.15704682,9.775865,-0.000504,-0.00011399999999999999,-7.890000000000001e-05,-8.877399,23.482273,-36.60974,0.52425146,-0.40550506,0.010822296,989.9304,0,0.0,0
7.32,0.058377534,-0.14751357,9.759295,0.00042800000000000005,0.000286,-0.000212,-8.739137,23.453135,-35.705529999999996,0.5063808,-0.42108545,0.020697594,989.9709,0,0.0,0
7.36,0.051202774000000006,-0.15466323,9.768764,2.8600000000000004e-05,-0.000646,-0.000212,-8.459591,22.977495,-35.874744,0.5087627,-0.40451404,0.016231537,989.9153,0,0.0,0
7.4,0.044027925,-0.16419622,9.787701,0.001093927,0.00041900000000000005,0.00018700000000000002,-8.588316,22.541267,-36.44526,0.52066964,-0.39314005,-0.00246048,989.9405,0,0.0,0
7.44,0.070311785,-0.1427466,9.768763,0.00042800000000000005,-0.000779,-0.000478,-8.5689125,23.454924,-36.42472,0.48014623,-0.41481432,0.016731262,989.95825,0,0.0,0
7.48,0.048797607,-0.14989632,9.771129,-0.00010400000000000001,-0.000513,-7.879999999999999e-05,-8.367822,23.432276,-36.069466,0.4969237,-0.39825097,-0.011413574,989.9507,0,0.0,0
7.52,0.05118245,-0.16419587,9.771129,0.000295,-0.000513,0.000587,-8.397305000000001,23.352273999999998,-36.52215,0.5045864000000001,-0.38705894,0.007726669,989.9507,0,0.0,0
7.56,0.051177323,-0.15704593,9.77823,-0.000371,-0.000646,-0.000478,-8.348716,23.713797,-36.4738,0.48906088,-0.39571944,-0.011095047,989.9457,0,0.0,0
7.6,0.07268143,-0.14036283,9.771128,-0.00023700000000000001,-0.001312142,0.000454,-8.457633,23.71702,-36.226257000000004,0.46756464,-0.41279876,-0.0013799670000000002,989.95825,0,0.0,0
7.64,0.04638740400000001,-0.16419554,9.766392999999999,-0.0009029999999999999,-0.001045842,5.45e-05,-8.358688,23.441110000000002,-36.533295,0.49285249999999997,-0.37223876,0.0036821370000000003,989.9456,0,0.0,0
7.68,0.058331817,-0.14274588,9.773494,-0.0007830000000000001,-0.0005549999999999999,0.000588,-8.579864500000001,22.812476999999998,-36.30846,0.47176686,-0.4130365,-0.000825,989.9530599999999,0,0.0,0
7.72,0.06310654,-0.15227887,9.764024000000001,0.0005480000000000001,0.00011100000000000001,0.000322,-8.1404505,22.960457,-36.230865,0.47380424,-0.38711223,0.013648033,989.95325,0,0.0,0
7.76,0.048762083,-0.137979,9.768759,-0.000251,-0.00028900000000000003,-7.79e-05,-8.693752,23.285488,-36.626526,0.5052111,-0.4138036,0.03280449,989.9382300000001,0,0.0,0
7.8,0.06787622,-0.14989531,9.766391,0.000149,-2.26e-05,0.000322,-8.463476,22.710703,-36.243454,0.46896446,-0.3831509,0.018867493,989.9306,0,0.0,0
7.84,0.058311522000000005,-0.14512864,9.773492,0.00041500000000000006,0.0005099999999999999,5.5299999999999996e-05,-8.678235,23.932356,-36.9747,0.47154334,-0.40015584,-0.014038086000000002,989.9382300000001,0,0.0,0
7.88,0.058306456,-0.15704492,9.759288,-0.0007830000000000001,-0.001354148,-0.00047699999999999994,-8.729462,23.09368,-36.070908,0.46494022,-0.36967018,0.009837151,989.9206,0,0.0,0
7.92,0.063081175,-0.15227821,9.771123,-0.0007830000000000001,-0.001354148,-0.00047699999999999994,-8.729462,23.09368,-36.070908,0.47360122,-0.3877797,-0.0042648320000000005,989.9206,0,0.0,0
7.96,0.067855895,-0.15466139,9.764022,0.00028199999999999997,0.00011100000000000001,5.539999999999999e-05,-8.89759,23.93733,-36.402306,0.47463784,-0.38487488,0.015034676,989.93835,0,0.0,0
8.0,0.07263064400000001,-0.1641944,9.782958,0.000149,0.0005099999999999999,0.000455,-8.801147,23.290186,-36.456284000000004,0.448432,-0.36408508,0.015253067,989.92834,0,0.0,0
8.04,0.063065946,-0.16419429,9.778224,-0.000916,-0.001886812,0.00018899999999999999,-8.605463,22.999270000000003,-36.39243,0.4467735,-0.36686802,-0.0034875870000000003,989.95325,0,0.0,0
8.08,0.06545079,-0.14512792,9.768755,0.00028199999999999997,-0.00028900000000000003,-0.00047699999999999994,-8.528232000000001,23.176947,-36.414726,0.43971822,-0.37438375,0.01094532,989.9534,0,0.0,0
8.12,0.05110627400000001,-0.13797799,9.761652,-0.00065,-0.00028900000000000003,0.000322,-8.517854,22.975424,-35.55771,0.47557458,-0.40595576,0.030107497999999996,989.9357,0,0.0,0
8.16,0.07445836,-0.16179737,9.775805,0.00028399999999999996,0.000909,-7.68e-05,-8.457388,22.716593,-36.552673,0.44023845,-0.36602655,0.02564907,989.9231,0,0.0,0
8.2,0.06965189999999999,-0.15703008,9.7616,-0.000246,0.00011100000000000001,0.000193,-8.648644,22.906012,-36.149364,0.44723029999999997,-0.35969004,0.025870322999999997,989.9408599999999,0,0.0,0
8.24,0.060065687,-0.1498796,9.782903,-0.000113,0.0005099999999999999,-7.290000000000001e-05,-8.397305000000001,23.352273999999998,-36.52215,0.44016016,-0.37180630000000003,-0.007030486999999999,989.9536,0,0.0,0
8.28,0.07198858,-0.14511237,9.763963,-0.000113,0.0005099999999999999,-7.290000000000001e-05,-8.667856,23.730835,-36.117683,0.41881958,-0.37909135,0.012145042,989.9536,0,0.0,0
8.32,0.062402308,-0.14272845,9.768694,0.000553,-0.000155,6.04e-05,-8.55481,22.993975,-36.32294,0.4453387,-0.37244540000000004,0.026563643999999997,989.9359,0,0.0,0
8.36,0.05759585,-0.15226093,9.782895,0.00028700000000000004,-2.23e-05,0.000194,-8.275509,23.518766,-36.165733,0.47162727,-0.37057203,0.017320633000000002,989.941,0,0.0,0
8.4,0.055179328,-0.15464357,9.780524,0.00042,-2.23e-05,0.000327,-8.354261,23.339615,-36.06613,0.44060649999999996,-0.36395556,0.0033388140000000003,989.94354,0,0.0,0
8.44,0.064712286,-0.14987633,9.771054,0.000154,0.0005099999999999999,0.000327,-8.712857000000001,23.003965,-36.222187,0.42325708,-0.35741690000000004,0.013056755,989.9636,0,0.0,0
8.48,0.05751598,-0.13319272,9.78052,-0.00037799999999999997,0.00091,6.08e-05,-8.60212,23.634354000000002,-36.122170000000004,0.42583543,-0.3744828,-0.005661964,989.8905599999999,0,0.0,0
8.52,0.06465906,-0.15225829999999999,9.773416000000001,-0.000644,0.00011100000000000001,0.000194,-8.636308,23.444017000000002,-35.643856,0.43808389999999997,-0.3584383,0.018211365,989.94116,0,0.0,0
8.56,0.05985259999999999,-0.15940753,9.771047,0.000421,0.000643,0.000327,-8.209636,23.5282,-36.869296999999996,0.43577619999999995,-0.3470362,0.008957863,989.9513,0,0.0,0
8.6,0.074165374,-0.14749044,9.780513000000001,-0.00011100000000000001,-0.00042199999999999996,-0.000471,-8.67783,23.45815,-36.177174,0.41932726,-0.35956170000000004,0.009158134,989.93604,0,0.0,0
8.64,0.055019498,-0.14272323,9.771042999999999,-0.00011100000000000001,0.000244,-0.001137178,-8.115694,22.50982,-36.670215999999996,0.41694152,-0.3434454,0.004640579000000001,989.9511,0,0.0,0
8.68,0.0597727,-0.14510587,9.768673,0.000156,0.00011100000000000001,-7.18e-05,-8.36812,22.800138,-36.494335,0.42018035,-0.35577154,0.009554863,989.9462,0,0.0,0
8.72,0.0645259,-0.15463832,9.763935,-0.0005099999999999999,-0.0012210889999999999,-0.000205,-8.765575,23.376078,-36.31282,0.42769504,-0.34941408,0.028678894,989.9563,0,0.0,0
8.76,0.05254972,-0.14748785,9.771035000000001,-0.00024300000000000002,-2.27e-05,-0.000471,-8.424861,22.799541,-36.2546,0.4347829000000001,-0.34768933,0.019421577,989.97644,0,0.0,0
8.8,0.052523077,-0.15463701,9.780501,0.00042300000000000004,-0.000156,0.000195,-8.328961,22.520689,-36.407032,0.43285787,-0.32651305,0.005423546,989.9817,0,0.0,0
8.84,0.059666097,-0.14748654,9.782866499999999,0.000556,0.00011,-0.000737,-8.697339,23.650831,-36.570366,0.41164285,-0.34386748,-0.018055916,989.96405,0,0.0,0
8.88,0.057249575999999996,-0.15701899,9.768661,-0.000642,0.00011,-7.11e-05,-8.958217,23.66994,-36.531284,0.40454763,-0.3327913,0.010543823,989.93115,0,0.0,0
8.92,0.05005324,-0.15225178,9.77576,-0.000508,0.0005099999999999999,0.000195,-8.225697,23.249624,-36.619568,0.43088296,-0.340762,0.020207405,989.9488,0,0.0,0
8.96,0.05719632,-0.14986786,9.766289,-0.000375,0.00011,-7.09e-05,-8.681416,23.823492,-36.121016999999995,0.41425076,-0.3391384,0.039339066,989.9488,0,0.0,0
9.0,0.06194949,-0.14510062,9.773387,-0.000375,0.00011,-7.09e-05,-8.681416,23.823492,-36.121016999999995,0.40372637,-0.34278688,0.029974937000000004,989.9488,0,0.0,0
9.04,0.05953294,-0.14748326,9.766283999999999,0.000824,0.001042221,-0.000603,-8.245643,22.704256,-36.738556,0.39057577,-0.33496475,0.016098976,989.95654,0,0.0,0
9.08,0.06428611,-0.15224919,9.768647999999999,-0.00010800000000000001,0.000776,-0.00047000000000000004,-8.523666,23.181366,-36.646645,0.39780244,-0.32856232,0.016293526000000003,989.9366,0,0.0,0
9.12,0.050611615,-0.14749894,9.775811000000001,-0.00037400000000000004,0.00024300000000000002,0.00032900000000000003,-8.420836999999999,23.172249,-36.58497,0.4133499,-0.3270381,0.016346931000000002,989.9643599999999,0,0.0,0
9.16,0.065657794,-0.15466616,9.773508,-0.00038199999999999996,-2.2800000000000002e-05,-0.00021,-8.696254,22.914251,-36.373463,0.40648162,-0.32536715,0.02599144,989.9568,0,0.0,0
9.2,0.05612734,-0.15705013,9.771144,0.000442,-0.000536,0.0005110000000000001,-8.544836,23.266659,-36.26345,0.39035904,-0.31885067,0.016687393000000002,989.9467,0,0.0,0
9.24,0.056156516,-0.14751771,9.766411999999999,0.000442,-0.000536,0.0005110000000000001,-8.544836,23.266659,-36.26345,0.40370062,-0.33210006,0.030985832,989.9467,0,0.0,0
9.28,0.053795815,-0.14275187,9.773516,4.22e-05,-0.00027,-0.000155,-8.670219,23.465513,-36.5637,0.39564076,-0.32466128,0.00758934,989.9343,0,0.0,0
9.32,0.058604777000000004,-0.14990243,9.766417,4.22e-05,-0.00027,-0.000155,-8.670219,23.465513,-36.5637,0.3896813,-0.32860136,0.0076818469999999995,989.9343,0,0.0,0
9.36,0.056244075,-0.15466970000000002,9.771153,0.0007070000000000001,-3.45e-06,0.0005110000000000001,-8.584973,23.176348,-36.174995,0.39157045,-0.3018917,0.026883125,989.9317,0,0.0,0
9.4,0.05627325,-0.15705368,9.775891,0.0007070000000000001,0.00013000000000000002,0.000244,-8.1663475,22.515116,-36.7397,0.38937294,-0.30477723,0.003397942,989.9395,0,0.0,0
9.44,0.05391252,-0.15467113,9.761691,-9.209999999999999e-05,-0.0014680989999999998,-0.00028900000000000003,-8.340564,23.352873000000002,-36.76188,0.38306314,-0.30306602,0.01301384,989.9292,0,0.0,0
9.48,0.046772003,-0.1499053,9.76406,-9.209999999999999e-05,-0.0014680989999999998,-0.00028900000000000003,-8.176022,22.874567000000003,-36.374325,0.39095312,-0.31071407,0.02264309,989.9292,0,0.0,0
9.52,0.05875063,-0.14990601,9.773532000000001,4.05e-05,0.00013000000000000002,-2.26e-05,-8.563804,23.091053,-36.55819,0.38395128,-0.30919674,0.022810936,989.93445,0,0.0,0
9.56,0.049220204000000004,-0.15705654,9.778269,4.05e-05,0.00013000000000000002,-2.26e-05,-8.399806,22.98104,-36.269085,0.40127224,-0.30291414,0.02295971,989.93445,0,0.0,0
9.6,0.06358883,-0.16182381,9.783006,-0.000226,-0.000136,-0.000156,-8.78813,23.565817000000003,-36.5514,0.35607737,-0.29178017,0.004189491,989.91943,0,0.0,0
9.64,0.063618004,-0.13799170000000002,9.749867,0.000439,-0.000669,0.000776,-8.453365,23.089304000000002,-36.88304,0.36382702,-0.32338926,0.028020859,989.9419,0,0.0,0
9.68,0.06603706,-0.14752555,9.766441,-9.350000000000001e-05,0.000529,0.00011,-8.261842,22.319763000000002,-35.789745,0.36125508,-0.30732763,0.028212547,989.9318,0,0.0,0
9.72,0.06128645,-0.15229282,9.76171,-9.379999999999999e-05,0.000263,0.00024300000000000002,-8.275509,23.518763,-36.165733,0.38792154,-0.29628408,0.03783512,989.9548300000001,0,0.0,0
9.76,0.049366117,-0.15467682,9.787751,-0.000627,0.00053,0.000376,-8.469862,22.072674,-36.359108,0.39101090000000005,-0.29001874,-0.004635811,989.91943,0,0.0,0
9.8,0.058954895,-0.1594441,9.768817,0.00043799999999999997,-0.000269,0.000376,-8.566305,22.719820000000002,-36.305126,0.36612758,-0.28909594,0.028590202000000002,989.9042400000001,0,0.0,0
9.84,0.051814377,-0.14276183,9.77592,0.000305,-0.000536,0.001041835,-8.648750999999999,24.012356,-36.522022,0.35319018,-0.30582374,0.009900093,989.93713,0,0.0,0
9.88,0.042283952,-0.14276254,9.768821,-0.0004940000000000001,0.000263,-2.35e-05,-8.035122,23.322577,-36.42225,0.37994292,-0.3185982,0.010050774,989.9419,0,0.0,0
9.92,0.05665251599999999,-0.14752981,9.775926,-9.520000000000001e-05,0.000397,0.000376,-8.493203999999999,23.631128,-36.369717,0.36835137,-0.29362366,0.029122352999999997,989.9498,0,0.0,0
9.96,0.056681722000000004,-0.14276397,9.773561500000001,-0.000628,-2.81e-06,0.00024300000000000002,-8.181674000000001,23.606728,-36.33931,0.36617804,-0.3109405,0.024557113999999998,989.9245599999999,0,0.0,0
10.0,0.06388059,-0.14038143,9.766463,3.74e-05,0.000663,0.000109,-8.409885000000001,23.814697,-36.701233,0.34540483,-0.2996586,0.005765915,989.91705,0,0.0,0
10.04,0.06629968,-0.14753196,9.761731,3.71e-05,-0.000535,-0.000557,-8.292411,22.976343,-36.439327,0.34355035,-0.29346323,0.029575347999999998,989.91705,0,0.0,0
10.08,0.06632888,-0.14753267,9.780671,-0.000496,-0.000535,0.000109,-8.32646,22.891924,-36.660095,0.35615823,-0.30156338,0.006037712,989.9195,0,0.0,0
10.12,0.047175407,-0.1594483,9.773566,-0.00022999999999999998,-2.63e-06,-0.000291,-8.445051,23.254599,-36.04717,0.37844878,-0.2811421,0.025109291000000002,989.9273,0,0.0,0
10.16,0.054371774000000005,-0.15468237,9.783038000000001,3.63e-05,-0.000935,-0.00015800000000000002,-8.827724,23.107214000000003,-36.364494,0.36663198,-0.28463668,0.015787125,989.8946,0,0.0,0
10.2,0.06395799,-0.13085026,9.778305,-0.00022799999999999999,0.000395,-0.0005610000000000001,-8.427767,22.902511999999998,-36.799071999999995,0.31701666,-0.29737744,-0.007740974,989.9024,0,0.0,0
10.24,0.05681491,-0.16421682,9.773574,-0.0004940000000000001,-0.000271,-0.000295,-8.370184,23.166956,-36.51548,0.33901542,-0.27206793,0.011336327,989.9275,0,0.0,0
10.28,0.052061795999999994,-0.15945092,9.783045,-0.0004940000000000001,-0.000271,-0.000295,-8.370184,23.166956,-36.51548,0.3426197,-0.27138126,0.006678580999999999,989.9275,0,0.0,0
10.32,0.054478288,-0.15945157,9.775947,0.0009699999999999999,0.000395,0.00023700000000000001,-8.510244,22.982789999999998,-35.94423,0.35393482,-0.27847594,0.030576706000000002,989.9174,0,0.0,0
10.36,0.0640645,-0.15230235,9.785418,0.0009699999999999999,0.000395,0.00023700000000000001,-8.510244,22.982789999999998,-35.94423,0.33435944,-0.28726938,-0.002514839,989.9174,0,0.0,0
10.4,0.05931139,-0.15230301,9.768848,0.000304,0.000794,-0.000162,-8.542771,22.899843,-36.242302,0.32656384,-0.28487012,0.007178306999999999,989.9350599999999,0,0.0,0
10.44,0.056948125,-0.14277056,9.757016,-0.000229,-4.67e-06,0.00010400000000000001,-8.425403999999999,23.16783,-36.353054,0.33420503,-0.28793487,0.02626419,989.905,0,0.0,0
10.48,0.04502523,-0.15707089999999999,9.778323,0.0009689999999999999,-4.63e-06,-0.000296,-8.427904,22.796597,-36.099995,0.3560857,-0.271956,0.031147957,989.9226,0,0.0,0
10.52,0.05939132,-0.14753842,9.778325,0.0008359999999999999,0.000661,0.00023700000000000001,-8.1404505,22.960459,-36.230865,0.33969614,-0.27014068,0.026572227,989.92523,0,0.0,0
10.56,0.06180781,-0.14277253,9.780694,0.0005690000000000001,0.000129,0.000503,-7.985447,22.947521,-36.177006,0.32816422,-0.27349588,0.012504578,989.93036,0,0.0,0
10.6,0.06422436,-0.15707284,9.759393,-0.00022999999999999998,0.000395,-2.98e-05,-8.832833,23.471087,-36.231033000000004,0.31208488,-0.26248142,0.022101402000000003,989.9328,0,0.0,0
10.64,0.057081282000000004,-0.15945676,9.761763,-0.00022999999999999998,0.000395,-2.98e-05,-8.832833,23.471087,-36.231033000000004,0.33503407,-0.24782440000000003,0.045825005,989.9328,0,0.0,0
10.68,0.049938202,-0.15945742,9.775967999999999,0.000169,0.000661,-0.000296,-8.334613000000001,23.252848,-36.372025,0.34649312,-0.25992754,0.02235508,989.9353,0,0.0,0
10.72,0.05713457,-0.15469155,9.783072,0.00024900000000000004,-0.001287594,0.000808,-8.425405,23.167831,-36.353054,0.33558974,-0.2585185,0.031933784,989.92535,0,0.0,0
10.76,0.064330876,-0.16899186,9.766503,0.000515,-0.000489,9.31e-06,-8.443529,23.256071,-36.124474,0.319537,-0.23817667,0.027316093,989.92535,0,0.0,0
10.8,0.069137335,-0.14515969,9.773608,0.000515,-0.000489,9.31e-06,-8.745087,23.553156,-36.095387,0.29358473,-0.27475438,0.017990112,989.92535,0,0.0,0
10.84,0.061994255,-0.1523102,9.771243,-0.00028399999999999996,-0.00022200000000000003,0.00040899999999999997,-8.669675999999999,23.097223,-36.46525,0.30631020000000003,-0.25905836,0.008637428,989.9177,0,0.0,0
10.88,0.05963099,-0.15231088,9.75941,-0.00028399999999999996,-0.00022200000000000003,0.00040899999999999997,-8.57087,22.715398999999998,-36.073209999999996,0.32869634,-0.26741353,0.037148476,989.9177,0,0.0,0
10.92,0.07160714,-0.14039508,9.773616,-0.00041799999999999997,0.000177,0.000275,-8.687801,23.185463000000002,-36.236664000000005,0.31297603,-0.27056682,0.037265778,989.9456,0,0.0,0
10.96,0.05729437,-0.15469542,9.764149,0.000781,-0.0006219999999999999,0.000275,-8.28396,23.247553,-36.30253,0.3158804,-0.24065247,0.03265381,989.9053,0,0.0,0
11.0,0.064490706,-0.14754626,9.77362,-0.000152,-0.000755,-0.000391,-8.239257,23.342283,-36.622902,0.29515207,-0.24862018,0.0043706890000000005,989.9281,0,0.0,0
11.04,0.059737532999999995,-0.14516363,9.7688875,-1.89e-05,0.000177,-0.000125,-8.1951275,22.593045999999998,-35.969986,0.30292067,-0.256694,0.028167725,989.9154699999999,0,0.0,0
11.08,0.06932378,-0.15708068,9.771257,0.00011399999999999999,0.0005769999999999999,0.000541,-8.22377,22.776892,-35.899345000000004,0.28806529999999997,-0.24649131,0.009274483,989.938,0,0.0,0
11.12,0.07409823,-0.14278087,9.773625,0.000513,-0.001020903,-0.000791,-8.413364999999999,23.073698,-36.272415,0.2952349,-0.25886542,0.033114433,989.91034,0,0.0,0
11.16,0.07173371,-0.14516482,9.773627000000001,-0.000283,0.000175,-0.000394,-8.965826,23.662577,-36.14476,0.29832378,-0.26249859999999997,0.009549141,989.9256,0,0.0,0
11.2,0.071759075,-0.15469852,9.759425,-0.000683,-0.000624,-0.000261,-8.7787,24.206792999999998,-36.590363,0.28691712,-0.22806424,0.019125938000000002,989.9055,0,0.0,0
11.24,0.062224835,-0.15469912,9.752326,-0.0013488620000000002,0.000575,-0.000927,-8.386788000000001,23.256667999999998,-36.364204,0.31013379,-0.24170768,0.047582625999999996,989.9331699999999,0,0.0,0
11.28,0.07180980000000001,-0.15708306,9.768899000000001,-1.75e-05,0.000175,0.000138,-8.668154,23.098696,-36.542557,0.297573,-0.25388592,0.04304123,989.9131,0,0.0,0
11.32,0.05988568,-0.14516729,9.776003999999999,0.00024900000000000004,0.0012405139999999999,0.000671,-8.306108,22.963085,-35.743584000000006,0.315025,-0.24292818,0.03368759,989.9485,0,0.0,0
11.36,0.06230098,-0.14278463,9.776006,0.001180405,0.000308,-0.000661,-8.139472,23.330220999999998,-36.406616,0.30474547,-0.25626305,0.033751487999999996,989.9233,0,0.0,0
11.4,0.06471622,-0.15231833,9.773641,-0.000285,-0.000357,-0.000395,-8.517714999999999,23.08134,-36.256783,0.28338090000000005,-0.22557321,0.014974593999999999,989.92834,0,0.0,0
11.44,0.059961796,-0.14993569,9.7712755,0.000381,-0.0007570000000000001,-0.000927,-8.628155,23.083092,-35.93193,0.29209968,-0.23472631,0.029221535,989.91815,0,0.0,0
11.48,0.05759728,-0.16423604,9.771278,-0.000551,0.000708,4.72e-06,-8.488094,23.267256,-36.50318,0.2949077,-0.22854796,0.01987648,989.93353,0,0.0,0
11.52,0.055232704,-0.14517036,9.780749,0.001179183,0.000309,-0.000262,-8.293252,22.712495999999998,-36.962646,0.30647182,-0.23105943,0.024796486,989.91077,0,0.0,0
11.56,0.06242782,-0.1547041,9.792588,-0.000153,0.000575,-0.000262,-8.358147,23.07282,-36.43484,0.2712389,-0.24404016,0.005970001,989.93616,0,0.0,0
11.6,0.060063273,-0.1499382,9.771285,-0.000153,0.000575,-0.000262,-8.358147,23.07282,-36.43484,0.29443994,-0.24321935,0.034431458,989.93616,0,0.0,0
11.64,0.05291897,-0.1547054,9.766553,-0.000286,-0.0008900000000000001,0.00067,-8.109063,22.14742,-36.88098,0.29234448,-0.23652491,0.02984333,989.9334,0,0.0,0
11.68,0.052944303,-0.15708926,9.780759,0.000246,0.000442,-0.001726965,-8.304449,23.070477,-36.519966,0.3001718,-0.2212938,0.029937744,989.9287,0,0.0,0
11.72,0.062529325,-0.14755675,9.778394,-0.00042,0.000309,0.00013700000000000002,-8.226675,22.879862,-36.44381,0.28908336,-0.22483248,0.030035972999999997,989.93604,0,0.0,0
11.76,0.07211426,-0.1499407,9.776029,-0.00082,-0.0008900000000000001,0.000537,-8.320074,23.529951,-36.54444,0.26881042,-0.21435666,0.006436348000000001,989.95166,0,0.0,0
11.8,0.04824066,-0.15232462,9.7736635,-0.00042,-0.0011558130000000001,-0.000529,-8.082188,22.962526,-36.547897,0.28665229999999997,-0.22730753,0.02073288,989.9363,0,0.0,0
11.84,0.050655900000000004,-0.15232518,9.766564,0.00011200000000000001,0.001107912,-0.000396,-8.134905999999999,23.334639000000003,-36.638535,0.28461325,-0.23554265,0.035053253,989.92346,0,0.0,0
11.88,0.0530712,-0.14994252,9.768934,0.00011200000000000001,4.270000000000001e-05,-0.00013000000000000002,-8.429427,22.795122,-36.022690000000004,0.29241446,-0.22015549999999998,0.04935646,989.92365,0,0.0,0
11.92,0.06504604,-0.16662613,9.785506,-0.000155,0.000575,-0.000263,-8.4791,23.17018,-36.267933,0.271766,-0.21911502,0.011569977,989.9061,0,0.0,0
11.96,0.06985125,-0.15471038,9.768939,0.00011100000000000001,-9.04e-05,0.00013700000000000002,-8.427469,23.53465,-36.3742,0.25115442,-0.21303597,0.021136283999999998,989.95685,0,0.0,0
12.0,0.05075738,-0.14279458,9.778410000000001,-0.000288,0.000309,-0.000796,-8.059197,23.510842999999998,-36.583527000000004,0.2781958,-0.2260637,0.007034301999999999,989.9616,0,0.0,0
12.04,0.048392862,-0.15471157,9.773677000000001,-0.00042199999999999996,0.000309,-0.00013000000000000002,-8.324639999999999,23.525534,-36.312527,0.28611532,-0.22030753,0.030797957999999997,989.9264,0,0.0,0
12.08,0.052580237,-0.1523138,9.768889,-0.00042199999999999996,0.000309,-0.00013000000000000002,-8.324639999999999,23.525534,-36.312527,0.26139745,-0.21970409,0.02611065,989.9264,0,0.0,0
12.12,0.06390023,-0.15229833,9.771199000000001,0.000377,-9.03e-05,-0.000663,-8.785522,22.83071,-36.4318,0.26979414,-0.2179364,0.03584194,989.9239,0,0.0,0
12.16,0.04475695,-0.14038134,9.778298,0.000122,-0.000492,0.00027400000000000005,-8.509563,22.720415,-36.544857,0.27786782,-0.22128373,0.021745682000000002,989.9441,0,0.0,0
12.2,0.049512625,-0.1451473,9.759358,0.000389,0.0005740000000000001,-0.001057013,-8.21518,23.154020000000003,-36.461624,0.2619165,-0.22456020000000004,0.021857262000000002,989.95416,0,0.0,0
12.24,0.05665821,-0.14991328,9.775928,0.000389,0.0005740000000000001,-0.001057013,-8.451981,22.984861,-36.26127,0.26050577,-0.22823921,0.02194786,989.95416,0,0.0,0
12.28,0.056634128,-0.15229598,9.761721000000001,8.59e-06,-0.00022999999999999998,0.000588,-8.728483,23.463444,-36.246666,0.268989,-0.21281007,0.045701027000000005,989.9368,0,0.0,0
12.32,0.06616962,-0.14276227,9.773555,8.82e-06,-0.00063,-7.79e-05,-8.642258,23.544043,-36.033714,0.25325176,-0.21646124,0.0315876,989.9419,0,0.0,0
12.36,0.05419606,-0.15229478,9.780654,0.00014199999999999998,-0.0004969999999999999,0.000322,-8.699297,22.911308,-36.218853,0.26152036,-0.20570469,-0.0014619829999999998,989.92926,0,0.0,0
12.4,0.047002256,-0.15706074,9.766448,-0.00079,-9.719999999999999e-05,-7.77e-05,-8.5376625,22.535970000000002,-36.375766999999996,0.25988049999999996,-0.20917577,0.03651619,989.92664,0,0.0,0
12.44,0.05175793,-0.1522936,9.775915,0.000276,0.000302,-0.00021099999999999998,-8.139472,23.330220999999998,-36.406616,0.26346743,-0.20771018,0.027143478,989.92676,0,0.0,0
12.48,0.056513667000000004,-0.14514318,9.773545,0.000942,-0.00022999999999999998,-0.00021099999999999998,-8.585517,23.544641,-36.273445,0.27186698,-0.2159042,0.041436195,989.92426,0,0.0,0
12.52,0.058879435,-0.15705898,9.783013,0.0008089999999999999,-0.0004969999999999999,0.0009880000000000002,-8.396761999999999,22.983984,-36.423695,0.2466223,-0.21007717,0.027317047,989.92426,0,0.0,0
12.56,0.058855355,-0.14990851,9.771174,1.0199999999999999e-05,3.5799999999999996e-05,5.59e-05,-8.605027,23.737326,-36.666637,0.24491626,-0.20405692,0.022686005,989.9343,0,0.0,0
12.6,0.06600094,-0.15944105,9.780641000000001,1.04e-05,0.000302,-0.00021,-7.9036508,23.129618,-36.43122,0.2293837,-0.18841192,-0.0008960000000000001,989.95715,0,0.0,0
12.64,0.05402735,-0.1427575,9.775905,0.000543,-0.000763,0.000322,-8.03015,22.852789,-35.856636,0.25671366,-0.22494638,0.03234768,989.9167,0,0.0,0
12.68,0.068342686,-0.13799036,9.775903,0.000544,0.000302,0.00018899999999999999,-8.597012,23.270481,-36.25563,0.25130558,-0.21909246,0.032408714,989.95715,0,0.0,0
12.72,0.06592864,-0.16182259,9.790103,0.00081,-0.0010295760000000001,5.629999999999999e-05,-8.414344999999999,22.703936,-36.096664000000004,0.24567512,-0.18461758,0.013541222,989.93695,0,0.0,0
12.76,0.05395502,-0.1475223,9.780633,0.000145,-0.0016954029999999998,-0.000343,-8.6031,23.26459,-35.94641,0.23965716,-0.21183214,0.008896828,989.94476,0,0.0,0
12.8,0.05393094,-0.14990497,9.771161,1.1599999999999999e-05,-9.75e-05,0.00045599999999999997,-8.371844,23.059565,-35.739098,0.24294657,-0.20585501,0.01845932,989.9472,0,0.0,0
12.84,0.056296766,-0.14752111,9.768792,1.18e-05,-0.0004969999999999999,0.000323,-8.242737,22.601284,-36.194084000000004,0.25093314,-0.19536710000000002,0.028014182999999998,989.9522,0,0.0,0
12.88,0.053882748,-0.14275393,9.771156,0.000545,0.001899711,0.0008560000000000001,-8.381244,23.63085,-36.771873,0.25375828,-0.19895259,0.037587166,989.9624,0,0.0,0
12.92,0.049078852,-0.1642029,9.771155,0.000545,0.001899711,0.0008560000000000001,-8.381244,23.63085,-36.771873,0.24345106,-0.19364452,0.032896996,989.9624,0,0.0,0
12.96,0.056224465,-0.15705252,9.768785000000001,0.000279,-0.0004969999999999999,-7.62e-05,-8.394803999999999,23.723509,-36.775208,0.22693056,-0.1871011,0.009357451999999999,989.9348,0,0.0,0
13.0,0.06098014,-0.15228537,9.764049,0.000412,0.000169,0.00059,-8.336869,21.881186,-36.44538,0.22583779999999998,-0.20044607,0.028365135,989.9398,0,0.0,0
13.04,0.05139646,-0.14990148,9.766414,0.0008119999999999999,0.00043499999999999995,-0.00020899999999999998,-8.360946,22.06945,-36.606654999999996,0.24813017,-0.19423363,0.04267025,989.9095,0,0.0,0
13.08,0.05975288,-0.15708044,9.768889,0.000275,3.6e-05,-0.00061,-8.632881,22.552454,-36.823963,0.25061396,-0.18364125,0.042629242000000005,989.92975,0,0.0,0
13.12,0.057387114,-0.13801476,9.783094,1.88e-06,0.00016999999999999999,0.000185,-8.663834,24.103544,-36.44805,0.23476663,-0.19665950000000001,0.009575844,989.95245,0,0.0,0
13.16,0.052631408,-0.15708163,9.771262,0.000667,0.000304,-8.1e-05,-8.532117999999999,22.910154000000002,-36.78344,0.22851157,-0.18585545,0.004924774,989.9248699999999,0,0.0,0
13.2,0.05265549,-0.14754903,9.768895,0.000268,0.00016999999999999999,0.00031800000000000003,-8.754081,23.650236,-36.330635,0.22672677,-0.1989961,0.019219398000000002,989.9425699999999,0,0.0,0
13.24,0.05267959999999999,-0.15231618,9.776,0.000534,0.001102568,-0.00021400000000000002,-8.777752,23.364294,-35.694379999999995,0.23488674,-0.19315058,0.04296589,989.96277,0,0.0,0
13.28,0.059873402,-0.13563383,9.768901,-0.000532,-0.000628,0.00045099999999999996,-8.202164,23.429647,-36.556744,0.23910340000000002,-0.192411,0.05247307,989.9575,0,0.0,0
13.32,0.055117726,-0.15231737,9.768903,0.000134,-0.0018268310000000001,-0.000481,-8.369641,22.798666,-36.41703,0.23347771,-0.18196699,0.019386292,989.9273699999999,0,0.0,0
13.36,0.055141807,-0.14516813,9.766538,-0.000532,0.000171,-0.000348,-8.204527,23.164328,-37.002759999999995,0.22212955,-0.18075371,0.02894497,989.9501300000001,0,0.0,0
13.4,0.045606315,-0.15708512,9.778376,0.000133,-0.000229,-0.0008810000000000001,-8.343064,22.981638,-36.508815999999996,0.24508643,-0.1699265,0.014810562,989.96783,0,0.0,0
13.44,0.055189997000000005,-0.15470245,9.766541499999999,-0.000266,-0.0007610000000000001,0.00045099999999999996,-8.507062,23.09165,-36.79792,0.24408987,-0.17413900000000002,0.043260574,990.0007,0,0.0,0
13.48,0.06238383,-0.15470305,9.768911,0.000532,-0.000362,-0.000348,-8.119962,23.137537,-36.013428000000005,0.22382593,-0.17791718,0.04332447,989.9805,0,0.0,0
13.52,0.07196748,-0.14517048,9.771281,0.000532,-0.000362,-0.000348,-8.477578,23.171651999999998,-36.345238,0.21373188,-0.19617089999999998,0.038630486,989.9805,0,0.0,0
13.56,0.048092604000000004,-0.14993766,9.768915,0.000133,3.76e-05,-0.000614,-8.730845,23.198122,-36.692679999999996,0.22156220000000004,-0.1761573,0.015036583000000001,989.9402,0,0.0,0
13.6,0.05289653,-0.15232155,9.773652,-0.001199093,-0.000628,0.000184,-8.487009,22.530676,-36.306274,0.22041526,-0.17041975,0.024565697,989.96783,0,0.0,0
13.64,0.048140824000000006,-0.15470538,9.749983,-0.0004,-0.000628,5.11e-05,-8.583314,23.283737,-36.951378000000005,0.23837951,-0.17401433,0.05777645,989.93256,0,0.0,0
13.68,0.055334628,-0.14278957,9.766555,0.000531,-0.000229,-8.22e-05,-8.395782,23.353745999999997,-36.59945,0.22260219,-0.18740761,0.03890705,989.9882,0,0.0,0
13.72,0.052968799999999996,-0.14517346,9.773658,0.000132,0.00057,0.000317,-8.445594999999999,23.622889,-36.14562,0.2163119,-0.16752481,0.020035743999999998,989.95557,0,0.0,0
13.76,0.06255251,-0.14755735,9.778396,-1.6e-06,0.000304,-0.000349,-8.525869,23.442266,-35.968709999999994,0.20548856,-0.17612591,0.001161575,989.9680000000001,0,0.0,0
13.8,0.055406928,-0.15232447,9.7641945,-0.000537,3.21e-05,-0.000512,-8.405755000000001,23.081062,-36.658943,0.21868649,-0.17522928,0.034360886,989.93787,0,0.0,0
13.84,0.05782091599999999,-0.15470836,9.764197,-0.000404,3.21e-05,0.000553,-8.173521000000001,23.2458,-36.627388,0.21728963,-0.16943482,0.048633575,989.9982,0,0.0,0
13.88,0.060234904000000006,-0.15947554,9.776036,0.000395,0.000165,0.000153,-8.575842,23.185185999999998,-36.638824,0.21151570000000003,-0.16408405,0.025003433,989.9808300000001,0,0.0,0
13.92,0.057869135999999995,-0.16185936,9.771302,-0.000404,-0.000234,0.000153,-8.562664,23.987038000000002,-35.609992999999996,0.20541489,-0.14884898,0.029803276,989.95795,0,0.0,0
13.96,0.045943707,-0.14517704,9.759469000000001,-0.000272,0.000299,0.000153,-8.50967,23.82676,-36.91752,0.20876348,-0.17658210000000002,0.034602165,989.948,0,0.0,0
14.0,0.041188,-0.14517763,9.776042,-0.000938,0.000299,-0.00037999999999999997,-8.446574,23.253126,-35.96986,0.22621375,-0.17588317,0.03466797,989.9558,0,0.0,0
14.04,0.055363,-0.14994013,9.773660000000001,-0.000139,0.000964,0.000685,-8.349695,23.344034,-36.29805,0.19690868,-0.16618165,0.020484923999999998,989.92804,0,0.0,0
14.08,0.05040741,-0.14993587,9.7807455,-0.000405,0.00043200000000000004,-0.00011399999999999999,-8.010365,22.871939,-36.861603,0.23329642,-0.16460654,0.020627975,989.953,0,0.0,0
14.12,0.059975892,-0.14993599,9.771277,0.000398,0.0008289999999999999,0.000285,-8.125368,22.869272,-36.304832,0.1986433,-0.16414845,0.020674706,989.9254,0,0.0,0
14.16,0.045645356,-0.15708607,9.766542999999999,-0.001065997,0.00016299999999999998,0.000685,-8.343745,23.24401,-35.908188,0.19720626,-0.15860504,0.011266708,989.9381,0,0.0,0
14.2,0.062383533,-0.15231976,9.764175999999999,-0.000134,0.00043,-0.000248,-8.4417095,23.889679,-35.776905,0.19125456,-0.16696393,0.044475555,989.97845,0,0.0,0
14.24,0.062392443,-0.16661969,9.780749,-0.000134,0.00043,-0.000248,-8.4417095,23.889679,-35.776905,0.18090868,-0.15717936,0.006627083000000001,989.97845,0,0.0,0
14.28,0.05762148,-0.14517036,9.776014,0.000798,0.000696,0.000285,-8.059633,22.772793,-36.30932,0.19420427,-0.17051071,0.016155243,989.9483,0,0.0,0
14.32,0.060020267999999995,-0.15947029,9.768914,0.000132,-0.0006360000000000001,1.86e-05,-8.130914,22.495089,-35.897163,0.19814923,-0.15511063,0.044617653,989.9558,0,0.0,0
14.36,0.050469577,-0.1499373,9.76418,-0.000933,0.000296,1.85e-05,-8.525869,23.442266,-35.968709999999994,0.20095408,-0.15418455,0.011554718,989.9357,0,0.0,0
14.4,0.05047846,-0.14993754,9.766548,0.000265,0.00043,-0.000381,-8.37475,23.162537,-36.283566,0.1992754,-0.14840972,0.035302162000000005,989.9409,0,0.0,0
14.44,0.07199645,-0.14278793,9.778386,-0.000401,0.000962,-0.00011499999999999999,-8.219066,22.887224,-36.830338,0.19347003,-0.16685855,0.040081024,989.99396,0,0.0,0
14.48,0.06961542,-0.14993802,9.76655,-0.000401,0.00043,-0.0005139999999999999,-8.400647,22.717192,-36.792408,0.19217281,-0.16591543,0.044878006,989.9484,0,0.0,0
14.52,0.069624305,-0.14755496,9.776019999999999,0.0009310000000000001,0.001228623,-0.000248,-8.58954,23.17193,-35.943077,0.17171095,-0.16009226,0.00706768,989.9639,0,0.0,0
14.56,0.062463492,-0.1499385,9.773653999999999,-0.000401,0.000563,0.00041799999999999997,-8.455568,23.350204,-36.20511,0.17510806,-0.16393167,0.026067734,989.9711,0,0.0,0
14.6,0.062472343,-0.14040548,9.766551,-0.000401,-0.000103,0.000151,-8.108903,22.673643,-35.757034000000004,0.18855143,-0.16321817,0.035582542,989.9611,0,0.0,0
14.64,0.06726104,-0.15947196,9.783123,-1.85e-06,-0.000103,1.82e-05,-8.077760000000001,22.861032,-36.080738000000004,0.1872647,-0.14831302,0.03563118,989.9561,0,0.0,0
14.68,0.08160934,-0.1475558,9.771288,-0.000535,0.002293942,0.000285,-8.658862,23.633757,-35.88244,0.16646929,-0.1474894,0.026228905,989.9842,0,0.0,0
14.72,0.0672788,-0.14278945,9.766555,-0.000268,0.001095534,0.00028399999999999996,-8.413364999999999,23.073698,-36.272420000000004,0.16483176,-0.16581169,0.021557807999999998,989.9889,0,0.0,0
14.76,0.06728768,-0.15232283,9.768924,-0.000135,0.000962,1.8100000000000003e-05,-8.685300999999999,23.5567,-36.48973,0.16860902,-0.15533435,0.026344299999999998,989.9661,0,0.0,0
14.8,0.067296565,-0.14517322,9.761822,-0.000135,0.000962,1.8100000000000003e-05,-8.346651,23.34698,-36.452656,0.16823232,-0.15492734,0.031100272999999998,989.9661,0,0.0,0
14.84,0.07208526,-0.15232325,9.773660000000001,0.000131,-0.00036899999999999997,0.00041799999999999997,-8.594947,22.903666,-36.23449,0.17169525,-0.15828878,0.031173706000000002,989.9661,0,0.0,0
14.88,0.07209414,-0.15470669,9.776027000000001,-2.27e-06,-0.000236,0.000817,-8.572499,23.820269,-36.368565000000004,0.16102064,-0.15286613,0.026485442999999997,989.95636,0,0.0,0
14.92,0.06732321,-0.14755711,9.764192,0.000264,0.00016299999999999998,1.8e-05,-8.395782,23.353745999999997,-36.599453000000004,0.17951414,-0.15711766,0.045454025,989.93353,0,0.0,0
14.96,0.057772458,-0.14755735,9.752357,-0.000136,0.000696,0.000417,-8.336433,22.619238,-36.719584999999995,0.16857009,-0.16558331,0.04078293,989.93353,0,0.0,0
15.0,0.06256115400000001,-0.16185728,9.7499895,-0.00040199999999999996,-0.001168067,0.000151,-8.556331,22.992501999999998,-36.245636,0.16311418,-0.14164248,0.040802002000000004,989.95886,0,0.0,0
15.04,0.0684244,-0.1523507,9.773762,-0.000802,0.001894579,1.7899999999999998e-05,-8.60807,23.734377,-36.512024,0.18392254,-0.15042254,0.045505524000000006,989.98926,0,0.0,0
15.08,0.06847638,-0.14996871,9.771399,-0.0008029999999999999,0.0010958539999999998,0.000417,-8.402849,22.978092,-36.114475,0.15878372,-0.13560894,0.026607513,989.97156,0,0.0,0
15.12,0.07569811,-0.14996997,9.776138000000001,-0.00040899999999999997,0.000294,-0.000524,-8.689324000000001,23.183992,-36.159363,0.14854456,-0.14458835,0.0076961519999999995,990.0044,0,0.0,0
15.16,0.059020817,-0.15473777,9.769041,-0.001074836,-0.000504,0.000408,-8.308472,22.697767000000002,-36.189598,0.17141914,-0.12933522,0.036150932000000004,989.9667,0,0.0,0
15.2,0.06146267,-0.14758924,9.764312,-1.01e-05,-0.00023799999999999998,-0.000125,-8.643642,23.648485,-36.655487,0.1703041,-0.15710872,0.040929794,989.9791,0,0.0,0
15.24,0.06629449,-0.14997384,9.771417999999999,-1.06e-05,0.0008269999999999999,-0.000392,-8.990338000000001,23.112787,-36.031826,0.16475979999999998,-0.15157709,0.040964127,989.9666,0,0.0,0
15.28,0.07112628,-0.1475918,9.773789,-1.11e-05,-0.000904,0.000407,-8.493097,22.524784,-35.99706,0.16400594,-0.14601818,0.022062302000000002,989.9893,0,0.0,0
15.32,0.059228777999999996,-0.15950945,9.754857000000001,7.31e-05,-0.000207,0.00018600000000000002,-8.023924000000001,22.964598000000002,-36.864937,0.16765065,-0.12125671,0.03631401,989.9719,0,0.0,0
15.36,0.06645048,-0.14997762,9.769065,0.000472,0.000193,0.000985,-8.571817999999999,23.557894,-36.969193,0.15769686,-0.14887032,0.031612396,989.99176,0,0.0,0
15.4,0.059332788,-0.14521238,9.780906,-0.000327,-0.000739,5.28e-05,-8.282438,23.249026999999998,-36.379837,0.17144774,-0.14817685,0.02690506,989.9491,0,0.0,0
15.44,0.07850399599999999,-0.15713,9.773808500000001,0.000205,-0.001404945,-8.06e-05,-8.664024000000001,22.365064999999998,-36.500267,0.1614526,-0.13326433,0.041130066,989.98425,0,0.0,0
15.48,0.06899637,-0.14759815,9.783282,-6.21e-05,-0.000872,0.000718,-8.515215,23.452576,-36.509842,0.14626670000000003,-0.14217883,0.01749134,990.0023,0,0.0,0
15.52,0.059488772999999995,-0.15713257,9.761983,7.06e-05,-0.000872,-8.1e-05,-8.467606,23.444336,-36.285748,0.15476796,-0.12716416,0.02699852,989.9870599999999,0,0.0,0
15.56,0.06671047,-0.15236729999999998,9.771456,-0.000995,0.000193,-0.00021400000000000002,-8.686525,24.187365,-35.98755,0.16830406,-0.13629988,0.03649521,989.98456,0,0.0,0
15.6,0.06676248,-0.14998528,9.761992,6.96e-05,0.000992,5.17e-05,-8.199119,23.432592,-36.711353,0.143476,-0.13127744,0.027048111,989.99475,1,1.0,1
15.64,0.073984176,-0.14760324,9.773831,-0.0009960000000000001,0.000327,-0.0007469999999999999,-7.891314,23.667618,-35.925713,0.14248152,-0.14953613,0.02235508,989.982,1,1.0,1
15.68,0.06686646,-0.14760455,9.78094,-6.459999999999998e-05,0.000193,-0.000614,-7.314914999999999,22.78456,-35.193016,0.15566960000000002,-0.14840561,0.027141571,989.9493,1,1.0,1
15.72,0.06930837,-0.14998913,9.762006,0.000601,0.000593,-0.000348,-8.2735815,23.046032,-35.44551,0.14997484,-0.1426307,0.06032657599999999,989.9897,1,1.0,1
15.76,0.0765301,-0.16429004,9.783317,0.00020099999999999998,-7.269999999999999e-05,-0.000349,-8.119525999999999,23.87559,-36.287636,0.15377377,-0.12789977,0.02721405,989.98456,1,1.0,1
15.8,0.06941238,-0.14760839999999997,9.759648,0.000866,0.00045999999999999996,0.00045,-8.320755,23.792326,-35.943816999999996,0.14287522,-0.1406515,0.050951958,989.97455,1,1.0,1
15.84,0.07902399,-0.15237620000000002,9.764388,0.000866,0.00045999999999999996,0.00045,-8.320755,23.792326,-35.943816999999996,0.13282742,-0.13084033,0.032030106,989.97455,1,1.0,1
15.88,0.07429618,-0.16191062,9.771494,-0.00020099999999999998,0.000327,0.000183,-8.723075999999999,23.731707,-35.955254,0.14099997,-0.11100626,0.027339935,989.9619,1,1.0,1
15.92,0.06717849,-0.15714532,9.759663,-0.001133369,-0.000205,0.000183,-8.332685000000001,22.780115,-35.651794,0.14008577,-0.12490079,0.022631645,989.98474,1,1.0,1
15.96,0.06723046,-0.16429648,9.769135,0.000198,-0.001004332,0.000582,-7.9468317,23.036358,-36.188156,0.14889535,-0.11458063,0.046337128,989.9747,1,1.0,1
16.0,0.06728250000000001,-0.14523146,9.776242,0.000198,-0.001004332,0.000582,-7.9468317,23.036358,-36.188156,0.12972368,-0.13341215,0.022669792,989.9747,1,1.0,1
16.04,0.07070157,-0.15473118,9.776117999999999,-6.91e-05,-0.000338,-0.000616,-7.960391,23.129017,-36.19149,0.1354133,-0.13286525,0.018083572,989.9543,1,1.0,1
16.08,0.061138153,-0.15473112,9.773749,-0.000188,0.000192,-8.170000000000001e-05,-8.322713,23.052797,-35.5923,0.14854053,-0.11768839,0.022871017,989.98975,1,1.0,1
16.12,0.07069397,-0.13804805,9.766648,-0.000188,0.000192,-8.170000000000001e-05,-8.322713,23.052797,-35.5923,0.15296526,-0.14110374,0.037094116,989.98975,1,1.0,1
16.16,0.058740675,-0.15473095,9.752444,0.001010571,-0.000341,0.00031800000000000003,-8.356762,22.968378,-35.813072,0.15162946,-0.1251978,0.046637535,989.99005,1,1.0,1
16.2,0.06829643,-0.15949741,9.778483,0.001010571,-0.000341,0.00031800000000000003,-8.345129,23.348454,-36.529959999999996,0.14174297,-0.115427405,0.01350975,989.99005,1,1.0,1
16.24,0.07785225,-0.14996415,9.773749,0.000611,0.000458,5.15e-05,-8.426926,23.166357,-36.275745,0.12657431,-0.11927906,0.023023605,989.985,1,1.0,1
16.28,0.0682888,-0.14996412,9.776116,0.000611,0.000325,0.00031800000000000003,-8.498206,22.888657000000002,-35.863594,0.13457555,-0.123138934,0.013613701,989.9875,1,1.0,1
16.32,0.058725417,-0.15949711,9.773748,-0.0008539999999999999,0.000724,0.000717,-8.716445,23.369310000000002,-36.166022999999996,0.13350427,-0.12251383,0.008919716,989.9446,1,1.0,1
16.36,0.056331694,-0.14996395,9.77138,0.000212,0.000724,0.000584,-8.653753,23.269884,-36.0159,0.14749742,-0.12695992,0.02787304,989.9748,1,1.0,1
16.4,0.05632791,-0.14519724,9.761911,-0.000321,-0.000341,-8.159999999999999e-05,-8.201215,22.587152,-35.660767,0.16491957,-0.11684510000000001,0.05159855,989.9977,1,1.0,1
16.44,0.068273604,-0.15711352,9.780849,-0.0008529999999999999,0.000858,-0.000348,-8.4104595,22.970726000000003,-35.72795,0.13570774,-0.13078386,0.027947426,989.9827,1,1.0,1
16.48,0.07065969999999999,-0.14043048,9.776114,0.000212,-0.00047400000000000003,0.001383176,-8.69321,22.9172,-36.528076,0.120396376,-0.13100395,0.013759613,989.9774,1,1.0,1
16.52,0.0658761,-0.15234679,9.750074,-0.002051768,0.000724,-8.149999999999999e-05,-8.270399000000001,23.154892,-36.299194,0.11890137,-0.12966564,0.037366867000000005,989.9698,1,1.0,1
16.56,0.07543188,-0.045099214000000006,9.78795,-0.00471489,0.00165651,-8.149999999999999e-05,-8.225833999999999,23.143704999999997,-35.92049,0.14307515,-0.31597838,0.032099723999999996,989.9446,1,1.0,1
16.6,0.08020788400000001,-0.009349883,10.169068,-0.024555387,-0.005400866999999999,0.02295481,-8.599757,23.899672,-35.67615,0.076242775,-0.31099135,-0.6029071999999999,989.9648,1,1.0,1
16.64,0.08976369999999999,-0.5193715,9.705097,-0.0614401,-0.021512983,-0.034702566000000004,-8.552446,23.259295,-35.876923,0.08379102,0.20206055,-0.1863985,989.8964,1,1.0,1
16.68,-0.13728079,-0.21431166,10.112255000000001,-0.090867974,0.14653234,-0.09076204,-8.524347,23.443739,-36.046013,0.28602695,-0.39837918,0.016716003,989.9395,1,1.0,1
16.72,-0.22810088,-0.2929598,9.447071000000001,-0.07395688,0.22882392,0.015098536000000001,-7.869600999999999,23.214032999999997,-36.21045,0.042095993,0.030961096,0.08240700000000001,989.9597,1,1.0,1
16.76,-0.2830724,-0.28819314,10.012832000000001,-0.19060318,0.28461709999999996,-0.043224625,-7.9113674,24.228594,-36.41735,0.15834454,-0.29364124,-0.30721378,989.9597,1,1.0,1
16.8,-0.14924172,-0.35015824,9.738236,-0.30844793,0.07023281,-0.07797883,-7.413285000000001,23.904438,-35.85926,-0.103446946,-0.029447078999999998,0.12897778,989.9395,1,1.0,1
16.84,-0.44798326,-0.8053644,9.047013,-0.26397315,0.20658654,-0.12924464,-7.458095599999999,24.916052,-35.91155,0.43971932,-0.1559419,0.7100791999999999,989.9473,1,1.0,1
16.88,-0.056043163,-0.81728065,10.888697,-0.39007366,0.0752928,-0.0947567,-7.7559047,25.374014000000003,-34.814674,0.17569213,-0.4043007,-0.8094186999999999,989.9649699999999,1,1.0,1
16.92,-0.027368128,-1.231971,9.5133505,-0.38128520000000005,0.37423232,-0.012198747,-7.865066000000001,26.377665000000004,-34.240707,0.10994480599999999,-0.15466368,0.43166542,989.9953,1,1.0,1
16.96,-0.53881097,-1.4154835,9.991525,-0.38128520000000005,0.37423232,-0.012198747,-7.865066000000001,26.377665000000004,-34.240707,0.38547477,-0.28045952,-0.546546,989.9953,1,1.0,1
17.0,-0.5433413,-1.8683124,8.362913,-0.35718358,0.44174343,-0.09688718,-7.716692999999999,26.727125,-33.976085999999995,-0.057565242,0.50019455,0.82995033,989.9826,1,1.0,1
17.04,-0.8179153,-1.1199695,10.166745,-0.8834280000000001,-0.6151304,0.02561632,-7.643294,28.270575,-33.6158,0.7936393,-1.3964798,-2.0334005,990.0131,1,1.0,1
17.08,0.23604786,-2.5308707000000004,9.087302000000001,-0.8287008,-0.30900022,-0.37132782,-8.718028,29.686262,-31.685398,-0.56030685,0.42550659999999996,0.97234917,990.0079300000001,1,1.0,1
17.12,0.25040376,-2.4498396000000002,9.984474,-0.8287008,-0.30900022,-0.37132782,-8.718028,29.686262,-31.685398,-0.2522502,0.15088296,0.73886585,990.0079300000001,1,1.0,1
17.16,-0.36139467,-2.9121962000000003,9.222236,-0.62417054,-0.19981067,0.16676326,-9.788738,31.474653000000004,-30.085365000000003,0.49649215,0.41043687,0.19925976,989.99286,1,1.0,1
17.2,-0.15106678,-3.1028585,9.115714,-0.62417054,-0.19981067,0.16676326,-9.788738,31.474653000000004,-30.085365000000003,0.42249236,0.12157822,0.10622883,989.99286,1,1.0,1
17.24,0.08316004,-3.0742597999999997,9.492101,-0.48781709999999995,-0.47038755,-0.45761448,-10.707244000000001,32.246735,-28.603286999999998,0.40133664,-0.2649343,-0.44866467,989.9804,1,1.0,1
17.28,0.7642986999999999,-3.3864693999999997,9.60336,-0.72936577,-0.47398278,-0.6436361999999999,-12.038885,32.421673,-27.715465999999996,-0.21847123,-0.20571733,-0.4824667,989.96265,1,1.0,1
17.32,0.84318185,-3.6986794,9.163063000000001,-1.2316377,0.6699771,-0.58637834,-12.708553,33.26878,-26.353107,-0.25494003,-0.31418657,-0.13780403,989.955,1,1.0,1
17.36,-0.09125331,-4.1419697,8.436334,-1.2919585,1.0342972,-0.22631933,-12.217783,33.569396999999995,-24.983620000000002,0.27985212,-0.02617836,-0.19947243,989.9449,1,1.0,1
17.4,0.22662008,-4.7115735999999995,8.564163,-0.9099284,0.07649221,-0.13550568,-11.780678,35.08462,-24.600748,0.0029612329999999997,-0.099261284,0.14693165,989.9449,1,1.0,1
17.44,0.016325235,-4.654375,8.275367,-0.8187154000000001,0.0228296,-0.037501488,-12.183519,35.812607,-22.887611,0.09808433,-0.26496172,0.16696072,990.0159,1,1.0,1
17.48,-0.22025858,-4.7187243,8.102561,-0.8187154000000001,0.0228296,-0.037501488,-12.14072,36.80037,-22.105179,0.49560514,-0.48782444,0.289649,990.0159,1,1.0,1
17.52,-0.5667779000000001,-4.8950872,8.209088000000001,-0.46944225,-0.08143304,0.13427219,-11.638616,36.848923,-21.877454999999998,0.7322879,-0.15275478,0.05537224,990.0056,1,1.0,1
17.56,0.7190058000000001,-5.2907124,8.386628,0.078369334,-0.23136885,0.35784432,-12.053516,37.250732,-22.067984,-0.5304519,-0.03155136,-0.27906227,990.0132,1,1.0,1
17.6,-0.8248542999999999,-3.8678951,8.620984,0.33483140000000006,-0.19927776,0.079011515,-11.786552,37.237514000000004,-22.416286,1.3408011999999998,-1.5266821000000002,-0.18184757,990.0613,1,1.0,1
17.64,0.17892095,-4.532830000000001,8.739345,0.22590801,-0.10713246,0.29579258,-11.731195,37.342556,-23.277792,-0.052568792999999996,0.28979826,-0.40937233,990.0766,1,1.0,1
17.68,0.045102954,-5.9246655,10.053144,0.6405616999999999,-0.5253815,0.22588459,-12.381971,36.312405,-24.195010999999997,0.8301014999999999,2.1827526,-1.8185177,990.10425,1,1.0,1
17.72,-0.8869423000000001,-5.145334,9.927684,1.0922333,-0.6548109999999999,-0.27798516,-13.053375,34.999256,-24.630589,1.5808026000000002,0.31878138,-0.73229885,990.0437,1,1.0,1
17.76,-0.2775008,-3.0528154,11.101817,0.6381646,0.08288401,0.31802973,-12.567056,34.981068,-25.551289999999998,0.47763816,-0.9059439,-2.0217772000000003,990.07153,1,1.0,1
17.8,0.29370219999999997,-3.9846778,10.06025,0.5460191,-0.33043823,0.8490635,-12.315036,35.16496,-26.524697999999997,0.102014095,-0.3566227,-0.9642533999999999,990.0005,1,1.0,1
17.84,-0.4662701,-4.9213066,10.550263000000001,0.7086047,0.24214096,0.37022752,-11.670124000000001,34.768485999999996,-27.447703999999998,0.65179086,1.0267599,-1.0187511,990.0260000000001,1,1.0,1
17.88,-0.89165616,-2.7858896,9.532368,0.56972086,0.56491584,0.551988,-9.8120575,33.45341,-28.27295,0.41866776,-0.4006598,-0.25964928,990.0537,1,1.0,1
17.92,-0.8844700000000001,-2.6834092000000003,9.821168,0.65227866,0.5854222,1.0752986999999998,-8.70602,32.751335,-29.403103,0.34666067,0.03229475,-0.66969204,989.9879,1,1.0,1
17.96,-0.5498673000000001,-1.7801468,8.57602,0.79169476,0.39367476,0.98421854,-7.2698913,32.67467,-31.005638,-0.32843715,-0.9477769,0.604826,989.9703400000001,1,1.0,1
18.0,-0.48054358,-1.3535403999999998,10.424808,0.7327057,0.39633793,0.7965989,-6.613921,31.814306,-31.672249,-0.1389519,-0.61019087,-1.3709478000000002,989.9222,1,1.0,1
18.04,-0.7314668000000001,-2.3902669999999997,12.287797,0.7861019,-0.52125335,0.44026825,-6.8677845,30.576502,-32.869434000000005,0.57750976,1.3822092,-2.9521064999999997,989.9424,1,1.0,1
18.08,-0.31070432,-2.5499501,11.371702,1.3714641,-0.7699924,0.23800127,-7.93308,29.053648,-35.00268,-0.34649587,1.3631813999999998,-0.56741524,989.9931,1,1.0,1
18.12,-1.5056341999999998,0.012073755,9.174941,2.2457786,0.3509312,0.4814138,-7.0867496,26.107456,-37.34722,0.7059294,-0.16170727,0.7428789000000001,989.99054,1,1.0,1
18.16,-1.2475038,0.14315361,9.617608,0.99782246,0.30139646,0.10843482,-5.385912,20.274442999999998,-40.501343,0.48580134,0.10198924,-0.12647247,989.9095,1,1.0,1
18.2,-1.4386749,-0.42883375,9.908777,0.99782246,0.30139646,0.10843482,-5.385912,20.274442999999998,-40.501343,0.6574899000000001,0.96659064,-0.6060257,989.9095,1,1.0,1
18.24,-1.2928698,0.040671527,8.919288,1.1050146,-0.30034426,-0.019796371,-6.241259599999999,18.525942,-41.345,0.71912366,1.0713745000000001,1.1273575,989.95245,1,1.0,1
18.28,-0.64996517,0.46012807,9.428239,0.42950386,-0.26998416,0.53840154,-6.6028156000000005,16.6607,-42.796818,0.009648681,0.45485795,0.6576128000000001,989.93744,1,1.0,1
18.32,-0.17674360000000003,1.0368809,9.032917999999999,0.5593326,-0.52524793,0.8432,-7.4759917,15.632578,-42.987021999999996,-0.061422914,1.034154,0.42075157,989.9501,1,1.0,1
18.36,-0.42049256,-0.030828357,8.209133,1.0833089,-0.5916937,0.7491904,-7.835184599999999,14.032656,-43.99282,0.53076553,2.0362394,1.8808541,989.9123,1,1.0,1
18.4,-0.5232372999999999,1.6803651000000002,8.921662,1.0833089,-0.5916937,0.7491904,-7.835184599999999,14.032656,-43.99282,0.97328675,0.7211350000000001,0.64923954,989.9123,1,1.0,1
18.44,0.10771784,2.5550275,8.017394,0.43682669999999996,-0.89143217,1.0093807,-9.441317,12.686796000000001,-43.82054,0.7527275999999999,-0.44911146,1.8043036,989.97284,1,1.0,1
18.48,0.76496184,1.8257439999999998,9.674437,0.51965076,-1.3006263999999998,0.46582997,-11.126307,12.268133,-43.921314,0.19417739,1.2886169,-0.6233920999999999,989.9653300000001,1,1.0,1
18.52,0.93705595,1.9997227,9.920629,0.24747573,-0.35227558,0.35371095,-12.346423,11.704737,-43.161446000000005,0.59654784,0.42654443,-0.47348690000000004,989.9931,1,1.0,1
18.56,0.51645416,2.350064,8.507411,0.644153,-0.16372392,0.25397557,-12.665861,11.08964,-43.230194,0.79934734,0.5684378000000001,0.878994,989.9501,1,1.0,1
18.6,1.8524302,2.886301,8.845922999999999,0.644153,-0.16372392,0.25397557,-12.665861,11.08964,-43.230194,-0.09327793,0.31551623,0.44693565,989.9501,1,1.0,1
18.64,1.6947178,2.9411162999999996,8.540556,0.48795834,-0.37704283,0.26116595,-13.603144,9.053123,-43.120567,0.2321558,0.3366866,0.664196,989.9325,1,1.0,1
18.68,1.6636702,3.0459797,8.519252999999999,0.48795834,-0.37704283,0.26116595,-13.603144,9.053123,-43.120567,0.11863196,0.08599496,0.69937134,989.9325,1,1.0,1
18.72,1.6875901999999998,2.6765714,8.79385,0.16651489,-0.12098012,0.21882161,-14.234516000000001,8.936630000000001,-44.017254,0.54070926,0.82095385,0.31695938,989.94006,1,1.0,1
18.76,2.0580458999999998,3.2795400000000003,8.036346,0.15413077,-0.20753272,0.53440577,-14.684285999999998,9.410478999999999,-43.128845,0.33988607,0.078145504,1.5844264,989.9195599999999,1,1.0,1
18.8,2.0700168999999997,2.9291978,6.987678,0.15413077,-0.20753272,0.53440577,-14.651917999999998,8.967201,-43.954723,0.43314874,0.1954534,2.1221509999999997,989.9195599999999,1,1.0,1
18.84,3.23631,2.7075524,7.726247,0.09620688,-0.40034539,0.61270255,-16.193348,9.894007,-43.232535999999996,-0.35977507,0.2791338,0.91487265,989.9323,1,1.0,1
18.88,3.8672647000000007,2.7385345,8.784389,-0.040945999999999996,-1.0878398,0.84892464,-18.307479999999998,10.232185000000001,-42.92654,-0.29942775,0.11015319999999999,0.0014486310000000001,989.9222,1,1.0,1
18.92,4.6798525,2.91013,8.026886,0.116313316,-1.6722699,0.9947325,-20.510181,10.644747,-41.45649,-0.58631945,-0.20424389999999998,0.5195675000000001,989.9652,1,1.0,1
18.96,4.789808799999999,2.6003032000000004,7.191264599999999,0.31871320000000003,-1.4156743999999999,0.97808766,-22.647385,11.961252,-39.664505,0.23683167,0.43157053,0.94393635,989.9577,1,1.0,1
19.0,4.7802706,2.1045808999999998,6.748599499999999,0.22909768,-1.2396398000000002,0.9614429,-24.072723,12.154144,-39.302184999999994,0.69856024,0.61825204,0.923017,989.9326,1,1.0,1
19.04,5.9894943,2.409642,6.3627400000000005,0.34387967,-1.5861167,1.0802194999999999,-26.20374,12.370199000000001,-37.446754,0.15160418,0.14555955,0.7002392,989.9399,1,1.0,1
19.08,5.5688004,1.6875105,6.0620985,0.54335004,-1.8744035,1.2080511,-28.536385,12.977194,-36.045044,1.489851,1.0634219999999999,0.8876405,989.9451,1,1.0,1
19.12,6.192579,0.97252667,5.586292299999999,0.52710557,-1.6421762999999998,1.1630441,-30.127625,14.173141500000002,-34.86902,0.67051744,0.8952732,0.6738,989.9198,1,1.0,1
19.16,6.228441,0.96299314,5.2525177,0.1968744,-1.0003549999999999,1.3301575,-30.610302,15.4585495,-33.253184999999995,0.96922874,0.5429292,0.680614,989.89465,1,1.0,1
19.2,5.513875,-0.19051388,4.2038484,-0.044807382,-1.1787866000000002,1.5115185,-31.517967,17.979425,-32.260025,2.4497504,1.2552678999999998,1.6279926000000002,989.87445,1,1.0,1
19.24,6.1018042999999995,-0.6004381,3.7848550000000003,-0.15000229999999998,-1.0829129,1.5008658000000001,-31.475006,19.493412,-30.353645,2.2358112,1.0219916999999998,1.2035375,989.91455,1,1.0,1
19.28,6.742311999999999,-1.3916868999999998,4.064186,-0.11697925599999999,-1.6512308999999998,1.9769055,-32.282722,22.528446,-28.020252000000003,2.014779,0.9120238000000002,0.21635532,989.9022,1,1.0,1
19.32,8.035262,-2.0470889,2.6699052000000005,0.12163965,-2.2068992,2.0069993000000004,-32.773635999999996,25.701426,-24.665976999999998,1.6214104,1.3191568999999999,1.2436143999999998,989.89215,1,1.0,1
19.36,9.457269,-2.2949502,2.8072042,0.30632958,-2.2195492000000003,2.2888947,-32.047375,28.328512,-21.544302,-0.28251362,0.31116986,0.18011165,989.9022,1,1.0,1
19.4,10.678522000000001,-3.405558,2.442656,0.074368306,-2.1042342,2.5200567000000005,-30.716988,31.943448999999998,-19.728289,-1.0176287,0.66373706,0.28025627,989.9451,1,1.0,1
19.44,10.984444,-3.4675239999999996,2.800105,-0.32750250000000003,-1.2160708,2.326445,-28.598999,35.031273,-17.463910000000002,-1.8665933999999997,-0.13939786,-0.42293072,989.9552,1,1.0,1
19.48,10.673771,-5.0786204,2.1704307000000003,-0.47743845,-0.6689248000000001,1.9870254,-25.795261,37.97087,-14.988585999999998,-1.8102236,0.6545161999999999,0.04094386,989.9124,1,1.0,1
19.52,11.443332,-5.011889,3.0699687,-0.42590648,-0.029766652999999997,1.9253732,-22.735096,40.572556,-14.842541,-2.9433078999999998,0.35983896,-0.91799176,989.9677,1,1.0,1
19.56,11.560452,-5.3812976,2.6462407000000003,0.14374289999999998,-0.6245831000000001,1.3342848999999999,-18.201279,43.131040000000006,-13.612316,-3.4821997000000002,0.21816921,-0.77446055,989.9577,1,1.0,1
19.6,10.317718,-5.822204599999999,2.8143133999999996,0.14374289999999998,-0.6245831000000001,1.3342848999999999,-18.201279,43.131040000000006,-13.612316,-2.6785507,0.16196251,-1.1651745,989.9577,1,1.0,1
19.64,10.272323,-7.0758095,4.123378,0.9337687,-0.27304609999999996,1.0752925,-15.941244000000001,43.98335,-14.472357,-2.748855,1.1478004,-2.4911213,989.97046,1,1.0,1
19.68,11.512696,-4.578133599999999,-0.5423769,0.9337687,-0.27304609999999996,1.0752925,-15.941244000000001,43.98335,-14.472357,-4.30591,-1.1310681999999999,1.2947571000000002,989.97046,1,1.0,1
19.72,8.396277,-6.2368955999999995,-1.458483,2.5684153999999997,-2.2058337000000003,-0.04256849,-14.338989999999999,41.482903,-19.038038,-0.48944570000000004,0.5402312,3.4890017999999996,989.9273699999999,1,1.0,1
19.76,7.980448700000001,-6.0367002,-0.4405847,2.3009012,-1.6826558,0.036260962,-16.416946,39.59173,-21.763529000000002,-0.53421545,-0.19652128,2.979272,989.93256,1,1.0,1
19.8,8.324608999999999,-6.5681725,1.6875315,0.47996587,0.54361165,0.34638572,-15.502572,39.55328,-23.287899,-0.58061886,1.1912288999999998,-0.6163392,989.9476300000001,1,1.0,1
19.84,6.893071000000001,-7.292689299999999,3.5789273,0.15838934,0.95373815,0.44585466,-14.056063,39.275093,-24.033414999999998,1.1065116000000002,2.1985487999999997,-1.4192181000000001,989.9755,1,1.0,1
19.88,7.1464148000000005,-5.259753,2.8024864,0.94229,1.4074073,0.8173653000000001,-11.811163,38.586025,-25.570774,0.09800196,-0.44677687,0.4307642,989.9755,1,1.0,1
19.92,7.0436625,-6.0557685,3.5434217000000006,0.6541359999999999,1.169454,0.58766776,-9.781595,38.274646999999995,-26.8661,-0.6790414,-0.54258204,1.1307552,989.98065,1,1.0,1
19.96,6.5537467000000005,-5.221621,1.0578607,1.0291088,0.46930959999999994,0.3976513,-7.7412663,36.86723,-28.329903,0.37144423,-0.40637064,4.1847916,989.9706,1,1.0,1
20.0,7.0652,-5.4313498,3.0912889999999997,1.0291088,0.46930959999999994,0.3976513,-7.7412663,36.86723,-28.329903,0.029207706,-0.5471196,2.5901330000000002,989.9706,1,1.0,1
20.04,7.4638032999999995,-5.7006483,5.5507655,0.050797064,0.28275535,0.20177586,-6.660933999999999,37.458286,-29.91668,-0.6795726,-0.22243118,-0.35603237,990.0007300000001,1,1.0,1
20.08,6.5335894,-4.821205,3.5030859,0.050797064,0.28275535,0.20177586,-6.7586536,37.103535,-30.111815999999997,0.18819666,-1.2026391,1.1737227,990.0007300000001,1,1.0,1
20.12,5.7568436,-4.852187000000001,4.281893,0.5317735,-0.32870752,-0.19742735,-7.665878999999999,35.990990000000004,-30.522793,1.0941094999999998,-0.4714713,-0.16679716,990.0007,1,1.0,1
20.16,6.3399515,-4.713956,4.5328135000000005,0.36359534,-0.671323,-0.60475737,-10.225131,35.280784999999995,-31.010673999999998,0.4488182,-0.6741743,-0.35823345,990.0009,1,1.0,1
20.2,7.360411599999999,-4.6829730000000005,3.5291172999999993,0.6276478,-1.4273938,-0.7720036,-12.272741,34.15376,-30.937138,-0.23908089999999999,-0.69519234,0.7404546999999999,989.9884,1,1.0,1
20.24,7.6113234,-4.456561,4.3173933,0.44175962,-0.6195246,-0.35042548,-13.008602999999999,33.938995,-31.119114,-0.41886234,-0.53615093,-0.67932844,990.0109,1,1.0,1
20.28,6.779609700000001,-5.107195,4.7600574,0.20726869,-0.08516184,-0.22286005,-13.595847000000001,33.07326,-31.362885,1.1221218000000002,0.22695255,-0.72922087,989.99585,1,1.0,1
20.32,7.819189,-4.787835,4.0214877,0.17411266,-0.116054535,-0.19183415,-13.267713,32.95915,-31.483757,-0.79255915,-0.31949997,0.18328476,989.97833,1,1.0,1
20.36,7.2121262999999995,-4.902231700000001,3.772929,-0.020430826000000003,0.1987308,0.07088659,-12.920176,33.758694,-31.584099,0.26486254,-0.17353296,0.32806729999999995,989.9884,1,1.0,1
20.4,8.117871000000001,-4.7282515,4.871308,-0.12056533,0.016570687,0.12974252,-13.085291,33.393024,-30.998367,-0.9599204,-0.35286808,-0.90560174,989.9859,1,1.0,1
20.44,6.944401299999999,-5.979472,4.3315835,-0.35132775,-0.09980939999999999,0.28633636,-12.713134,33.636013,-30.838978000000004,0.88824177,0.25340652,-0.38921285,989.9757699999999,1,1.0,1
20.48,7.310028,-4.425574,3.654561,0.0054026230000000005,-0.4839701,0.12028856,-13.562370999999999,32.313713,-30.168839000000002,-0.061321735,-1.000649,0.36399007,989.9960000000001,1,1.0,1
20.52,7.654146000000001,-5.0547585,3.0935316000000004,0.50860673,-1.1689346,0.06316389,-14.643514000000001,32.671062,-30.177113000000002,-0.22983979999999996,0.17183876,0.104275465,989.9959,1,1.0,1
20.56,7.952857000000001,-5.6100616,4.030941,0.32285172,-0.6646655,0.31350094,-14.690145000000001,33.04907,-30.576970000000003,-0.5777359000000001,-0.025532722,-0.64152527,989.9580699999999,1,1.0,1
20.6,7.8118240000000005,-4.9951754,3.0603857000000003,0.001675005,-0.12004957,0.41789687,-14.321032,33.289112,-30.262970000000003,-0.52942467,-0.46357012,0.22471666,989.9657,1,1.0,1
20.64,6.970550500000001,-4.8307285,3.4935812999999993,0.32165384,-0.37304970000000004,0.24492483,-15.110835999999999,34.07712,-30.033409999999996,0.9747119000000001,-0.5150151,-0.5932858,989.9301,1,1.0,1
20.68,7.902585,-4.8474107,4.376545,0.12085191,-0.20993127,-0.17705256,-15.319293,33.09198,-30.328559999999996,-0.61848927,-0.5355568,-1.2308221000000001,989.9428,1,1.0,1
20.72,7.622938,-4.8378773,3.0982533,0.33443752,-0.1358955,0.088065006,-15.300081,32.26716,-30.360236999999998,-0.17289782,-0.47707079999999996,-0.48365519999999995,989.9657,1,1.0,1
20.76,7.5775023,-4.999939,2.5395908,0.6932984000000001,-0.85508156,0.24186257,-16.208935,32.259487,-31.066574,0.39554358,-0.39553452,-0.047145367,989.9301,1,1.0,1
20.8,8.065014,-4.6209974,3.1787329,0.91420776,-1.3633455,-0.060272716,-17.763026999999997,30.803891999999998,-30.203026,-0.93385077,-0.38015985,0.13533187,989.92255,1,1.0,1
20.84,8.490388000000001,-5.498043,3.2166057,-0.46211222,0.6247024999999999,0.58088297,-16.62025,32.295947999999996,-31.313263,-0.4638219,0.07246923400000001,-0.29338264,989.91254,1,1.0,1
20.88,7.797289,-5.355046,2.6271695999999998,0.32312045,-0.32165104,0.30671093,-16.604763000000002,31.730558000000002,-30.589703000000004,-0.6889839,-0.05636978,0.3800292,989.9176,1,1.0,1
20.92,7.7327337,-5.450376,3.2047646,0.32312045,-0.32165104,0.30671093,-16.604763000000002,31.730558000000002,-30.589703000000004,-0.5580063,-0.37741804,-0.037145376,989.9176,1,1.0,1
20.96,7.579752,-5.307379,3.1290116,0.026311642000000003,0.22802489,0.33627209999999996,-15.789168,32.494236,-30.683086,-0.10861349,0.15835857,-0.27260613,989.9200400000001,1,1.0,1
21.0,7.4506692999999995,-5.2549458,3.2852445,0.13270510000000002,0.34640226,0.22575113,-15.055778,33.550022,-31.319778000000003,-0.060759068,-0.75594234,0.5802269,989.9301,1,1.0,1
21.04,7.717136,-4.990431299999999,2.911335,0.08596695,0.39633647,0.11456435,-14.687942499999998,32.78817,-31.254897999999997,-0.5473423000000001,-0.31292868,0.11958479999999999,989.877,1,1.0,1
21.08,7.729106,-6.184454,3.789569,-0.14053878,0.31284709999999993,-0.16413695,-14.273445,32.860565,-31.8619,-0.5513234,0.06551123,0.362072,989.93536,1,1.0,1
21.12,6.9069996,-4.7592545,4.561279,-0.32190716,0.12642713,-0.43498329999999996,-14.312198,32.665805999999996,-31.151671999999998,0.17776966,-0.4039092,-0.91412306,990.04675,1,1.0,1
21.16,7.721976299999999,-5.114363,3.5268135000000003,-0.4199116,0.23401877,-0.4184718,-14.362989,32.56519,-30.52208,-0.4279418,-0.21306944,-1.2245514,990.1022,1,1.0,1
21.2,7.946648599999999,-4.713973,1.7253741000000002,0.1619884,-0.86799634,-0.1677355,-15.493944,33.191685,-30.076529999999998,0.13454294,-1.0580048999999998,1.3374197,990.0061599999999,1,1.0,1
21.24,8.756844500000001,-5.7769156,2.7030306,0.20766138,-0.9448284,-0.04536343,-16.91874,33.016284999999996,-29.615757000000002,-1.0287409,0.5220928,0.066171885,989.8975,1,1.0,1
21.28,8.780764999999999,-5.0261830000000005,2.2272248,-0.17823051,-0.46146506,0.0932539,-17.576529999999998,33.243046,-29.296707,-1.0235667,-0.06614637400000001,0.40200806,989.87964,1,1.0,1
21.32,8.742546,-6.923273,3.5812663999999996,-0.20699283,-0.268386,0.1366633,-17.719196,33.79398,-28.845055,-0.76533556,0.40040636,-0.5826266,989.9607,1,1.0,1
21.36,7.533276,-5.776917,2.210658,-0.23442356,-0.23456386,0.12880689,-17.772894,33.79633,-28.759933,-0.07433081,1.0594864,0.0026788709999999998,990.01624,1,1.0,1
21.4,7.968259,-5.969963,3.4581757000000004,-0.30832642,0.30672324,-0.11274168,-17.959476000000002,32.883827000000004,-28.215883,-0.28406190000000003,0.114676476,-1.5818273999999999,990.04663,1,1.0,1
21.44,9.385491,-5.4861584,2.9018846000000003,-0.19540869,0.072365254,-0.10674967,-18.059261,32.895885,-28.432167,-1.6269183,1.2662201000000002,-1.1066968000000001,990.0137300000001,1,1.0,1
21.48,6.952591,-6.2130585,3.4581792,0.16891125,0.14267269,0.081535585,-17.389679,33.57542,-28.344154,0.13938189,-0.07815933,1.4496655,989.99115,1,1.0,1
21.52,7.3015365999999995,-5.931832,5.188606,-0.29234803,0.99594873,0.10710183,-16.255245000000002,33.68993,-29.218528999999997,-0.19552946,-0.014787197,-0.9419209999999999,990.0009,1,1.0,1
21.56,6.598925599999999,-5.0428695999999995,2.1491203,0.029494503999999998,1.5187268,0.17088439,-13.709872,33.440357,-30.981872999999997,0.7885293999999999,-0.9168668,3.1973564999999997,989.9657,1,1.0,1
21.6,6.412533799999999,-6.158244,3.855875,0.37916705,1.5620033000000002,0.27341592,-11.9303665,33.684612,-31.655303999999997,0.35924959999999995,0.2914915,0.51138186,990.0086699999999,1,1.0,1
21.64,5.9250145,-4.5256996,1.9810523999999998,-0.17663439,1.0414889,0.37541485,-9.763621,34.08067,-32.243317,0.54788256,-1.8702145000000001,1.7309933000000002,989.9884599999999,1,1.0,1
21.68,5.473343,-3.9155807,3.6002207000000004,-0.21724775,1.0099306000000001,0.7071111999999999,-7.583317,34.384068,-32.828003,0.7842264,-2.473823,0.9153075,990.00104,1,1.0,1
21.72,5.5665693,-3.5390230000000003,4.454782499999999,-0.41405538,0.84841,0.5820758,-5.9655843,34.89774,-32.64544,0.94461346,-2.8398876,-0.069253445,989.9633,1,1.0,1
21.76,6.235761599999999,-5.202552,4.575512000000001,-0.021505963,0.44147933,0.12361291,-6.215103,35.085087,-31.925095000000002,-0.09496641,-0.97453165,0.13139820000000002,989.9757699999999,1,1.0,1
21.8,6.53691,-6.1201143,4.1896596,-0.3103257,-0.17717245,0.12068334,-5.772347,35.868153,-31.577232000000002,-0.8266249,-0.055102825,-0.53964806,989.95795,1,1.0,1
21.84,6.845227700000001,-5.903237,2.9374113,-0.6516098000000001,-0.46785617,0.13746116,-6.002899,36.231106,-30.56215,-0.78522587,-0.09710312,0.7271893,989.9301,1,1.0,1
21.88,6.2238736,-7.118709599999999,-0.16598903,-0.30167085,0.20232776,0.0405221,-5.5867205,36.8312,-30.122505,0.74046373,1.1334572,7.1692276,989.9403699999999,1,1.0,1
21.92,6.0135819999999995,-6.1844645,9.144219999999999,-0.19487839999999998,0.6330938,-0.13711068,-5.879283,37.031208,-29.85817,-1.1676512,0.19825983,-5.644954,989.9808,1,1.0,1
21.96,7.258741400000001,-7.721679700000001,3.709125,-0.9671947,-1.3331164,-0.009678618,-6.9850216,38.365417,-28.30315,-0.58978176,-0.26610518,0.95096326,989.9882,1,1.0,1
22.0,6.460203599999999,-6.1892242,1.315855,0.4055304,-1.2477621,0.03186658,-8.357503999999999,38.29211,-28.54927,0.19990396,-0.73083067,1.9464352999999999,989.9304,1,1.0,1
22.04,7.322627499999999,-7.9004087,3.6096440000000003,0.22683221,-1.1890395,0.13333285,-9.626071000000001,37.47311,-28.536820000000002,-0.95278025,1.106689,-1.0768554,989.9836,1,1.0,1
22.08,6.7155857,-7.299823299999999,2.506527,0.077833906,-1.2830498,0.19512045,-10.404273,37.428940000000004,-27.952412,0.255579,0.59129286,-0.09390879,989.9554,1,1.0,1
22.12,6.431182,-8.596327,1.7821624,-0.308989,-1.1886411,0.036263414,-12.580096000000001,38.65661,-26.149273,0.60364723,1.9145627,0.212569,989.9758,1,1.0,1
22.16,5.4537053,-6.42516,2.1277733,-0.39594105,-1.2419041000000002,0.25850406,-13.392185999999999,39.05423,-24.661682,0.6997247,-1.7837738999999997,-1.075242,989.9683,1,1.0,1
22.2,7.420588499999999,-6.3441285999999995,1.7916299999999998,-0.40592787,-0.58290553,0.08060507,-13.724045000000002,39.427772999999995,-23.785574,-0.23645973,0.5375819000000001,0.19086576,989.915,1,1.0,1
22.24,6.7036114,-6.255947,0.5914579000000001,-0.8615944,-0.15387069,-0.25721657,-14.57059,40.215183,-23.316277,-0.19011879,-1.3201222,0.523576,989.91254,1,1.0,1
22.28,6.691655,-5.96042,0.8281776,-0.89315265,0.25678843,-0.24336815,-14.718641,40.918163,-21.333004000000003,0.5524564000000001,-1.0441108000000001,0.23522192,989.95795,1,1.0,1
22.32,8.584453,-5.586245,0.4446902,-0.44880453,1.0746444,-0.19330075,-13.860707999999999,41.51125,-22.192772,-1.7836428,-0.33597326,0.86315036,989.948,1,1.0,1
22.36,7.255659599999999,-6.9899960000000005,1.7963622,-0.44880453,1.0746444,-0.19330075,-13.860707999999999,41.51125,-22.192772,-0.3363409,0.4134946,-0.17812276,989.948,1,1.0,1
22.4,6.820691,-6.4251595,1.7584863000000002,-0.00419011,1.7010193,-0.38291759999999997,-12.989544,40.167286,-22.402342,-0.24732113,-0.43503857,0.42198896,989.97565,1,1.0,1
22.44,6.039187,-6.758817999999999,2.6154127000000003,-0.045202635,2.0606792,-0.44243917,-10.145361,40.249817,-23.615294,0.7144746999999999,0.35594509999999996,0.26431155,989.99585,1,1.0,1
22.48,6.976022200000001,-6.0200014,2.9657583,0.084493265,1.5233866000000003,-0.5087518,-8.987148,39.54392,-24.753262,-0.19848585,-0.16696405,-0.07248616,989.9555,1,1.0,1
22.52,6.383319999999999,-6.439458999999999,4.146992,0.0035332959999999996,1.2902272,-0.43511546,-8.85304,39.828114,-25.714367000000003,0.31705523,0.13227654,-0.62373614,989.99817,1,1.0,1
22.56,7.1791506,-5.969951999999999,3.9386778,0.033227578,0.9373584999999999,-0.34030694,-7.9003233999999996,39.666664000000004,-25.85173,-0.8638673000000001,-0.30798626,-0.04066372,989.9502,1,1.0,1
22.6,6.4287157,-5.993785,3.7824416,0.033227578,0.9373584999999999,-0.34030694,-7.9003233999999996,39.666664000000004,-25.85173,-0.24041748,-0.38537455,0.12233996400000001,989.9502,1,1.0,1
22.64,6.4215403,-5.819805000000001,3.9434104,0.10872826,0.33721575,-0.23963949,-7.677136999999999,38.29592,-26.806713000000002,-0.401134,-0.25338364,-0.049743652,989.93256,1,1.0,1
22.68,6.959261,-5.579094,3.9363084,0.10872826,0.33721575,-0.23963949,-7.677136999999999,38.29592,-26.806713000000002,-0.6738453000000001,-0.45006179999999996,-0.103919506,989.93256,1,1.0,1
22.72,6.4573754999999995,-5.8055053,3.9931207000000004,0.07823521,0.18554881,-0.14203468,-7.6995535,38.591576,-27.74437,0.18311262,-0.29622126,0.093737125,989.94006,1,1.0,1
22.76,6.8110743000000005,-5.4146475999999994,4.480764,0.07823521,0.18554881,-0.14203468,-7.6995535,38.591576,-27.74437,-0.26584578,-0.681829,-0.11904144,989.94006,1,1.0,1
22.8,6.550568599999999,-6.0390663,4.2795510000000005,0.09794264,0.029088218,-0.001020387,-8.137988,38.813359999999996,-27.997722999999997,0.21235561,0.4211197,-0.711051,989.9097,1,1.0,1
22.84,6.629429300000001,-5.8174209999999995,4.402645,-0.06650735,0.09406928,0.13306968,-7.665909,39.150203999999995,-28.32113,-0.07525921,-0.59710264,0.57953167,989.9046599999999,1,1.0,1
22.88,7.143252400000001,-5.912751999999999,3.8771253,0.27131438,-0.45653877,0.12547971,-7.8556433000000006,39.341095,-27.995127,-0.73397684,-0.5461216,1.0428369,989.8721,1,1.0,1
22.92,6.7775908,-5.798354,4.3387294,-0.25492570000000003,0.65266687,0.3142977,-6.0232586999999995,39.73946,-27.453974,-0.47466803,-0.7054219,0.49296546,989.83386,1,1.0,1
22.96,6.555323599999999,-6.146313,4.480761,-0.19926564,0.5219057,0.15530716,-6.031954,40.46867,-27.26435,-0.26614475,0.5921911999999999,-0.40452194,989.8519,1,1.0,1
23.0,6.634500500000001,-5.655365,4.1328106,-0.024695517,-0.0960803,-0.056014485999999995,-6.810997,40.16065,-27.203262,-0.01771164,-0.35475302,0.05783367,990.0034,1,1.0,1
23.04,6.6751356,-5.948509,4.386101999999999,0.16598596,-0.54309136,-0.16986482,-6.9989643,39.35259,-27.280983000000003,-0.09420061,0.088869095,-0.040278435,990.0691,1,1.0,1
23.08,6.699040400000001,-6.3226843,4.379001000000001,-0.006189535,0.083816566,-0.030316278,-6.9129004,38.906963,-28.191982,-0.32002354,0.5382786,-0.36965370000000003,990.06934,1,1.0,1
23.12,6.722946,-5.969958999999999,4.338759,0.047872532,-0.18036878,-0.054284732999999995,-7.381636599999999,39.205203999999995,-27.598312,-0.24773598,0.23405647,-0.47628164,990.0415,1,1.0,1
23.16,6.718172999999999,-6.451381700000001,4.142282,0.26611835,-0.68437153,-0.037107382,-8.032689,37.96322,-27.117378000000002,0.16402912,0.8277669,-0.18103075,990.0338,1,1.0,1
23.2,6.268878,-6.9232707,3.8156084999999997,-0.038014464,-0.32338038,0.21549322,-7.807789,38.332423999999996,-28.097446,0.48419046,0.88011503,0.07988715,989.96045,1,1.0,1
23.24,6.5963,-7.4428253,3.9150313999999997,-0.08448665,0.18594876,0.42175484,-7.0279050000000005,38.904297,-27.635214,-0.114730835,0.92443323,-0.28627706,989.9677,1,1.0,1
23.28,4.476464,-5.731631299999999,3.4557947999999996,0.23003234,-0.59808517,0.51523167,-7.3304405,38.83162,-27.430374,1.3748941000000001,-0.44783354,0.011770963999999998,989.9502,1,1.0,1
23.32,6.0920440000000005,-5.1262794000000005,3.6759453,0.5268413000000001,-0.99462956,1.1246955,-6.616452000000001,38.97375,-28.087605,1.1735859,-1.3380466,0.28675985,989.96783,1,1.0,1
23.36,7.5690100000000005,-4.6758394,2.76694,0.08861848,-0.5521457,1.2156421999999998,-5.570039700000001,38.794353,-27.699463,-1.3669443000000001,-1.4883571000000002,0.20264292,989.93787,1,1.0,1
23.4,7.361094500000001,-5.6506004,3.564688,0.35293695,-1.264008,0.500451,-6.2667427,38.300133,-27.794138,-1.6247348999999998,-1.7625685000000002,-0.250628,989.96295,1,1.0,1
23.44,6.8520517000000005,-6.6134452999999995,3.1291232000000004,0.002465181,-0.8741216,0.07807405,-7.587049499999999,38.223009999999995,-28.048077000000003,-0.44748497,-0.18154907,-0.3269229,989.9607,1,1.0,1
23.48,6.115968,-6.561013000000001,2.3195405,-0.11178445,-0.9329773000000001,0.32135355,-8.866079,39.132175,-27.442276,0.46593999999999997,-0.19492769,0.36543298,989.9757699999999,1,1.0,1
23.52,7.007408,-7.4142265,2.8190207000000003,0.04640712,-1.2874438,0.34452304,-9.874695,39.556872999999996,-26.541859000000002,-0.81299067,0.3678484,-0.6826760999999999,989.95776,1,1.0,1
23.56,6.285664,-6.3584347,1.5644042,0.04640712,-1.2874438,0.34452304,-9.874695,39.556872999999996,-26.541859000000002,-0.29440355,-0.33334827,0.14058518,989.95776,1,1.0,1
23.6,5.571089700000001,-6.8589234,2.2508936,-0.097536676,-1.2419038,0.3872667,-10.438789,39.765675,-25.697308,0.97788095,-0.71895075,-0.15054655,989.9956699999999,1,1.0,1
23.64,5.9534802,-7.833684,1.6448901999999999,-0.5912864999999999,-0.8015504,0.33972922,-11.006607,40.233906,-24.097523000000002,0.40730333,0.41272259999999994,-0.112463236,989.9956699999999,1,1.0,1
23.68,6.792342,-8.896626,0.6980099,-0.5912864999999999,-0.8015504,0.33972922,-11.006607,40.233906,-24.097523000000002,-0.10408735,0.97385883,-0.21718824,989.9956699999999,1,1.0,1
23.72,5.229353,-8.775081,-0.71994376,-0.11458113,-0.8034146,0.49738818,-10.215448,42.500659999999996,-21.503654,1.6352191,1.2792096000000002,1.0856153999999998,989.9653300000001,1,1.0,1
23.76,3.7213311,-8.846579,1.0270522,0.42710534,-0.4492145,0.87422514,-9.716249000000001,42.652187,-21.820396,1.523808,-0.5869131,0.053247333,989.9223,1,1.0,1
23.8,3.3102741,-8.593950999999999,1.569142,0.64029104,-0.43376815,1.2444042,-8.326591,43.479748,-22.698837,1.9922046999999998,1.5813704,-1.7302938,989.87195,1,1.0,1
23.84,9.285035,-4.7735558,1.3560945,-0.09900185,0.030287256000000002,1.5555941,-5.5294514,43.62253,-22.214409,-4.834868,-4.055525299999999,0.24850595,989.7782,1,1.0,1
23.88,6.421939,-8.010048,1.2779775,-0.090612955,-0.061059088,0.11629009,-5.3831434,44.338809999999995,-21.970932,-0.6632756999999999,0.38441179999999997,-0.6112955,989.87683,1,1.0,1
23.92,5.1529074,-8.906161,0.48969954,-0.3926152,0.7031343000000001,-0.2726643,-4.846744,43.471354999999996,-21.848860000000002,-0.2038145,0.66021824,0.6409163,989.9273699999999,1,1.0,1
23.96,4.858518599999999,-9.018165,0.8258028000000001,-0.2570605,1.0175203000000002,-0.06427216,-3.6645925000000004,42.471275,-22.126476,0.24141693,0.6055659999999999,-0.082475126,990.0238,1,1.0,1
24.0,4.884349299999999,-8.634446,0.6482208,-0.2570605,1.0175203000000002,-0.06427216,-3.6645925000000004,42.471275,-22.126476,-0.009757996,0.32238483,0.48251694,990.0238,1,1.0,1
24.04,5.254755,-8.627295,0.9370166999999999,-0.13694759,0.12962238,-0.07678498,-3.5770907,43.553776,-21.664412,-0.36035490000000003,0.15573883,-0.36707127,990.0238,1,1.0,1
24.08,5.065924,-8.07199,0.5180193000000001,-0.18208443,0.07356231,0.08646824,-3.745792,43.55345,-21.022522,-0.1343584,-0.4457407,0.46236885,989.9273699999999,1,1.0,1
24.12,5.3479033,-8.548645,0.90623784,-0.18208443,0.07356231,0.08646824,-3.6612275000000003,43.526665,-20.033188,-0.5453706,0.40997314,-0.58392084,989.9273699999999,1,1.0,1
24.16,4.812536,-8.267417,0.025635859,-0.21910207,-0.106866755,0.12854628,-3.2087967,43.950275,-20.050709,-0.119234085,-0.3623171,0.8288643,989.8869,1,1.0,1
24.2,4.8387957,-8.741689,0.818646,-0.12216281,0.19739911,0.14798744,-3.5158677000000003,45.085438,-20.685688,-0.17183733,0.395113,-0.4022628,989.8819,1,1.0,1
24.24,4.487450599999999,-8.346065,0.5487821999999999,-0.07102988,0.17636010000000002,0.009902786,-3.0528134999999996,44.307102,-20.17261,0.07894659,-0.055565834,-0.19689119,989.91,1,1.0,1
24.28,5.204392400000001,-8.596308,0.52510756,-0.12309435,0.12962161,0.04279291599999999,-2.9572964,44.922756,-19.299541,-0.8001670999999999,0.25537014,-0.21180403,989.9758,1,1.0,1
24.32,5.2187023,-8.422328,0.30495507,-0.040935617,-0.3014107,-0.060404368,-3.3947529999999997,45.5143,-19.72865,-0.7685003,0.10605621,0.11284056,990.00104,1,1.0,1
24.36,4.5542808,-8.508124,0.68843913,-0.08061641,-0.18223438,0.069557905,-3.2079022,45.846684,-18.776096,0.20193577,-0.3377018,-0.033411622,989.90216,1,1.0,1
24.4,4.551862,-8.560556,0.5227323,-0.04253295,-0.06851753599999999,0.021887483,-3.1042852,44.468853,-18.942394,0.21545076,0.26502323,-0.18969238,989.9123,1,1.0,1
24.44,5.2950916,-8.365127000000001,0.19132139,-0.001919501,0.14919567,-0.061336115,-2.9917822,44.10029,-19.246101,-0.66140985,-0.11668491,0.074938744,989.9580699999999,1,1.0,1
24.48,5.139719,-8.424708,0.6339855,0.11086555,-0.19235452,-0.013665445,-3.272712,44.680367,-19.698658,-0.5802169,-0.0915041,-0.2106399,990.0363,1,1.0,1
24.52,4.738187,-8.6844845,0.20315202,0.027642122999999998,-0.15760034,0.02468416,-3.7649812999999996,44.79858,-19.167811999999998,0.14298058,-0.07560634599999999,0.31340429999999997,989.8972,1,1.0,1
24.56,5.089473,-8.653501,0.28600144,0.036697146,0.046797063,-0.026448369,-3.6690824,44.519729999999996,-19.320244,-0.20872020000000002,0.30128098,0.29441896,989.8642,1,1.0,1
24.6,5.0273066,-8.4461565,0.69079036,0.24295908,0.10551967,-0.12591723,-3.2490716,43.754047,-19.263178,-0.35818005,-0.49389648,0.47190627,989.9200400000001,1,1.0,1
24.64,5.0965843,-8.4866705,1.1997361999999998,0.41193676,0.18914282,-0.14615712,-3.4453525999999997,42.78069,-20.176773,-0.36183548,-0.29658604,0.14980966,990.0289,1,1.0,1
24.68,4.551657700000001,-7.969498599999999,1.2139368000000001,0.3404312,0.079154305,-0.12245489,-3.799788,42.92367,-21.362270000000002,0.2889042,-0.5643854,0.28264952,990.0489,1,1.0,1
24.72,5.2924976,-8.367505,1.6116241000000002,0.43430787,0.057848986,-0.043758422000000005,-3.8522615,42.295353000000006,-21.779325,-0.3569193,-0.06976795,-0.8703588,990.0112,1,1.0,1
24.76,4.9315940000000005,-8.348438,1.3251899999999999,0.32991233,0.02016525,-0.016194603999999998,-3.6409216,42.757220000000004,-22.762729999999998,-0.0032610890000000004,-0.060760497999999996,0.35975206,990.0033599999999,1,1.0,1
24.8,5.029550599999999,-8.69163,1.6423923999999999,0.30434629999999996,0.21164629999999998,0.0633008,-3.1219678,41.715633000000004,-23.012703,-0.18686295,0.35781384,-0.29412186,989.9706,1,1.0,1
24.84,4.694935,-8.012395,1.3180829,0.5307154000000001,0.45572475,0.09166369,-2.2190871,41.403027,-24.51926,0.21146011,-0.43788147,0.47850249999999994,989.9552,1,1.0,1
24.88,4.7044654,-8.274554,2.556127,0.5307154000000001,0.45572475,0.09166369,-2.2190871,41.403027,-24.51926,0.27152824,-0.028306007,-0.24406719,989.9552,1,1.0,1
24.92,4.9936147,-7.955194500000001,2.2767947,0.61913276,0.26357773,-0.037765592,-2.024022,39.427532,-27.128178000000002,-0.17253637,-0.2687521,0.27174568,989.9529,1,1.0,1
24.96,4.919736,-8.000482,2.7762933,0.4987583,0.28195348,-0.042692315,-1.8561611,39.164004999999996,-28.293390000000002,-0.037026405,-0.12259388,-0.23930359,989.97815,1,1.0,1
25.0,4.824362799999999,-7.976655,2.9230804,0.4987583,0.28195348,-0.042692315,-1.8561611,39.164004999999996,-28.293390000000002,0.017439365,-0.052838326,-0.23049139999999999,989.97815,1,1.0,1
25.04,4.9557970000000005,-7.6596785,2.6697888,0.15813607,0.106052525,0.013764848,-1.8103718999999998,38.522152,-28.416854999999998,-0.2532692,-0.4044056,0.099144936,989.9653300000001,1,1.0,1
25.08,4.7263565000000005,-7.9718865999999995,2.9207113,0.086630344,0.019499853,-0.009404592,-1.5901756,38.781025,-28.465934999999998,0.15347195,-0.09583568599999999,-0.039085865,989.96295,1,1.0,1
25.12,4.6857185,-7.983803699999999,3.0153985,0.026309896,0.02775563,-0.006741392,-1.5651207,38.962524,-28.480415,-0.014289379,-0.052553177,-0.16503620000000002,989.99316,1,1.0,1
25.16,4.831492,-8.021936,2.8260212000000005,-0.077553205,-0.016985454,0.014563922,-1.8759699,38.724552,-29.11145,-0.04679489,-0.043533325,-0.02029562,989.9882,1,1.0,1
25.2,4.480166400000001,-8.188765,2.7431683999999996,-0.25052527,-0.09275234,0.05584292,-1.9213543000000002,38.892196999999996,-28.190454,0.51208544,-0.06010723,0.23373556,989.9856,1,1.0,1
25.24,5.0656824,-8.534341,2.9585828999999997,-0.40765157,-0.49848458,0.13733563,-1.8744249,39.146328000000004,-27.365728000000004,-0.61320305,0.61508846,-0.71709085,989.9880400000001,1,1.0,1
25.28,3.3760114000000003,-8.968097,2.634275,-0.6426752,-0.46879040000000005,0.48714158,-1.6283326,39.850547999999996,-26.905967999999998,2.042252,1.0925178999999998,-0.89885783,989.9706,1,1.0,1
25.32,5.170817400000001,-9.4113865,2.2957642000000003,-0.9559957,-0.82392263,1.0991355,-1.1382113,41.625797,-26.00759,-2.1184974,0.052443504,-0.17558694,990.0185,1,1.0,1
25.36,2.3124847,-10.355165,0.5866432,-1.3763753,-1.0540196000000002,1.5647888,-0.27498579999999995,42.80154,-24.053844,2.9106798,1.2998905,0.886131,990.1549,1,1.0,1
25.4,3.6771087999999996,-7.256902,-0.41941866,-0.9412149999999999,-1.3118134,2.6395066000000003,2.0091723999999997,44.306187,-21.106558,-3.0108563999999998,-2.8855257,-0.24421936,990.16,1,1.0,1
25.44,2.8071742000000004,-7.8145895,1.0766523000000001,-0.9412149999999999,-1.3118134,2.6395066000000003,5.1141157,44.684002,-19.836486999999998,0.25968539999999996,-1.9657116000000001,-0.84610873,990.16,1,1.0,1
25.48,2.3076744,-6.9446917,0.03981673,-0.7830233,-0.7063441999999999,1.972918,8.329202,44.427929999999996,-19.31614,-1.3806832,-2.896378,0.07825089,990.1852,1,1.0,1
25.52,2.1762200000000003,-7.521445299999999,-0.29395974,-0.45718572,0.3683735,1.4065973999999999,10.513658,44.417995,-18.035503,-1.3269549999999999,-2.878201,0.007944561999999999,990.06647,1,1.0,1
25.56,1.4711887,-8.939496,0.17474541,-0.29180345,0.65519565,0.8310888000000001,12.674285000000001,43.595898,-17.242565,-0.47885132,-1.4912186,-0.014113911000000002,989.8639999999999,1,1.0,1
25.6,0.8665333000000001,-12.826622,-0.6892844,-0.25465229999999994,0.74614257,0.62948775,14.380851000000002,43.455059999999996,-16.727455,-0.097613454,3.63554,1.1844594,989.8007,1,1.0,1
25.64,0.013328135,-13.620254000000001,-1.8847226000000001,-0.11856478,1.0179179,0.8486658000000001,16.964287,42.87066,-15.705641,-0.14903328,3.4310799,0.93443936,989.9829,1,1.0,1
25.68,1.1126729,-10.672138,-0.24661939,0.15880333,0.77490455,0.6210989,17.600067000000003,42.46535,-16.164818,-0.55256987,2.0298013999999998,0.30189213,990.2155,1,1.0,1
25.72,1.1604608,-7.926601400000001,1.2352483,0.123250246,-0.07078146,0.06516449,17.357613,43.028347,-15.929447,-0.8118441,-2.2302107999999996,-1.3250393999999999,990.165,1,1.0,1
25.76,0.5295165,-6.8779582999999995,-0.7508354,-0.23853979,0.23468283,0.005509767,17.683544,43.175137,-15.372387,0.35643724,-2.6100802000000005,1.0125450999999999,989.95245,1,1.0,1
25.8,-0.1731248,-7.757388000000001,-0.18034051,0.2964889,1.3731833,-0.116462864,18.734524,43.000164,-15.216164000000001,0.49868238,-1.8718653000000003,0.10397836,989.8159,1,1.0,1
25.84,0.077804714,-11.282256,-0.085653365,0.09475474,0.663984,0.15664412,19.24728,43.059025,-15.529575,0.20649883,2.9242144,0.14723231,989.8689,1,1.0,1
25.88,-0.5053415,-13.543988,-0.09038869,-0.1669005,-0.2247121,0.35984316,19.792675,42.09449,-15.172255999999999,0.69251025,3.1517553,-0.31930193,989.955,1,1.0,1
25.92,-0.5674891,-6.5347652,-0.007537538000000001,-0.19060251,-0.08462998,0.23214476,20.371712,41.68858,-15.391701000000001,0.7809281,-5.2287574,-0.21506393,990.1066,1,1.0,1
25.96,0.81517434,-11.012977000000001,-0.39563972,-0.040000804,-0.059196825999999994,0.028812618999999998,20.14434,42.160396999999996,-15.230305,-0.46196353,3.1715422,1.6186945,990.1901,1,1.0,1
26.0,-0.28891844,-12.407197,-0.09500117,0.07837203,0.496472,0.7237619000000001,21.950798000000002,40.901157,-14.126254999999999,-0.45052233,1.7944155,-0.6138958000000001,990.0788,1,1.0,1
26.04,0.06721884,-9.730775999999999,0.295591,-0.23255864,0.098863505,0.47195435,22.019333,41.80805,-13.958931,-0.35186335,-0.20780468,-0.4284007000000001,990.1015,1,1.0,1
26.08,-0.66882914,-9.966722,-0.6725909000000001,0.010853672,-0.020845413,0.137062,22.52158,41.96252,-14.4302845,-0.007920205999999999,0.59750366,0.50871354,990.0028699999999,1,1.0,1
26.12,-0.04980269,-9.432868,0.22458263,-0.3091257,-0.2723806,-0.03923946,23.132164000000003,41.269794,-14.175903,-0.34512055,-0.44065,-0.18055141,989.79803,1,1.0,1
26.16,-0.49189264,-7.5739117,-0.30566686,-0.08342336,-0.18915686,0.048378292,22.673534,41.94664,-14.221819,0.03288102,-2.7294378,-0.06278323,990.0685,1,1.0,1
26.2,-1.0295787,-7.876589,-0.2796238,0.057324182,0.15412438,0.30856875,23.47372,40.957104,-13.594364,0.33395198,-0.94467735,0.46409255,990.2836,1,1.0,1
26.24,-0.31495619999999996,-10.038224000000001,0.48025200000000007,0.12576695,0.38062614,-0.06853474,23.69764,40.956547,-14.398678,-0.37496877,-0.21167374,-1.216294,989.9674,1,1.0,1
26.28,0.34947842,-9.528203,-0.52580523,0.3750382,0.8602610999999999,0.12041622,23.995476,40.918890000000005,-13.672526999999999,-0.7410251999999999,1.3405943,0.73889893,989.6842,1,1.0,1
26.32,-0.74027497,-10.286086,-0.33879238,0.061850347,0.30033200000000004,-0.28318566,24.177597,40.720634000000004,-13.612007,0.40436563,-1.4903889,0.24958616,989.8182400000001,1,1.0,1
26.36,0.10818204,-8.045805999999999,0.8140390000000001,0.19434209,-0.13908914,-0.58904964,23.220454999999998,40.983578,-13.941807,-0.65029895,1.1302118,-0.9655365,989.89667,1,1.0,1
26.4,0.5407960999999999,-14.318597,-0.5115905,0.15026641,0.5155154000000001,-0.9493753,21.894356,41.532696,-13.461654999999999,0.47329795,1.9578075000000001,0.86319685,989.8865400000001,1,1.0,1
26.44,0.21103159,-7.3546570000000004,0.6175689,0.15026641,0.5155154000000001,-0.9493753,21.894356,41.532696,-13.461654999999999,0.59277207,-3.8652902,-0.039058298,989.8865400000001,1,1.0,1
26.48,0.9352136999999999,-10.395722,0.37611812,0.24107932,0.43202546,-0.16827106,21.569107000000002,41.123540000000006,-14.619341,-0.16820443,-0.56053925,0.7306441999999999,989.9522,1,1.0,1
26.52,-0.03504464,-7.538172,-0.33403879999999997,0.37436998,0.6348251,-0.02605855,21.67582,41.381214,-14.188957,0.40011466,-2.2068648,0.75458837,989.91943,1,1.0,1
26.56,0.43102813,-7.149698299999999,0.34771929999999995,0.63176394,-0.2958157,-1.001707,20.785252,41.811523,-13.999920000000001,0.25198543,-1.9070883,0.006110489,989.9825,1,1.0,1
26.6,3.040843,-12.48586,1.5147538999999999,0.63788885,-0.42657673,-1.8696306,17.427039999999998,41.460182,-15.617434,-1.9883384999999998,3.2874231,0.15788913,989.9445,1,1.0,1
26.64,2.859252,-12.581192,1.3395848,-0.060791343,-0.15626605,-0.7792003000000001,15.854203,42.779720000000005,-16.06815,-0.9196429,2.2441654,-0.8640290999999999,990.0027,1,1.0,1
26.68,2.3024468,-9.945286999999999,0.5418414,-0.060791343,-0.15626605,-0.7792003000000001,15.854203,42.779720000000005,-16.06815,-0.74791694,0.8198290000000001,0.40823990000000004,990.0027,1,1.0,1
26.72,1.4970918,-11.017764,0.726487,-0.09514692,-0.025105352999999997,0.066485345,15.602864000000002,42.333459999999995,-15.69537,-0.03429222,2.000327,0.26405245,990.0002,1,1.0,1
26.76,2.0300816999999998,-10.989165,0.22701113,-0.09514692,-0.025105352999999997,0.066485345,15.602864000000002,42.333459999999995,-15.69537,-0.67693114,1.3179874,0.430065,990.0002,1,1.0,1
26.8,1.583212,-9.911925,0.41165674,-0.17690627,-0.19701217,0.08166518,15.470170000000001,43.157084999999995,-15.184225,0.19150686,1.3223534,0.38291243,989.9748,1,1.0,1
26.84,1.2343282,-7.6573443,1.0058284,-0.20127459,-0.33669479999999996,0.001370771,15.058854,43.193546000000005,-15.430914000000001,0.28490853,-1.1122836999999999,-1.2964635,989.99005,1,1.0,1
26.88,2.5870542999999997,-10.021557000000001,0.15363939,-0.47145247,-0.7060749,-0.06427627,14.154046,43.978885999999996,-14.644581,-0.46024048,0.19374752,0.40684992,989.95215,1,1.0,1
26.92,1.8789293000000002,-9.182625999999999,0.2719341,-0.7662646,-0.5699874,-0.20302701,13.995316500000001,44.251255,-13.943199,0.19603407,-0.25902176,-0.46048748,989.9496,1,1.0,1
26.96,1.8423208,-8.560572,0.40206063,-0.10273894,-0.10646454,-0.06853767,13.602670000000002,43.831184,-14.320020999999999,0.17805481,-1.5600281,-0.45573220000000003,990.0129,1,1.0,1
27.0,2.267704,-9.776044,0.52988786,0.06917859,0.121766455,-0.02126205,13.726968,44.368916,-14.216671,-0.7719661,0.8976040000000001,-0.41236287,989.94464,1,1.0,1
27.04,1.9402686000000002,-9.981003999999999,-0.60873824,0.07397605,0.49301022,0.2870002,14.618920000000001,43.834164,-13.783935999999999,0.034867167000000004,-0.14345074,0.99115753,989.99005,1,1.0,1
