Timestamp,Ax,Ay,Az,Gx,Gy,Gz,Mx,My,Mz,LiAx,LiAy,LiAz,P,Value,Type,GroupType,Activities
0.0,0.06317145,-0.15933849,9.753157,0.0011787294642999768,0.007201962172985077,0.00031644594855606556,-7.718901634216309,23.546669006347656,-32.92030715942383,-1.811839818954468,-0.6727235913276672,-0.12178516387939453,985.664794921875,0,13.0,1,1
0.04,0.07748294,-0.14742137,9.774458000000001,0.0006073783151805401,0.0017019824590533972,0.00023317284649237988,-7.489030838012695,23.446086883544922,-33.334766387939446,-1.8368011713027956,-0.6758734583854675,-0.16358184814453125,985.6014404296876,0,13.0,1,1
0.08,0.05833572,-0.1545706,9.774455999999999,0.00020817399490624664,0.00010404331260360776,-3.30274342559278e-05,-7.993338108062744,23.658432006835934,-32.88455581665039,-1.794320583343506,-0.6739261150360107,-0.1579141616821289,985.6119384765624,0,13.0,1,1
0.12,0.07503712,-0.15933646,9.779187,0.00020844343816861508,-0.0004286321636755019,-0.0002992279478348792,-7.724714756011963,23.75260925292969,-34.009239196777344,-1.8137556314468384,-0.6677410006523132,-0.17119121551513672,985.647705078125,0,13.0,1,1
0.16,0.065449536,-0.16410229999999998,9.769716,7.555494084954262e-05,-0.0004286758485250175,0.0007661511190235615,-7.958310127258301,24.11261749267578,-32.83954620361328,-1.7998113632202148,-0.6660266518592834,-0.1371164321899414,985.6318359375,0,13.0,1,1
0.2,0.072591305,-0.16171832,9.767344999999999,-0.0001904914970509708,-0.00042871959158219397,0.00010047684190794826,-8.42386531829834,24.51971435546875,-33.099563598632805,-1.8048360347747805,-0.6646921634674072,-0.14092254638671875,985.6234130859376,0,13.0,1,1
0.24,0.07256335,-0.15933438,9.772078,0.00020925165154039857,-2.928948379121721e-05,0.0005000660894438624,-7.777462959289551,22.91246032714844,-33.02814102172852,-1.8005188703536987,-0.6630256772041321,-0.15421295166015625,985.6214599609376,0,13.0,1,1
0.28,0.07970512,-0.16886683,9.764974,-0.0001899526687338948,0.00010382468462921679,-0.0005650818930007517,-7.61289119720459,23.646411895751953,-33.71232223510742,-1.7916805744171145,-0.6471568942070007,-0.13915157318115234,985.6270141601562,0,13.0,1,1
0.32,0.06533772,-0.14503337,9.779175,-5.652528489008546e-05,0.0003700967936310917,-0.0005649665254168212,-7.719987869262695,24.283241271972656,-33.11720657348633,-1.772592067718506,-0.674244225025177,-0.14764785766601562,985.6366577148438,0,13.0,1,1
0.36,0.0772593,-0.16171558,9.760235,0.0007426918018609285,-0.0009615262970328332,0.00023409660207107666,-7.9727110862731925,23.941429138183594,-33.366199493408196,-1.7867474555969238,-0.6580345630645752,-0.13713645935058594,985.65185546875,0,13.0,1,1
0.4,0.07484144,-0.15933158,9.760231,0.0002103295410051942,-0.00096157006919384,-3.210367867723107e-05,-8.493486404418945,24.349403381347656,-33.463794708251946,-1.787047028541565,-0.6564310193061829,-0.13620853424072266,985.621826171875,0,13.0,1,1
0.44,0.07003367,-0.16886415,9.769698,7.74410436861217e-05,0.00036996565177105367,-0.00029830419225618243,-7.9395036697387695,23.762001037597656,-33.668758392333984,-1.7633968591690063,-0.6403699517250061,-0.15419864654541016,985.62158203125,0,13.0,1,1
0.48,0.070005745,-0.16886343,9.779163,0.0008766581304371357,0.00010360599844716488,0.0003676009946502745,-8.907981872558594,24.277008056640625,-32.85679244995117,-1.7733144760131836,-0.6429114937782288,-0.15323257446289062,985.6339721679688,0,13.0,1,1
0.52,0.06758785,-0.17124598,9.753122,0.0004774538101628423,-0.00042906953603960574,0.00023455853806808588,-8.135868072509767,24.31529235839844,-33.13198471069336,-1.7490980625152588,-0.6365113258361816,-0.12379646301269533,985.6437377929688,0,13.0,1,1
0.56,0.07711950000000001,-0.14502926,9.7649555,7.824943168088794e-05,-0.00029595530941151077,-3.164185909554362e-05,-8.132526397705076,24.95037078857422,-32.86172103881836,-1.7686909437179563,-0.6584873199462891,-0.12288761138916016,985.6310424804688,0,13.0,1,1
0.6,0.06036228,-0.15694489,9.772055,0.0006111506372690201,0.000902422470971942,0.0006342633278109133,-8.286306381225586,24.33264923095703,-33.41775131225586,-1.7402086257934568,-0.6423390507698059,-0.13140201568603516,985.6432495117188,0,13.0,1,1
0.64,0.060334295,-0.15694429,9.767319,0.0006111506372690201,0.000902422470971942,0.0006342633278109133,-7.926486492156982,24.037635803222656,-33.76387405395508,-1.7308504581451416,-0.6454806923866272,-0.1399393081665039,985.6432495117188,0,13.0,1,1
0.68,0.067476034,-0.15694357,9.779152,7.878837641328573e-05,-2.9726914362981915e-05,0.00023490499006584287,-8.172418594360353,23.859634399414066,-33.099681854248054,-1.7405370473861694,-0.6437828540802002,-0.14845943450927734,985.65087890625,0,13.0,1,1
0.72,0.072227895,-0.1640927,9.755477,-0.0003204160020686686,0.000236545194638893,-0.0005639271694235504,-7.956788063049316,24.11408996582031,-32.91685104370117,-1.7407745122909546,-0.6418271064758301,-0.11910533905029295,985.6505737304688,0,13.0,1,1
0.76,0.067420095,-0.16170873,9.769677,-5.3830794058740146e-05,-0.00016297232650686058,-0.0002974958042614162,-8.265274047851562,24.14143371582031,-33.10186767578125,-1.7312567234039309,-0.6261917948722839,-0.137115478515625,985.6404418945312,0,13.0,1,1
0.8,0.06978208,-0.16409133,9.76494,0.00021275458857417107,0.00010329979704692958,0.00023525144206359985,-8.186521530151367,24.320587158203125,-33.201465606689446,-1.7363768815994265,-0.6430315375328064,-0.14563751220703125,985.6513671875,0,13.0,1,1
0.84,0.062109113,-0.15216257,9.76016,0.0002130239736288786,0.00130167743191123,0.0002353669260628521,-8.026813507080076,24.417984008789066,-34.07860946655273,-1.7213032245635986,-0.6315746307373047,-0.13036537170410156,985.6176147460938,0,13.0,1,1
0.88,0.071621835,-0.15931131,9.769625,0.00034645124105736613,-0.00016310354112647474,0.001034429995343089,-7.74504280090332,24.101749420166016,-33.102725982666016,-1.7165168523788452,-0.6390839219093323,-0.11991500854492188,985.6531982421876,0,13.0,1,1
0.92,0.07157487,-0.15454356,9.776722,0.00034685677383095026,0.00037254966446198523,-0.00029226631158962846,-8.008963584899902,24.117908477783203,-32.909034729003906,-1.7303173542022705,-0.6372048854827881,-0.13779163360595706,985.6611328125,0,13.0,1,1
0.96,0.06674808,-0.16407551,9.760147,0.0004821422044187784,-0.0006930592935532331,-2.503866562619805e-05,-8.051326751708983,23.86819839477539,-33.96567153930664,-1.7109752893447876,-0.6306301355361938,-0.12259292602539062,985.6250610351562,0,13.0,1,1
1.0,0.057141542000000003,-0.1593078,9.750672999999999,0.0006157524767331778,-0.000826290575787425,0.0005077869282104075,-8.281878471374513,24.23114776611328,-32.95058822631836,-1.6969096660614014,-0.6288423538208008,-0.11221599578857422,985.6429443359376,0,13.0,1,1
1.04,0.07143402,-0.16407324,9.769608,-4.958466161042452e-05,0.0007715312531217933,-0.0009567565866746007,-8.229701995849611,24.227325439453125,-32.95840835571289,-1.705680251121521,-0.6270558834075928,-0.1253337860107422,985.6356201171876,0,13.0,1,1
1.08,0.068997175,-0.16168879,9.767237,8.40257853269577e-05,-0.00042696372838690877,0.00010870100231841208,-8.107769012451174,24.49973297119141,-33.301074981689446,-1.6958985328674316,-0.6206107139587402,-0.11489009857177734,985.6611328125,0,13.0,1,1
1.12,0.06417045,-0.15453784,9.776701,-0.0005813114694319665,-0.0006933530094102025,-0.00042373681208118796,-8.285901069641112,23.858440399169922,-32.620223999023445,-1.686862230300903,-0.6379786133766174,-0.12824249267578125,985.6480102539062,0,13.0,1,1
1.16,0.06651336,-0.16883637,9.771962,0.0006180148338899016,0.0006380794802680613,0.00024244067026302216,-7.73591136932373,24.11058807373047,-33.566558837890625,-1.6815792322158811,-0.6173285245895386,-0.11776256561279295,985.6329956054688,0,13.0,1,1
1.2,0.06407654,-0.14500241,9.753019,-0.0007131122401915492,0.00037169011193327606,0.00010947656119242309,-8.247989654541017,23.78935241699219,-33.853771209716804,-1.6718220710754397,-0.6247641444206238,-0.10256099700927734,985.6327514648438,0,13.0,1,1
1.24,0.061639726,-0.15453429999999999,9.76722,0.0003526038490235805,0.00023845871328376236,0.00037598639028146863,-7.9912428855896,24.503875732421875,-33.93514633178711,-1.6669569015502932,-0.6228523850440979,-0.12053871154785155,985.63525390625,0,13.0,1,1
1.28,0.07832205,-0.15453322,9.771949000000001,0.00035305629717186093,-0.00042740441858768463,-0.0004227673052810133,-7.790587425231934,23.74317169189453,-33.305679321289055,-1.68060564994812,-0.6209349632263184,-0.12421321868896484,985.6455078125,0,13.0,1,1
1.32,0.06154585,-0.16644849,9.764842999999999,-0.00017912295879796147,-2.800405491143465e-05,0.0007758480496704577,-7.7695555686950675,23.551963806152344,-32.989795684814446,-1.6564987897872925,-0.595361590385437,-0.10431480407714844,985.6605834960938,0,13.0,1,1
1.36,0.06866860400000001,-0.16406400000000002,9.755369,-4.5512570068240166e-05,0.0005045542493462564,0.0009091998799704015,-8.260165214538574,23.77756500244141,-33.23533248901367,-1.6513997316360474,-0.6219757199287415,-0.11278533935546875,985.6580200195312,0,13.0,1,1
1.4,0.068621635,-0.16406287,9.774303,-4.506023833528161e-05,0.00010500699863769114,-0.00028902775375172496,-7.98268461227417,23.66874694824219,-33.42569351196289,-1.6558104753494265,-0.6010707020759583,-0.12599754333496094,985.6432495117188,0,13.0,1,1
1.44,0.070964575,-0.15929516,9.776666,-0.00031092355493456125,0.00010493351146578787,-0.00015567586524412036,-7.9681453704833975,23.94584655761719,-33.59811782836914,-1.655388593673706,-0.6039780974388123,-0.1250019073486328,985.6582641601562,0,13.0,1,1
1.48,0.06852776,-0.15929400000000002,9.764826,-0.00017731310799717903,0.00010486014070920646,-2.2323860321193933e-05,-8.154293060302733,23.771392822265625,-33.32826614379883,-1.6454591751098633,-0.6069409847259521,-0.11455249786376953,985.6400756835938,0,13.0,1,1
1.52,0.07804042,-0.16882594,9.774289999999999,-4.370277747511864e-05,0.0005042605334892869,0.0002441858523525297,-8.29878044128418,23.688724517822266,-33.22418212890625,-1.6303635835647583,-0.6001002192497253,-0.11349010467529295,985.637939453125,0,13.0,1,1
1.56,0.07321369999999999,-0.15929176,9.748246,0.00022306549362838266,-0.000960550270974636,-0.000155094254296273,-8.533080101013184,23.890804290771484,-33.276885986328125,-1.6394535303115845,-0.5984954833984375,-0.09357643127441406,985.6455078125,0,13.0,1,1
1.6,0.07794654,-0.15690728,9.762445,-4.2797881178557866e-05,-2.851820318028331e-05,0.0002445735735818744,-7.916512966156006,24.3103141784668,-33.704383850097656,-1.6336495876312256,-0.6011940240859985,-0.1114177703857422,985.6251220703124,0,13.0,1,1
1.64,0.07072985,-0.16167267,9.767176,9.081256575882436e-05,-0.0014933289494365456,-0.0004210222396068275,-8.129238128662111,23.952896118164066,-33.34274673461914,-1.6234076023101809,-0.5993794798851013,-0.11513328552246095,985.61767578125,0,13.0,1,1
1.68,0.068293035,-0.14975514,9.771906,-0.00017505104187875986,-0.0006944547640159726,-0.000420828175265342,-8.502479553222656,24.44648742675781,-33.69903945922852,-1.6126977205276491,-0.6022882461547852,-0.10930442810058594,985.6535034179688,0,13.0,1,1
1.72,0.070636034,-0.1640537,9.776636,-0.00017459847731515765,-0.0005613702815026045,0.0005114712403155863,-8.129238128662111,23.952896118164066,-33.34275054931641,-1.6025094985961914,-0.5907003283500671,-0.10828304290771484,985.637939453125,0,13.0,1,1
1.76,0.070589095,-0.1545194,9.748224,9.216973558068277e-05,-2.8811948141083118e-05,-0.0004204406286589801,-7.853278636932372,23.84259796142578,-33.45580673217773,-1.5925946235656738,-0.6030856370925903,-0.09311485290527344,985.6452026367188,0,13.0,1,1
1.8,0.05656293,-0.16406016,9.769559,9.262224193662404e-05,0.0005037463270127773,0.00011238519800826909,-7.62645149230957,23.73907470703125,-33.71565628051758,-1.5915474891662598,-0.5632045865058899,-0.11573028564453125,985.6554565429688,0,13.0,1,1
1.84,0.0784072,-0.15453531,9.757753,-0.000572715129237622,-0.0018931699451059105,-0.0002868947922252118,-8.239974021911621,23.322509765625,-33.44276809692383,-1.605618953704834,-0.5944806933403015,-0.10999107360839844,985.6273193359376,0,13.0,1,1
1.88,0.054490417,-0.16168470000000001,9.764853,0.0003527763183228672,-0.0005605168407782912,-0.0002897295053116977,-7.933851718902588,23.029842376708984,-33.70376968383789,-1.5808686017990112,-0.5874871611595154,-0.089996337890625,985.6574096679688,0,13.0,1,1
1.92,0.06164235,-0.15691770000000002,9.769587,0.00021978950826451185,0.00023840295034460723,-0.00015649822307750583,-8.625935554504395,24.17260360717773,-33.279067993164055,-1.5709383487701416,-0.5953716635704039,-0.11746883392333984,985.6452026367188,0,13.0,1,1
1.96,0.07118422,-0.154534,9.760117,-4.6355242375284427e-05,-0.0002942565770354122,-0.000289582705590874,-8.037903785705566,23.669620513916016,-33.26326370239258,-1.5798949003219604,-0.5836876034736633,-0.09752559661865234,985.6375732421876,0,13.0,1,1
2.0,0.05682707,-0.14738373,9.77195,0.0006196056492626668,0.00037150536081753666,0.00010996457422152163,-7.601831912994385,23.182514190673828,-33.455928802490234,-1.564821720123291,-0.6053509116172789,-0.11070442199707033,985.6375732421876,0,13.0,1,1
2.04,0.06636888,-0.16168292,9.767214,0.00015010355855338275,-0.00010454996663611382,-0.00017210206715390086,-7.8622727394104,23.939678192138672,-33.691051483154304,-1.564302921295166,-0.5842323899269104,-0.10499191284179688,985.6324462890624,0,13.0,1,1
2.08,0.07591075,-0.14023308,9.767213,-0.0006486729253083467,-0.00010457777534611523,-0.00030518678249791265,-7.891893863677978,23.753761291503906,-33.44466018676758,-1.5684136152267456,-0.6013131141662598,-0.09926509857177734,985.6375732421876,0,13.0,1,1
2.12,0.07350308,-0.15929879,9.764844,-0.0006486729253083467,-0.00010457777534611523,-0.00030518678249791265,-7.354515552520753,23.25606918334961,-33.49834442138672,-1.5674817562103271,-0.5801244974136353,-0.08875656127929688,985.6375732421876,0,13.0,1,1
2.16,0.06631559,-0.16406489999999999,9.748272,0.00028360381838865584,0.00016171036986634135,0.00022751849610358482,-7.562918663024902,23.90348815917969,-33.042205810546875,-1.5521631240844729,-0.5687558650970459,-0.08300113677978516,985.6292724609376,0,13.0,1,1
2.2,0.071077645,-0.14976485,9.774308999999999,-0.0002488568134140223,-0.000370949215721339,0.0008933816570788623,-7.8985252380371085,24.11615753173828,-33.23388290405273,-1.5466957092285156,-0.5618330240249634,-0.0962066650390625,985.6429443359376,0,13.0,1,1
2.24,0.07822958,-0.15929748,9.760105000000001,0.000417103961808607,-0.0007704508025199175,0.0007602968253195286,-7.658275604248048,23.81405639648437,-32.79132461547852,-1.5557236671447754,-0.5738853812217712,-0.10943222045898438,985.627685546875,0,13.0,1,1
2.28,0.06865221,-0.16168033,9.76247,1.780144521035254e-05,0.0008274167194031179,-3.857730189338327e-05,-7.995945930480957,24.393539428710934,-33.004154205322266,-1.5263984203338623,-0.5480400323867798,-0.0753183364868164,985.6375732421876,0,13.0,1,1
2.32,0.06863445,-0.15929665,9.776671,-0.0002483434218447656,-0.0003710325690917671,0.0002278119791299105,-8.154537200927733,24.77182006835937,-33.00185012817383,-1.530417561531067,-0.5700412392616272,-0.09801673889160156,985.6498413085938,0,13.0,1,1
2.36,0.059057117,-0.16406275,9.755364,0.0005507755558937788,2.8413458494469527e-05,0.0002278852625750005,-7.8196659088134775,23.188968658447266,-32.96083450317383,-1.5104409456253052,-0.5588268041610718,-0.07337093353271484,985.6699829101562,0,13.0,1,1
2.4,0.06620908,-0.15691243,9.755363000000001,-0.00011484310380183159,-0.0001047722325893119,9.480060543864964e-05,-8.0404052734375,23.29838562011719,-33.010204315185554,-1.5243058204650881,-0.5566708445549011,-0.07715988159179688,985.6250610351562,0,13.0,1,1
2.44,0.056631684,-0.15929534,9.755362,-0.0007804615888744593,0.0005609896034002304,0.0007606637664139272,-8.324516296386719,23.76960372924805,-32.609073638916016,-1.4944441318511963,-0.5591774582862854,-0.09030532836914062,985.64208984375,0,13.0,1,1
2.48,0.075733125,-0.16167815,9.755360000000001,0.00015181515482254326,0.0005609618383459747,-0.00017136841779574752,-8.300302505493164,23.68725204467773,-33.14687728881836,-1.5128555297851562,-0.5571200251579285,-0.07039928436279297,985.6349487304688,0,13.0,1,1
2.52,0.06376588,-0.15452786,9.757726,1.882834476418793e-05,-0.001569592859596014,0.0003613365697674453,-8.31234073638916,23.78138732910156,-33.22751998901367,-1.4972693920135498,-0.5503627061843872,-0.07409477233886719,985.627685546875,0,13.0,1,1
2.56,0.06852794,-0.14737763,9.767192999999999,0.00015215747407637537,-0.00037119924672879284,0.0006277258507907392,-8.181412696838379,23.95671081542969,-33.33493423461914,-1.491816163063049,-0.5579462647438049,-0.08261775970458984,985.6495971679688,0,13.0,1,1
2.6,0.07090008,-0.15452702,9.757723,-0.00011381608783267438,0.0006940087187103928,-3.7917227018624544e-05,-7.549220561981201,23.916748046875,-33.73795318603516,-1.4862076044082642,-0.5558785796165466,-0.072174072265625,985.6452026367188,0,13.0,1,1
2.64,0.066102505,-0.1449935,9.764822,0.00015267086564563215,0.0002945070737041533,-0.00017100170953199267,-8.059915542602539,23.491065979003906,-33.403392791748054,-1.4808149337768557,-0.5586028099060059,-0.08543968200683594,985.6446533203124,0,13.0,1,1
2.68,0.075644374,-0.15690942,9.762454,-0.00011347376857884228,0.001359742833301425,-0.0004372441326268017,-7.7980589866638175,23.84172058105469,-33.61822891235352,-1.4854416847229004,-0.5517289638519287,-0.07036304473876953,985.6455078125,0,13.0,1,1
2.72,0.07084679599999999,-0.16167556,9.767187,-0.0006459343712776898,0.00029445154359564185,-0.00043717102380469436,-7.938662052154541,24.025848388671875,-33.145435333251946,-1.4702215194702148,-0.5404304265975952,-0.08835220336914062,985.6498413085938,0,13.0,1,1
2.76,0.07799876,-0.16405834,9.771919,0.00015318431542254982,2.8107839170843366e-05,-0.00043709768215194345,-8.074997901916504,23.582260131835934,-33.329421997070305,-1.4789013862609863,-0.5383871793746948,-0.09211921691894533,985.6395263671876,0,13.0,1,1
2.8,0.073646486,-0.16645212,9.757755,0.00015335562056861818,2.808007411658764e-05,-0.0011028137523680923,-7.9612159729003915,24.21558380126953,-33.38401412963867,-1.4639122486114502,-0.5315786004066467,-0.07698726654052734,985.64208984375,0,13.0,1,1
2.84,0.071710765,-0.15693022,9.757797,0.00015033964882604778,0.0005612014210782945,0.0004937889170832932,-8.044397354125978,24.13793563842773,-33.751575469970696,-1.4594242572784424,-0.5341913700103761,-0.061940193176269524,985.652099609375,0,13.0,1,1
2.88,0.07172853,-0.15454732,9.772001,-0.00025450988323427737,0.000961547892075032,9.201111970469356e-05,-8.116220474243164,24.22852325439453,-33.43787002563477,-1.449174165725708,-0.5273621082305908,-0.07994747161865234,985.6444702148438,0,13.0,1,1
2.92,0.0741362,-0.15693109,9.753065,0.0005442667752504349,2.947007305920124e-05,0.0003582537174224853,-7.4409847259521475,24.17589569091797,-33.384872436523445,-1.4532958269119265,-0.5489915609359741,-0.060076713562011726,985.675048828125,0,13.0,1,1
2.96,0.069374144,-0.15454824,9.755434,0.00027777973446063703,0.0013610771857202053,0.0002250224933959544,-7.849691390991211,23.477252960205078,-33.511966705322266,-1.4528640508651731,-0.5372315645217896,-0.07811546325683594,985.64013671875,0,13.0,1,1
3.0,0.062222183,-0.15693189,9.757803,0.0002776087203528732,-0.00010363233741372824,-0.0008403142564930023,-7.957629203796388,23.85024261474609,-33.440174102783196,-1.4230875968933103,-0.5259922742843628,-0.0771646499633789,985.6452026367188,0,13.0,1,1
3.04,0.06940961,-0.1545491,9.757805000000001,-0.0011872996110469105,-0.00023676249838899818,-0.00017459812806919217,-7.817707061767577,23.928489685058594,-33.31234359741211,-1.42240571975708,-0.5383366346359253,-0.07152080535888672,985.6452026367188,0,13.0,1,1
3.08,0.07420716,-0.15454955,9.769642999999999,-0.0002553651283960789,2.9581191483885053e-05,-0.0005741450586356223,-8.270383834838867,24.505306243896484,-32.96840286254883,-1.4312644004821775,-0.5267720818519592,-0.07534408569335938,985.6521606445312,0,13.0,1,1
3.12,0.0694451,-0.15693320000000002,9.755442,-0.000521852052770555,0.0008285565418191254,-4.15865215472877e-05,-8.247829437255861,24.31556701660156,-32.72982406616211,-1.4210797548294067,-0.5298292636871338,-0.06026649475097656,985.6292724609376,0,13.0,1,1
3.16,0.062293112000000005,-0.15693365,9.755442,-0.0005220230668783189,-0.00010352124809287488,-4.16599796153605e-05,-7.929530143737793,24.034683227539066,-33.609264373779304,-1.4105081558227541,-0.5232464671134949,-0.0688018798828125,985.6521606445312,0,13.0,1,1
3.2,0.07426041,-0.14740108,9.755444,0.00014359553460963068,-0.0010355990380048752,-4.173332126811147e-05,-7.7739830017089835,23.65345764160156,-33.456958770751946,-1.4045330286026,-0.5303431749343872,-0.06306934356689453,985.6597900390624,0,13.0,1,1
3.24,0.06710845,-0.16170104,9.762547,0.00014342446229420602,-0.0003697815991472453,0.0010234570363536477,-8.311361312866211,24.151145935058594,-33.403270721435554,-1.3942229747772217,-0.5043970942497253,-0.06689453125,985.657470703125,0,13.0,1,1
3.28,0.067126185,-0.15216841,9.772018,-0.0005225362256169318,0.0005623518372885883,0.0003575939335860312,-8.378618240356445,24.24615478515625,-33.321483612060554,-1.398125171661377,-0.5121648311614989,-0.0659952163696289,985.62158203125,0,13.0,1,1
3.32,0.07670355,-0.14740236,9.750715,-0.0006558652967214584,-0.0009023578022606672,0.0004906784743070601,-8.410602569580076,23.79491806030273,-33.521102905273445,-1.392292618751526,-0.5340813994407654,-0.05086231231689453,985.6088256835938,0,13.0,1,1
3.36,0.07911119,-0.16885222,9.755450999999999,-0.000922352308407426,-0.00023654033429920673,-0.0001751843956299126,-8.302772521972656,24.52827453613281,-33.96554946899414,-1.3959894180297852,-0.5039137601852417,-0.05942535400390625,985.659423828125,0,13.0,1,1
3.4,0.06956935,-0.15455301,9.772022,-0.0003898915892932564,-0.0006359863327816129,0.00022421602625399828,-8.176709175109862,24.06705093383789,-34.265926361083984,-1.3760592937469482,-0.5020155906677246,-0.08220958709716797,985.6392822265624,0,13.0,1,1
3.44,0.06958711,-0.16646986,9.764923,0.00027572709950618446,0.0004293048987165093,0.0004904585657641292,-8.178369522094728,23.95966339111328,-33.48954391479492,-1.3755254745483398,-0.4995067715644837,-0.06711769104003906,985.6695556640624,0,13.0,1,1
3.48,0.079164445,-0.1569371,9.772026,-0.0001239178527612239,0.00029617472318932414,0.0008898591622710227,-8.108067512512207,23.86759948730469,-33.725940704345696,-1.3763511180877686,-0.5013788342475891,-0.07995128631591797,985.6343994140624,0,13.0,1,1
3.52,0.072012484,-0.16170414,9.767292999999999,-0.0001239178527612239,0.00029617472318932414,0.0008898591622710227,-8.108067512512207,23.86759948730469,-33.725940704345696,-1.3641512393951416,-0.495841383934021,-0.05587482452392578,985.6343994140624,0,13.0,1,1
3.56,0.06964034,-0.16647117,9.77203,-0.0004195909132249653,-0.00027934202807955444,0.0006596709135919808,-7.8231143951416025,23.66022491455078,-33.603748321533196,-1.3535118103027344,-0.498590886592865,-0.0596923828125,985.63427734375,0,13.0,1,1
3.6,0.076827794,-0.15455513,9.767297,-0.0004195909132249653,-0.00027934202807955444,0.0006596709135919808,-8.143095970153809,23.413414001464844,-33.77095413208008,-1.3571888208389282,-0.5060794949531555,-0.06350994110107422,985.63427734375,0,13.0,1,1
3.64,0.067285925,-0.14978905,9.762564,-2.0288105588406328e-05,-0.000412472290918231,0.00039328180719166994,-8.030294418334961,23.676986694335934,-33.649791717529304,-1.3465368747711182,-0.5086962580680847,-0.05785465240478516,985.6624145507812,0,13.0,1,1
3.68,0.060133994,-0.15455605,9.757832,-0.0002867750590667129,-0.000945076229982078,-0.0006720550009049474,-8.414190292358397,24.16026306152344,-33.464942932128906,-1.331047534942627,-0.5018473267555237,-0.05220317840576172,985.6446533203124,0,13.0,1,1
3.72,0.06493151,-0.14502336,9.764935000000001,-0.00042010407196357846,-0.0006787325837649405,0.0005262930644676089,-8.144319534301758,24.04408264160156,-33.26877593994141,-1.320763349533081,-0.5094814896583557,-0.04662227630615234,985.6521606445312,0,13.0,1,1
3.76,0.06972909,-0.14264055,9.7649355,0.0006449883221648632,0.00025340070715174084,-0.00027272786246612673,-8.341526031494139,24.33352279663086,-33.255321502685554,-1.32929527759552,-0.5074298381805421,-0.0646677017211914,985.6400756835938,0,13.0,1,1
3.8,0.07143307,-0.14500706,9.7554035,-0.00042044633300974965,-0.0005455191130749881,-0.00040595914470031863,-7.853278636932372,23.84259796142578,-33.45580673217773,-1.3328357934951782,-0.5048809051513672,-0.059009552001953125,985.6702270507812,0,13.0,1,1
3.84,0.071422875,-0.16645629999999997,9.769607,0.0002451724139973521,0.0003866142360493541,-0.0002728745457716286,-7.927464962005615,23.66786956787109,-33.588123321533196,-1.3079732656478882,-0.4695051908493042,-0.07707595825195312,985.6393432617188,0,13.0,1,1
3.88,0.069022834,-0.14023991,9.748301,-1.5438825357705355e-05,-1.3785669580101969e-05,-0.00027042959118261933,-8.537508010864258,23.99230194091797,-33.74404525756836,-1.3117592334747314,-0.4958001375198364,-0.033573150634765625,985.6495971679688,0,13.0,1,1
3.92,0.064232886,-0.15692260000000002,9.755402,0.000651271257083863,-0.0009460406727157533,0.00026259658625349397,-8.184999465942383,24.32205581665039,-33.27877426147461,-1.3014688491821291,-0.4889913201332092,-0.042204856872558594,985.6494750976562,0,13.0,1,1
3.96,0.05705303,-0.16883875,9.762503,0.00011873745825141667,-1.3950979337096216e-05,0.0009284282568842172,-8.035700798034668,23.40871810913086,-33.941200256347656,-1.2816295623779297,-0.4632446765899658,-0.05558490753173828,985.6547241210938,0,13.0,1,1
4.0,0.061822653,-0.15215556,9.764869000000001,0.00038524909177795047,-0.0002802986418828368,-0.00013675150694325566,-8.419597625732424,23.891998291015625,-33.756351470947266,-1.2761633396148682,-0.4893441796302795,-0.05946540832519531,985.6497192382812,0,13.0,1,1
4.04,0.068982214,-0.1616884,9.769602,0.0010511367581784725,0.0005186331109143794,0.0003959223686251789,-8.210895538330076,23.87671661376953,-33.78761672973633,-1.2849768400192259,-0.4629799723625183,-0.049137115478515625,985.6370239257812,0,13.0,1,1
4.08,0.07375187,-0.16407146,9.760132,0.0003854449023492634,-0.0008129621855914593,-0.0005361412768252193,-7.640554428100586,24.20001983642578,-33.81743621826172,-1.2792342901229858,-0.47066092491149897,-0.05303192138671875,985.6502685546876,0,13.0,1,1
4.12,0.061792195,-0.17122109,9.762499,-0.00041340471943840384,0.0003854433889500797,-0.0009355729562230408,-8.060213088989258,22.858928680419922,-33.82826614379883,-1.2689595222473145,-0.4641062617301941,-0.02855968475341797,985.652099609375,0,13.0,1,1
4.16,0.07612145,-0.15453789999999998,9.755396000000001,0.00025248283054679627,-0.000679836084600538,-0.0002697413437999785,-8.192365646362305,23.314266204833984,-33.21866989135742,-1.2725695371627808,-0.4811801910400391,-0.05136489868164063,985.6522827148438,0,13.0,1,1
4.2,0.04982233,-0.16168745,9.762497,-0.00028005102649331093,-0.0005466940347105265,0.0006624060915783048,-8.112632751464844,23.863178253173828,-33.494029998779304,-1.252795696258545,-0.4550262689590454,-0.03634166717529297,985.6497192382812,0,13.0,1,1
4.24,0.05937183,-0.15215416,9.769597000000001,0.0007853104616515338,0.0006517116562463343,0.00012981629697605968,-7.849148750305176,23.10896301269531,-33.41351318359375,-1.247304081916809,-0.4621784090995789,-0.05445289611816406,985.6395263671876,0,13.0,1,1
4.28,0.06653136,-0.15930359,9.764861999999999,0.0002527766046114266,-0.0005467258160933851,0.00012985826469957826,-8.510931015014647,24.17527008056641,-33.83583450317383,-1.2415354251861572,-0.4553518891334534,-0.044147491455078125,985.6497192382812,0,13.0,1,1
4.32,0.06174141,-0.14977027,9.762493,0.0005191902746446432,-0.0005467416485771537,-0.0008022053516469897,-8.483267784118652,23.621662139892575,-33.73072052001953,-1.2359576225280762,-0.4818985462188721,-0.029135704040527344,985.6349487304688,0,13.0,1,1
4.36,0.07368076,-0.15930314,9.76486,0.00011981447460129856,0.0006516639259643853,-0.0002695315633900464,-8.120105743408201,23.96173095703125,-33.80657958984375,-1.2274669408798218,-0.4596040844917298,-0.037372589111328125,985.640380859375,0,13.0,1,1
4.4,0.06650087,-0.15453638,9.769592999999999,0.00025307026226073503,-0.001212563132867217,0.00026314205024391413,-7.9476566314697275,24.1229248046875,-33.38068008422852,-1.2292941808700562,-0.4442874789237976,-0.041687965393066406,985.6426391601562,0,13.0,1,1
4.44,0.059321016,-0.15691938,9.748287,0.00038632610812783236,-0.00041363140917383134,-0.00013628974556922913,-7.9114036560058585,23.946441650390625,-33.83784866333008,-1.2240227460861206,-0.4516093134880066,-0.031447410583496094,985.6145629882812,0,13.0,1,1
4.48,0.068870485,-0.16168569,9.771958,-1.3049750123172998e-05,0.0006516161956824362,-0.00026940583484247327,-7.8964600563049325,23.74934387207031,-33.21274185180664,-1.2285287380218506,-0.4495587348937988,-0.0307159423828125,985.6349487304688,0,13.0,1,1
4.52,0.06886032,-0.15691889999999997,9.769589999999999,0.0005196799756959081,-0.00028050527907907963,0.00026326795341447,-8.247692108154299,24.421485900878906,-33.428897857666016,-1.2274610996246338,-0.4616616368293762,-0.05355548858642578,985.6605224609376,0,13.0,1,1
4.56,0.06646025,-0.16645177,9.755386,0.000120303884614259,0.00011895259376615286,0.00013015198055654764,-8.108610153198242,24.23588562011719,-33.82439422607422,-1.2125120162963867,-0.43607550859451294,-0.04334163665771485,985.6395263671876,0,13.0,1,1
4.6,0.06884,-0.15930171,9.745916000000001,-0.0006785458535887301,-1.4221121091395615e-05,0.00013019394828006622,-7.927327632904053,23.77378845214844,-34.28719711303711,-1.2070550918579102,-0.4439561367034912,-0.028392791748046875,985.6123046875,0,13.0,1,1
4.64,0.07838943599999999,-0.16645129,9.753017,-0.00041213195072487,0.0009178683976642787,-2.921966370195151e-06,-7.824093341827393,23.290462493896484,-33.427993774414055,-1.2069039344787598,-0.4324973225593567,-0.027696609497070312,985.6477661132812,0,13.0,1,1
4.68,0.0783793,-0.1521513,9.76722,-0.0006783500430174173,-0.00014741087215952575,-0.00013603799743577838,-7.938960075378418,23.39371109008789,-33.57030487060547,-1.2106380462646484,-0.4448707699775696,-0.026899337768554688,985.6298828125,0,13.0,1,1
4.72,0.06163981599999999,-0.15215106,9.7506485,-1.2462318409234285e-05,0.00011888903100043535,0.000396635674405843,-8.312202453613281,23.887306213378906,-33.92659378051758,-1.1814732551574707,-0.4381052255630493,-0.030900001525878906,985.67333984375,0,13.0,1,1
4.76,0.061629653,-0.17360033,9.764851,0.00038710946682840586,0.0002520310808904469,-0.0005354278837330638,-7.684171676635742,23.36871337890625,-33.300167083740234,-1.1807413101196291,-0.4313508272171021,-0.03487586975097656,985.6497192382812,0,13.0,1,1
4.8,0.06400943,-0.15215059,9.767218,-1.2266449630260468e-05,-1.4300661860033871e-05,-0.0006685439147986473,-8.161765098571777,23.86994934082031,-33.640823364257805,-1.18498957157135,-0.4387719631195069,-0.03887271881103516,985.637939453125,0,13.0,1,1
4.84,0.075975716,-0.14976771,9.75775,-0.00014532654313370583,-0.00028063240461051464,-0.00026902806712314487,-8.568215370178223,24.54296112060547,-33.69455337524414,-1.1891858577728271,-0.4463618993759155,-0.023939132690429688,985.63525390625,0,13.0,1,1
4.88,0.06643444,-0.17360093,9.755384,-0.00041154440259560937,0.0007846152293495834,-0.00026898604119196534,-8.372966766357424,23.513996124267575,-33.356494903564446,-1.1695699691772459,-0.4256305694580078,-0.023235321044921875,985.6273193359376,0,13.0,1,1
4.92,0.07598594,-0.16406767,9.75775,0.00025381438899785286,-0.0005468943272717297,-0.0001360127353109419,-7.969666957855225,23.944374084472656,-33.520809173583984,-1.1785598993301392,-0.4235812425613403,-0.03197479248046875,985.6429443359376,0,13.0,1,1
4.96,0.07597774,-0.16168417,9.771954,0.0002538929111324251,0.0005183565081097187,0.00039665255462750787,-7.554765701293945,23.542564392089844,-33.33028030395508,-1.173486351966858,-0.43568217754364014,-0.050209999084472656,985.6432495117188,0,13.0,1,1
5.0,0.07118982,-0.1616839,9.774319,0.0002538929111324251,0.0005183565081097187,0.00039665255462750787,-8.179890632629395,23.958187103271484,-33.41223526000977,-1.1583073139190674,-0.4239633083343506,-0.039978981018066406,985.6432495117188,0,13.0,1,1
5.04,0.07357159,-0.15215068,9.753014,0.0003871293738484383,-1.428800169378519e-05,0.000263528258074075,-7.810096740722656,23.93585586547852,-33.69887161254883,-1.1575093269348145,-0.4311458468437195,-0.02974700927734375,985.6455078125,0,13.0,1,1
5.08,0.061613917000000004,-0.15453370000000002,9.757748,0.0005566161125898361,-0.0005668684025295079,0.0001640916452743113,-7.8592286109924325,23.94262313842773,-33.84566116333008,-1.1231803894042969,-0.4290841817855835,-0.019530296325683597,985.6304321289062,0,13.0,1,1
5.12,0.06160575,-0.15453346,9.769583,0.0010893263388425114,-0.0010995129123330116,0.00016412534750998017,-8.27510929107666,23.974666595458984,-33.860435485839844,-1.132178783416748,-0.4269322156906128,-0.037749290466308594,985.6611328125,0,13.0,1,1
5.16,0.06637739999999999,-0.17121632,9.762481,0.00015729936421848834,9.889576176647096e-05,-0.0005016308277845383,-8.377778053283691,24.51000213623047,-32.79816055297852,-1.1220375299453735,-0.4104663133621216,-0.03703403472900391,985.6582641601562,0,13.0,1,1
5.2,0.05919957,-0.16168298,9.76248,0.0006900096777826548,-0.00016743283777032048,0.00016419263556599617,-8.404355049133299,24.32703018188477,-32.706371307373054,-1.1263806819915771,-0.4035841226577759,-0.03160572052001953,985.6483154296876,0,13.0,1,1
5.24,0.06636113,-0.15691616,9.764847,0.0006900882581248879,-0.00016744559979997575,3.1068339012563235e-05,-8.367123603820799,24.52031326293945,-33.339298248291016,-1.1119636297225952,-0.41102099418640137,-0.030953407287597656,985.6432495117188,0,13.0,1,1
5.28,0.06635293,-0.15453269,9.757744,0.000423850811785087,0.000897805264685303,-0.0005015297792851925,-8.13921070098877,23.680206298828125,-33.40224075317383,-1.1165933609008791,-0.4136447906494141,-0.025560379028320312,985.6201782226562,0,13.0,1,1
5.32,0.049615502,-0.16406564,9.760111,0.00029077150975354016,0.0003651606966741383,-0.0006346540758386254,-8.226413726806639,23.229846954345703,-33.439437866210945,-1.1018009185791016,-0.4115965962409973,-0.015408515930175781,985.620849609375,0,13.0,1,1
5.36,0.06872657,-0.14976574,9.753008,0.0009566398803144693,0.0008977796533145009,-0.00036830455064773565,-8.46277904510498,23.79874420166016,-33.51328659057617,-1.1112674474716189,-0.4094759821891785,-0.014764785766601562,985.6329956054688,0,13.0,1,1
5.4,0.07110828,-0.15453209,9.757742,0.0006904024630784987,-0.0001674966188147664,0.00029751891270279884,-8.053528785705566,24.12909698486328,-33.28774642944336,-1.101263403892517,-0.4121596813201904,-0.01882171630859375,985.6515502929688,0,13.0,1,1
5.44,0.06632036,-0.15929849999999998,9.769577,-0.000774177722632885,-3.4364144084975123e-05,3.127031959593296e-05,-7.854258060455322,23.47283935546875,-33.28004837036133,-1.0955445766448977,-0.4055395722389221,-0.037044525146484375,985.6162109375,0,13.0,1,1
5.48,0.061532437999999995,-0.14976515,9.776677000000001,0.00042432229383848613,-0.001365956268273294,-0.00023501180112361908,-7.38011360168457,23.44286346435547,-33.58231735229492,-1.085578680038452,-0.4132484197616577,-0.036393165588378906,985.6109008789062,0,13.0,1,1
5.52,0.056744456,-0.14023186,9.75774,0.000557558611035347,9.876828698907049e-05,3.133760765194893e-05,-7.533297538757324,24.08940887451172,-33.28860092163086,-1.0707722902297974,-0.430169403553009,-0.026251792907714844,985.6488037109376,0,13.0,1,1
5.56,0.07585549,-0.15453137,9.750637,0.00015816339873708785,-0.0005670341779477893,-0.0006344183348119259,-7.612348079681396,23.27812194824219,-33.61387252807617,-1.0799839496612549,-0.394936203956604,-0.011407852172851562,985.6519775390624,0,13.0,1,1
5.6,0.07584739,-0.16168095,9.755371,-0.0002412318426650017,-0.000433889013947919,-0.00023491098545491695,-7.928689002990723,24.29853057861328,-33.085941314697266,-1.0793406963348389,-0.3832511305809021,-0.015456199645996094,985.6259765625,0,13.0,1,1
5.64,0.06388974,-0.14976431,9.776675,0.0005577944684773684,0.0006313617341220379,-0.0001017191680148244,-8.125214576721191,24.32559967041016,-33.67311477661133,-1.0696952342987058,-0.405060350894928,-0.0243072509765625,985.6515502929688,0,13.0,1,1
5.68,0.063881546,-0.14738093,9.764837,0.0009573467541486024,0.00023187523765955118,3.147241659462452e-05,-7.841240882873535,23.74846649169922,-33.375167846679695,-1.0597140789031982,-0.4172265529632568,-0.02365303039550781,985.62158203125,0,13.0,1,1
5.72,0.06387338,-0.15214725,9.764837,2.5319779524579644e-05,-3.445343463681638e-05,0.0004309798532631248,-8.175868034362793,24.330894470214844,-33.742603302001946,-1.0592226982116701,-0.3916272521018982,-0.027749061584472656,985.6416015625,0,13.0,1,1
5.76,0.07581478,-0.15453029999999998,9.764836,0.00029171418282203376,-0.00030078209238126874,-0.0007674080552533269,-8.155814170837402,23.76992034912109,-33.250965118408196,-1.0639303922653198,-0.3940182328224182,-0.031856536865234375,985.6239624023438,0,13.0,1,1
5.8,0.068636894,-0.16406329,9.762468,0.0005581086734309793,0.0008976266835816205,-0.00010158459190279244,-7.878877639770508,24.02939224243164,-33.53977584838867,-1.0544368028640747,-0.37810856103897095,-0.017086029052734375,985.6239624023438,0,13.0,1,1
5.84,0.06664303,-0.15215658,9.757771,-0.0003739183594007045,0.0007644559373147786,-0.0005010247696191072,-7.856620788574219,23.20751190185547,-33.72606658935547,-1.035302758216858,-0.3855918645858765,-0.016489028930664062,985.6416015625,0,13.0,1,1
5.88,0.04794395,-0.15216692,9.760176,2.2741471184417605e-05,9.912300447467716e-05,3.0401046387851238e-05,-7.962738037109375,24.214111328125,-33.30670547485352,-1.0215343236923218,-0.379347026348114,0.0029582977294921875,985.6495971679688,0,13.0,1,1
5.92,0.062307477,-0.14978422,9.767281,-0.00038168815081007784,0.0008988752379082142,0.0005609089857898654,-7.979097366333008,23.30339813232422,-33.48184967041016,-1.0316091775894165,-0.3963676691055298,-0.015440940856933594,985.6119384765624,0,13.0,1,1
5.96,0.05994165,-0.14978479,9.7601795,0.00041702753514982765,0.0011652288958430288,2.8177688363939527e-05,-8.085077285766603,24.415912628173828,-33.76156997680664,-1.0218080282211304,-0.38006246089935297,-0.01483154296875,985.6395263671876,0,13.0,1,1
6.0,0.06713542,-0.15455194,9.76255,-0.00011583624291233718,-0.0005657867877744137,2.8078327886760235e-05,-8.418756484985353,24.155845642089844,-33.233028411865234,-1.0217369794845579,-0.3734679818153381,-0.02372264862060547,985.6067504882812,0,13.0,1,1
6.04,0.07910895,-0.1569358,9.762552000000001,-0.00038238425622694194,-3.311736509203911e-05,0.0001611367333680391,-7.961216449737549,24.21558380126953,-33.38401412963867,-1.0357807874679563,-0.3812941908836365,-0.008927345275878906,985.6272583007812,0,13.0,1,1
6.08,0.06957343,-0.15693642,9.767288,-0.0006489319493994117,-3.307973383925855e-05,-0.0003715944476425648,-8.035945892333983,24.40914535522461,-33.61478042602539,-1.0118354558944702,-0.36554014682769775,-0.0036420822143554688,985.62744140625,0,13.0,1,1
6.12,0.067207634,-0.16885339,9.769658,0.00014978370745666322,0.0007659055409021676,-0.0003716937499120832,-7.771481990814209,24.024696350097656,-33.710018157958984,-1.0116935968399048,-0.3683775067329407,-0.02673053741455078,985.6248779296876,0,13.0,1,1
6.16,0.0624519,-0.16408743,9.757824000000001,0.0002827095740940422,0.00010015351290348916,2.7680653147399426e-05,-8.214483261108397,24.24205780029297,-33.731456756591804,-0.997439742088318,-0.3618608713150024,-0.01671314239501953,985.6292724609376,0,13.0,1,1
6.2,0.06964567,-0.16408803,9.779131,0.000282477616565302,0.0008991389186121523,0.0002938972320407629,-8.242039680480957,23.68932342529297,-33.463912963867195,-0.9978493452072144,-0.355158805847168,-0.030391693115234375,985.6272583007812,0,13.0,1,1
6.24,0.045770705,-0.14740564,9.760197,0.0002822456590365618,0.00010022889182437211,-0.000238833948969841,-7.9042301177978525,23.215755462646484,-33.95016860961914,-0.973707914352417,-0.3863003849983215,-0.0013856887817382812,985.6197509765624,0,13.0,1,1
6.28,0.07447359,-0.15217282,9.769667,0.0001488556445110589,0.00010026655218098311,0.0006931719835847616,-8.305953979492188,24.419414520263672,-33.111865997314446,-0.992778182029724,-0.3799973726272583,-0.01978015899658203,985.6323852539062,0,13.0,1,1
6.32,0.06254816,-0.14502354,9.7602005,-0.00038400813355110586,-3.285380080342293e-05,-0.0009048226056620481,-8.186820030212402,23.68845367431641,-33.626338958740234,-0.9879103899002076,-0.3781551718711853,-0.005018234252929688,985.6400756835938,0,13.0,1,1
6.36,0.06735206,-0.14979066,9.755467999999999,0.0002815497864503413,0.00036665768129751086,-0.00010597455548122524,-8.043853759765625,23.769641876220703,-33.653121948242195,-0.9786758422851562,-0.37145566940307617,-0.009229660034179688,985.6248779296876,0,13.0,1,1
6.4,0.06259632,-0.15455778,9.772041,0.00028131765429861844,0.0008993271621875465,-0.0005055477377027273,-7.697731971740723,23.46137237548828,-33.303497314453125,-0.9783828854560852,-0.3599370121955872,-0.013383865356445312,985.6299438476562,0,13.0,1,1
6.44,0.06740016,-0.16409151,9.767307,0.00028131765429861844,0.0008993271621875465,-0.0005055477377027273,-7.974233150482178,23.939956665039066,-33.288894653320305,-0.9736385345458984,-0.3629549145698547,-0.012848854064941406,985.6299438476562,0,13.0,1,1
6.48,0.06025454400000001,-0.14979245,9.757843,0.00014792769798077643,-0.0013643201673403382,-0.0005056471563875675,-8.294214248657228,23.693145751953125,-33.456100463867195,-0.9594045877456664,-0.36644285917282093,-0.002880096435546875,985.6249389648438,0,13.0,1,1
6.52,0.057888746,-0.15694286,9.774414,-0.0005180938169360161,0.0008994024829007685,0.00029320118483155966,-7.980619430541992,23.30192565917969,-33.404544830322266,-0.9545358419418336,-0.3600034713745117,-0.02128124237060547,985.6453857421876,0,13.0,1,1
6.56,0.06508249,-0.15932675,9.755479,-0.0003851679211948067,-0.00016582341049797833,-0.00010637205559760332,-8.314949035644531,24.516490936279297,-33.347110748291016,-0.9645397663116456,-0.338967502117157,-0.0065765380859375,985.6681518554688,0,13.0,1,1
6.6,0.060326755,-0.14264442,9.760216,0.00024192262208089232,0.0006353678181767464,-2.945540472865105e-06,-8.07456111907959,24.32030868530273,-33.603626251220696,-0.9452441930770874,-0.3609808087348938,-0.006030082702636719,985.6351318359376,0,13.0,1,1
6.64,0.050791204000000006,-0.15932791,9.767319,-0.00029094115598127246,0.00010277365799993277,0.0009290605084970591,-7.934638977050781,24.398555755615234,-33.475799560546875,-0.9358776807785034,-0.3450142741203308,-0.01026153564453125,985.6531982421876,0,13.0,1,1
6.68,0.06276479,-0.15217869,9.757852999999999,-2.4857174139469865e-05,-3.0346593121066686e-05,0.0002631712704896927,-7.76248836517334,23.9276123046875,-33.47477340698242,-0.9264228343963624,-0.3480406403541565,-0.0002803802490234375,985.6427612304688,0,13.0,1,1
6.72,0.06278884400000001,-0.1450295,9.76259,-0.00015824718866497278,-0.00029662478482350707,0.0005293877329677342,-8.095188140869139,24.037315368652344,-33.12198257446289,-0.9360431432724,-0.3608201742172241,0.0002202987670898437,985.6531982421876,0,13.0,1,1
6.76,0.06520283,-0.15217988,9.746021,0.00037415249971672887,-0.00029658718267455697,0.0003961304319091141,-8.180870056152344,23.58842468261719,-33.23648452758789,-0.9266530275344848,-0.34468626976013184,0.005460739135742188,985.6429443359376,0,13.0,1,1
6.8,0.074786484,-0.16171356,9.764961,-0.0009576588054187596,0.0003692401805892586,-0.00013660069089382887,-7.553244113922119,23.54403686523437,-33.40758514404297,-0.9456237554550172,-0.3382394313812256,-0.003483772277832031,985.6558837890624,0,13.0,1,1
6.84,0.068591565,-0.16406210000000002,9.7529955,0.00010737276170402764,-0.0002965118328575045,-0.0004030158743262291,-8.177390098571777,24.32942199707031,-33.665298461914055,-0.9208035469055176,-0.3320508599281311,0.011302947998046877,985.6507568359376,0,13.0,1,1
6.88,0.07333833,-0.15452822,9.764828999999999,0.00038343184860423207,-0.0005631367093883455,0.00026919791707769036,-7.725800514221191,24.48918914794922,-34.20614242553711,-0.920607566833496,-0.34944844245910645,0.002355575561523437,985.648193359375,0,13.0,1,1
6.92,0.05896589,-0.15691064,9.771927999999999,-0.0005466730799525976,-0.0005634615663439035,0.0004032133729197085,-8.32796573638916,24.24085998535156,-33.25199508666992,-0.9108758568763732,-0.3384243845939636,-0.011341094970703123,985.64306640625,0,13.0,1,1
6.96,0.05893284,-0.15690987,9.760088,-1.3722863513976336e-05,-0.00043035525595769286,3.875873517245054e-06,-8.185436248779299,23.584007263183594,-33.00457000732422,-0.9060914516448976,-0.3367961049079895,-0.001373291015625,985.6483154296876,0,13.0,1,1
7.0,0.07323924,-0.17120872,9.762450999999999,-0.0005460361717268826,-0.0005635649431496859,4.012428689748049e-06,-8.088558197021483,23.674915313720703,-33.332752227783196,-0.911081612110138,-0.3207871913909912,-0.0008916854858398438,985.6456909179688,0,13.0,1,1
7.04,0.07320619,-0.15929149,9.745878999999999,0.00025322980945929885,0.00010217310045845808,0.00027046474860981107,-7.8928728103637695,23.38399887084961,-33.26890182495117,-0.9061696529388428,-0.33807677030563354,0.009087562561035156,985.645751953125,0,13.0,1,1
7.08,0.061223686,-0.17359038,9.748242999999999,0.00012039020657539368,0.00023527938174083834,0.0006700750673189759,-8.357585906982424,24.054946899414066,-33.00559616088867,-0.887543797492981,-0.3172919750213623,0.01900863647460937,985.645751953125,0,13.0,1,1
7.12,0.08030987,-0.1521401,9.7435055,0.0002538666012696922,0.0001020697527565062,0.00040389556670561433,-8.342504501342772,23.96376037597656,-33.07957077026367,-0.906930923461914,-0.3442257642745972,0.010005950927734377,985.645751953125,0,13.0,1,1
7.16,0.06832737,-0.15213926,9.755339,0.00025418488075956697,0.0009009657660499217,-0.0003949155216105282,-7.883442878723144,24.02497100830078,-33.30785751342773,-0.8931164741516113,-0.323215126991272,0.005727767944335938,985.6388549804688,0,13.0,1,1
7.2,0.0635145,-0.1497552,9.762438000000001,0.0005208191578276455,0.00036828225711360574,-0.0002616211422719061,-8.021437644958496,23.47399139404297,-32.715465545654304,-0.8791183233261108,-0.3357502818107605,0.010924339294433594,985.6158447265624,0,13.0,1,1
7.24,0.07065117,-0.15928747,9.764802,-1.1494208592921495e-05,0.0006345465080812572,0.0005374629399739206,-8.214620590209961,24.136138916015625,-33.032379150390625,-0.884292721748352,-0.3150903582572937,-0.007569313049316406,985.6337890625,0,13.0,1,1
7.28,0.06583834,-0.14975353,9.750595,-0.00014433375326916578,0.00010186299914494157,4.967616405338049e-06,-7.882356643676758,23.28839111328125,-33.110958099365234,-0.8703055381774902,-0.3327094912528992,0.007073402404785156,985.6312866210938,0,13.0,1,1
7.32,0.058635592,-0.16166909,9.757694,-0.0008098050602711737,-0.0002976625110022724,-0.0001280538854189217,-8.104182243347168,24.13439178466797,-33.35723114013672,-0.8702510595321655,-0.31704020500183105,0.007539749145507811,985.6334228515624,0,13.0,1,1
7.36,0.07055205,-0.15690179,9.781363,0.0005220927996560931,-0.00029771417030133307,5.2405521273612985e-06,-8.003716468811035,23.85995483398437,-33.741573333740234,-0.8708424568176271,-0.3101894855499268,-0.015684127807617188,985.6410522460938,0,13.0,1,1
7.4,0.075298846,-0.16881733,9.755321,0.0007887269603088497,-3.1449977541342384e-05,0.0006711665773764253,-8.061842918395996,23.963802337646484,-34.12361526489258,-0.8708573579788208,-0.3083491921424866,0.0037326812744140634,985.6362915039062,0,13.0,1,1
7.44,0.0680961,-0.15690015,9.743481,-0.00014306022785604,0.0002348142443224788,0.00013867119560018182,-8.173803329467772,23.964080810546875,-33.72146224975586,-0.8619645833969116,-0.32099610567092896,0.032553672790527344,985.6365966796876,0,13.0,1,1
7.48,0.06567317,-0.16166587,9.760049,0.00012357404921203852,-0.00016471128037665042,0.00040512369014322763,-8.325900077819824,23.874046325683594,-33.230846405029304,-0.8573538064956665,-0.3145901560783386,-0.004869461059570313,985.616455078125,0,13.0,1,1
7.52,0.07519975,-0.16166507,9.762413,0.0003902082680724561,-0.0005642367759719491,-0.0006600034539587796,-8.057552337646483,23.756389617919922,-32.95737838745117,-0.84794020652771,-0.3083428144454956,0.009777069091796877,985.6491088867188,0,13.0,1,1
7.56,0.058437407000000004,-0.16404749999999998,9.764777,0.00012421089923009274,0.0006341330008581281,-0.0007930248393677175,-7.86629581451416,23.56697082519531,-33.36068344116211,-0.8341655731201172,-0.3021804094314575,0.000713348388671875,985.6388549804688,0,13.0,1,1
7.6,0.070353866,-0.17596315,9.757672,-0.0013402081094682214,-0.00016486634558532387,0.00040553300641477113,-7.9952659606933585,24.13116455078125,-33.60477828979492,-0.8443382382392883,-0.2912681698799133,0.015315055847167969,985.6315307617188,0,13.0,1,1
7.64,0.07749051,-0.16404592,9.755302,0.0002580055734142661,0.0010335034457966683,0.00027251156279817224,-8.543596267700195,23.986412048339844,-33.434829711914055,-0.8400571346282959,-0.2942120432853699,0.02047443389892578,985.6187133789062,0,13.0,1,1
7.68,0.06311810000000001,-0.15927859,9.767136,0.0006577976164408027,0.0003676620544865728,0.00013949000276625156,-8.235652923583983,24.327354431152344,-33.348262786865234,-0.8306626081466675,-0.3021887540817261,0.016176223754882812,985.644287109375,0,13.0,1,1
7.72,0.06308508,-0.17119415,9.767133,0.0002586421906016767,-0.00043133730650879437,-0.000526163203176111,-8.31318187713623,23.517539978027344,-33.75083541870117,-0.8264601230621338,-0.2863500714302063,0.002373695373535156,985.6113891601562,0,13.0,1,1
7.76,0.06544191,-0.1545104,9.760028,0.00012580276234075427,-0.0005645469063892961,0.0004060788196511567,-8.009262084960938,23.485774993896484,-33.33390426635742,-0.8221570253372192,-0.29912543296813965,0.002781867980957031,985.6141967773438,0,13.0,1,1
7.8,0.07577407,-0.16167910000000002,9.7600975,-0.0004065106040798128,0.0005006649298593402,6.741436664015055e-06,-7.949178218841553,24.12145233154297,-33.303375244140625,-0.827549159526825,-0.2879487872123718,0.012650489807128906,985.5936889648438,0,13.0,1,1
7.84,0.078985035,-0.1640826,9.764908,0.00025574449682608247,-0.0001645509910304099,-0.0007937211194075644,-8.01795768737793,24.21498870849609,-33.14428329467773,-0.8343403339385986,-0.2959421277046204,0.01764392852783203,985.6240844726562,0,13.0,1,1
7.88,0.08140665,-0.15931676,9.767278999999998,-1.925890683196485e-05,-0.0004315259284339845,0.0006636368343606591,-8.322420120239258,24.61504364013672,-33.65966415405273,-0.8299139738082886,-0.29459816217422485,-0.0008945465087890625,985.624755859375,0,13.0,1,1
7.92,0.06231913,-0.17123403,9.7483425,-1.925890683196485e-05,-0.0004315259284339845,0.0006636368343606591,-8.582891464233397,24.159942626953125,-32.823055267333984,-0.7970544695854187,-0.2929611802101135,0.023172378540039062,985.624755859375,0,13.0,1,1
7.96,0.079080135,-0.14978527,9.774385,0.0003799094411078841,-0.0002983183949254453,-0.00013544171815738082,-7.788767337799072,24.37678146362305,-32.958114624023445,-0.8215147852897644,-0.29145348072052,-0.0001125335693359375,985.6138916015624,0,13.0,1,1
8.0,0.06477243,-0.15931918,9.748348,-0.0005525016458705069,0.000367520930012688,0.00039705907693132764,-7.9382262229919425,24.763900756835934,-33.419639587402344,-0.7936136722564697,-0.30422264337539673,0.028665542602539062,985.6318359375,0,13.0,1,1
8.04,0.067194015,-0.14978682,9.760188000000001,-2.017532824538648e-05,-0.00029821923817507917,-0.0006683352985419332,-8.048419952392576,23.76522827148437,-33.42120742797852,-0.7989217042922974,-0.293363094329834,0.010105133056640623,985.6068725585938,0,13.0,1,1
8.08,0.06483585,-0.14978759,9.757824000000001,-0.0008194284746423364,0.0006339357933029532,0.0006631131400354207,-7.9479546546936035,23.49079132080078,-33.805553436279304,-0.7855222821235657,-0.30591970682144165,0.019937515258789062,985.6244506835938,0,13.0,1,1
8.12,0.07681703599999999,-0.15693815,9.757827,0.00039146206108853216,-0.00018371426267549398,-0.0009126871591433883,-8.22209358215332,24.23469161987305,-33.34492874145508,-0.8003401756286621,-0.2851942181587219,0.015596389770507812,985.6272583007812,0,13.0,1,1
8.16,0.07445881,-0.14978911,9.755463,0.0006574724684469402,0.0003489671216811985,0.00015244539827108383,-8.643082618713379,24.63060760498047,-33.22623825073242,-0.7917520999908447,-0.28838855028152466,-0.0029897689819335933,985.6318359375,0,13.0,1,1
8.2,0.0697107,-0.16408964,9.757833,0.00025769317289814353,0.0004821746551897377,-0.0001140013337135315,-8.06600284576416,23.48517608642578,-33.094173431396484,-0.7781517505645752,-0.28211361169815063,0.016309738159179688,985.65966796875,0,13.0,1,1
8.24,0.06974241,-0.15694048,9.764936,0.0001242297585122287,-0.0003167234244756401,0.000285341520793736,-7.632103443145753,24.471233367919922,-33.68064498901367,-0.7790170907974243,-0.29036545753479004,0.016651153564453125,985.6392822265624,0,13.0,1,1
8.28,0.07933372,-0.16647442,9.760206,-0.0004087074776180089,0.0010149055160582066,0.0002852106117643416,-8.25157642364502,24.154693603515625,-33.797611236572266,-0.7794154286384583,-0.2790567874908447,0.012311935424804688,985.6471557617188,0,13.0,1,1
8.32,0.07219571,-0.15455882,9.753107,-0.0002761604846455157,-0.0007160485256463289,1.8632912542670965e-05,-7.85493803024292,23.735210418701172,-32.67942428588867,-0.7706608176231384,-0.2779096364974976,0.012647628784179688,985.6650390625,0,13.0,1,1
8.36,0.06744757,-0.14979304,9.762578999999999,-0.00040962389903143054,0.0004824225616175682,-0.0007804456399753691,-7.854800701141357,23.84112548828125,-33.37849807739258,-0.7668837308883667,-0.2907066345214844,0.008249282836914062,985.6318359375,0,13.0,1,1
8.4,0.06747928,-0.15694363,9.753113,0.00025586033007130027,8.299833280034363e-05,-0.0003811027854681015,-7.847870826721191,24.110862731933594,-33.16439437866211,-0.7580113410949707,-0.2699965238571167,0.032283782958984375,985.6574096679688,0,13.0,1,1
8.44,0.06990087,-0.15217789,9.762585000000001,0.0010545025579631329,0.00034936380689032376,1.82401854544878e-05,-7.9289870262146,23.66639709472656,-33.510814666748054,-0.7539908885955809,-0.27751636505126953,0.02318763732910156,985.6248779296876,0,13.0,1,1
8.48,0.074712366,-0.164095,9.769689,0.0006547232042066753,-0.0008490080945193768,-0.00024820654653012747,-7.854800701141357,23.84112548828125,-33.37849807739258,-0.7595705986022949,-0.2713788747787476,-0.00014591217041015625,985.6395263671876,0,13.0,1,1
8.52,0.06040466,-0.14264633,9.743652,-0.00014452991308644414,-0.00018316875502932814,0.0002842942485585809,-7.856322288513184,23.83965301513672,-33.301197052001946,-0.7363163232803345,-0.29374808073043823,0.02861309051513672,985.6471557617188,0,13.0,1,1
8.56,0.07238585,-0.1545635,9.760225,-0.00027799332747235894,-0.0008489089086651803,-0.00011531054042279719,-8.346933364868164,24.06525421142578,-33.54673385620117,-0.7464666366577148,-0.2733412384986877,0.005288124084472656,985.6301879882812,0,13.0,1,1
8.6,0.0724175,-0.16648062,9.764963,-0.0004114567418582738,0.00021640417980961504,1.7716432921588417e-05,-8.143775939941406,23.67578887939453,-33.17032623291016,-0.7285581231117249,-0.25795453786849976,0.024518966674804688,985.6119384765624,0,13.0,1,1
8.64,0.06766945,-0.16171487,9.750763000000001,-0.0009443939779885113,0.0007490854477509856,1.7585582099854943e-05,-7.700775623321532,23.45842742919922,-33.14889144897461,-0.7439851760864258,-0.2663477063179016,0.029555320739746094,985.6248779296876,0,13.0,1,1
8.68,0.07009101,-0.16171564,9.753133,0.00025372201343998313,8.334542508237064e-05,1.7454614862799644e-05,-8.092985153198242,23.77641296386719,-33.799915313720696,-0.7258632183074951,-0.27457815408706665,0.02986907958984375,985.6473999023438,0,13.0,1,1
8.72,0.07012272,-0.15933312,9.769707,-0.0005455311038531363,8.339507621712984e-05,-0.0009147818200290203,-8.071952819824219,23.585205078125,-33.48403549194336,-0.7221482992172241,-0.26380449533462524,0.006500244140625,985.6123657226562,0,13.0,1,1
8.76,0.074934214,-0.16410048,9.762608,-0.0002795206964947283,8.344466914422809e-05,-0.00038228102494031185,-8.1026611328125,24.1358642578125,-33.43453598022461,-0.7326046228408813,-0.2573380470275879,0.021038055419921875,985.6530151367188,0,13.0,1,1
8.8,0.07439497,-0.16647054,9.760191,0.000918595294933766,0.0003498100850265473,0.00028337776893749833,-8.644604682922362,24.629135131835934,-33.14893341064453,-0.7281895279884338,-0.25112569332122797,0.016674041748046875,985.6146850585938,0,13.0,1,1
8.84,0.072013915,-0.15455435,9.760192,-0.0010729733621701598,8.072296623140574e-05,-0.0005160391447134316,-8.214483261108397,24.24205780029297,-33.731456756591804,-0.7197140455245972,-0.26442402601242065,0.02643108367919922,985.6348876953124,0,13.0,1,1
8.88,0.06724298,-0.14740479999999997,9.753091,-0.0002720993070397526,0.0002135681570507586,-0.00011573970550671221,-7.95222282409668,24.118507385253906,-33.14876174926758,-0.7014766931533813,-0.2727404236793518,0.03147602081298828,985.6299438476562,0,13.0,1,1
8.92,0.06486201,-0.16408789999999998,9.767296,-0.0001390269317198545,-0.0005853656330145894,-0.0006484081386588514,-8.207010269165039,24.14350891113281,-33.41890335083008,-0.712083101272583,-0.2571702003479004,0.012837409973144531,985.6197509765624,0,13.0,1,1
8.96,0.07204056,-0.15693824,9.750725,0.0002603613829705864,0.0006130696856416763,-0.000781602633651346,-8.040512084960938,24.40472412109375,-33.382862091064446,-0.698786735534668,-0.260221004486084,0.013154983520507812,985.6295166015624,0,13.0,1,1
9.0,0.06726962,-0.14978863,9.757828,-0.00013919812045060098,0.00021360983373597264,-0.0003821655991487205,-8.064044952392576,24.22470092773437,-33.44568634033203,-0.7089908123016357,-0.2685707211494446,0.03714561462402344,985.6455688476562,0,13.0,1,1
9.04,0.067278564,-0.14978887,9.753094,-6.125745130702852e-06,-0.0019169033039361238,0.0005499033723026514,-7.948092460632324,23.38487243652344,-33.10647201538086,-0.6861404180526733,-0.2672126889228821,0.03270721435546875,985.6226196289062,0,13.0,1,1
9.08,0.06967729,-0.15932222,9.764930999999999,-0.00013936930918134752,0.0010125853586941957,0.0002835507621057332,-7.8528733253479,23.368392944335934,-32.658275604248054,-0.6969347596168518,-0.2562018036842346,0.014059066772460938,985.6376342773438,0,13.0,1,1
9.12,0.069686174,-0.16170575,9.755463,0.0002600190055090934,0.0006131253321655095,-0.00011595978867262603,-8.108747482299805,24.12997436523437,-33.125316619873054,-0.6843748688697815,-0.2598761320114136,0.014296531677246094,985.6123657226562,0,13.0,1,1
9.16,0.06730515,-0.16408919,9.764933000000001,-0.0005390142323449254,0.0015452445950359106,-0.0002491543418727815,-8.102117538452147,23.767578125,-33.33608627319336,-0.6906824111938477,-0.2392754703760147,0.009833335876464844,985.6279907226562,0,13.0,1,1
9.2,0.06970397,-0.15932281,9.757832,-0.00013962600496597588,-0.00018579450261313466,-0.00011603301391005515,-8.114835739135742,24.124080657958984,-32.816097259521484,-0.6865473985671997,-0.24746085703372955,0.029087066650390625,985.6273803710938,0,13.0,1,1
9.24,0.06732291,-0.15693982,9.774403999999999,0.0007923940429463983,-0.0008515703957527876,0.0005497199599631131,-7.901866912841798,23.4810791015625,-33.504150390625,-0.6779515743255615,-0.2651081681251526,0.015181541442871094,985.6350708007812,0,13.0,1,1
9.28,0.06494188,-0.15217344,9.7578335,0.00025967651163227856,-5.260881152935326e-05,-0.00024926447076722985,-7.999288558959961,23.75846099853516,-33.27441024780273,-0.6645704507827759,-0.2542727589607239,0.029677391052246094,985.6303100585938,0,13.0,1,1
9.32,0.08407003,-0.17123993,9.7696705,0.00025967651163227856,-5.260881152935326e-05,-0.00024926447076722985,-7.855343818664551,24.20941925048828,-33.47695159912109,-0.6891405582427979,-0.22905753552913666,0.01105022430419922,985.6303100585938,0,13.0,1,1
9.36,0.08168894,-0.15694048,9.745998,-0.00027304075774736697,-0.0009847005130723119,-0.0005156169063411653,-8.178369522094728,23.95966339111328,-33.48954391479492,-0.6806340217590332,-0.2419724613428116,0.03974342346191406,985.6054077148438,0,13.0,1,1
9.4,0.07452813,-0.16647379,9.762571000000001,0.00039266343810595567,-0.0009846866596490145,0.00015013612573966384,-7.841240882873535,23.74846649169922,-33.375167846679695,-0.6724215149879456,-0.2360655814409256,0.02579498291015625,985.6427612304688,0,13.0,1,1
9.44,0.067367315,-0.16170742,9.753102,-0.0004063698870595545,0.00021374871721491215,0.00015009933849796653,-7.953063488006593,23.854663848876953,-33.67208480834961,-0.6592268943786621,-0.24918670952320102,0.035533905029296875,985.6156616210938,0,13.0,1,1
9.48,0.07454592,-0.15455778,9.767307,-0.00027329756994731724,-5.2553194109350436e-05,-0.0003825692110694945,-7.942004203796388,23.390766143798828,-33.41569137573242,-0.6556299924850464,-0.24796055257320404,0.016861915588378906,985.6331176757812,0,13.0,1,1
9.52,0.07216486,-0.1497915,9.760205000000001,-0.0001402251364197582,0.00034693448105826974,-0.00011628976790234448,-8.013689994812013,23.58727264404297,-33.80106735229492,-0.6616400480270386,-0.2420161217451096,0.0076541900634765625,985.6151733398438,0,13.0,1,1
9.56,0.07456368,-0.16170810000000002,9.776776,0.00012600506306625903,0.00021379039390012625,-0.00011632655514404178,-7.777570247650146,24.018798828125,-33.40079879760742,-0.648466944694519,-0.2358720153570175,0.007925987243652344,985.6207275390624,0,13.0,1,1
9.6,0.06979275,-0.15455852,9.769675999999999,-0.00027355420752428467,-0.000718301220331341,-0.00011636322597041726,-7.721264839172362,23.281349182128906,-33.366321563720696,-0.649681806564331,-0.234684094786644,0.02238750457763672,985.6506958007812,0,13.0,1,1
9.64,0.07458144400000001,-0.15217550000000002,9.764942,-0.00025578800705261534,7.708885823376477e-05,-0.0005080959526821972,-8.087577819824219,24.044677734375,-33.50851058959961,-0.6461410522460938,-0.24769286811351776,0.022647857666015625,985.6100463867188,0,13.0,1,1
9.68,0.057861,-0.14502579999999998,9.772045,0.00014360019122250378,-0.00045552896335721016,-0.00024181697517633444,-7.924123287200928,24.30295181274414,-33.317855834960945,-0.6332137584686279,-0.24654220044612885,0.008687973022460938,985.6228637695312,0,13.0,1,1
9.72,0.06981939,-0.15455909,9.757842,-0.00038911713636480266,7.71166814956814e-05,0.00015762029215693474,-8.3179931640625,24.513545989990234,-33.192501068115234,-0.6337937116622925,-0.24060846865177155,0.03265094757080078,985.645263671875,0,13.0,1,1
9.76,0.07462382,-0.16647615,9.764946,-0.0003892027598340064,-0.0007218170212581754,2.442562254145741e-05,-8.113314628601074,24.12555313110352,-32.89340209960937,-0.6448086500167847,-0.2345801144838333,0.018690109252929688,985.6283569335938,0,13.0,1,1
9.8,0.062699854,-0.15217717,9.764948,-0.0006556897424161433,-0.0007217893144115807,-0.00010880571790039541,-7.78602123260498,23.747589111328125,-33.53759384155273,-0.6220703721046448,-0.2333003729581833,0.023680686950683597,985.6207275390624,0,13.0,1,1
9.84,0.06271005,-0.17362688,9.779152,9.705574484542012e-06,-5.593561218120158e-05,-0.00010897463653236629,-8.074018478393555,23.95201873779297,-33.505176544189446,-0.6137597560882568,-0.20843444764614105,0.004985809326171875,985.6532592773438,0,13.0,1,1
9.88,0.06988989999999999,-0.15694417,9.746013,0.0005422394024208188,-0.0007217093370854856,-0.0002421744866296649,-7.713356971740723,23.92084503173828,-33.32797622680664,-0.6245653629302979,-0.22611255943775174,0.03838062286376953,985.6251220703124,0,13.0,1,1
9.92,0.06751013,-0.15932770000000002,9.77442,0.0001426675880793482,0.00021041205036453903,0.0005567311309278011,-8.454029083251951,24.702091217041016,-32.95161819458008,-0.6164839267730713,-0.2249676138162613,-0.003997802734375,985.6148681640624,0,13.0,1,1
9.96,0.06991019999999999,-0.15694465,9.762585000000001,-0.0003900618467014283,-0.0007216776139102876,0.0004235312808305025,-7.7489280700683585,23.83495330810547,-33.471435546875,-0.6180100440979004,-0.21413521468639374,0.024641036987304688,985.6203002929688,0,13.0,1,1
10.0,0.07231024,-0.16171141,9.769688,-0.00025700186961330473,-0.00018903003365267068,2.401554957032204e-05,-7.851213455200195,23.47578048706055,-33.43466186523437,-0.614457905292511,-0.2274831682443619,0.024875640869140625,985.643798828125,0,13.0,1,1
10.04,0.060370922,-0.16171171,9.764955,0.0002755318710114807,-0.0005884878919459879,-0.00037550041452050214,-7.939640998840332,23.656085968017575,-32.969676971435554,-0.6013236045837402,-0.23547400534152985,0.029867172241210938,985.6309204101562,0,13.0,1,1
10.08,0.060381055,-0.14502902,9.753119,0.00040859208093024785,7.731767254881561e-05,-0.000375542207621038,-8.074018478393555,23.95201873779297,-33.505176544189446,-0.5936731696128845,-0.23438502848148346,0.0395355224609375,985.5980834960938,0,13.0,1,1
10.12,0.062781096,-0.15932886,9.7696905,-0.0009230852592736485,0.00034364944440312684,0.00015704758698120713,-7.963717460632324,23.844348907470703,-33.13094711303711,-0.5951400995254517,-0.21425946056842804,0.011350631713867188,985.6156616210938,0,13.0,1,1
10.16,0.06757107400000001,-0.15456264,9.760223,0.00014208044740371406,7.734945393167436e-05,0.00015700561925768852,-7.950699806213379,24.11997985839844,-33.22607040405273,-0.5947378873825073,-0.2316321283578873,0.030632972717285163,985.6231689453124,0,13.0,1,1
10.2,0.07475093,-0.15932943,9.760223,-0.000390649278415367,-0.0007215823279693723,-0.00010935217142105104,-8.188586235046388,24.68740081787109,-33.22261428833008,-0.6024994254112244,-0.22148804366588595,0.04022407531738281,985.5980834960938,0,13.0,1,1
10.24,0.06998128,-0.14503007,9.753122,0.000408200517995283,-0.00045525046880356973,0.00029007962439209223,-7.904475212097168,24.216182708740234,-33.62374496459961,-0.5899062156677246,-0.22965632379055026,0.030968666076660163,985.6033325195312,0,13.0,1,1
10.28,0.05804193,-0.14741357,9.762592,0.00014178678975440562,0.0006100289756432176,-0.00024259416386485097,-8.067386627197267,23.589618682861328,-33.71594619750977,-0.5723692178726196,-0.2333256155252457,0.02171230316162109,985.637939453125,0,13.0,1,1
10.32,0.0795612,-0.15456362,9.774429,-0.00025778493727557356,0.00021057095727883282,-0.0002426360733807087,-8.057849884033201,23.124252319335934,-33.382247924804695,-0.5982998013496399,-0.22749151289463046,0.012429237365722656,985.6283569335938,0,13.0,1,1
10.36,0.06523195,-0.16171367,9.776798,-0.0007905146339908242,0.0008763766381889582,0.00015679583884775639,-8.309977531433105,24.04670715332031,-32.781497955322266,-0.5806467533111572,-0.2170502096414566,0.01263713836669922,985.6561279296876,0,13.0,1,1
10.4,0.0795815,-0.15933062,9.762596,-0.000524296541698277,-0.0004551869351416826,2.3595988750457764e-05,-7.86143159866333,24.203521728515625,-33.167728424072266,-0.5822689533233643,-0.21113060414791107,0.017580032348632812,985.637939453125,0,13.0,1,1
10.44,0.07959169,-0.15456434,9.7768,0.00027455316740088165,0.00021061862935312087,0.0005561858415603638,-8.16480827331543,23.867000579833984,-33.48621368408203,-0.5932966470718384,-0.2242359071969986,0.017797470092773438,985.6533203125,0,13.0,1,1
10.48,0.08438164,-0.15456457,9.767332000000001,-0.0003913343825843185,-0.00018883925804402682,-0.00024280382785946133,-7.9417057037353525,24.02289962768555,-32.99082565307617,-0.594921350479126,-0.2183999866247177,0.017999649047851562,985.6405029296876,0,13.0,1,1
10.52,0.07483217,-0.15933134,9.764966000000001,8.041533874347806e-06,-0.0005882971454411745,0.0004229439655318856,-8.326986312866211,24.610626220703125,-33.427749633789055,-0.5819669365882874,-0.2031744867563248,0.01820850372314453,985.6455688476562,0,13.0,1,1
10.56,0.072452456,-0.17363138,9.764967,-0.0006578461034223437,0.00021066635963507,0.00015658605843782425,-8.013391494750978,24.21940612792969,-33.37619781494141,-0.5600719451904297,-0.18777333199977875,0.018390655517578125,985.6338500976562,0,13.0,1,1
10.6,0.0676828,-0.15456541,9.7626,-0.00025847015785984695,0.00034384013270027936,-0.00024292967282235625,-7.992902278900146,24.396484375,-33.158763885498054,-0.5714086294174194,-0.22480328381061554,0.03278636932373047,985.6231689453124,0,13.0,1,1
10.64,0.06291312,-0.16171546,9.767336,-0.0002585680049378425,0.0006101718172430992,0.00015650223940610886,-8.336416244506836,23.96965026855469,-33.388790130615234,-0.5541404485702515,-0.20964594185352325,0.03770160675048828,985.648193359375,0,13.0,1,1
10.68,0.082042515,-0.16171570000000002,9.750766,-0.0005249818786978722,-0.00045507570030167693,2.330215647816658e-05,-8.276769638061522,23.86727905273437,-33.084056854248054,-0.5747346878051758,-0.19927971065044406,0.03316211700439453,985.6203002929688,0,13.0,1,1
10.72,0.07727286,-0.14979957,9.753134,-0.0005249818786978722,-0.00045507570030167693,2.330215647816658e-05,-7.806510925292969,23.57051086425781,-33.75503158569336,-0.5569937229156494,-0.22199030220508573,0.038107872009277344,985.6203002929688,0,13.0,1,1
10.76,0.0795466,-0.15217999999999998,9.762592,-0.00039201966137625277,-0.0017866232665255664,-0.0005094134248793125,-7.764009952545166,23.92613983154297,-33.397464752197266,-0.568039059638977,-0.20677198469638824,0.03830909729003906,985.6028442382812,0,13.0,1,1
10.8,0.06282234,-0.17124633,9.767325999999999,-0.00039201966137625277,-0.0017866232665255664,-0.0005094134248793125,-7.987250804901122,23.664329528808594,-33.193775177001946,-0.5366770029067993,-0.19653074443340304,0.02426338195800781,985.6028442382812,0,13.0,1,1
10.84,0.06282741,-0.15933006,9.760226,-0.0009241418447345496,0.0007432948332279921,0.0004229105543345213,-7.523622989654541,23.72995758056641,-33.653980255126946,-0.5432934165000916,-0.20979104936122892,0.029178619384765625,985.645263671875,0,13.0,1,1
10.88,0.07478201400000001,-0.15218036,9.776796000000001,-0.0002578061248641461,0.0002105744497384876,0.0004231446073390544,-8.185840606689451,24.05821228027344,-33.80209732055664,-0.5452597737312317,-0.203770712018013,0.015158653259277344,985.63818359375,0,13.0,1,1
10.92,0.07478705,-0.15933026,9.762594,8.460861863568425e-06,-5.5733515182510025e-05,0.0005562816513702273,-8.201902389526367,23.779640197753906,-33.552364349365234,-0.5422551631927489,-0.20277966558933255,0.02007293701171875,985.6331176757812,0,13.0,1,1
10.96,0.07479215,-0.15933041,9.753126,8.41208384372294e-06,0.0007432220736518503,2.3628934286534783e-05,-8.235408782958983,23.326927185058594,-33.67468643188477,-0.5391493439674377,-0.1923402696847916,0.039193153381347656,985.6287841796876,0,13.0,1,1
11.0,0.07957703,-0.14979742,9.764961999999999,-0.0005242687184363604,-0.00018887557962443682,0.0004230818012729287,-8.178369522094728,23.95966339111328,-33.48954391479492,-0.5409985184669495,-0.2005840390920639,0.025176048278808597,985.6231689453124,0,13.0,1,1
11.04,0.058072954,-0.16409720000000003,9.762595,-0.00025800158618949354,-0.0003220255894120782,0.00042306078830733895,-8.074996948242188,23.582260131835934,-33.329421997070305,-0.523501455783844,-0.19479115307331085,0.03483104705810547,985.6105346679688,0,13.0,1,1
11.08,0.06285784,-0.15456428,9.753127000000001,0.000674055190756917,-5.5701792007312185e-05,0.0008225137135013938,-7.989858627319336,24.399433135986328,-33.31337356567383,-0.5253645181655884,-0.20349620282649994,0.03499698638916016,985.6304931640624,0,13.0,1,1
11.12,0.07481241,-0.14026476,9.764963999999999,-0.00025809943326748913,7.746412302367389e-05,2.3545115254819393e-05,-7.6486005783081055,23.454605102539066,-33.15670394897461,-0.5279489755630493,-0.21171630918979645,0.035147666931152344,985.6279907226562,0,13.0,1,1
11.16,0.07481751,-0.16648091,9.764963999999999,-0.00032650079810991883,0.00021034908422734588,0.0002029777388088405,-8.142797470092772,24.045551300048828,-33.346080780029304,-0.5297906398773193,-0.1915564686059952,0.04005718231201172,985.6558227539062,0,13.0,1,1
11.2,0.07004276,-0.15218134,9.76023,0.00020603323355317118,-0.000189108875929378,-6.338005186989903e-05,-7.906975746154785,23.84494781494141,-33.37068557739258,-0.5223237872123718,-0.20455805957317352,0.030759811401367188,985.6207275390624,0,13.0,1,1
11.24,0.07721752,-0.1712477,9.764965,0.0006054581608623266,0.0006098466692492366,0.0006023887544870378,-8.013391494750978,24.21940612792969,-33.37619781494141,-0.5148548483848572,-0.1798161417245865,0.021445274353027344,985.62841796875,0,13.0,1,1
11.28,0.06049332,-0.16171469,9.762597999999999,7.277756230905652e-05,0.0003435387625358999,0.00033605191856622696,-8.046355247497559,23.39841079711914,-33.40006256103516,-0.5122758746147156,-0.1789637953042984,0.021593093872070312,985.6506958007812,0,13.0,1,1
11.32,0.06766808,-0.1640981,9.750763000000001,-0.00019358721328899264,0.0006098625599406661,0.00046918890438973904,-8.064044952392576,24.22470092773437,-33.44568634033203,-0.5045611858367921,-0.18239198625087735,0.040711402893066406,985.6502685546876,0,13.0,1,1
11.36,0.08201256400000001,-0.15933163,9.772067999999999,0.0006053115357644856,-0.00032223510788753634,-0.0003297797520644963,-7.863251686096191,23.56991577148437,-33.51529693603516,-0.5302884578704834,-0.18104077875614166,0.021953582763671875,985.6356811523438,0,13.0,1,1
11.4,0.065288305,-0.15694852,9.755497,0.0002057889360003173,-0.000455385074019432,-0.0001966426498256624,-7.910861492156982,23.578155517578125,-33.739395141601555,-0.5034137964248657,-0.19926442205905914,0.04578876495361328,985.6123657226562,0,13.0,1,1
11.44,0.07724285,-0.16171516,9.769701,-0.0004600497195497155,-0.0007216930389404298,0.000469126069219783,-8.332830429077147,23.60430908203125,-33.44495010375977,-0.5151609182357788,-0.184191569685936,0.03646183013916016,985.6331176757812,0,13.0,1,1
11.48,0.067688346,-0.16648193,9.764969,-0.0003269407316111028,0.0012756838696077464,0.00020278920419514182,-7.774961948394775,23.283695220947266,-33.281200408935554,-0.4979912340641022,-0.18314360082149506,0.022418975830078125,985.6353759765624,0,13.0,1,1
11.52,0.06291363,-0.15694894,9.764967,0.0004719581920653582,7.727048068773e-05,0.0003359262482263148,-7.4990034103393555,23.17340087890625,-33.39425277709961,-0.4906705319881439,-0.17248235642910004,0.02730560302734375,985.6328735351562,0,13.0,1,1
11.56,0.07008839,-0.15218244,9.762602000000001,-6.072246469557285e-05,0.00047675223322585225,-0.0005962001741863787,-7.8625712394714355,23.30754089355469,-34.11592483520508,-0.4931848049163818,-0.19045503437519076,0.04164409637451172,985.6401977539062,0,13.0,1,1
11.6,0.07009345,-0.16171570000000002,9.760235,0.0007381762843579054,0.0012757077347487213,-0.0007293790695257485,-7.877110481262207,23.03044128417969,-33.94350051879883,-0.485990583896637,-0.18436191976070404,0.03232765197753906,985.6327514648438,0,13.0,1,1
11.64,0.07248843,-0.18078206,9.769705,0.0007381275645457207,-5.5863667512312525e-05,0.0014011269668117163,-8.214780807495117,23.609920501708984,-34.15633010864258,-0.4829958081245422,-0.1547192484140396,0.03722572326660156,985.6328735351562,0,13.0,1,1
11.68,0.07488339999999999,-0.15456612,9.776806,0.0007380786119028926,-0.000455329631222412,6.952654803171754e-05,-8.018937110900879,23.8452262878418,-32.96852493286133,-0.4947304725646973,-0.19653429090976715,0.013703346252441406,985.6301879882812,0,13.0,1,1
11.72,0.06293893,-0.15218295,9.767338,-0.00032723386539146304,-0.0003221637452952564,0.00020266365027055144,-7.960811138153076,23.74137878417969,-32.586483001708984,-0.4726143777370453,-0.18075816333293915,0.02808380126953125,985.6254272460938,0,13.0,1,1
11.76,0.06756392,-0.17124538,9.762589,0.0010042968206107616,0.00021047597692813724,-6.367330206558108e-05,-7.766488075256348,23.97521209716797,-31.32137680053711,-0.4844269752502442,-0.16069595515727994,0.02349853515625,985.6331176757812,0,13.0,1,1
11.8,0.06995255,-0.15932892,9.7602215,-0.00045915413647890086,-5.60487387701869e-05,0.0004695098905358464,-7.982386112213135,24.30087661743164,-33.00082015991211,-0.4770398437976837,-0.1837948113679886,0.042571067810058594,985.6356811523438,0,13.0,1,1
11.84,0.069951296,-0.15456237,9.757854,0.0007394665153697133,0.0006097086588852108,-0.00032935239141806966,-7.953744888305664,24.11703491210937,-33.071460723876946,-0.4793516099452973,-0.18273915350437164,0.04271030426025391,985.6331176757812,0,13.0,1,1
11.88,0.0747298,-0.14979585,9.750752,-0.000592100783251226,-0.0005887147854082286,0.0004696004616562277,-7.448456764221191,24.274452209472656,-33.69742584228516,-0.4716629683971405,-0.18177379667758944,0.033394813537597656,985.6350708007812,0,13.0,1,1
11.92,0.08189824,-0.15932886,9.757854,-0.00045893061906099314,-0.00018924297182820735,-6.302609108388424e-05,-7.499003887176514,23.17340087890625,-33.39425277709961,-0.4833435714244842,-0.1809486597776413,0.03353214263916016,985.6231689453124,0,13.0,1,1
11.96,0.06038791,-0.14741246,9.7649555,-0.0001926024560816586,-5.6086981203407056e-05,-0.0004624946159310639,-7.370820999145508,23.97792053222656,-32.92219924926758,-0.4663537740707398,-0.18471325933933255,0.03367424011230469,985.6177978515624,0,13.0,1,1
12.0,0.065166414,-0.16409536,9.7602215,0.0006063574692234397,0.0007428586832247673,0.0003364582662470639,-7.919557094573975,24.30736923217773,-33.549774169921875,-0.4591827690601349,-0.17411048710346222,0.03380680084228516,985.6148681640624,0,13.0,1,1
12.04,0.06755504,-0.15456225,9.753119,-0.0004588938318192959,-0.000322406820487231,0.00046962141641415656,-8.043012619018555,24.033489227294922,-33.12980270385742,-0.4706480503082275,-0.17796306312084198,0.043422698974609375,985.6507568359376,0,13.0,1,1
12.08,0.06277397,-0.15932874,9.7554865,0.00034006591886281967,-0.0005887247389182447,-0.0003293209592811764,-8.348455429077147,24.06378173828125,-33.469425201416016,-0.4537151753902435,-0.1674695461988449,0.029356002807617188,985.6303100585938,0,13.0,1,1
12.12,0.06277269,-0.16171198,9.7649555,0.0003400782588869333,-0.000588726659771055,-6.299989763647318e-05,-8.021001815795897,24.21204376220703,-32.989673614501946,-0.4557969570159912,-0.16633985936641693,0.03896903991699219,985.627685546875,0,13.0,1,1
12.16,0.067551196,-0.16171198,9.767323,7.377448491752149e-05,-0.0003224128158763051,0.0003364791045896709,-7.956788539886475,24.11408996582031,-32.91685104370117,-0.4612763822078705,-0.16468988358974454,0.029718399047851562,985.6327514648438,0,13.0,1,1
12.2,0.067549974,-0.16647853,9.7531185,7.377448491752149e-05,-0.0003224128158763051,0.0003364791045896709,-7.956788539886475,24.11408996582031,-32.91685104370117,-0.4549212455749512,-0.1499968022108078,0.04872989654541016,985.6327514648438,0,13.0,1,1
12.24,0.07232851,-0.16886170000000003,9.769689999999999,0.0006064185290597379,-0.0004555727355182171,7.016857853159308e-05,-8.132823944091799,24.3182373046875,-33.286590576171875,-0.4521535634994507,-0.15863414108753204,0.02519512176513672,985.6151733398438,0,13.0,1,1
12.28,0.062767625,-0.15932857,9.772057,7.379910675808786e-05,-0.0009882064769044518,0.00020333181601017714,-8.247446060180664,23.42105865478516,-33.755321502685554,-0.4356920123100281,-0.1625540405511856,0.02530479431152344,985.6328735351562,0,13.0,1,1
12.32,0.06993607,-0.16647841,9.748384,0.00020696927094832063,0.00034337094984948635,-6.297888467088342e-05,-7.684171676635742,23.36871337890625,-33.300167083740234,-0.4384205937385559,-0.14233459532260895,0.049094200134277344,985.6586303710938,0,13.0,1,1
12.36,0.06276509,-0.16171183,9.755486,-5.933450302109122e-05,0.0006096849101595581,0.00033650011755526066,-8.130760192871094,23.951419830322266,-33.26544570922852,-0.4312151670455933,-0.1652066558599472,0.039750099182128906,985.6451416015624,0,13.0,1,1
12.4,0.07471335,-0.164095,9.772057,-5.9322162996977574e-05,0.0006096828146837653,0.0003365054144524038,-8.04896354675293,24.133514404296875,-33.51965713500977,-0.4481132328510285,-0.15963520109653473,0.030391693115234375,985.6248779296876,0,13.0,1,1
12.44,0.06993225,-0.15932845,9.7507515,0.0003401638241484761,0.00034336495446041226,0.000336510653141886,-8.12535285949707,24.219688415527344,-32.97403717041016,-0.44131967425346375,-0.1681474894285202,0.05417346954345703,985.6301879882812,0,13.0,1,1
12.48,0.08188051,-0.15694518,9.769689,7.38601665943861e-05,0.000742836797144264,-0.0001961158704943955,-7.7854557037353525,23.79960632324219,-31.61611557006836,-0.4529494941234589,-0.15291638672351834,0.01169586181640625,985.6353759765624,0,13.0,1,1
12.52,0.060370147,-0.15217854,9.757852999999999,0.0004733462701551616,0.000609676877502352,0.0002033631899394095,-8.171034812927246,23.75519561767578,-32.47791290283203,-0.4212519526481629,-0.1662580817937851,0.04498100280761719,985.6200561523438,0,13.0,1,1
12.56,0.06992844,-0.15217854,9.767321,-0.00045874714851379405,-0.0013876942684873939,-0.00019610539311543107,-7.658818244934082,24.182342529296875,-32.88977432250977,-0.4331648051738739,-0.1748826652765274,0.02142906188964844,985.6350708007812,0,13.0,1,1
12.6,0.07470697,-0.14979525,9.762587,0.00034021271858364344,-0.0005887485458515584,-0.00046241603558883066,-7.562376022338867,23.53520202636719,-32.943756103515625,-0.4401645362377167,-0.164777472615242,0.03574371337890625,985.6675415039062,0,13.0,1,1
12.64,0.069925904,-0.15932833,9.769688,-0.0004651587514672429,0.00016205309657379982,-0.0010667324531823397,-7.801241397857666,23.73286437988281,-32.76454544067383,-0.4232498705387116,-0.16415373980998993,0.016921043395996094,985.6024169921876,0,13.0,1,1
12.68,0.079484224,-0.16409482,9.769688,-0.0013972519664093852,-0.00010426477820146828,-0.000267779512796551,-8.276065826416017,24.02520751953125,-31.861652374267575,-0.43514057993888855,-0.1445113867521286,0.0359649658203125,985.6473999023438,0,13.0,1,1
12.72,0.07728258,-0.14741652,9.764971000000001,-0.0007314501563087107,-0.0015690040308982134,0.0006643312517553568,-8.155952453613281,23.66400909423828,-32.55188369750977,-0.42735013365745533,-0.15330637991428375,0.05029964447021485,985.6427612304688,0,13.0,1,1
12.76,0.0703125,-0.15218796,9.762622,0.00033291932777501637,-0.0009030692162923516,0.0002644742489792406,-8.365196228027344,24.04758071899414,-32.619075775146484,-0.4155279994010925,-0.16659410297870636,0.03145408630371094,985.6342163085938,0,13.0,1,1
12.8,0.060766876,-0.1593381,9.762623,-6.935311830602585e-05,-0.0010357728460803628,0.00013011688133701682,-8.271905899047853,24.503833770751953,-32.89109420776367,-0.4030620753765106,-0.1611853688955307,0.04104423522949219,985.6544799804688,0,13.0,1,1
12.84,0.06556064,-0.16172175,9.750788,-0.0004689613997470588,-0.00023680337471887472,0.0003963751369155944,-7.940727233886719,24.39266586303711,-33.166580200195305,-0.41090163588523865,-0.14619816839694974,0.041126251220703125,985.6248779296876,0,13.0,1,1
12.88,0.067964494,-0.16887195,9.760259,-0.00020278015290386972,0.0010947978589683773,0.0003963174240197986,-7.821837425231934,24.662124633789066,-33.35463333129883,-0.4130988121032715,-0.14555524289608002,0.04596996307373047,985.6397094726562,0,13.0,1,1
12.92,0.07036838,-0.17363887,9.76026,-0.0007355464622378348,-0.00183465494774282,-0.0002695300499908626,-8.039968490600586,24.03643798828125,-33.284412384033196,-0.40586766600608826,-0.13999252021312714,0.03661155700683594,985.6171264648438,0,13.0,1,1
12.96,0.072772264,-0.16172273,9.7578945,0.00019642445840872824,0.0005622098105959594,-0.00026958767557516694,-8.145841598510742,24.04261016845703,-33.19147109985352,-0.4083344042301178,-0.1442243903875351,0.0603780746459961,985.6471557617188,0,13.0,1,1
13.0,0.07517612,-0.15219001,9.7697315,-0.0006026576738804579,-0.00010355807899031788,-0.00013648741878569126,-7.998852252960205,24.49651336669922,-33.548622131347656,-0.4062959253787993,-0.16270609200000766,0.02732563018798828,985.624755859375,0,13.0,1,1
13.04,0.065630436,-0.16172345,9.767365,-0.0004696345131378621,2.9621704015880823e-05,-3.3872202038764958e-06,-7.943633079528809,24.495635986328125,-33.711048126220696,-0.4041580855846405,-0.1427857130765915,0.01795482635498047,985.6497192382812,0,13.0,1,1
13.08,0.07281411,-0.16172381,9.757897999999999,-0.00020345309167169034,0.0008285912335850297,-3.444787580519914e-06,-7.356718063354492,23.5169677734375,-32.820411682128906,-0.39752060174942017,-0.15150518715381622,0.032245635986328125,985.626708984375,0,13.0,1,1
13.12,0.072828114,-0.17840709,9.765,-0.00020358766778372228,0.0008286131196655332,0.0002628133515827358,-7.841240406036378,23.74846649169922,-33.375167846679695,-0.4099777936935425,-0.12668581306934354,0.0418081283569336,985.6221313476562,0,13.0,1,1
13.16,0.07284206,-0.17364086,9.746065,0.00032890946022234857,0.00016284530283883214,0.00026275572599843144,-7.6029181480407715,23.919097900390625,-33.65282821655273,-0.38393300771713257,-0.13551343977451324,0.046634674072265625,985.6392822265624,0,13.0,1,1
13.2,0.077635825,-0.16172482,9.755533999999999,6.245894473977387e-05,0.0002960250130854547,-0.0001367758377455175,-8.278291702270508,23.865806579589844,-33.00674819946289,-0.41510209441185,-0.1444188505411148,0.05146408081054688,985.6342163085938,0,13.0,1,1
13.24,0.06570026,-0.15457536,9.757903,-0.0007366231875494123,-0.000236584892263636,-0.00026999140391126275,-8.345548629760742,23.960811614990234,-32.92496109008789,-0.38905903697013855,-0.14850710332393646,0.04208564758300781,985.6497192382812,0,13.0,1,1
13.28,0.06332433,-0.15457572,9.767373,0.0005948216421529652,0.0008287004311569035,-0.00040320708649232973,-8.362014770507812,24.15644073486328,-33.47275924682617,-0.38681361079216,-0.1475479155778885,0.013782501220703123,985.6392822265624,0,13.0,1,1
13.32,0.06572825,-0.1498095,9.748436,6.205527461133896e-05,-0.00010338326683267951,0.0003956829314120114,-8.347476005554201,24.43354797363281,-33.64518356323242,-0.3851397633552551,-0.13728205859661102,0.04699897766113281,985.6516723632812,0,13.0,1,1
13.36,0.07291189,-0.16410948,9.760273,-0.0010033426806330679,0.0010950600262731314,0.0002624673652462661,-8.05711555480957,24.49443817138672,-33.231578826904304,-0.37826836109161377,-0.14627377688884735,0.05655097961425781,985.636474609375,0,13.0,1,1
13.4,0.06575611,-0.17125966,9.767377999999999,6.17861223872751e-05,-0.0009022871963679789,-3.906257916241884e-06,-8.216686248779299,24.50295639038086,-33.053524017333984,-0.3852342963218689,-0.13592378795146942,0.047188758850097656,985.6137084960938,0,13.0,1,1
13.44,0.049040765,-0.1617269,9.75791,0.0007274411618709563,-0.0003696336061693728,-0.00013712194049730897,-8.721292495727539,24.08316802978516,-33.028186798095696,-0.3548170328140259,-0.13992355763912198,0.03306388854980469,985.6415405273438,0,13.0,1,1
13.48,0.056224465,-0.15696065,9.755543,-0.0003379569679964334,0.0006956516881473362,0.0005286101368255913,-8.132824897766112,24.3182373046875,-33.28658676147461,-0.35813647508621216,-0.14397622644901276,0.03786659240722656,985.6289672851562,0,13.0,1,1
13.52,0.0610182,-0.15934427,9.760278999999999,-0.0006044073961675168,0.0013614634517580269,-0.00013723724987357858,-8.144021034240723,24.67621612548828,-32.84391021728516,-0.3705244064331055,-0.13856132328510284,0.056884765625,985.6362915039062,0,13.0,1,1
13.56,0.063422084,-0.16172792,9.762648,-0.0002050681214313954,0.0004293795791454613,-4.136993084102869e-06,-8.329625129699707,24.133472442626953,-32.475608825683594,-0.368868499994278,-0.13299600780010226,0.03802204132080078,985.6414794921876,0,13.0,1,1
13.6,0.056266367000000005,-0.16172828,9.765017,6.11131836194545e-05,0.0013615069910883904,-0.00040366844041273,-8.10614013671875,23.39486694335937,-33.00571823120117,-0.3720665872097016,-0.1417216807603836,0.03809547424316406,985.644287109375,0,13.0,1,1
13.64,0.056280315,-0.16172864,9.7579155,6.11131836194545e-05,0.0013615069910883904,-0.00040366844041273,-7.916949272155763,23.572265625,-33.43017578125,-0.35076433420181274,-0.13104639947414398,0.038196563720703125,985.644287109375,0,13.0,1,1
13.68,0.04912454,-0.15934564,9.753182,0.0008599262218922378,0.00016310735372826454,0.000927853281609714,-8.085214614868164,24.309993743896484,-33.06249237060547,-0.3533411920070648,-0.13518382608890533,0.033547401428222656,985.62353515625,0,13.0,1,1
13.72,0.06561339,-0.15218998,9.769731,0.0003271598543506116,-0.0007689763442613183,0.0003951638354919851,-7.958171844482423,24.218528747558594,-33.538623809814446,-0.3604383170604706,-0.1535176783800125,0.038394927978515625,985.62353515625,0,13.0,1,1
13.76,0.060837447999999995,-0.16172309,9.760263,-0.0006050802767276764,-0.0001031647843774408,-4.367728251963854e-06,-8.214620590209961,24.136138916015625,-33.03237533569336,-0.3538167774677277,-0.13837961852550507,0.047942161560058594,985.6357421875,0,13.0,1,1
13.8,0.05367148,-0.15219013,9.757895,-0.00020421596127562225,-0.00036970639484934514,0.00012938614236190915,-7.858387470245361,24.20646667480469,-33.322341918945305,-0.3475446105003357,-0.14728163182735446,0.03853893280029297,985.65087890625,0,13.0,1,1
13.84,0.06562486,-0.15457352,9.757896,6.295999628491701e-05,0.00029594363877549773,0.00012975477147847414,-7.8668389320373535,23.935260772705078,-33.459136962890625,-0.3699724078178406,-0.1418212503194809,0.038603782653808594,985.618408203125,0,13.0,1,1
13.88,0.060848832,-0.15457357,9.753162,0.00046239685616455967,0.002027002861723304,-0.0005360508221201599,-8.45750904083252,23.96109390258789,-32.52280044555664,-0.3587637543678284,-0.1361156851053238,0.052883148193359375,985.6329345703124,0,13.0,1,1
13.92,0.06563243,-0.15457372,9.774466499999999,-0.00020342934294603765,0.00042911357013508683,-0.0005360663053579628,-8.021300315856934,23.57991027832031,-33.41454315185547,-0.34737685322761536,-0.1446228176355362,0.02456188201904297,985.6078491210938,0,13.0,1,1
13.96,0.06085643,-0.16410686,9.7721,0.00019600780797190964,0.00069543527206406,-0.0004029241972602904,-7.8675193786621085,24.1976318359375,-32.85851287841797,-0.355410635471344,-0.12989650666713715,0.03408622741699219,985.6405029296876,0,13.0,1,1
14.0,0.060860217,-0.15934043,9.7721,-0.00020350285922177136,0.00029596750391647214,-0.0008024138514883816,-8.136166572570799,23.68315505981445,-33.556854248046875,-0.3485549390316009,-0.13396523892879486,0.034168243408203125,985.645751953125,0,13.0,1,1
14.04,0.058474183,-0.15695728,9.767366,6.277652573771775e-05,0.0009617632604204117,-3.4818076528608803e-06,-8.536230087280272,24.99420166015625,-33.49493408203125,-0.33726784586906433,-0.13795112073421478,0.015302658081054688,985.6253051757812,0,13.0,1,1
14.08,0.05608803,-0.145041,9.767366,-0.0003367707540746778,0.00016282749129459262,-3.5132397897541527e-06,-8.024887084960938,23.94525146484375,-33.358383178710945,-0.3449517488479614,-0.1469578891992569,0.029575347900390625,985.6329345703124,0,13.0,1,1
14.12,0.056091845,-0.15219085,9.776836,-0.0006031233351677656,-0.00023664042237214747,-0.00013668689643964171,-7.900589942932129,24.48297882080078,-33.255035400390625,-0.3286477327346802,-0.14161299169063568,0.029649734497070312,985.6249389648438,0,13.0,1,1
14.16,0.07521486,-0.15219094,9.765,-0.0005644352058880031,-0.0005255800206214191,-0.0001437846221961081,-8.249351501464844,24.31409454345703,-32.65251922607422,-0.35505130887031555,-0.13600699603557587,0.03920745849609375,985.6199951171876,0,13.0,1,1
14.2,0.068048984,-0.16410746,9.757899,0.0005007913568988441,-0.00025925817317329347,-0.0006764321005903183,-7.913064002990723,23.839054107666016,-33.06146240234375,-0.3436495661735535,-0.11620230972766875,0.05348396301269531,985.6582641601562,0,13.0,1,1
14.24,0.058493167,-0.14504129999999998,9.753165,0.0006339128012768924,0.00014022158575244248,0.0002556577674113214,-7.9977664947509775,23.75993347167969,-33.35171890258789,-0.3370199203491211,-0.14874525368213656,0.0346221923828125,985.6679077148438,0,13.0,1,1
14.28,0.06088689,-0.15457453,9.750798,-0.0002982294536195696,0.0004065434040967375,0.0003887999919243157,-8.180870056152344,23.58842468261719,-33.23648452758789,-0.32589980959892273,-0.1337600201368332,0.05362319946289063,985.64794921875,0,13.0,1,1
14.32,0.06567049,-0.16410773,9.765001,-0.0002982664154842496,0.001338654896244407,0.00038878433406352997,-7.949858665466309,24.383827209472656,-32.702747344970696,-0.3289645314216614,-0.0996621698141098,0.030019760131835938,985.6480102539062,0,13.0,1,1
14.36,0.06806418,-0.15219142,9.755533,0.0003674868494272232,-0.00012607642565853894,-1.0705261956900357e-05,-7.855480670928955,24.103500366210934,-32.77787399291992,-0.34138453006744385,-0.13206233084201813,0.049037933349609375,985.6400756835938,0,13.0,1,1
14.4,0.070457935,-0.15219156,9.765003,0.0006337660597637296,0.000273403333267197,0.0003887528146151453,-7.924558639526367,23.56489562988281,-33.043651580810554,-0.3349522054195404,-0.1359831541776657,0.04437255859375,985.6546630859376,0,13.0,1,1
14.44,0.06090209,-0.1617247,9.776838,0.0002342555089853704,0.000406567269237712,-0.00014389475109055638,-8.344570159912111,24.33057403564453,-33.10071182250977,-0.3283558785915375,-0.12564952671527865,0.02550792694091797,985.6270141601562,0,13.0,1,1
14.48,0.06329584,-0.154575,9.772103999999999,0.00023421889636665585,-0.0002592165255919099,0.00012240553041920066,-8.199943542480469,24.519161224365234,-33.90387725830078,-0.3264266848564148,-0.11543099582195282,0.030313491821289062,985.6376953125,0,13.0,1,1
14.52,0.06568950400000001,-0.16410817,9.743698,-0.00016529159620404243,-0.0003923684416804463,-0.0005433998885564506,-7.871702671051025,23.298702239990234,-33.65209579467773,-0.3293059766292572,-0.10988356173038484,0.0398550033569336,985.62646484375,0,13.0,1,1
14.56,0.060913533,-0.15934171,9.788675,0.0032967780716717248,-0.0018570998217910528,-0.0009428894263692199,-8.302367210388184,24.05406951904297,-33.168025970458984,-0.3312341868877411,-0.11717362701892853,0.021056175231933597,985.6298217773438,0,13.0,1,1
14.6,0.075256765,-0.14980875,9.765004,0.00023410876747220757,-0.0005255144787952304,0.00012235838221386078,-8.402832984924316,24.32850646972656,-32.783679962158196,-0.32960745692253113,-0.13674773275852206,0.04002285003662109,985.8519897460938,0,13.0,1,1
14.64,0.05375141,-0.16172518,9.765005,-0.002828560071066022,0.0006729128072038293,-0.00014397321501746774,-7.80787181854248,24.09526062011719,-32.55377578735352,-0.30904996395111084,-0.12674720585346222,0.04480743408203125,985.5787353515624,0,13.0,1,1
14.68,0.06292325,-0.15933241,9.769703,-0.0002985964529216289,0.0006729187443852425,-0.00014398898929357531,-7.72150993347168,24.28177261352539,-33.039901733398445,-0.3164791464805603,-0.11121593415737152,0.030694007873535163,985.5806884765624,0,13.0,1,1
14.72,0.06729144,-0.15693904,9.750729,0.002497683744877577,-0.002123391954228282,-0.000144004647154361,-7.572051048278809,23.8946533203125,-32.578372955322266,-0.323241651058197,-0.12019558250904085,0.05450630187988281,985.6878051757812,0,13.0,1,1
14.76,0.064873636,-0.14025544,9.769663000000001,-0.0025566010735929012,0.0012058105785399675,0.0002604320761747658,-8.4554443359375,23.59427261352539,-32.50165557861328,-0.3121074140071869,-0.139128640294075,0.04034900665283203,985.7029418945312,0,13.0,1,1
14.8,0.06723562,-0.16647075,9.772028,0.0003731424803845584,0.0006731351604685187,0.00012738938676193357,-8.169618606567383,24.863006591796875,-32.92787551879883,-0.315405011177063,-0.10979895293712616,0.030941009521484375,985.5598754882812,0,13.0,1,1
14.84,0.064817876,-0.14025404,9.762556,0.00010709557682275772,-0.000125856080558151,0.00039382054819725454,-7.9994263648986825,23.65254211425781,-32.57533645629883,-0.3132349848747253,-0.13270162045955658,0.031023025512695312,985.6317138671876,0,13.0,1,1
14.88,0.05284044,-0.15693633,9.755452,0.0002405226114206016,-0.0010580054949969053,-0.0005381696973927318,-8.264432907104492,24.40528106689453,-32.57854461669922,-0.29228198528289795,-0.1130613535642624,0.04055595397949219,985.6393432617188,0,13.0,1,1
14.92,0.067151904,-0.15455236,9.760183999999999,-0.0006913138786330818,-0.00012594345025718212,-0.0009375281515531242,-8.222911834716799,24.391151428222656,-32.045223236083984,-0.3095437288284302,-0.1174360066652298,0.05008316040039063,985.66162109375,0,13.0,1,1
14.96,0.06473413,-0.15455164,9.757814,-2.525519812479615e-05,-0.0006586189847439528,0.00012785062426701188,-8.082308769226074,24.20702743530273,-32.51802444458008,-0.3025909662246704,-0.12121312320232393,0.05016517639160156,985.646240234375,0,13.0,1,1
15.0,0.05992639,-0.15931748,9.745975999999999,0.00010817148722708224,-0.00012603081995621324,-0.00013835006393492222,-8.477860450744629,23.889930725097656,-33.439315795898445,-0.3009018898010254,-0.11121530830860138,0.06442546844482422,985.6571655273438,0,13.0,1,1
15.04,0.047948986,-0.16646667,9.764911,-2.47173011302948e-05,0.00014024140546098351,0.0001280811266042292,-7.69025993347168,23.36281967163086,-32.99094772338867,-0.27101600170135504,-0.1058989316225052,0.040801048278808594,985.64697265625,0,13.0,1,1
15.08,0.067040265,-0.1593162,9.760174000000001,-2.47173011302948e-05,0.00014024140546098351,0.0001280811266042292,-7.8769493103027335,23.556659698486328,-32.81955337524414,-0.30264461040496826,-0.1099664717912674,0.04086589813232422,985.64697265625,0,13.0,1,1
15.12,0.05745274,-0.14978237,9.762539,0.00010870967525988816,0.0009391454514116047,-0.0010702249128371477,-7.509764671325684,24.26943206787109,-33.22577667236328,-0.2914929389953613,-0.13786636292934418,0.045658111572265625,985.6543579101562,1,1.0,2,2
15.16,0.07176423,-0.17123117,9.767271000000001,-2.417911309748888e-05,-0.00012616184540092945,0.0005277855088934301,-7.627675533294678,24.36973571777344,-33.21347427368164,-0.30413001775741577,-0.0991196185350418,0.03625011444091797,985.6569213867188,1,1.0,2,2
15.2,0.062176794,-0.15216424,9.769635000000001,0.0002424054546281696,6.952468538656832e-06,-4.731002263724804e-06,-7.496342182159424,24.07085418701172,-32.523365020751946,-0.297890841960907,-0.12699110805988312,0.022103309631347656,985.6406860351562,1,1.0,2,2
15.24,0.07409841,-0.15216364,9.760164,0.0005089903715997933,0.0001400667242705822,0.000394858157960698,-7.882739067077638,24.182899475097656,-32.085460662841804,-0.3104594349861145,-0.09767065942287444,0.03163433074951172,985.6259765625,1,1.0,2,2
15.28,0.062120974,-0.15931274,9.764896,-2.337229670956731e-05,0.0005394968902692199,-0.0008034480852074921,-7.922195911407472,23.830219268798828,-32.59763336181641,-0.27997714281082153,-0.11577202379703523,0.03170490264892578,985.6206665039062,1,1.0,2,2
15.32,0.08121228,-0.15931202,9.760159,0.0003763706190511584,-0.0007921261712908745,0.0006614045705646276,-7.959969520568848,24.005226135253906,-32.063159942626946,-0.3164466023445129,-0.10092230141162872,0.05070209503173828,985.6329956054688,1,1.0,2,2
15.36,0.052505523,-0.15931131,9.764891,0.00037663953844457865,0.00013993569882586598,-0.00027058570412918925,-7.614551544189452,23.53902816772461,-32.93593978881836,-0.2810631990432739,-0.10999496281147003,0.046024322509765625,985.64111328125,1,1.0,2,2
15.4,0.06920689,-0.15216084,9.767255,-0.00015572342090308666,0.0002730499254539609,-0.0004036282771266997,-8.340279579162598,24.12316131591797,-31.93447494506836,-0.2844579219818115,-0.10929985344409944,0.03187370300292969,985.6708374023438,1,1.0,2,2
15.44,0.05483958,-0.16169329,9.76962,-0.0001554543268866837,-0.0006590992561541497,0.00012911867816001177,-8.351200103759767,24.692974090576172,-32.88994598388672,-0.27823421359062195,-0.108461394906044,0.03666591644287109,985.64013671875,1,1.0,2,2
15.48,0.066761196,-0.14739291,9.769617,0.00011113064829260112,0.0006724364357069135,-0.00027023983420804143,-8.040786743164062,24.192893981933594,-31.984703063964844,-0.28614240884780884,-0.11216436326503754,0.03199958801269531,985.6912841796876,1,1.0,2,2
15.52,-0.6000494000000001,0.06948614,9.779083,-2.148951170966029e-05,0.0006723491242155433,-0.00040316727245226497,-7.953201293945312,23.74874496459961,-32.973011016845696,-0.2698049545288086,-0.09728659689426422,0.0462646484375,985.6580200195312,1,1.0,2,2
15.56,0.8171345999999999,-0.39286923,9.760143,-0.002151747466996312,0.00093862134963274,-0.16818204522132876,-8.101276397705076,24.03142547607422,-32.81276321411133,-0.8940112590789795,0.5495228767395021,0.05561065673828125,985.6298828125,1,1.0,2,2
15.6,0.1096957,0.31258184,10.15783,-0.021992012858390808,-0.008648794144392014,-0.2837630808353424,-8.204105377197267,24.04053497314453,-32.874439239501946,-0.2306999862194061,-0.3152596950531006,-0.2716255187988281,985.60888671875,1,1.0,2,2
15.64,0.6306665,-0.16168986,9.982655000000001,-0.2132065296173096,-0.04926200956106186,0.026894556358456608,-8.143072128295897,23.83371734619141,-31.94792938232422,-0.7836645245552063,-0.9075741171836852,-0.3385162353515625,985.5458374023438,1,1.0,2,2
15.68,0.54460204,0.53184485,10.129419,-0.5510280132293701,-0.029022045433521267,0.16031892597675326,-8.395062446594237,24.862091064453125,-32.046253204345696,-0.5826078057289124,-0.6229771375656128,-0.1151142120361328,985.5148315429688,1,1.0,2,2
15.72,-0.32296026,-1.2031811000000001,9.96608,-0.715610921382904,-0.21451109647750852,0.2081227600574493,-8.433517456054688,25.29947280883789,-30.911155700683594,-0.10754214227199554,-0.4680672287940979,-0.2186927795410156,985.520263671875,1,1.0,2,2
15.76,-0.24651128,-1.257996,10.763824000000001,-1.0646176338195799,0.28736114501953125,-0.5202510952949524,-9.580097198486328,26.38544464111328,-30.49007797241211,0.27066510915756226,-0.5255724191665649,-1.4683446884155271,985.5762329101562,1,1.0,2,2
15.8,0.47043145,-2.625997,10.5271015,-1.372478485107422,0.4488816857337952,-0.6218504309654236,-9.51778793334961,27.18052673339844,-29.314456939697266,-0.8795111179351807,1.0705652236938477,-0.4863758087158203,985.593505859375,1,1.0,2,2
15.84,-0.99460644,-2.580714,13.871955999999999,-1.6142930984497068,0.9050807356834412,-0.3667197525501251,-9.227375030517578,28.873985290527344,-28.149566650390625,-0.23830658197402954,-0.29445528984069824,-3.82735824584961,985.5858154296876,1,1.0,2,2
15.88,-1.6160088,-2.7308597999999997,13.064737,-0.9092214703559875,1.5506303310394287,-0.4169201850891113,-8.419934272766112,29.99858856201172,-27.954875946044922,-0.2377960681915283,0.05565333366394043,-4.122254371643066,985.6114501953124,1,1.0,2,2
15.92,-1.6710043999999997,-1.0315818,10.4395075,1.2511330842971802,1.8805956840515137,-0.040083076804876334,-6.8168158531188965,28.18228912353516,-30.174205780029297,-0.4685753583908081,-0.559739351272583,-1.8392257690429688,985.6419067382812,1,1.0,2,2
15.96,-3.1193128,-0.8742847,9.459484,2.242494344711304,1.707756519317627,0.2504676878452301,-4.2861976623535165,25.496826171875,-33.640369415283196,-0.2536625862121582,-0.38072085380554205,0.08924198150634766,985.6568603515624,1,1.0,2,2
16.0,-4.068132,-1.2079431,10.66202,1.4745726585388184,1.2201321125030518,-0.1114555075764656,-2.01953125,21.615272521972656,-35.84110641479492,1.082939386367798,0.5522593855857849,-1.2156744003295898,985.6261596679688,1,1.0,2,2
16.04,-3.7670321,-0.37617803,10.7945795,1.2142493724822998,0.9440957903862,0.2133168429136276,-1.2432022094726562,19.39327621459961,-37.52437210083008,0.01867866516113281,0.5657622814178467,-1.8085412979125977,985.62548828125,1,1.0,2,2
16.08,-4.0729675,0.25062487,10.1578,1.59534752368927,0.8321099877357483,0.4296985566616057,-0.012271881103515623,16.121726989746097,-38.831356048583984,0.26080942153930664,0.304743230342865,-1.4280548095703125,985.6312255859376,1,1.0,2,2
16.12,-4.333495,0.03374715,8.867672,1.7873615026474,1.121861457824707,0.3759028911590576,1.7160911560058594,14.000658988952635,-40.05135726928711,-0.14731502532958984,1.3308340311050415,-0.4266777038574219,985.6338500976562,1,1.0,2,2
16.16,-4.3215733,1.0418745999999999,8.635683,1.7925550937652588,1.3644753694534302,0.34394511580467224,4.158954620361328,10.441168785095217,-40.75840759277344,-0.3932204246520996,1.245232343673706,-0.2298593521118164,985.6636352539062,1,1.0,2,2
16.2,-5.0409616999999995,1.9594375,9.016801,1.7178537845611572,0.9538161754608154,0.542084276676178,6.571632385253906,6.643752098083496,-43.14053726196289,-0.05256509780883789,0.7527685165405273,-1.0825300216674805,985.6107788085938,1,1.0,2,2
16.24,-5.5333095000000005,2.4241776,8.545725,1.5954819917678833,1.050222396850586,0.44527852535247797,8.168493270874022,3.5033855438232417,-43.27983474731445,0.01679849624633789,1.172769546508789,-0.7381529808044434,985.6405639648438,1,1.0,2,2
16.28,-6.4319406,2.3479132999999996,8.046242,1.6189178228378296,1.3287887573242188,0.3993391394615173,9.985008239746094,0.9901857376098632,-43.5666618347168,0.3642802238464356,0.9497356414794922,-1.6383500099182131,985.645751953125,1,1.0,2,2
16.32,-6.515615,3.7611980000000003,5.522803,1.8641951084136963,1.4389103651046753,0.49734351038932795,12.0220947265625,-2.9506139755249023,-42.03330993652344,1.1326966285705566,1.4735124111175537,0.5748906135559082,985.64794921875,1,1.0,2,2
16.36,-5.982694599999999,5.045785400000001,5.9796705,1.8519448041915891,1.250092387199402,1.0535444021224976,14.454166412353516,-6.626332759857178,-41.500144958496094,-0.11911249160766603,0.05887269973754883,0.06066560745239258,985.64013671875,1,1.0,2,2
16.4,-5.9349245999999996,5.4128112999999995,5.709807,1.2187789678573608,0.9040148258209229,0.9719186425209044,15.947517395019533,-9.495208740234377,-41.10049057006836,0.15615320205688474,0.5100741386413574,-0.3959851264953613,985.665771484375,1,1.0,2,2
16.44,-6.1428742,5.9704995,6.0175405,1.156328201293945,0.8283810615539551,0.9661929607391356,16.608833312988278,-12.511828422546387,-39.33222579956055,0.06857919692993164,0.07851076126098633,-1.1799540519714355,985.6145629882812,1,1.0,2,2
16.48,-6.288685299999999,5.627308,4.2231984,1.156328201293945,0.8283810615539551,0.9661929607391356,17.136451721191403,-15.494892120361328,-38.7000846862793,0.3765473365783691,0.9597201347351074,-0.22898149490356445,985.6145629882812,1,1.0,2,2
16.52,-5.6506095,6.42094,3.9793741999999996,1.100535273551941,0.9383695721626282,0.8046725392341614,18.525753021240234,-17.723987579345703,-37.85992813110352,0.14718866348266602,0.561704158782959,-0.07885360717773438,985.6265869140624,1,1.0,2,2
16.56,-4.5314865,6.61397,3.6267202000000003,1.2885546684265137,1.0093425512313845,0.8864316344261169,18.626453399658203,-19.790809631347656,-35.67593002319336,-0.8274712562561035,1.1933736801147459,-0.3570213317871094,985.6417846679688,1,1.0,2,2
16.6,-4.5315,6.5067224999999995,3.0396528,1.0767006874084473,0.7181262373924255,1.1912301778793335,18.350414276123047,-22.52533721923828,-35.242435455322266,-0.9803290367126464,0.8232517242431641,-0.31528472900390625,985.5933227539062,1,1.0,2,2
16.64,-4.737044999999999,6.3375106,1.9649417000000002,1.0880131721496582,0.7895010113716125,1.0472866296768188,19.09534454345703,-24.726253509521484,-33.38081741333008,-0.4679346084594727,1.7955222129821775,-0.11800622940063475,985.5752563476562,1,1.0,2,2
16.68,-4.239959,6.540089,0.7268938,1.023429274559021,0.982180953025818,0.6177181005477905,19.02748107910156,-26.68747711181641,-31.254009246826172,-0.7418293952941895,1.4113645553588867,1.0854588747024536,985.6109619140624,1,1.0,2,2
16.72,-4.0392209999999995,6.642571,1.096176,0.9432682991027832,0.8903018832206726,0.7452835440635681,19.66339111328125,-27.778827667236328,-29.51750183105469,-0.7451963424682617,2.186840057373047,0.8243341445922852,985.5748291015624,1,1.0,2,2
16.76,-3.4967260000000002,7.643548,1.8797188000000002,0.4549783170223236,0.8152008652687073,0.8835015892982483,19.388084411621094,-29.143165588378906,-28.933338165283203,-0.599036455154419,0.901397705078125,-0.21755766868591309,985.5956420898438,1,1.0,2,2
16.8,-3.0426583,7.317039,0.8949613999999999,0.04618355259299278,0.4684575796127319,1.1399637460708618,18.409873962402344,-29.90127182006836,-28.507286071777344,-1.1408705711364746,1.5110530853271484,0.3765897750854492,985.5972290039062,1,1.0,2,2
16.84,-2.4906043999999996,7.893793,1.197962,-0.1701979786157608,0.6017486453056335,1.11919105052948,18.22647476196289,-30.704914093017575,-28.81692123413086,-0.9930830001831056,1.1453933715820312,0.5818349123001099,985.6278076171876,1,1.0,2,2
16.88,-1.8071058999999998,8.542045,0.97544384,-0.15222151577472687,0.7206586003303528,1.0255812406539917,17.284378051757812,-31.745418548583984,-28.14896011352539,-1.6698379516601562,0.7613554000854492,0.6616380214691162,985.5997924804688,1,1.0,2,2
16.92,-2.961442,8.449097,1.7731897,-0.5093509554862976,0.6373017430305481,1.1894986629486084,16.902252197265625,-32.26108932495117,-28.36783599853516,-0.7715542316436768,0.0908670425415039,0.6421375274658203,985.6072998046876,1,1.0,2,2
16.96,-3.4776742,7.3766226999999995,2.0832919999999997,-1.3782062530517578,0.9845777153968812,0.2085242867469788,18.077726364135746,-29.367908477783203,-30.95080947875977,0.3499472141265869,1.598531723022461,0.2512617111206055,985.5639038085938,1,1.0,2,2
17.0,-2.5982037,8.308484,2.424168,-1.2788703441619873,0.8034828305244446,0.6343634724617004,18.316349029541016,-28.565143585205078,-30.803600311279297,-0.3331279754638672,0.7567272186279297,0.5963585376739502,985.591064453125,1,1.0,2,2
17.04,-2.2469015,7.7007494,3.4207589999999994,-1.4804712533950806,0.6902984976768494,0.8568704128265381,18.54374885559082,-27.8247013092041,-32.03673553466797,-0.5706655979156494,0.924631118774414,-0.02638721466064453,985.5706176757812,1,1.0,2,2
17.08,-1.7235266,7.9414606,3.8941982000000004,-1.6308064460754397,0.7628695964813232,0.7889599204063416,18.458833694458008,-25.69113922119141,-33.072303771972656,-0.7365918159484863,0.796330451965332,-0.07244157791137695,985.5706176757812,1,1.0,2,2
17.12,-1.2551192,7.4385886,4.0551667,-1.6815396547317505,0.9085443615913392,0.6482120156288147,19.24842071533203,-24.266456604003906,-34.04718399047852,-1.64011549949646,0.6480379104614258,0.2675869464874268,985.577880859375,1,1.0,2,2
17.16,-3.0356097,6.363730400000001,5.0588593,-1.9870036840438845,1.3548898696899414,0.028095541521906853,21.693817138671875,-21.87097930908203,-34.94910049438477,-0.4715344905853272,1.46989107131958,-0.24542665481567386,985.5729370117188,1,1.0,2,2
17.2,-3.1383889,5.574866,4.945233,-2.364905595779419,1.6250672340393066,-0.23142920434474945,23.95798110961914,-17.38083267211914,-34.636924743652344,-0.3784120082855225,1.6972246170043943,0.1878800392150879,985.5526123046876,1,1.0,2,2
17.24,-3.3439337999999994,5.241207,5.811627400000001,-2.5137763023376465,1.9189469814300537,-0.17497020959854126,27.18603515625,-14.622371673583984,-33.83306121826172,-0.4598407745361328,1.4906415939331057,0.5316963195800781,985.5904541015624,1,1.0,2,2
17.28,-2.6269767,4.790768,6.673288,-2.7417423725128174,1.6066914796829224,-0.029162202030420307,29.78648376464844,-10.60726547241211,-33.92982864379883,-2.070995807647705,1.1232953071594238,-0.9663147926330566,985.5908203125,1,1.0,2,2
17.32,-3.8076019999999997,4.5166907,6.3773865999999995,-2.624696493148804,1.6622183322906494,-0.1921474486589432,32.213912963867195,-7.597324848175049,-33.479217529296875,-1.2806313037872314,0.3918733596801758,0.7341194152832031,985.584716796875,1,1.0,2,2
17.36,-4.579553,2.9580273999999998,7.291125,-2.7662432193756104,1.1318502426147459,-0.2205100506544113,33.77849578857422,-3.0781269073486333,-31.983158111572266,-0.5809760093688965,1.6419928073883057,-0.33701229095458984,985.5997924804688,1,1.0,2,2
17.4,-3.7359316,2.7196999,7.492336,-2.893142938613892,1.1221295595169067,-0.3607252836227417,35.16852569580078,0.4344396591186523,-29.862407684326172,-1.635876178741455,0.5969443321228027,-0.1574387550354004,985.5955200195312,1,1.0,2,2
17.44,-4.1374483,1.666291,7.4662957,-2.6767609119415283,1.1242600679397583,-0.36511945724487305,36.88186264038086,4.408595085144043,-29.12722396850586,-2.0179927349090576,0.8474080562591553,-0.2764692306518555,985.581787109375,1,1.0,2,2
17.48,-5.287005000000001,0.57474995,6.3276699999999995,-2.2618408203125,0.949423611164093,-0.4933505058288574,38.0479736328125,7.921713829040527,-26.2021598815918,-1.3764734268188477,1.220808029174805,0.702298641204834,985.57666015625,1,1.0,2,2
17.52,-5.5139713,-0.07350369,6.4081616,-2.0282814502716064,0.9606088995933532,-0.6842989921569824,38.91582107543945,10.7344388961792,-23.72903823852539,-0.6149239540100098,1.232342004776001,0.9727721214294434,985.5764770507812,1,1.0,2,2
17.56,-4.309381,-0.805172,6.2258945,-2.021889925003052,0.8082762360572815,-0.5579319596290588,39.25389862060547,14.052216529846193,-21.588756561279297,-2.5716137886047363,0.9236885905265808,0.5070457458496094,985.5914306640624,1,1.0,2,2
17.6,-5.9823184000000005,-2.0444765,5.3500295,-1.8775482177734373,0.910408616065979,-0.8159927129745483,39.98885726928711,15.95008945465088,-18.65670394897461,-1.6034131050109863,1.575263261795044,1.5074734687805176,985.5859985351562,1,1.0,2,2
17.64,-6.0611916,-2.4615502,6.334785,-1.9485213756561282,0.8543490767478943,-1.107475519180298,39.69017791748047,19.30341339111328,-15.881490707397461,-0.79132080078125,1.1896315813064575,0.43322134017944336,985.5831909179688,1,1.0,2,2
17.68,-6.699302,-2.828575,7.390556299999999,-2.191934108734131,0.6739200949668884,-0.9221196174621582,39.24298095703125,22.20136260986328,-12.671825408935547,-1.3956022262573242,0.7656078338623047,-1.0697364807128906,985.6138916015624,1,1.0,2,2
17.72,-8.073502000000001,-3.5769242999999995,6.287439,-1.969027638435364,0.8833774924278259,-1.1230549812316897,39.02674865722656,24.26215362548828,-9.679716110229492,0.585906982421875,0.4968245029449463,-1.2020139694213867,985.58056640625,1,1.0,2,2
17.76,-8.302938000000001,-3.8557677000000004,5.908686599999999,-1.659701585769653,1.533987283706665,-1.2121376991271973,38.1588134765625,26.55558776855469,-6.677780151367188,0.3810882568359375,0.32721567153930664,-0.7358851432800293,985.6392822265624,1,1.0,2,2
17.8,-8.608852,-4.3014407,5.255338,-1.4606304168701172,1.3627461194992063,-0.9906958341598512,37.08439636230469,29.023712158203125,-2.4994831085205083,0.8054351806640625,0.10402250289916992,-1.3605318069458008,985.6087036132812,1,1.0,2,2
17.84,-8.56584,-5.045023400000001,4.346332,-1.124805927276611,1.4767293930053709,-0.9317069053649902,35.64430236816406,30.3602294921875,0.1847095489501953,0.6678824424743652,0.5250473022460938,-0.7846715450286865,985.6254272460938,1,1.0,2,2
17.88,-8.381824499999999,-4.944926000000001,4.1332830000000005,-0.8664795756340027,1.1957660913467407,-0.6494120359420776,34.8192138671875,30.90252685546875,3.5904455184936523,0.5112771987915039,0.1325063705444336,-0.9071128368377686,985.6103515625,1,1.0,2,2
17.92,-8.365101,-5.962585,4.0764694,-0.8664795756340027,1.1957660913467407,-0.6494120359420776,33.586837768554695,31.85399627685547,6.41912841796875,0.35721254348754883,0.8830747604370117,-1.517971754074097,985.6103515625,1,1.0,2,2
17.96,-8.243223,-5.185636,3.0680406000000002,-0.683520495891571,0.9110742211341858,-0.4388892352581024,32.691429138183594,32.06805419921875,8.238237380981445,0.3351449966430664,0.34893369674682617,-0.5646789073944092,985.6231689453124,1,1.0,2,2
18.0,-8.140463,-5.683741,3.7190206,-0.41853606700897217,0.8245216012001038,-0.3319634199142456,31.77085876464844,33.206954956054695,9.699169158935547,-0.07818746566772461,0.17007064819335938,-1.4547512531280518,985.6513061523438,1,1.0,2,2
18.04,-8.6304,-5.459713,2.7176936,-0.3030880987644196,0.8410332798957825,-0.3396865129470825,31.41350555419922,32.66094207763672,10.86396598815918,0.6402492523193359,0.28522253036499023,-1.0705180168151855,985.6360473632812,1,1.0,2,2
18.08,-8.647135,-5.667057499999999,1.9507191000000002,-0.10401692241430284,0.670990526676178,-0.23049701750278476,31.06724548339844,32.86330032348633,11.213418960571287,0.6402158737182617,0.2706484794616699,-0.16068792343139648,985.63037109375,1,1.0,2,2
18.12,-8.240858,-5.347698,2.2513535,0.3041122257709503,1.014538049697876,-0.256063312292099,29.649139404296875,33.95806884765625,12.214714050292967,0.2897186279296875,0.21711397171020508,-0.8815329074859619,985.6602172851562,1,1.0,2,2
18.16,-8.075961999999999,-4.8472095,2.5306827999999997,0.2495175153017044,1.0346448421478271,-0.350871741771698,28.476089477539066,33.754722595214844,13.10023307800293,0.06268596649169922,-0.5599637031555176,-1.045845627784729,985.60986328125,1,1.0,2,2
18.2,-7.562139,-5.481162,2.1566641,0.4260850250720978,0.7479557991027832,-0.03968160599470138,28.71343231201172,33.555591583251946,12.998326301574707,-0.4793853759765625,-0.06639862060546875,-1.2322813272476196,985.6298217773438,1,1.0,2,2
18.24,-7.495228,-5.8863187,0.16584635,0.4971914291381836,0.8290489315986633,0.08921530097723007,28.06256866455078,34.052085876464844,13.531476974487305,-0.7755622863769531,0.5198774337768555,0.6744874715805054,985.6124877929688,1,1.0,2,2
18.28,-8.530062,-5.7266392999999995,0.883108,0.7961310744285583,0.7685952186584473,-0.05632629618048667,27.589111328125,33.819690704345696,13.233114242553713,0.05681800842285156,0.3138108253479004,0.4667288661003113,985.657470703125,1,1.0,2,2
18.32,-8.764278,-5.8934684,1.0914214,0.7900058627128601,1.0134727954864502,-0.3118563592433929,26.546180725097656,34.74008560180664,12.416156768798828,0.8149690628051758,0.4707150459289551,-0.5527532696723938,985.6600341796876,1,1.0,2,2
18.36,-8.479887,-5.547893,0.5943082,0.3841404914855957,0.6052104234695435,-0.2412826418876648,25.83177947998047,35.072158813476555,12.275857925415039,0.2494373321533203,0.006073951721191406,0.37103179097175604,985.657470703125,1,1.0,2,2
18.4,-8.599388000000001,-6.6418175999999995,1.0014665,0.4692285060882568,0.5946909189224243,0.03075910173356533,25.20763397216797,35.85754776000977,12.018144607543945,0.5167932510375977,1.204566478729248,-0.5658435225486755,985.6652221679688,1,1.0,2,2
18.44,-8.993729,-6.115113,0.48541576,0.4149001836776733,0.29814818501472473,0.08535388112068176,25.17040634155273,35.66426086425781,12.651065826416016,0.6618738174438477,0.7446045875549316,0.25903117656707764,985.6239013671876,1,1.0,2,2
18.48,-8.377139999999999,-5.895851,1.2216151000000002,0.10277803242206572,0.5008144974708557,-0.03888244926929474,24.99034881591797,35.495704650878906,12.611690521240234,0.3855581283569336,0.5562338829040527,-0.7518640756607056,985.6239013671876,1,1.0,2,2
18.52,-8.707678,-6.75143,1.0132344000000002,-0.3030873239040375,0.28549817204475403,0.12796448171138766,24.860260009765625,35.58422088623047,13.242431640625,0.4324350357055664,1.3646206855773926,-0.6989870071411133,985.635986328125,1,1.0,2,2
18.56,-7.871248,-5.073601200000001,0.59660345,-0.09522423893213272,0.19188758730888367,0.0786975547671318,24.80101776123047,35.21238708496094,13.735225677490234,-0.13669967651367188,0.32371997833251953,-0.32573047280311584,985.6309814453124,1,1.0,2,2
18.6,-7.761348,-5.6646532999999994,1.0795095,0.2343420386314392,0.09122218936681747,0.2479458898305893,25.095104217529297,35.013851165771484,13.393585205078125,-0.4766678810119629,-0.2253298759460449,-0.9041500687599182,985.6261596679688,1,1.0,2,2
18.64,-8.4783535,-5.9125133000000005,-1.1219919,0.29013556241989136,0.2568705976009369,-0.031951963901519775,25.129150390625,35.09827423095703,13.614352226257324,-0.1844654083251953,0.9104170799255372,0.5565663576126099,985.6226806640624,1,1.0,2,2
18.68,-8.992218,-5.485906,-0.8331966000000001,0.6918734908103943,0.3851016461849213,-0.2593855857849121,24.49530792236328,35.82280731201172,11.898992538452148,1.2245712280273438,0.4885940551757813,2.039700984954834,985.637451171875,1,1.0,2,2
18.72,-8.652889,-5.0306983,0.24861169,-0.2271823585033417,-0.13647805154323578,-0.04833010211586952,25.13095092773437,35.31157684326172,12.138893127441404,-0.06398296356201172,-0.7860431671142578,-0.30001217126846313,985.6585693359376,1,1.0,2,2
18.76,-9.2026005,-5.7647476,0.42378142,-0.528118908405304,0.0106614138931036,-0.049528367817401886,24.72696685791016,35.143569946289055,12.903833389282227,1.5039014816284182,1.0210843086242676,-0.21042576432228088,985.6681518554688,1,1.0,2,2
18.8,-8.036364,-5.071212999999999,2.6702529999999998,-0.6942996382713318,-0.13767658174037933,0.2823013663291931,25.024799346923828,35.10591506958008,13.629985809326172,-0.05786991119384765,-0.491917610168457,-2.678751230239868,985.6812133789062,1,1.0,2,2
18.84,-8.320799000000001,-5.7123137,0.47348619,-0.26273447275161743,-0.2648424804210663,0.3757784068584442,25.71649932861328,34.85765838623047,14.23078155517578,-0.07885074615478516,0.2377314567565918,-0.03227366507053375,985.6610717773438,1,1.0,2,2
18.88,-8.227628999999999,-5.271406,0.15627779999999997,0.1920002102851868,0.2812381684780121,0.16112792491912842,25.659461975097656,34.224925994873054,14.04564094543457,-0.17413806915283206,0.0628657341003418,-0.7761404514312744,985.6779174804688,1,1.0,2,2
18.92,-8.404516000000001,-5.5645489999999995,-0.19170415,0.3198321759700775,0.6345061659812927,-0.143670454621315,25.02284240722656,34.366390228271484,13.981496810913086,0.3107433319091797,0.4410843849182129,0.4210155606269837,985.657958984375,1,1.0,2,2
