Timestamp,Ax,Ay,Az,Gx,Gy,Gz,Mx,My,Mz,LiAx,LiAy,LiAz,P,Value,Type,GroupType,Activities
0.0,0.061151147,-0.16429006,9.746744,0.07592679560184479,-0.00970597192645073,0.013696961104869844,1.39019775390625,2.74367618560791,-47.96469497680664,1.1013123989105225,0.4005272388458252,-1.083888053894043,985.8909912109376,1,1.0,2,2
0.04,0.07311332,-0.17144014,9.758582,0.07592679560184479,-0.00970597192645073,0.013696961104869844,-8.439895629882812,21.081928253173828,-35.05149459838867,-0.32870379090309143,0.06549256294965744,0.04772186279296875,985.8909912109376,1,1.0,2,2
0.08,0.07312602,-0.1571408,9.75148,-0.0005255850846879183,9.831757051870228e-05,0.0003282538673374802,-8.073146820068361,21.056655883789066,-35.18351364135742,-0.3221535682678223,0.06988667696714401,0.052498817443847656,985.7144165039062,1,1.0,2,2
0.12,0.07791847,-0.15952439999999998,9.746748,0.0005395563202910125,-0.0005674523417837918,-0.0003375881933607161,-8.627969741821289,21.380210876464844,-35.50187301635742,-0.3256756365299225,0.06504925340414047,0.052529335021972656,985.7350463867188,1,1.0,2,2
0.16,0.08271098,-0.16190796,9.751483,0.0004062760272063315,0.000630989030469209,6.183324148878455e-05,-8.946130752563477,21.767009735107425,-35.321510314941406,-0.33410730957984924,0.06913376599550247,0.0525503158569336,985.7643432617188,1,1.0,2,2
0.2,0.08033374,-0.16429158,9.751484,-0.0014580574352294207,0.0007641666452400386,0.00032809676486067474,-8.835148811340332,21.39696502685547,-35.54791259765625,-0.32322958111763,0.06396117061376573,0.04784488677978516,985.7465209960938,1,1.0,2,2
0.24,0.070786834,-0.14999224,9.76569,-0.0005260740290395916,0.0002315547317266464,0.0003280443779658526,-8.874743461608887,20.938365936279297,-35.36100769042969,-0.3168158531188965,0.058565616607666016,0.047878265380859375,985.7518310546876,1,1.0,2,2
0.28,0.0803591,-0.15714236,9.751488,-0.0002598802675493061,-0.0003010571235790849,-7.148180156946182e-05,-8.846781730651855,21.01689910888672,-34.83102035522461,-0.3300014436244965,0.05857570469379425,0.04790687561035156,985.7774047851562,1,1.0,2,2
0.32,0.08515158,-0.16429253,9.749121,0.000672103080432862,0.00036475236993283033,0.0007274134550243616,-8.64210319519043,20.62889862060547,-34.53192138671875,-0.3284164071083069,0.07715550810098648,0.05741119384765625,985.7518310546876,1,1.0,2,2
0.36,0.07321477,-0.14760984,9.763325,-0.0005264406208880246,0.0003647723351605237,0.0003278873045928776,-8.748382568359375,21.10927963256836,-35.236515045166016,-0.31303465366363525,0.057868629693984985,0.03849506378173828,985.755126953125,1,1.0,2,2
0.4,0.06844765,-0.14761023,9.751491,0.00027238490292802453,0.0011637397110462187,0.00019467697711661455,-8.711585998535156,20.564502716064453,-35.59523010253906,-0.3116423487663269,0.052761271595954895,0.06219673156738281,985.75537109375,1,1.0,2,2
0.44,0.078296185,-0.16906674,9.753884,-0.0006598429172299802,-0.0005672936677001418,-0.0004711651126854122,-8.466472625732424,20.89896011352539,-34.95970916748047,-0.32459065318107605,0.07149365544319153,0.05274009704589844,985.7655639648438,1,1.0,2,2
0.48,0.083099425,-0.15000112,9.751517999999999,0.00027081876760348683,-0.0005670592072419822,-0.0003386259195394814,-9.06752109527588,21.12631225585937,-34.88039016723633,-0.32292771339416504,0.05202113837003708,0.062244415283203125,985.7534790039062,1,1.0,2,2
0.52,0.07356322,-0.15000172,9.756256,-0.00012754002818837762,-0.00016801364836283028,0.00032548396848142147,-8.892189025878906,20.764232635498047,-35.73305130004883,-0.3119211792945862,0.05166003108024597,0.052803993225097656,985.7337036132812,1,1.0,2,2
0.56,0.07836646,-0.15715213,9.763359,-0.00012754002818837762,-0.00016801364836283028,0.00032548396848142147,-8.805122375488281,21.108680725097656,-34.996780395507805,-0.30991655588150024,0.06572283804416656,0.04811382293701172,985.7337036132812,1,1.0,2,2
0.6,0.08555958,-0.15238614,9.758627,5.392299499362707e-06,-0.0007006087689660491,-0.0008730340050533414,-8.672428131103517,20.28504943847656,-35.50792694091797,-0.32320839166641235,0.06068027764558793,0.033931732177734375,985.7514038085938,1,1.0,2,2
0.64,0.07841331,-0.15953656,9.765731,-0.0002611493109725416,-0.0011000459780916572,-0.0002073412761092186,-8.672971725463867,20.653343200683594,-35.60637664794922,-0.3121442198753357,0.06043272465467452,0.038697242736816406,985.7617797851562,1,1.0,2,2
0.68,0.07365689,-0.14762072,9.75153,-0.00012821733253076673,0.001163675682619214,-0.0008732277201488613,-8.334160804748535,20.969844818115234,-34.44535446166992,-0.3015331029891968,0.05059508234262466,0.048187255859375,985.741455078125,1,1.0,2,2
0.72,0.07607025,-0.1547711,9.749165,-7.690221536904572e-05,-0.00019887590315192938,-0.000258780550211668,-8.594900131225586,21.094871520996094,-35.10535049438477,-0.29079023003578186,0.05963066965341567,0.06241226196289064,985.7470092773438,1,1.0,2,2
0.76,0.07131386,-0.17145465,9.7633705,0.00032234610989689827,0.0012658981140702965,0.00014059641398489475,-8.888984680175781,21.29340362548828,-34.76371383666992,-0.298530638217926,0.07851336896419525,0.034043312072753906,985.747314453125,1,1.0,2,2
0.8,0.07372719,-0.15715559,9.756269999999999,-0.0003436693223193288,-0.0003319605893921107,0.0010726054897531867,-8.736343383789062,21.01514434814453,-35.155879974365234,-0.2923629879951477,0.06381824612617493,0.057742118835449226,985.7726440429688,1,1.0,2,2
0.84,0.08331019,-0.16668923,9.761007000000001,5.535280797630549e-05,0.00046706042485311633,7.148366421461105e-06,-8.71142578125,21.09072494506836,-34.47127914428711,-0.30536481738090515,0.06815411150455475,0.048297882080078125,985.7556762695312,1,1.0,2,2
0.88,0.07138407,-0.15239014,9.763376,-0.00021118868608027697,-0.00019869266543537376,-0.00012610608246177438,-8.518104553222656,20.53448486328125,-34.853443145751946,-0.2895579934120178,0.058080747723579414,0.04359054565429688,985.753173828125,1,1.0,2,2
0.92,0.06901762,-0.14762421,9.761011,-0.0006108880043029785,-0.00019865605281665919,0.0002732708817347884,-7.993851184844972,20.867515563964844,-35.18466567993164,-0.3021553158760071,0.04336991161108017,0.03888988494873047,985.7713012695312,1,1.0,2,2
0.96,0.066651136,-0.16192438,9.753912,-0.00034479785244911915,-0.0007312512025237082,-0.0003926155623048544,-8.675717353820799,21.28253555297852,-35.02689743041992,-0.2818647027015686,0.06672137975692749,0.05784702301025391,985.7535400390624,1,1.0,2,2
1.0,0.071454346,-0.16430826,9.742077,-0.0006113398121669887,-0.00019858271116390824,6.761401891708374e-06,-8.718217849731445,20.926910400390625,-35.384456634521484,-0.2850085496902466,0.0662858635187149,0.06734657287597656,985.7362670898438,1,1.0,2,2
1.04,0.07386765,-0.15239246,9.761019000000001,-0.0003452495438978076,-6.53881870675832e-05,-0.0002596513368189335,-8.302337646484375,20.89486312866211,-35.369686126708984,-0.28383955359458923,0.056377634406089776,0.05789756774902344,985.7462158203124,1,1.0,2,2
1.08,0.06911129,-0.15477635,9.761021000000001,0.0001871566055342555,0.0012662280350923536,-0.0006592217832803726,-8.708244323730469,21.199588775634766,-35.32496643066406,-0.2872771620750427,0.046752482652664185,0.04372119903564453,985.7515258789062,1,1.0,2,2
1.12,0.076304376,-0.1619267,9.761023,0.0001869309926405549,-0.0009974205167964099,0.0006722609978169202,-8.448347091674805,20.810714721679688,-35.188289642333984,-0.29015955328941345,0.060890883207321174,0.04376029968261719,985.7669067382812,1,1.0,2,2
1.16,0.07393795,-0.15239419,9.75629,0.000719337142072618,-0.0003315942012704909,0.0002726904931478203,-8.586203575134277,20.365650177001953,-35.29497528076172,-0.29380378127098083,0.06056377291679382,0.04851341247558594,985.7643432617188,1,1.0,2,2
1.2,0.06679162400000001,-0.16669436,9.763392999999999,-0.0004793104017153383,6.791634950786829e-05,0.00027259369380772114,-8.745338439941406,21.112228393554688,-35.3911247253418,-0.28268343210220337,0.05579858273267746,0.053279876708984375,985.7447509765624,1,1.0,2,2
1.24,0.07876456,-0.16669495,9.765761999999999,0.00045256956946104765,-0.0003315208596177399,0.0008051287150010468,-8.977273941040039,21.579620361328125,-34.99781036376953,-0.2815092206001282,0.0603681430220604,0.04383277893066406,985.7447509765624,1,1.0,2,2
1.28,0.06922835,-0.15239592,9.742092,0.0007186599541455507,0.000733779335860163,0.00013924227096140382,-8.575794219970701,21.376388549804688,-35.50969314575195,-0.2850991785526276,0.045860253274440765,0.06279277801513672,985.7424926757812,1,1.0,2,2
1.32,0.0764215,-0.15477975,9.765766000000001,0.0003189604030922055,-0.0003314476343803108,0.00013914552982896564,-8.306903839111326,20.89044570922852,-35.137767791748054,-0.2837055921554565,0.050440363585948944,0.03914737701416016,985.7454223632812,1,1.0,2,2
1.36,0.0692752,-0.15478028,9.761035000000001,-0.00021389697212725878,0.00046753667993471037,-0.000793056795373559,-8.736343383789062,21.01514434814453,-35.15587615966797,-0.27767109870910645,0.0502014085650444,0.03916835784912109,985.7403564453124,1,1.0,2,2
1.4,0.07699281,-0.16909344,9.7563505,-0.00021412305068224669,0.00033441546838730574,0.00027210998814553017,-8.346060752868652,21.169891357421875,-35.22507095336914,-0.2810535430908203,0.06909047812223433,0.05339717864990234,985.7658081054688,1,1.0,2,2
1.44,0.07518268,-0.1691076,9.751669,0.00031828309874981636,-0.000997127266600728,5.69736585021019e-06,-8.605415344238281,21.190475463867188,-35.2632942199707,-0.2807554602622986,0.054544098675251014,0.06279373168945312,985.7484130859376,1,1.0,2,2
1.48,0.080028415,-0.16195942,9.751675,0.0007125679985620081,-0.00019860389875248077,0.00025785242905840283,-8.409730911254883,20.899555206298828,-35.199440002441406,-0.2842664420604706,0.06395857036113739,0.04860877990722656,985.7794189453124,1,1.0,2,2
1.52,0.06814489,-0.1595778,9.763517,-0.00022143073147162798,0.000467493140604347,0.00012388313189148903,-8.283231735229492,21.17638397216797,-35.77402114868164,-0.2689519226551056,0.053969599306583405,0.02968311309814453,985.7440795898438,1,1.0,2,2
1.56,0.08255032,-0.16672917,9.772992,-8.890830213204026e-05,0.001266543986275792,-9.547336958348751e-06,-8.805123329162598,21.108680725097656,-34.996780395507805,-0.2822524309158325,0.0727311447262764,0.03443145751953125,985.734130859375,1,1.0,2,2
1.6,0.08500618,-0.15243120000000002,9.761161999999999,-0.0003558603930287063,-6.493221735581757e-05,-0.0002761356299743057,-8.492071151733397,21.08575439453125,-35.04367828369141,-0.2762521505355835,0.053363002836704254,0.04864978790283203,985.7443237304688,1,1.0,2,2
1.64,0.080292284,-0.1548161,9.7564335,0.00030929368222132325,0.00020148680778220296,-1.009239349514246e-05,-8.542861938476562,20.985130310058594,-34.41408920288086,-0.28428277373313904,0.05334760248661041,0.05341148376464844,985.7392578125,1,1.0,2,2
1.68,0.07557851,-0.15958424,9.761175,0.0001754998811520636,-0.0005973575171083213,-0.0002766805700957775,-8.468973159790039,20.52772521972656,-34.706649780273445,-0.2733244597911835,0.0532178059220314,0.04869747161865234,985.7543334960938,1,1.0,2,2
1.72,0.07086465,-0.16196914,9.756445,0.0013732854276895525,-6.462255259975791e-05,0.0002556784893386066,-8.487504959106445,21.090171813964844,-35.27559280395508,-0.2672718167304993,0.06273964792490005,0.043984413146972656,985.7498779296876,1,1.0,2,2
1.76,0.08288011,-0.16673733,9.765921,-0.00035840348573401565,-0.00019767726189456883,0.0005217217258177699,-8.696748733520508,21.47374725341797,-35.342777252197266,-0.27093935012817383,0.0766296535730362,0.03926277160644531,985.7496337890624,1,1.0,2,2
1.8,0.07816630599999999,-0.1572058,9.758825,-9.272369788959621e-05,0.0003350577317178249,0.0003882913733832538,-8.861045837402344,20.951629638671875,-36.0567512512207,-0.26925763487815857,0.05230732262134552,0.053488731384277344,985.762939453125,1,1.0,2,2
1.84,0.08779186,-0.16435729,9.75173,-0.00022651714971289044,-0.0013958923518657686,0.0010538086062297225,-8.507558822631836,21.651145935058594,-35.767234802246094,-0.27237170934677124,0.06643816828727722,0.04877948760986328,985.77001953125,1,1.0,2,2
1.88,0.08785781,-0.14767595,9.754103,0.0004386366927064955,-0.0005968414479866624,-1.172744669020176e-05,-9.267091751098633,21.150440216064453,-35.312957763671875,-0.2756490707397461,0.033132798969745636,0.05353832244873047,985.7453002929688,1,1.0,2,2
1.92,0.08314401,-0.15244408,9.751741,0.0005711585399694741,-0.0011293699499219654,-0.00014515803195536134,-8.815095901489258,20.83599853515625,-35.056270599365234,-0.2645260393619537,0.047197714447975166,0.04882621765136719,985.7659301757812,1,1.0,2,2
1.96,0.07604027,-0.14052941,9.754116,0.0005711585399694741,-0.0011293699499219654,-0.00014515803195536134,-8.80552864074707,21.5828857421875,-35.794307708740234,-0.2632283568382263,0.03249458968639374,0.05357646942138672,985.7659301757812,1,1.0,2,2
2.0,0.07610619,-0.16674705,9.761223,-0.0003615824389271438,0.00020231265807524323,-0.0002785882679745555,-8.137657165527344,20.52246856689453,-35.681209564208984,-0.2572576403617859,0.06085799634456635,0.05359172821044922,985.7584228515624,1,1.0,2,2
2.04,0.073782325,-0.14291589,9.765963000000001,-0.00036221864866092796,-0.0003302159311715513,-0.0009446503827348351,-8.651395797729492,20.09384155273437,-35.192039489746094,-0.2653351724147797,0.032202564179897315,0.03941154479980469,985.7659301757812,1,1.0,2,2
2.08,0.07384825,-0.15960045,9.765969,0.0004360932507552207,-0.0003301126998849213,-0.00014597538392990828,-8.170866012573242,20.701900482177734,-35.3786506652832,-0.254410982131958,0.060667634010314934,0.034694671630859375,985.7711181640624,1,1.0,2,2
2.12,0.07630408,-0.15006889999999998,9.758873,0.0005686155636794865,-0.00033000949770212173,0.0003863839083351195,-8.21611213684082,20.975460052490234,-35.15673446655273,-0.2578456997871399,0.046306736767292016,0.04891777038574219,985.7889404296876,1,1.0,2,2
2.16,0.08592972,-0.15722038,9.77545,0.0004348215297795832,-0.0004630642361007631,0.0001197956153191626,-8.440874099731445,20.7121696472168,-34.87574005126953,-0.2612423002719879,0.046145327389240265,0.02526378631591797,985.7813720703124,1,1.0,2,2
2.2,0.07643604,-0.173905,9.728111,-9.844574378803371e-05,-0.0007292768568731843,0.00011952302884310484,-8.973442077636719,20.213851928710934,-35.38039016723633,-0.2601819038391113,0.07473127543926239,0.0820913314819336,985.7769165039062,1,1.0,2,2
2.24,0.0693323,-0.16437341,9.697345,0.000657278171274811,0.0007461697096005082,0.0004365705826785416,-8.30470085144043,20.62954330444336,-35.81570053100586,-0.27755194902420044,0.050820663571357734,0.09632015228271484,985.7846069335938,1,1.0,2,2
2.28,0.07417810000000001,-0.16914167,9.747062,-0.00040862098103389133,-5.2674993639811873e-05,0.0001699822605587542,-8.857160568237305,21.218414306640625,-35.688045501708984,-0.276424378156662,0.05971238017082215,0.05371856689453125,985.7392578125,1,1.0,2,2
2.32,0.08858347,-0.14769383,9.768372,0.00025653239572420716,-0.0008515192312188448,-0.0008955537923611699,-8.526120185852049,21.00133514404297,-35.26444625854492,-0.27040332555770874,0.03593681752681732,0.01586151123046875,985.7618408203124,1,1.0,2,2
2.36,0.08864939,-0.14531209,9.766011,-0.00027673476142808795,-0.00031878420850262046,-0.00023003650130704043,-8.839715003967285,21.392547607421875,-35.31599807739258,-0.27422043681144714,0.030864380300045013,0.03954124450683594,985.7720947265624,1,1.0,2,2
2.4,0.09292328,-0.1524495,9.765965,-0.00014421279774978754,-5.2365096053108566e-05,0.0005686385557055472,-8.609981536865233,21.186058044433594,-35.03137969970703,-0.2676603198051453,0.035209953784942634,0.034827232360839844,985.7572631835938,1,1.0,2,2
2.44,0.082823455,-0.1691192,9.751712,-0.0008079165709204973,-0.0001858616597019136,-0.0010283626616001131,-8.262636184692383,20.247116088867188,-35.18392562866211,-0.2412698417901993,0.06294747442007065,0.07281970977783203,985.7903442382812,1,1.0,2,2
2.48,0.07328412,-0.1595866,9.754082,-0.0002643049811013043,-0.0004573521437123418,0.0007014664588496089,-8.514379501342772,20.27506256103516,-35.60868453979492,-0.23566152155399325,0.05815720558166504,0.05862998962402344,985.7855224609376,1,1.0,2,2
2.52,0.07569438,-0.15720387,9.763552,0.0005344467354007065,0.0003416274266783148,0.0005682245828211308,-9.087873458862305,21.055152893066406,-35.796905517578125,-0.2439286708831787,0.06260250508785248,0.03497314453125,985.7886352539062,1,1.0,2,2
2.56,0.08527428,-0.1500545,9.754086000000001,0.00026793527649715543,-0.00032413058215752244,0.0008344566449522973,-8.945886611938477,20.766582489013672,-35.64793014526367,-0.24302197992801666,0.05327035486698151,0.06339645385742188,985.8034057617188,1,1.0,2,2
2.6,0.08051473,-0.15720482,9.765922999999999,-0.00013173435581848025,0.0003416909312363714,-9.773281635716558e-05,-9.069884300231934,20.860992431640625,-35.32641220092773,-0.24593637883663175,0.03879416733980179,0.04448699951171875,985.7680053710938,1,1.0,2,2
2.64,0.06380579,-0.15482200000000002,9.751721,0.00026754365535452957,-0.0009898567805066703,-9.78167518042028e-05,-8.286275863647461,21.17343521118164,-35.61941146850586,-0.2302897572517395,0.053022198379039764,0.05397319793701172,985.751220703125,1,1.0,2,2
2.68,0.07816547,-0.1452895,9.746989,0.0009331376641057432,-0.000590351119171828,0.00030157325090840464,-8.356034278869629,20.89720916748047,-35.28456115722656,-0.23385852575302124,0.033930473029613495,0.04925727844238281,985.7885131835938,1,1.0,2,2
2.72,0.08296561,-0.15243979,9.761194,0.0004003102076239884,0.00034178627538494766,0.00016833131667226553,-8.354512214660645,20.898681640625,-35.36186599731445,-0.2420171946287155,0.034006454050540924,0.035076141357421875,985.7764282226562,1,1.0,2,2
2.76,0.08059603,-0.16435666,9.758828999999999,0.0005332725704647602,-0.0008566034957766532,3.5089498851448304e-05,-9.143635749816896,21.42431640625,-35.73292922973633,-0.23559029400348666,0.06679738312959671,0.04929733276367188,985.7760009765624,1,1.0,2,2
2.8,0.07822639,-0.14290763,9.754097,-0.0007985028787516057,-0.0011228875955566764,-0.0007639419636689126,-8.809551239013672,21.21017837524414,-35.46394348144531,-0.23436951637268064,0.028790660202503208,0.05405235290527344,985.7841186523438,1,1.0,2,2
2.84,0.08063662,-0.16197433,9.751731,0.0009323546546511352,-0.00032390817068517214,0.0001680796849541366,-8.698707580566406,20.73422241210937,-34.991268157958984,-0.22834943234920504,0.0525992289185524,0.058804512023925774,985.7741088867188,1,1.0,2,2
2.88,0.07826704,-0.16197492,9.749367,0.0006658430793322622,0.00034191334270872176,0.00016799586592242122,-8.786453247070312,20.652149200439453,-35.12691116333008,-0.227250337600708,0.05713728815317154,0.049347877502441406,985.7741088867188,1,1.0,2,2
2.92,0.07828736,-0.15482558,9.758837,0.0001330156228505075,0.0002087871253024787,-9.840395068749784e-05,-8.33942985534668,20.8074951171875,-35.43584060668945,-0.22648169100284574,0.0378999412059784,0.04935646057128906,985.7922973632812,1,1.0,2,2
2.96,0.08308744400000001,-0.16197588,9.758839,0.00013282004510983822,0.0010077666956931353,-0.00023164571030065415,-8.612344741821289,20.920738220214844,-35.477394104003906,-0.23005811870098114,0.05694325268268585,0.04937267303466797,985.7891235351562,1,1.0,2,2
3.0,0.075938046,-0.15005995,9.765941999999999,0.0006652557640336454,-0.00019062307546846569,-0.0003648875863291323,-8.555741310119629,20.815418243408203,-35.01804733276367,-0.23361682891845706,0.037707030773162835,0.044655799865722656,985.757080078125,1,1.0,2,2
3.04,0.07356846,-0.15959354,9.749374000000001,0.0001324283075518906,-0.0005900651449337603,0.00016766029875725508,-8.657889366149902,20.562156677246094,-35.68034744262695,-0.2322947829961777,0.056624077260494225,0.04940509796142578,985.7593383789062,1,1.0,2,2
3.08,0.078368545,-0.16436066,9.754109,0.0002653906703926623,0.0004752301319967955,0.0005670501850545406,-8.089069366455076,20.883995056152344,-35.63286590576172,-0.2216646671295166,0.05620720982551575,0.05888557434082031,985.7847900390624,1,1.0,2,2
3.12,0.07838889999999998,-0.15959461,9.765947,-0.0002674369025044143,-0.0005900015821680428,0.00016749248607084155,-8.529706954956055,21.366676330566406,-35.20828628540039,-0.2300828993320465,0.05101234465837479,0.025754928588867188,985.784912109375,1,1.0,2,2
3.16,0.07362938,-0.16436161,9.756480999999999,-0.0008002643589861691,-5.733803845942022e-05,-0.0004983811522834003,-8.982137680053711,20.94306945800781,-35.19076538085937,-0.20492146909236908,0.05545730143785477,0.04944038391113281,985.790283203125,1,1.0,2,2
3.2,0.07125977,-0.14529593,9.751748,-1.5126424841582775e-06,-0.0001904642122099176,0.0005667984951287508,-8.699250221252441,21.10251235961914,-35.089717864990234,-0.22301684319972992,0.036322683095932014,0.068389892578125,985.7600708007812,1,1.0,2,2
3.24,0.068890214,-0.16674586,9.77779,-0.00013506197137758139,-0.00032355863368138666,3.39990365318954e-05,-9.02792739868164,21.58491516113281,-35.06729888916016,-0.21155117452144626,0.06468328088521957,0.04000663757324219,985.7728881835938,1,1.0,2,2
3.28,0.08324993,-0.15483008,9.758854,0.0007968479185365139,-0.00045668479287996883,-0.0004987166612409054,-8.85273265838623,21.116920471191406,-35.22087860107422,-0.2340113222599029,0.0311923548579216,0.05422782897949219,985.790771484375,1,1.0,2,2
3.32,0.068930805,-0.15959705,9.751752999999999,0.0007968479185365139,-0.00045668479287996883,-0.0004987166612409054,-8.85273265838623,21.116920471191406,-35.22087860107422,-0.2094588726758957,0.045290730893611915,0.05423450469970703,985.790771484375,1,1.0,2,2
3.36,0.0785107,-0.154831,9.763591,0.0007968479185365139,-0.00045668479287996883,-0.0004987166612409054,-8.155241012573242,20.242420196533203,-35.35417556762695,-0.21747981011867526,0.030773840844631195,0.04005050659179688,985.790771484375,1,1.0,2,2
3.4,0.07623649,-0.14768402,9.7565,-0.00040176924085244536,-0.000856126775033772,-0.00036564253969118,-8.496499061584473,21.18724822998047,-35.510841369628906,-0.2167590409517288,0.030496761202812195,0.05424976348876953,985.7734985351562,1,1.0,2,2
3.44,0.08343026,-0.1691341,9.761236,-0.00040196516783908015,-0.00019030536350328475,-0.0003657264751382172,-8.544651031494139,21.56377410888672,-35.83339309692383,-0.2303190380334854,0.05873086303472519,0.049521446228027344,985.8062744140624,1,1.0,2,2
3.48,0.07150486,-0.15245177,9.765972,-1.8567079678177838e-06,0.001405992079526186,0.000164564058650285,-8.613729476928711,21.025177001953125,-36.09917068481445,-0.20999731123447415,0.03477101773023605,0.03059864044189453,985.7787475585938,1,1.0,2,2
3.52,0.07391882,-0.15245236,9.770710000000001,-2.423184923827648e-06,0.00020766264060512185,0.00016432121628895402,-8.757375717163086,21.206356048583984,-35.47175979614258,-0.2038323283195496,0.053524062037467963,0.044814109802246094,985.7658081054688,1,1.0,2,2
3.56,0.078722715,-0.15245293,9.761244,0.0005299762124195695,-0.0011238791048526764,0.00016422179760411382,-8.327391624450684,20.713363647460934,-35.35520553588867,-0.21260027587413788,0.038950823247432716,0.04955482482910156,985.7781982421876,1,1.0,2,2
3.6,0.08591652,-0.15245356,9.763613000000001,-0.000535519327968359,-0.00019173580221831799,0.0004304381727706641,-8.671012878417969,21.392868041992188,-35.957881927490234,-0.2257942259311676,0.034095555543899536,0.04956722259521485,985.7738647460938,1,1.0,2,2
3.64,0.069211304,-0.16198726,9.758881,0.00039612175896763796,7.465539965778589e-05,0.0004302392480894923,-8.41788387298584,21.260482788085934,-34.91136932373047,-0.2007656991481781,0.043557561933994286,0.04484462738037109,985.7813110351562,1,1.0,2,2
3.68,0.0835748,-0.16675438,9.7588825,0.0005290475673973559,0.00034100899938493967,0.00016382377361878753,-8.848846435546875,21.383712768554688,-34.852169036865234,-0.2231650948524475,0.05767760425806045,0.054329872131347656,985.7691650390624,1,1.0,2,2
3.72,0.07881909599999999,-0.15960516,9.770721,0.00013352956739254296,6.708744331263007e-05,-4.846660885959864e-06,-9.242035865783693,21.33193588256836,-35.32743835449219,-0.21291357278823853,0.06217484176158905,0.035396575927734375,985.7714233398438,1,1.0,2,2
3.76,0.07645327,-0.1691388,9.754153,-0.00026617638650350267,-0.0003323486307635904,0.00026136968517676,-8.649981498718263,21.20166015625,-35.64200210571289,-0.20297449827194214,0.0477779284119606,0.04960060119628906,985.7638549804688,1,1.0,2,2
3.8,0.07647735,-0.14768989999999999,9.754155,0.00039938106783665717,0.0016650580801069734,0.00026127026649191976,-8.597262382507324,20.82954406738281,-35.551368713378906,-0.20703551173210144,0.038298331201076515,0.059078216552734375,985.7666015625,1,1.0,2,2
3.84,0.07889134,-0.15245707,9.756525,0.0003991488192696124,0.000999306095764041,0.00026117078959941864,-8.931485176086426,20.937774658203125,-35.121273040771484,-0.20606566965579987,0.042927294969558716,0.05435466766357422,985.76708984375,1,1.0,2,2
3.88,0.07413572,-0.15960746,9.761261,0.0006652325391769409,-0.0003322355914860964,0.0003942291950806976,-8.673514366149902,21.021636962890625,-35.70482635498047,-0.20000196993350985,0.03807492554187775,0.04489803314208984,985.7844848632812,1,1.0,2,2
3.92,0.069379926,-0.15960805,9.758896,0.0006650002906098963,-0.0005985137540847062,0.00012781383702531454,-8.585224151611326,20.73541641235352,-35.47072982788086,-0.1986854374408722,0.047554850578308105,0.04491233825683594,985.7720947265624,1,1.0,2,2
3.96,0.08613330000000001,-0.15007554,9.742327000000001,-0.0004004953370895237,-0.0003321602707728744,0.0007935038884170352,-8.406549453735353,21.008419036865234,-36.053131103515625,-0.21207305788993835,0.028089657425880432,0.07332515716552734,985.7852172851562,1,1.0,2,2
4.0,0.07181799400000001,-0.1476929,9.754166,-0.00013441158807836473,0.00020050918101333082,0.00039393058978021145,-8.223446846008299,21.179927825927734,-36.16836166381836,-0.20169615745544436,0.03275943547487259,0.06386280059814453,985.7874755859376,1,1.0,2,2
4.04,0.07901180000000001,-0.15007673,9.756535000000001,0.0002648299850989133,0.00020054701599292457,-0.00027195859001949435,-8.642807006835938,20.470970153808594,-35.75432205200195,-0.20077043771743772,0.027878284454345703,0.04493427276611328,985.797607421875,1,1.0,2,2
4.08,0.071866214,-0.1596104,9.763639,0.0002645978529471904,0.0006000583525747062,-0.00040521606570109725,-8.857160568237305,21.21841812133789,-35.68804168701172,-0.1902756989002228,0.041894249618053436,0.04020595550537109,985.7725219726562,1,1.0,2,2
4.12,0.0742802,-0.159611,9.756539,-0.00013510810094885528,-0.0007314832182601094,-0.0008047893061302602,-8.820067405700684,21.3057861328125,-35.62189102172852,-0.18920405209064484,0.0511649027466774,0.044948577880859375,985.803466796875,1,1.0,2,2
4.16,0.081474006,-0.15484507,9.758909,-0.0005348142003640532,0.00046697587822563946,0.0005266906227916478,-8.212632179260254,21.71645736694336,-35.58555221557617,-0.19760797917842865,0.036457791924476624,0.04495620727539063,985.7929077148438,1,1.0,2,2
4.2,0.0671587,-0.1572289,9.770748,-0.0002687305386643857,-0.00046509201638400555,0.0006597490282729268,-8.365028381347656,20.994285583496094,-35.51980972290039,-0.1870136857032776,0.04580942541360855,0.04022979736328125,985.7677001953124,1,1.0,2,2
4.24,0.07674235,-0.15961279,9.754178999999999,0.00013051115092821422,6.757743540219964e-05,-0.0002724561491049826,-9.03181266784668,21.31812286376953,-35.436012268066406,-0.1811632513999939,0.045590333640575416,0.05917549133300781,985.7830810546876,1,1.0,2,2
4.28,0.07437652,-0.15008028,9.758916000000001,0.00013027901877649128,-6.55428011668846e-05,0.0006595499580726027,-8.777864456176758,21.029273986816406,-35.6891975402832,-0.19936630129814148,0.035638920962810516,0.0355072021484375,985.8064575195312,1,1.0,2,2
4.32,0.06723094,-0.16438054,9.749449,-0.0010683747241273522,-0.0003318210365250707,-6.339221727102995e-06,-8.597263336181639,20.829551696777344,-35.551368713378906,-0.1744672954082489,0.05431227385997772,0.07338809967041016,985.7860107421876,1,1.0,2,2
4.36,0.07448798400000001,-0.15723287,9.7731285,-0.00040281712426804006,0.00033400635584257543,-0.00027275452157482505,-8.712673187255861,21.30108642578125,-35.79212951660156,-0.18780432641506195,0.04909486323595047,0.030782699584960938,985.7932739257812,1,1.0,2,2
4.4,0.07696897,-0.1596184,9.749466,-0.0005363579839468002,-0.0008643529145047069,0.0006591868586838245,-8.634057998657228,21.37432098388672,-35.19265365600586,-0.19117000699043274,0.03937675803899765,0.06392478942871094,985.7808837890624,1,1.0,2,2
4.44,0.07460827,-0.15246926,9.770773,0.0006655676988884808,-0.0006034395191818477,0.00025540660135447984,-8.873902320861816,21.20221710205078,-34.83768844604492,-0.18566781282424927,0.03947193175554276,0.030792236328125,985.7913208007812,1,1.0,2,2
4.48,0.072247505,-0.15485324,9.758939999999999,0.0007984443800523878,6.239573122002184e-05,0.0006547599332407117,-8.873220443725586,20.939842224121094,-35.43831253051758,-0.18447107076644895,0.039444558322429664,0.04500579833984375,985.7534790039062,1,1.0,2,2
4.52,0.0866161,-0.15962051,9.766045,0.0005318471230566502,0.0003287573053967208,-0.00027746614068746567,-8.923874855041504,20.94513702392578,-35.5078010559082,-0.1980678141117096,0.048751309514045715,0.04974174499511719,985.7565307617188,1,1.0,2,2
4.56,0.08186549,-0.15962120000000002,9.747108,-0.00013422357733361423,-0.0003369867627043277,0.0003882029850501567,-8.85479736328125,21.48373413085937,-35.24202346801758,-0.18749187886714933,0.0388064980506897,0.059215545654296875,985.7738647460938,1,1.0,2,2
4.6,0.09145424,-0.14770557,9.763681,-0.001066610449925065,-0.00020378312910906968,0.00025492452550679445,-8.641529083251951,21.472869873046875,-35.50520706176758,-0.20528480410575867,0.024270065128803253,0.04502105712890625,985.7943725585938,1,1.0,2,2
4.64,0.07714397,-0.15962262,9.744747,0.0002646878419909626,-0.00033689552219584584,0.0005211199168115853,-8.694546699523926,21.21284484863281,-36.02070999145508,-0.17573308944702148,0.03847920149564743,0.06869983673095703,985.7969970703124,1,1.0,2,2
4.68,0.07956308,-0.15009023,9.766053999999999,-1.909298589453101e-06,0.0005952557548880577,-1.1632393579930067e-05,-8.765827178955076,20.93514633178711,-35.608558654785156,-0.18889933824539185,0.02859136462211609,0.035564422607421875,985.7844848632812,1,1.0,2,2
4.72,0.07959226,-0.16200735,9.754221000000001,-0.00040166426333598787,-0.0010025938972830772,0.0007871947600506246,-8.540116310119629,20.355937957763672,-34.99357223510742,-0.1879180073738098,0.04252605140209198,0.04977130889892578,985.7671508789062,1,1.0,2,2
4.76,0.08440125,-0.16439132,9.756592,-0.00040166426333598787,-0.0010025938972830772,0.0007871947600506246,-8.740772247314451,21.11663818359375,-35.62303924560547,-0.18709620833396912,0.052011579275131226,0.04977703094482422,985.7671508789062,1,1.0,2,2
4.8,0.086820334,-0.15962549,9.766062,0.00013068635598756373,6.271529127843678e-05,-1.1873431503772736e-05,-8.767349243164062,20.933670043945312,-35.531253814697266,-0.186092421412468,0.03264395892620087,0.040312767028808594,985.7794799804688,1,1.0,2,2
4.84,0.07728988,-0.15724291,9.763699,0.00013040498015470803,0.0005953926593065263,-0.0004114677431061864,-8.705636024475098,20.4644775390625,-35.20536804199219,-0.18015657365322116,0.032319307327270515,0.045052528381347656,985.7999877929688,1,1.0,2,2
4.88,0.06297964,-0.15724362,9.758966000000001,0.00013012383715249598,-0.0006029831129126251,-0.0008110620547086,-8.613324165344237,20.55097198486328,-35.30163955688477,-0.1648523509502411,0.03217057883739472,0.04032421112060547,985.7872314453124,1,1.0,2,2
4.92,0.08212805,-0.15962763,9.758969,-0.0001364730705972761,6.285222480073571e-05,0.00025408092187717557,-8.527642250061035,20.99986267089844,-35.18713760375977,-0.1784907877445221,0.05097901076078415,0.04979419708251953,985.7826538085938,1,1.0,2,2
4.96,0.07737744,-0.15247850000000002,9.766073,0.00026271937531419104,-0.0004697339027188719,-0.0005449872696772218,-8.377066612243652,21.088420867919922,-35.6004524230957,-0.17270109057426453,0.031643882393836975,0.04979801177978516,985.77001953125,1,1.0,2,2
5.0,0.08218639999999999,-0.14771266,9.751873,-0.0010691413190215826,0.00032925934647209937,-1.2475880794227125e-05,-8.638485908508299,21.475814819335934,-35.65981674194336,-0.1667824536561966,0.022172905504703518,0.05454254150390625,985.7827758789062,1,1.0,2,2
5.04,0.084605455,-0.15009667,9.751875,0.0006613496225327253,-0.00046959688188508153,0.00012044084724038841,-8.445302963256836,20.81366729736328,-35.34289932250977,-0.18473643064498899,0.02688582986593246,0.06402015686035156,985.8031616210938,1,1.0,2,2
5.08,0.07746497,-0.16916372,9.768448,0.00039475239464081824,-0.00020323535136412832,0.001052425941452384,-8.650959968566895,20.831897735595703,-35.46624755859375,-0.16454623639583588,0.05065345764160156,0.03561973571777344,985.790771484375,1,1.0,2,2
5.12,0.07510424,-0.15963129999999998,9.768452,0.00012815525406040249,-7.003176142461598e-05,0.0002533577498979866,-8.733055114746094,20.017662048339844,-35.636905670166016,-0.16844442486763,0.040935561060905463,0.04509258270263672,985.78369140625,1,1.0,2,2
5.16,0.08708286,-0.16201527,9.76372,-0.0001384417701046914,-0.00020314406719990075,0.0007858690223656595,-8.042301177978517,20.61190795898437,-35.93208694458008,-0.1722012460231781,0.04542578011751175,0.054566383361816406,985.7835693359376,1,1.0,2,2
5.2,0.07277268,-0.15724944,9.761353999999999,-5.564972525462508e-06,-6.994044815655798e-05,-1.319916918873787e-05,-8.281709671020508,21.1778564453125,-35.8513298034668,-0.1667928397655487,0.031039878726005558,0.04510021209716797,985.7966918945312,1,1.0,2,2
5.24,0.07519179599999999,-0.16678329,9.758991,-3.743130946531892e-05,-8.288901881314812e-06,-0.0005830147420056164,-8.14885425567627,20.880451202392575,-35.23852157592773,-0.16577503085136416,0.040337234735488885,0.04983711242675781,985.7789306640624,1,1.0,2,2
5.28,0.082390666,-0.16678397,9.758992999999998,9.544548811390996e-05,-8.24322341941297e-06,8.265441283583641e-05,-7.9476261138916025,20.96371459960937,-35.58234024047852,-0.17909997701644895,0.04451180249452591,0.0451040267944336,985.7611694335938,1,1.0,2,2
5.32,0.07525015,-0.16678469,9.770832,-0.0011032572947442534,0.00012496041017584505,0.000215691834455356,-8.090889930725098,20.25038146972656,-35.98042678833008,-0.16458448767662048,0.04420103877782822,0.035628318786621094,985.779052734375,1,1.0,2,2
5.36,0.077320576,-0.15486039,9.751864999999999,0.000228041026275605,0.0011902693659067154,-5.074456566944718e-05,-8.28366756439209,20.43832778930664,-35.49981689453125,-0.1680861860513687,0.03458401560783386,0.049869537353515625,985.7841186523438,1,1.0,2,2
5.4,0.08211553,-0.15247752,9.747131,-3.6888697650283575e-05,0.000524254865013063,-0.001115413848310709,-8.436851501464844,21.08487701416016,-35.20610427856445,-0.17185717821121216,0.03897429257631302,0.06881046295166016,985.7492065429688,1,1.0,2,2
5.44,0.077351004,-0.15009464,9.761337,0.0002336750621907413,0.000254227255936712,0.00021596872829832137,-8.07216739654541,21.426414489746094,-35.35927200317383,-0.1667637825012207,0.029301509261131287,0.04513740539550781,985.7792358398438,1,1.0,2,2
5.48,0.074976325,-0.150095,9.766073,0.00010037043830379844,0.001186356646940112,0.0002159058640245348,-8.387720108032228,21.078109741210934,-35.059310913085945,-0.16175144910812378,0.01952541619539261,0.049869537353515625,985.7792358398438,1,1.0,2,2
5.52,0.074991554,-0.16916163,9.763705999999999,-0.0004324082401581109,0.000520590809173882,-0.0007162626716308296,-8.270650863647461,20.71395874023437,-35.59493637084961,-0.16093719005584714,0.05749860405921936,0.03567028045654297,985.7698974609376,1,1.0,2,2
5.56,0.07739669,-0.15962888,9.756607,-0.0005657129804603754,0.0006537725566886365,-5.0535949412733316e-05,-8.098201751708983,20.875152587890625,-35.16903305053711,-0.1603940725326538,0.028343699872493744,0.06880760192871094,985.7877807617188,1,1.0,2,2
5.6,0.07741195,-0.15009613,9.744772,-0.0002995440154336393,-1.1993281077593565e-05,0.00021571709658019242,-7.9889869689941415,21.504070281982425,-34.991710662841804,-0.16418325901031494,0.02338080853223801,0.059344291687011726,985.76220703125,1,1.0,2,2
5.64,0.070257485,-0.14771320000000002,9.766077000000001,0.0006324148853309453,0.0005206623463891448,-0.00018381973495706919,-8.126843452453612,21.059001922607425,-35.098392486572266,-0.15372571349143982,0.032939933240413666,0.040413856506347656,985.7631225585938,1,1.0,2,2
5.68,0.08222222,-0.16201325,9.770814,9.96363232843578e-05,-1.1945594451390207e-05,-0.0004501984803937376,-8.161436080932617,21.342872619628906,-35.41761016845703,-0.16253817081451416,0.04710811376571655,0.03094768524169922,985.76220703125,1,1.0,2,2
5.72,0.07745764,-0.15486382,9.742409,-3.3668417017906904e-05,0.00012123618216719477,-0.00018394546350464225,-7.7609357833862305,20.76987838745117,-35.75373458862305,-0.15688537061214447,0.042238160967826836,0.06882762908935547,985.7650756835938,1,1.0,2,2
5.76,0.07269311,-0.14771433,9.761348,9.934272384271026e-05,-1.1897922377102075e-05,0.00034862331813201314,-8.04741096496582,20.97577667236328,-35.79862594604492,-0.1515265703201294,0.028005987405776974,0.05462837219238281,985.7854614257812,1,1.0,2,2
5.8,0.07509822,-0.15963112,9.763716,0.00023235374828800562,0.0006539156311191617,-0.00031722936546429986,-8.180839538574219,20.429214477539066,-35.43814468383789,-0.1511237621307373,0.03261662274599075,0.06409740447998047,985.7758178710938,1,1.0,2,2
5.84,0.07033363,-0.1620148,9.763717999999999,-0.00016726675676181912,0.00025446555810049176,0.00048165544285438966,-8.061108589172362,20.962520599365234,-35.10287857055664,-0.15515977144241333,0.05121353268623352,0.026221275329589844,985.75048828125,1,1.0,2,2
5.88,0.075128615,-0.14771546,9.75425,-0.00016756035620346665,-0.00014496048970613629,-0.001116365659981966,-8.109804153442383,21.70734405517578,-35.52387619018555,-0.15863032639026642,0.017631739377975464,0.04989814758300781,985.7738037109376,1,1.0,2,2
5.92,0.06558427,-0.16439874,9.7613535,-0.00016756035620346665,-0.00014496048970613629,-0.001116365659981966,-8.109804153442383,21.70734405517578,-35.52387619018555,-0.1484854817390442,0.04129056632518768,0.04990005493164063,985.7738037109376,1,1.0,2,2
5.96,0.07037932,-0.13818313,9.768456,-0.00043402315350249415,-0.00014493672642856836,0.0004814666754100472,-8.238122940063478,20.796905517578125,-35.2968635559082,-0.1432625949382782,0.017346039414405826,0.04990100860595703,985.7431030273438,1,1.0,2,2
6.0,0.07517433,-0.15963297,9.763722999999999,0.0003647776902653277,0.0003877189010381698,-0.0005838598008267581,-8.265243530273438,20.982227325439453,-35.303524017333984,-0.1567639708518982,0.026872351765632633,0.04517269134521485,985.7632446289062,1,1.0,2,2
6.04,0.070409775,-0.15010022,9.749521000000001,0.000497788714710623,-0.00014488905435428026,-0.00031760678393766284,-7.999258041381836,20.599246978759766,-35.47607421875,-0.1462528556585312,0.017214611172676086,0.05464649200439453,985.7709350585938,1,1.0,2,2
6.08,0.07520482,-0.162017,9.756624,-0.0005676214932464062,0.0009203983354382217,8.180411532521248e-05,-7.943197727203369,20.86222076416016,-35.115177154541016,-0.15563341975212094,0.045479848980903625,0.04517364501953125,985.7538452148438,1,1.0,2,2
6.12,0.06088066,-0.15010099,9.763727000000001,0.00023117923410609365,0.0002546324394643307,-0.00031773274531587964,-8.177358627319336,21.170211791992188,-35.86696243286133,-0.13553893566131592,0.02181398868560791,0.05465030670166016,985.7666625976562,1,1.0,2,2
6.16,0.06328583,-0.16201772,9.756628,0.00023117923410609365,0.0002546324394643307,-0.00031773274531587964,-8.102928161621094,20.344512939453125,-36.06106948852539,-0.14455798268318176,0.036086052656173706,0.05465221405029297,985.7666625976562,1,1.0,2,2
6.2,0.06330103,-0.1477185,9.754261,0.00023103243438526988,-1.165963476523757e-05,0.0003479940933175385,-7.994692325592041,20.603660583496094,-35.70798873901367,-0.12501615285873413,0.03069479763507843,0.05464649200439453,985.7437744140624,1,1.0,2,2
6.24,0.08004558,-0.15486865,9.761364,0.00023088575107976797,0.0005209960509091616,0.0006142471102066338,-8.526120185852049,21.00133514404297,-35.26444625854492,-0.1431293785572052,0.025118321180343628,0.04990673065185547,985.7616577148438,1,1.0,2,2
6.28,0.08962041,-0.15486903,9.756632000000002,-0.000967829313594848,0.00012156982847955078,-0.00018482637824490664,-8.267745018005371,20.610992431640625,-35.050464630126946,-0.16600385308265686,0.020198225975036618,0.054645538330078125,985.7570190429688,1,1.0,2,2
6.32,0.08057618,-0.15964822,9.7401085,-0.000967829313594848,0.00012156982847955078,-0.00018482637824490664,-8.267745018005371,20.610992431640625,-35.050464630126946,-0.151437908411026,0.04379342496395111,0.08304882049560547,985.7570190429688,1,1.0,2,2
6.36,0.088291705,-0.15966164,9.766197,-0.00016902870265766978,0.00012159369362052529,8.142652222886682e-05,-8.26480770111084,21.72027587890625,-35.57773208618164,-0.15682275593280792,0.019593104720115658,0.0592813491821289,985.7796020507812,1,1.0,2,2
6.4,0.07878786,-0.15251322,9.763836,-0.0004388527595438063,0.0010484118247404695,7.6013442594558e-05,-8.046867370605469,20.60749053955078,-35.70016860961914,-0.15107186138629913,0.009419038891792296,0.04033660888671875,985.7752685546876,1,1.0,2,2
6.44,0.08362347,-0.15251453,9.759106,-0.0007069050916470588,0.0006492198444902898,-0.0007236784440465271,-8.041597366333008,20.76983642578125,-34.70969009399414,-0.15098783373832705,0.042541280388832085,0.04979896545410156,985.7576904296876,1,1.0,2,2
6.48,0.07889944,-0.15013267,9.754375999999999,-0.00017481116810813546,0.0014482547994703054,-0.0007239088299684228,-7.994691848754883,20.603668212890625,-35.70798873901367,-0.1510380357503891,0.018730312585830692,0.04979419708251953,985.7850952148438,1,1.0,2,2
6.52,0.07895523,-0.16205032,9.768585,9.096710709854959e-05,0.0017146579921245575,7.480836939066648e-05,-7.826127529144287,20.498069763183594,-35.65080261230469,-0.14576968550682068,0.03269699215888977,0.04505443572998047,985.7755126953124,1,1.0,2,2
6.56,0.08140089999999998,-0.15966846,9.747285,-0.0008416759665124117,-0.0002826238051056862,-0.00019173795590177176,-8.183446884155272,21.164321899414066,-35.55774307250977,-0.14463284611701965,0.032020509243011475,0.06398677825927734,985.7810668945312,1,1.0,2,2
6.6,0.08145666,-0.16681965,9.752025,-0.0009753717458806932,-0.0008151683141477406,-0.00045828422298654914,-8.710309028625487,21.56640625,-35.34611129760742,-0.14338502287864685,0.04123833775520325,0.05451679229736328,985.7579956054688,1,1.0,2,2
6.64,0.07195282,-0.15252139,9.766233,0.0003556701703928411,-0.0009482389432378113,-5.904084537178277e-05,-8.451391220092772,20.80777359008789,-35.033679962158196,-0.14738568663597107,0.0314037948846817,0.04977798461914063,985.7529296875,1,1.0,2,2
6.68,0.07200861,-0.15967257,9.749668,-0.000843288900796324,0.0005165856564417481,7.388676749542356e-05,-8.594900131225586,21.09486389160156,-35.10535049438477,-0.13263916969299314,0.02650937438011169,0.049774169921875,985.7785034179688,1,1.0,2,2
6.72,0.06728458400000001,-0.15967394,9.749672,8.827884448692204e-05,-0.00014911680773366245,-0.00045897538075223565,-8.380248069763184,20.97956085205078,-34.746761322021484,-0.13196001946926114,0.02136009931564331,0.059239387512207024,985.7938842773438,1,1.0,2,2
6.76,0.08167982,-0.16682513,9.759146000000001,-0.0003805201267823577,-0.0002009017625823617,0.00037099586916156113,-8.35505485534668,21.266971588134766,-35.4603157043457,-0.14969420433044436,0.03546777367591858,0.04503822326660156,985.7992553710938,1,1.0,2,2
6.8,0.08173558,-0.14776029,9.761519,-0.00011474185157567263,-0.0009997620945796368,-0.0005613401299342513,-8.252226829528809,21.257858276367188,-35.39864730834961,-0.14881694316864014,0.002213507890701294,0.045040130615234375,985.7716674804688,1,1.0,2,2
6.84,0.07223177,-0.15491147,9.756789999999999,0.0006836680695414543,-6.756925722584128e-05,-0.0006947286892682314,-8.353670120239258,21.16252899169922,-34.838546752929695,-0.12914113700389862,0.021192029118537903,0.049770355224609375,985.7869262695312,1,1.0,2,2
6.88,0.07467741,-0.15491284,9.763897,-0.0003821330610662699,0.00046514981659129257,0.00023714668350294232,-8.207959175109862,20.614532470703125,-35.44480895996094,-0.1381222903728485,0.020695149898529053,0.05449676513671875,985.7938842773438,1,1.0,2,2
6.92,0.07951301,-0.1596808,9.7568,-0.0005158286076039076,-0.0007331844535656272,-0.0006951893446967006,-8.702156066894531,21.20548248291016,-35.63418960571289,-0.14195503294467926,0.0254296213388443,0.05449867248535156,985.8046264648438,1,1.0,2,2
6.96,0.077178895,-0.15968211,9.7662735,1.6265665180981163e-05,-0.00020046543795615437,-2.9629969503730536e-05,-8.509515762329103,20.91162109375,-35.41572189331055,-0.13194844126701355,0.03008769452571869,0.04976081848144531,985.7796630859376,1,1.0,2,2
7.0,0.07962459,-0.15730031,9.759178,0.0006815176457166673,0.0007317275158129632,0.00036961337900720537,-8.600711822509767,21.300811767578125,-36.19428634643555,-0.13625821471214294,0.015733301639556885,0.04502391815185547,985.7852783203124,1,1.0,2,2
7.04,0.089239955,-0.15491833,9.74498,0.00028150610160082584,0.0007318147108890116,-0.00016324874013662338,-8.723869323730469,21.65906524658203,-35.34944534301758,-0.14986880123615265,0.029801174998283383,0.05448818206787109,985.7571411132812,1,1.0,2,2
7.08,0.077346206,-0.16445284,9.761555,-0.0002516631502658129,0.0001992702600546181,-0.00042979512363672256,-8.53000545501709,20.734542846679688,-35.633155822753906,-0.13012263178825378,0.03453758358955383,0.049752235412597656,985.77001953125,1,1.0,2,2
7.12,0.067842424,-0.16207083,9.763927,0.00014727294910699132,0.00019935757154598832,-0.00016370962839573622,-8.37127685546875,20.462173461914066,-36.33453750610352,-0.1203448846936226,0.02025966346263885,0.05448532104492188,985.7930297851562,1,1.0,2,2
7.16,0.08223760000000001,-0.1716054,9.761565,-0.0002527385950088501,0.0009983924683183432,-0.0008297298336401582,-8.400056838989258,20.54010391235352,-35.56482315063477,-0.14356841146945953,0.034516945481300354,0.059216499328613274,985.79052734375,1,1.0,2,2
7.2,0.058394372,-0.147774,9.756836,0.0009451452642679213,0.0001995321363210678,-0.00016417040023952725,-8.531527519226074,20.73307037353516,-35.555850982666016,-0.1142277717590332,0.024795010685920715,0.049744606018066406,985.74755859375,1,1.0,2,2
7.24,0.068009794,-0.15492518,9.749739,0.0001456600148230791,-6.669654976576568e-05,-0.0005638747243210673,-8.219018936157228,21.07843017578125,-35.70119857788086,-0.12813347578048706,0.015045866370201109,0.049739837646484375,985.76025390625,1,1.0,2,2
7.28,0.07284534,-0.14777674,9.761581,-0.0006538252346217632,0.000732338463421911,-0.000297789229080081,-8.628406524658201,20.64215850830078,-35.2276725769043,-0.12292322516441345,0.019571557641029358,0.04500007629394531,985.7802734375,1,1.0,2,2
7.32,0.07957882,-0.15491582,9.756805,-0.0002548892516642809,-0.0001996798673644662,0.00036776985507458454,-8.452095031738281,20.64984130859375,-36.25608444213867,-0.13157035410404205,0.02878724038600922,0.0639333724975586,985.780517578125,1,1.0,2,2
7.36,0.06477362,-0.16443755,9.768599499999999,-0.0006525589851662518,-0.0005994465318508446,0.0005017010262235999,-8.502449035644531,21.287273406982425,-35.90069961547852,-0.11079585552215576,0.02833424508571625,0.04981422424316406,985.8114013671876,1,1.0,2,2
7.4,0.07195985,-0.15967132,9.768601,0.00015780696412548423,5.975761450827122e-05,0.00010241131531074643,-8.857160568237305,21.21841812133789,-35.68804168701172,-0.1241667941212654,0.018506035208702087,0.030877113342285163,985.78076171875,1,1.0,2,2
7.44,0.062416732,-0.16682164,9.768602,-0.0005081416456960142,-0.00020653242245316503,0.0006349749746732414,-8.587289810180664,21.10222625732422,-35.491878509521484,-0.11425481736660005,0.032896310091018684,0.040348052978515625,985.8087768554688,1,1.0,2,2
7.48,0.06960297,-0.15967216,9.761502,0.00015748903388157487,0.0003261251258663833,-0.00016404088819399476,-8.555060386657715,20.55303955078125,-35.61867904663086,-0.11365768313407898,0.02780634164810181,0.05454730987548828,985.7913208007812,1,1.0,2,2
7.52,0.07917905,-0.16443913,9.763869999999999,0.00015748903388157487,0.0003261251258663833,-0.00016404088819399476,-8.726669311523438,20.65569305419922,-35.52125930786133,-0.13701921701431274,0.01827006042003632,0.059283256530761726,985.7913208007812,1,1.0,2,2
7.56,0.083975375,-0.15252317,9.752037,-0.00010898598702624442,-7.332279346883297e-05,-0.0004304249887354672,-8.699112892150879,21.20842742919922,-35.788795471191406,-0.14110618829727173,0.01351405680179596,0.06875419616699219,985.7636108398438,1,1.0,2,2
7.6,0.06726259,-0.15967341,9.759139999999999,0.0002903288113884628,0.0008588086348026991,-3.1019269954413176e-05,-8.759333610534668,20.466827392578125,-35.120250701904304,-0.1214940994977951,0.022924646735191345,0.04981517791748047,985.777099609375,1,1.0,2,2
7.64,0.07683867,-0.14775743,9.76861,0.0002901697880588472,5.988683551549912e-05,0.00023522839182987806,-8.625362396240233,20.645103454589844,-35.38227844238281,-0.12089013308286667,0.017878666520118713,0.03561115264892578,985.7945556640624,1,1.0,2,2
7.68,0.07924509,-0.14299126,9.756775,0.00015685282414779067,-0.00047271925723180175,0.0002351604052819312,-8.711692810058594,21.67085266113281,-35.9678840637207,-0.12510612607002258,0.008252829313278198,0.04508113861083984,985.8047485351562,1,1.0,2,2
7.72,0.074481785,-0.16682447,9.768613,-0.0007754118996672332,0.001125201932154596,-0.0004306976334191859,-9.08398723602295,21.321945190429688,-35.42819595336914,-0.11930018663406372,0.04164360463619232,0.045083045959472656,985.7623291015624,1,1.0,2,2
7.76,0.07927811,-0.15967502,9.759146000000001,0.0002896924852393568,-0.0006058255094103515,0.00023502396652475,-8.7518310546875,21.580535888671875,-35.87942886352539,-0.12788067758083346,0.013110071420669556,0.04982185363769531,985.8153686523438,1,1.0,2,2
7.8,0.074514806,-0.15729214,9.759148,0.00042269151890650386,-0.0008721155463717878,-0.0004308338393457234,-8.457202911376951,21.013717651367188,-36.12261581420898,-0.11753277480602264,0.027289211750030518,0.04508876800537109,985.7828369140624,1,1.0,2,2
7.84,0.09126061,-0.15729256,9.76625,-0.0005097323446534574,0.0001931996666826308,-0.00029781233752146363,-8.781452178955076,21.39461898803711,-35.63303756713867,-0.13650256395339966,0.02236402034759521,0.04508590698242188,985.7777709960938,1,1.0,2,2
7.88,0.07215789,-0.15252633,9.76862,-0.00011041754623875022,0.001125331036746502,0.00036790917511098087,-9.170212745666504,21.241344451904297,-35.641143798828125,-0.11687547713518145,0.017333626747131348,0.040348052978515625,985.7827758789062,1,1.0,2,2
7.92,0.07934415,-0.15252687,9.747316,-0.0001105765695683658,0.0004595671780407429,-0.000564264424610883,-9.215458869934082,21.514907836914066,-35.41922378540039,-0.12113763391971588,0.0077358782291412345,0.06875419616699219,985.7705078125,1,1.0,2,2
7.96,0.0769707,-0.15252723,9.766254,0.0002887381124310196,6.0119200497865684e-05,0.0005009308224543929,-9.147658348083496,21.05160903930664,-35.40256118774414,-0.11556588113307953,0.02179892361164093,0.04034709930419922,985.7808227539062,1,1.0,2,2
8.0,0.0745973,-0.15729417,9.763889,2.22632079385221e-05,-0.0007388026569969952,-3.1769101042300456e-05,-9.355923652648926,21.804946899414066,-35.64550399780273,-0.11949106305837633,0.026303142309188843,0.049813270568847656,985.7908935546876,1,1.0,2,2
8.04,0.0722239,-0.15491129999999997,9.759155,-0.0007768435752950609,-0.0003393030201550573,-0.00016499526100233195,-9.332826614379883,21.24691772460937,-35.30847549438477,-0.10908231139183044,0.02127663791179657,0.040345191955566406,985.7757568359376,1,1.0,2,2
8.08,0.07224041,-0.16682811,9.749689,-0.0002443708362989128,-0.0003392772632651031,-3.1905423384159803e-05,-8.967056274414062,20.851882934570312,-35.26473617553711,-0.12283631414175035,0.021385639905929562,0.06402015686035156,985.7833862304688,1,1.0,2,2
8.12,0.069867015,-0.15729539,9.763893,0.00015494407853111625,0.00045969628263264894,-0.0004314473480917514,-9.446309089660645,21.245723724365234,-34.82901382446289,-0.10339037328958513,0.021059215068817142,0.04507732391357422,985.7763671875,1,1.0,2,2
8.16,0.07705325,-0.15967901,9.749691,-0.0005110047641210258,0.0009923537727445364,-0.000298357626888901,-8.770393371582031,20.93073272705078,-35.376644134521484,-0.12198463827371595,0.020787179470062256,0.06401252746582031,985.7787475585938,1,1.0,2,2
8.2,0.0770697,-0.15252961,9.759163000000001,-0.00011168996570631863,-0.00047235767124220734,-0.0006978997844271362,-8.835989952087402,21.13312149047852,-36.071231842041016,-0.11178195476531982,0.01596161723136902,0.04033946990966797,985.8019409179688,1,1.0,2,2
8.24,0.07947615,-0.15729658,9.775734,0.00028762471629306674,-0.0008718057069927454,-0.0005648098303936423,-8.826995849609375,21.03604507446289,-35.83598709106445,-0.1153482347726822,0.02565629780292511,0.02614307403564453,985.7666625976562,1,1.0,2,2
8.28,0.072322935,-0.15968032,9.768635,0.00031489942921325564,-0.0005185381742194295,0.000224062183406204,-8.963032722473145,21.224586486816406,-35.5951042175293,-0.10502637922763823,0.035276323556900024,0.04508209228515625,985.7741088867188,1,1.0,2,2
8.32,0.08687049,-0.14776899,9.75445,0.0008473720517940818,0.0004135931958444417,-0.00030863768188282853,-9.453781127929688,21.344276428222656,-35.14155960083008,-0.1288173496723175,0.0019963085651397705,0.06400394439697266,985.7973022460938,1,1.0,2,2
8.36,0.07255518400000001,-0.15253617,9.752085000000001,-8.367997361347079e-05,0.00027758098440244794,0.0003551180707290769,-9.145156860351562,21.42284393310547,-35.6556282043457,-0.10925006121397017,0.02545081079006195,0.04979419708251953,985.7825317382812,1,1.0,2,2
8.4,0.06779951,-0.1668364,9.763924000000001,-8.435914060100913e-05,-0.0002549405326135457,-0.000444120669271797,-9.034313201904297,20.94688415527344,-35.18294906616211,-0.10405810177326202,0.01608167588710785,0.04506206512451172,985.7672119140624,1,1.0,2,2
8.44,0.06782365,-0.14777079999999998,9.756824,0.000448040256742388,0.0006772026536054909,0.0002215694985352457,-8.97811508178711,21.315773010253906,-35.52113342285156,-0.10350798815488817,0.011175349354743958,0.04979419708251953,985.7672119140624,1,1.0,2,2
8.48,0.06784767,-0.1644543,9.759193,4.8334186431020505e-05,0.0002777666668407619,-0.0001780040911398828,-9.39842414855957,21.449317932128906,-36.00306701660156,-0.09819108247756958,0.025493338704109192,0.05926322937011719,985.78564453125,1,1.0,2,2
8.52,0.08460110400000001,-0.1525385,9.756828,0.00044757564319297666,-0.0002548273769207299,-4.494556924328208e-05,-9.019636154174805,21.329910278320312,-36.05445098876953,-0.1259784996509552,0.016005441546440125,0.0592641830444336,985.8005981445312,1,1.0,2,2
8.56,0.07028580000000001,-0.15015586,9.754463000000001,4.78695728816092e-05,-0.0006542634801007807,8.811283623799682e-05,-9.171192169189453,20.87158203125,-35.465389251708984,-0.09658931195735933,0.006373569369316101,0.04032611846923828,985.8295288085938,1,1.0,2,2
8.6,0.084649324,-0.15015645,9.749731,0.0004471110296435653,-0.00025475199799984694,0.0007538030040450393,-9.407854080200195,20.80834197998047,-35.96410751342773,-0.1246333196759224,0.006575688719749451,0.06400012969970703,985.8134155273438,1,1.0,2,2
8.64,0.07511380000000001,-0.15492357,9.775772,0.0008463526028208435,-0.00012155633885413408,-0.00031156017212197185,-8.953495979309082,20.759220123291016,-35.26140594482422,-0.09524929523468018,0.02082720398902893,0.03559398651123047,985.7924194335938,1,1.0,2,2
8.68,0.0703581,-0.15969075,9.761571,4.717259434983134e-05,-0.0007873083231970668,0.00022097217151895165,-8.937435150146484,21.03779602050781,-35.51113510131836,-0.10357930511236192,0.03531743586063385,0.054535865783691406,985.80419921875,1,1.0,2,2
8.72,0.07994184,-0.15730803,9.766308,0.00031325622694566846,-0.0011867444263771176,-0.0003117592423222959,-9.273584365844727,21.618751525878906,-35.80126571655273,-0.1073271632194519,0.020941808819770813,0.04033184051513672,985.8220825195312,1,1.0,2,2
8.76,0.08235579999999999,-0.14300899,9.752108,4.670809721574187e-05,-0.0009203909430652856,-0.00031185889383777976,-9.192224502563477,21.062793731689453,-35.78126907348633,-0.11649098992347715,0.00610467791557312,0.0639963150024414,985.7813110351562,1,1.0,2,2
8.8,0.0704304,-0.16207577,9.759211,-0.0006193140870891511,0.00014491047477349642,0.0011527789756655693,-8.646393775939941,20.83631134033203,-35.69816207885742,-0.10138733685016632,0.02509923279285431,0.04032325744628906,985.7813110351562,1,1.0,2,2
8.84,0.07523429400000001,-0.15730982,9.761581,-8.691445691511035e-05,-0.0006539995665661992,0.00035373179707676167,-8.570685386657715,21.01251983642578,-35.64315414428711,-0.10537125170230864,0.02022138237953186,0.04505634307861328,985.7943725585938,1,1.0,2,2
8.88,0.07047862,-0.15969367,9.773418,-8.691445691511035e-05,-0.0006539995665661992,0.00035373179707676167,-8.805964469909668,20.84483337402344,-35.52009963989258,-0.09534689038991928,0.02493059635162353,0.030851364135742188,985.7943725585938,1,1.0,2,2
8.92,0.084842116,-0.16446085,9.761584,-0.00022053701104596254,0.00014502351405099034,0.0008861646056175232,-9.331304550170898,21.248390197753906,-35.385780334472656,-0.11362895369529726,0.02973105013370514,0.06399345397949219,985.8094482421876,1,1.0,2,2
8.96,0.08008641,-0.14777853,9.754486,-0.00022053701104596254,0.00014502351405099034,0.0008861646056175232,-8.825068473815918,20.563312530517575,-35.11576461791992,-0.1033964604139328,0.010263636708259584,0.040314674377441406,985.8094482421876,1,1.0,2,2
9.0,0.075330704,-0.15969546,9.754487,0.0005781783838756382,-0.0007870443514548242,-0.0007118303910829128,-8.780472755432129,21.764381408691406,-35.80878829956055,-0.0931411013007164,0.019567549228668213,0.04504585266113281,985.766357421875,1,1.0,2,2
9.04,0.08013463,-0.15492947,9.754489,-0.00048731750575825567,-0.00038753286935389036,0.0003533335984684527,-8.875722885131836,20.568603515625,-35.18525314331055,-0.10251253098249437,0.03377072513103485,0.0639810562133789,985.812255859375,1,1.0,2,2
9.08,0.08254862,-0.15969660000000002,9.747391,-8.807581616565585e-05,0.00014513666974380612,0.0004863919748459011,-8.925503730773926,22.050010681152344,-35.80315399169922,-0.09734053164720537,0.02433989942073822,0.0639810562133789,985.8045654296876,1,1.0,2,2
9.12,0.08018279,-0.15969719,9.756861,0.00031116552418097854,0.0005446479772217572,-0.0004458131152205169,-8.907675743103027,21.329627990722656,-36.45660781860352,-0.10137658566236496,0.024282723665237427,0.0639791488647461,985.7872314453124,1,1.0,2,2
9.16,0.075427085,-0.1668476,9.756863000000001,-8.854042971506715e-05,1.2054166290909054e-05,-0.0003127545933239162,-8.693460464477539,20.47626495361328,-35.82381057739258,-0.0957925021648407,0.033627212047576904,0.05924320220947265,985.7847900390624,1,1.0,2,2
9.2,0.07306132,-0.1549318,9.759233,4.415289731696248e-05,-0.0006536601576954126,-0.0005792697775177658,-8.946428298950195,21.13487243652344,-35.74637985229492,-0.0999302938580513,0.014466747641563416,0.049770355224609375,985.7774047851562,1,1.0,2,2
9.24,0.08264500000000001,-0.1549324,9.761602,0.0005765522946603596,0.0006779567920602857,8.642033208161591e-05,-8.7518310546875,21.580535888671875,-35.87942886352539,-0.09958337992429732,0.01940391957759857,0.04030323028564453,985.7699584960938,1,1.0,2,2
9.28,0.07296747,-0.15731283,9.763958,0.000443161989096552,-0.000254110898822546,0.0003526367363519966,-8.548130989074707,20.822776794433594,-35.40457534790039,-0.09865904599428177,0.01958705484867096,0.04504108428955078,985.7802124023438,1,1.0,2,2
9.32,0.08479053,-0.16207625,9.7592125,0.0008427424472756684,-0.0003872861852869392,8.636648999527097e-05,-8.428155899047853,20.35565948486328,-35.395729064941406,-0.1075645163655281,0.03390184044837952,0.06873798370361328,985.7671508789062,1,1.0,2,2
9.36,0.072853684,-0.16207660000000002,9.754479,0.0005786276306025684,0.00027814618078991765,8.730991976335645e-05,-8.313288688659668,20.252410888671875,-35.253421783447266,-0.09253087639808656,0.029237806797027588,0.054535865783691406,985.7977905273438,1,1.0,2,2
9.4,0.07525623,-0.14062746,9.747378999999999,0.0005785053945146501,1.1850206647068264e-05,-0.0001790583482943475,-8.913061141967773,21.481666564941406,-34.92498779296875,-0.09234552085399628,0.0008070617914199829,0.04980278015136719,985.7930297851562,1,1.0,2,2
9.44,0.084828556,-0.1620772,9.768685000000001,-8.74065444804728e-05,0.00041134393541142334,-0.0004454267327673733,-8.835990905761719,21.13312530517578,-36.071231842041016,-0.10130954533815384,0.0199749767780304,0.03560161590576172,985.8010864257812,1,1.0,2,2
9.48,0.07528162,-0.15016110000000002,9.766319000000001,0.0007114189793355763,-0.0002544260350987315,-0.0003123211790807545,-9.004692077636719,21.13280487060547,-35.42934799194336,-0.0864960253238678,0.010291293263435364,0.04506874084472656,985.8114013671876,1,1.0,2,2
9.52,0.0705145,-0.16922764,9.754484,-0.00048712472198531037,0.00014506763545796278,-0.00017921550897881391,-8.342473983764647,20.80455017089844,-35.28123092651367,-0.09557419270277023,0.02454759180545807,0.054535865783691406,985.7860717773438,1,1.0,2,2
9.56,0.08486658,-0.15969489999999997,9.75922,0.0005780166829936206,-0.0005207022186368704,0.0006196797476150094,-8.198827743530272,20.623371124267575,-35.90863800048828,-0.10484198480844498,0.009753972291946413,0.049793243408203125,985.8065185546876,1,1.0,2,2
9.6,0.08487925,-0.15016206,9.756853999999999,-0.000620527018327266,0.00014510727487504482,-4.616234218701721e-05,-8.132549285888674,20.15859603881836,-35.81467056274414,-0.0942733958363533,0.014451652765274046,0.049793243408203125,985.8192749023438,1,1.0,2,2
9.64,0.08011216,-0.1668453,9.76869,4.514044849202037e-05,0.00014512718189507726,-4.621484549716115e-05,-8.123555183410645,20.061519622802734,-35.57942581176758,-0.0938274711370468,0.033463820815086365,0.04032421112060547,985.81689453125,1,1.0,2,2
9.68,0.0825147,-0.14777942,9.768692,-0.00048761343350633984,-0.0003874847898259759,-4.626711597666144e-05,-7.790992259979247,19.845905303955078,-35.233131408691406,-0.09817564487457277,0.014146164059638975,0.04505443572998047,985.796630859375,1,1.0,2,2
9.72,0.07774758,-0.15731277,9.761591000000001,-0.00035457772901281714,0.0005446406430564821,0.00035315443528816104,-7.640959739685059,20.302757263183594,-35.74489212036133,-0.09277280420064926,0.02345655858516693,0.04978466033935547,985.8016357421876,1,1.0,2,2
9.76,0.07776028,-0.15492983,9.76396,0.000444247794803232,-0.0006537609733641148,0.0006194179295562207,-7.807703971862793,21.041969299316406,-35.45450973510742,-0.092368982732296,0.013922780752182009,0.04031658172607422,985.7763671875,1,1.0,2,2
9.8,0.08494264,-0.1525469,9.756860000000001,0.0002998493728227913,0.0006875871913507581,0.0008070413023233414,-8.243232727050781,21.16077423095703,-35.16339874267578,-0.1009783074259758,0.0190160870552063,0.05452442169189453,985.764404296875,1,1.0,2,2
9.84,0.08017552,-0.1739967,9.787635,3.3411255571991205e-05,-0.001842393772676587,-0.00039143254980444914,-7.992328643798827,20.86898422241211,-35.26197052001953,-0.09567759186029434,0.028294831514358517,0.021378517150878903,985.8097534179688,1,1.0,2,2
9.88,0.08974779,-0.16684718,9.752127,0.00016644707648083568,0.0002881529508158565,-0.0005246427608653903,-7.938631057739258,20.86663818359375,-35.34709167480469,-0.1089964359998703,0.023511603474617004,0.059254646301269524,985.8097534179688,1,1.0,2,2
9.92,0.08020088,-0.16208096,9.761598,0.00043264072155579925,-0.0010434065479785204,-0.00012522132601588964,-7.938876152038574,21.8670654296875,-35.020679473876946,-0.08927649259567261,0.028061628341674805,0.05925178527832031,985.8027954101562,1,1.0,2,2
9.96,0.08021355,-0.16208123,9.7402935,-0.00023327110102400186,0.0005545085296034814,0.0008068318711593747,-7.880505561828612,20.76279067993164,-34.96505355834961,-0.0938115045428276,0.01832769811153412,0.06871604919433594,985.7893676757812,1,1.0,2,2
10.0,0.07544643,-0.14778192,9.7497635,0.00016608048463240266,0.0006876863772049546,-0.0001253262162208557,-7.807160377502441,20.67367553710937,-35.35606002807617,-0.08426295965909958,0.02301211655139923,0.05451107025146485,985.8133544921876,1,1.0,2,2
10.04,0.07067931,-0.15254875,9.756866,-0.00023351557319983843,0.0001550744054839015,0.00040725327562540764,-7.932544231414795,20.87253189086914,-35.65631484985352,-0.06886399537324905,0.02297261357307434,0.04030609130859375,985.7955322265624,1,1.0,2,2
10.08,0.08264148,-0.15969889,9.763969,-0.00023363769287243485,-0.0009101692703552543,7.727183401584625e-06,-7.621556282043457,21.21641540527344,-35.72436141967773,-0.10179276764392853,0.02750033140182495,0.04977130889892578,985.7881469726562,1,1.0,2,2
10.12,0.06592482,-0.16208248,9.766338000000001,-0.0001006019883789122,0.00028827204369008536,-0.00012548326049000025,-7.541419982910156,21.29112243652344,-35.20219039916992,-0.08254875987768172,0.02248348295688629,0.04976654052734375,985.7855834960938,1,1.0,2,2
10.16,0.08744663,-0.16446604,9.749767,0.00016559177311137319,0.0008209237130358815,0.0005402541137300432,-7.5412821769714355,21.39704132080078,-35.901268005371094,-0.08707406371831894,0.017613649368286133,0.04503154754638672,985.7933349609376,1,1.0,2,2
10.2,0.077899694,-0.1644664,9.773442,0.0004317854181863368,-0.0002443200210109353,0.0008065176662057638,-7.407883644104004,20.731342315673828,-35.19001007080078,-0.08650018274784088,0.02244697511196136,0.03556060791015625,985.7984008789062,1,1.0,2,2
10.24,0.07074267,-0.15731688,9.76634,0.00016534730093553662,0.0004214895307086408,-0.0003919561859220266,-7.8247437477111825,20.39362335205078,-35.02902984619141,-0.07649761438369751,0.02221037447452545,0.04502677917480469,985.790771484375,1,1.0,2,2
10.28,0.07355785,-0.15494396,9.764013,-0.0006337224622257054,2.2035499569028616e-05,-0.0001256926916539669,-7.464624881744385,20.73074722290039,-34.95028305053711,-0.08146283030509949,0.012783735990524292,0.06392669677734375,985.7988891601562,1,1.0,2,2
10.32,0.08075675,-0.15494467,9.754547,-0.0006337224622257054,2.2035499569028616e-05,-0.0001256926916539669,-7.5891666412353525,21.19344711303711,-34.72720718383789,-0.08553840965032578,0.017355740070343018,0.04971790313720703,985.7988891601562,1,1.0,2,2
10.36,0.08317581,-0.14302899,9.778221,0.00042944523738697166,0.00015553360572084785,0.0006723567494191228,-7.306577205657959,20.72075653076172,-35.05103302001953,-0.10409250110387802,-0.00632612407207489,0.0260467529296875,985.7814331054688,1,1.0,2,2
10.4,0.083204985,-0.15256299,9.754552,0.0004309354699216783,-0.0006475606351159513,-0.0005284045473672451,-7.261330604553223,20.44719696044922,-35.272953033447266,-0.0848744735121727,0.003224387764930725,0.05445098876953125,985.7786254882812,1,1.0,2,2
10.44,0.08084428,-0.16448005,9.754555,3.1180388759821647e-05,0.00028459064196795225,-0.00012905133189633491,-7.329132080078125,20.91049575805664,-35.28961181640625,-0.08901394158601761,0.0365382581949234,0.05444812774658203,985.78662109375,1,1.0,2,2
10.48,0.07848358,-0.15256436,9.754557,0.000297214777674526,0.0004177941009402275,0.00013714405940845611,-7.539354801177978,20.92430877685547,-35.181041717529304,-0.08342540264129639,0.012536570429801941,0.06391239166259766,985.78662109375,1,1.0,2,2
10.52,0.06656325,-0.15733163,9.754560000000001,-0.0005020140088163316,-0.0011800554348155856,0.00027018145192414517,-7.979991912841798,21.40699005126953,-34.756465911865234,-0.06832309067249298,0.01247471570968628,0.054439544677734375,985.7968139648438,1,1.0,2,2
10.56,0.07615203,-0.14541598,9.759298,-0.00023597927065566182,-0.0006473780376836658,0.00013690296327695248,-8.114805221557617,20.96487045288086,-35.017757415771484,-0.07765009254217148,-0.002032339572906494,0.049698829650878906,985.7970581054688,1,1.0,2,2
10.6,0.08096102,-0.16686617,9.759299,-0.0002365417894907296,0.000284818874206394,3.504042979329824e-06,-7.880505561828612,20.76279067993164,-34.96505355834961,-0.0914338156580925,0.02673071622848511,0.04023170471191406,985.8070678710938,1,1.0,2,2
10.64,0.08576995,-0.15256720000000001,9.754567999999999,0.000695282535161823,-0.0002477671951055527,0.0006691731396131217,-7.7670230865478525,20.76398468017578,-35.444515228271484,-0.09104834496974944,0.012645542621612549,0.05443477630615234,985.8174438476562,1,1.0,2,2
10.68,0.088189065,-0.17401744,9.768774,0.0004286855109967291,-0.00011456361971795559,0.0008022105321288109,-8.042407989501951,21.718250274658203,-36.30474472045898,-0.09524999558925627,0.03645382821559906,0.049696922302246094,985.8023071289062,1,1.0,2,2
10.72,0.05475962,-0.15495189,9.766409,2.8930429834872484e-05,0.00028495583683252335,0.00040261622052639723,-8.076052665710451,21.15962219238281,-35.72798538208008,-0.04711396247148514,0.012241244316101074,0.04022026062011719,985.8026123046876,1,1.0,2,2
10.76,0.07629791,-0.15733589,9.761678,-0.000370824767742306,1.8685648683458567e-05,3.021908923983574e-06,-8.440736770629883,20.818084716796875,-35.5748176574707,-0.0849079117178917,0.021779105067253116,0.044953346252441406,985.77490234375,1,1.0,2,2
10.8,0.0811069,-0.16210316,9.759314,0.00029468379216268664,-0.00038074259646236897,2.9013608582317833e-06,-8.663403511047362,21.40023422241211,-36.34441375732422,-0.08445140719413757,0.021691232919692997,0.0496816635131836,985.7822265625,1,1.0,2,2
10.84,0.09069568,-0.14542095,9.754581,0.00016124470857903359,0.00028509285766631365,-0.00026353512657806277,-8.679464340209961,21.121658325195312,-36.09468460083008,-0.09344717860221864,0.011911079287528992,0.059145927429199226,985.7975463867188,1,1.0,2,2
10.88,0.07399553,-0.15495479999999998,9.75695,-0.000371668313164264,-0.0003806512104347348,-0.0005299714975990355,-8.370978355407715,21.094310760498047,-35.90966415405273,-0.07347214967012405,0.031126528978347782,0.044940948486328125,985.7728881835938,1,1.0,2,2
10.92,0.07880449,-0.16210529999999998,9.756953999999999,0.00029384013032540684,-0.00038060557562857866,-0.0003969340468756855,-8.578157424926758,21.111068725585934,-35.95570755004883,-0.08289507776498795,0.026288866996765137,0.05440711975097656,985.778076171875,1,1.0,2,2
10.96,0.0692741,-0.15257294,9.768792999999999,0.0008261906332336366,0.0002852297620847821,-0.00013073865557089448,-8.696748733520508,21.47374725341797,-35.34278106689453,-0.07322317361831665,0.007109344005584717,0.04019927978515625,985.7955932617188,1,1.0,2,2
11.0,0.07647294,-0.15495689,9.759327,-0.00037251197500154376,0.0002852754550985992,0.0002686145599000156,-8.692481994628906,20.846031188964844,-35.99956130981445,-0.06794657558202744,0.016715213656425476,0.04493236541748047,985.7880859375,1,1.0,2,2
11.04,0.07889205,-0.15734089999999998,9.761696,0.000292996468488127,-0.00011415270273573697,-0.00039729563286527986,-9.053823471069336,21.139572143554688,-35.576141357421875,-0.0820147693157196,0.02150042355060577,0.044930458068847656,985.7857666015624,1,1.0,2,2
11.08,0.07892123,-0.15257503,9.775902,0.0004258732660673559,1.9050901755690575e-05,0.0005346894613467157,-8.923874855041504,20.94513702392578,-35.5078010559082,-0.07187126576900482,0.012118160724639893,0.04966354370117188,985.78564453125,1,1.0,2,2
11.12,0.08134031,-0.15972556,9.7522335,0.00042559189023450017,-0.0002472193737048656,0.0001350950333289802,-8.723188400268555,21.396690368652344,-35.950069427490234,-0.0810086727142334,0.02166959643363953,0.05912971496582031,985.798583984375,1,1.0,2,2
11.16,0.0765897,-0.15257646,9.7711735,0.0006916267448104918,1.914217136800289e-05,1.8166610971093174e-06,-8.960531234741211,21.5958251953125,-35.84816360473633,-0.07588651776313783,0.016762003302574158,0.025983810424804688,985.8137817382812,1,1.0,2,2
11.2,0.08617848,-0.16211028,9.766441,-0.0003739181556738913,0.0005518196849152446,-0.00039777782512828713,-8.603755950927733,21.297866821289066,-36.03967666625977,-0.07582303881645203,0.012054339051246643,0.03545093536376953,985.7781982421876,1,1.0,2,2
11.24,0.08152163,-0.15973003,9.761719,0.00029159040423110133,-0.00024708244018256664,-0.00039789819857105613,-8.511878967285156,20.646297454833984,-35.86174392700195,-0.07040964812040329,0.026303902268409732,0.05911922454833984,985.8114013671876,1,1.0,2,2
11.28,0.07687053,-0.16688307,9.764097,-0.00010816467693075538,0.0004187529557384551,-0.00013170280726626515,-9.001105308532715,20.767459869384766,-35.485504150390625,-0.07519236207008362,0.021462127566337585,0.0401611328125,985.79150390625,1,1.0,2,2
11.32,0.084077,-0.16211735,9.757,0.00042708357796072965,0.0004588932788465172,0.00046619077329523867,-8.45970344543457,20.642478942871094,-35.86955642700195,-0.07446661591529846,0.02575656771659851,0.054352760314941406,985.8016967773438,1,1.0,2,2
11.36,0.07933402,-0.14781864,9.759369,-0.0003724433481693268,-0.0014052237384021282,0.0003327845479361713,-8.445302963256836,20.81366729736328,-35.34290313720703,-0.07868984341621399,0.0018263906240463255,0.044879913330078125,985.7843627929688,1,1.0,2,2
11.4,0.08415055,-0.16450252,9.76174,-0.0009054295951500537,-7.358691073022783e-05,-0.0005994730163365602,-9.172277450561523,21.60816192626953,-35.662288665771484,-0.08812841773033142,0.016109123826026917,0.04014205932617188,985.7966918945312,1,1.0,2,2
11.44,0.07940757,-0.15020369,9.771212,0.00029263726901263,0.0008585762698203325,0.00046563861542381346,-8.89052963256836,20.871627807617188,-36.50943374633789,-0.07805365324020386,0.01593223214149475,0.04013538360595703,985.7744140625,1,1.0,2,2
11.48,0.0746645,-0.1645043,9.747542999999999,0.00042508600745350117,0.0003260596713516861,-6.7297019995749e-05,-9.01422882080078,21.598167419433594,-35.76304244995117,-0.07296351343393326,0.020812049508094788,0.049599647521972656,985.76708984375,1,1.0,2,2
11.52,0.0723114,-0.15020554,9.754648,0.00042508600745350117,0.0003260596713516861,-6.7297019995749e-05,-9.01422882080078,21.598167419433594,-35.76304244995117,-0.06810272485017776,0.001823663711547852,0.04959774017333984,985.76708984375,1,1.0,2,2
11.56,0.07712796,-0.15258970000000002,9.757019,0.000824205344542861,5.9801328461617225e-05,6.570888217538595e-05,-9.044692039489746,21.14841079711914,-36.03996658325195,-0.06768544018268585,0.011443689465522766,0.04486370086669922,985.7749633789062,1,1.0,2,2
11.6,0.0771648,-0.15259065,9.757023,-0.00010825460776686667,-0.0004727729537989943,0.0007313466630876063,-9.306111335754396,21.53580474853516,-36.09933853149414,-0.07148292660713196,0.0017736852169036863,0.04485607147216797,985.797607421875,1,1.0,2,2
11.64,0.08437127,-0.15020819,9.754659,2.45487317442894e-05,-0.0003395574167370796,0.00019856297876685858,-9.0160493850708,20.964561462402344,-36.1106071472168,-0.07141928374767302,0.011327102780342102,0.0543212890625,985.7925415039062,1,1.0,2,2
11.68,0.08679795,-0.17165865,9.759397,-0.000508437748067081,0.0004594477650243789,0.00046472693793475633,-8.684030532836914,21.11724090576172,-35.86276626586914,-0.07581283897161484,0.02533106505870819,0.0448455810546875,985.7576293945312,1,1.0,2,2
11.72,0.08444479,-0.1645097,9.747564,-0.000508437748067081,0.0004594477650243789,0.00046472693793475633,-9.052845001220703,21.50933074951172,-35.751895904541016,-0.08972320705652237,0.02014946937561035,0.05430412292480469,985.7576293945312,1,1.0,2,2
11.76,0.07970181,-0.1621273,9.747568,-0.00010931852739304304,-0.00020628438505809757,-0.0006006885087117553,-8.575113296508789,21.114013671875,-36.11031723022461,-0.06557883322238922,0.02018487453460693,0.05430126190185547,985.7802734375,1,1.0,2,2
11.8,0.08929816,-0.15736170000000002,9.749938,0.00028980092611163855,-0.00020622684678528458,-0.0006008405471220613,-8.629790306091309,20.746604919433594,-35.84943771362305,-0.08424714207649231,0.020128458738327026,0.049561500549316406,985.7675170898438,1,1.0,2,2
11.84,0.07021576,-0.15974583,9.77598,0.0004226043820381165,6.014658720232546e-05,6.479723379015923e-05,-8.7052001953125,21.202537536621094,-35.47957992553711,-0.060186520218849175,0.029394298791885376,0.04008579254150391,985.7656860351562,1,1.0,2,2
11.88,0.07981217,-0.15736349,9.757047,-0.0010424874490126967,0.0003265200357418508,-0.0004679864505305887,-9.250349044799805,21.16664123535156,-36.16331100463867,-0.0686434656381607,0.01018381118774414,0.05428123474121094,985.768310546875,1,1.0,2,2
11.92,0.09896818,-0.16928078,9.75705,0.00015557929873466492,-0.00033921218710020185,0.0005971251521259546,-8.944364547729492,20.76805877685547,-35.72523880004883,-0.0874297022819519,0.02879951894283295,0.05900669097900391,985.78564453125,1,1.0,2,2
11.96,0.08944535,-0.15736528,9.766521000000001,-0.0006437228294089438,-0.0014044181443750858,-0.0007346061756834388,-8.936454772949219,21.407554626464844,-35.68689346313477,-0.08233421295881271,0.01925560832023621,0.030595779418945312,985.7711181640624,1,1.0,2,2
12.0,0.08470231,-0.16689934,9.778360000000001,0.0008203054312616588,-0.0007385133067145944,6.403750739991665e-05,-8.740335464477539,21.854694366455078,-35.89724349975586,-0.07221181690692903,0.03364942967891693,0.0305938720703125,985.7509765625,1,1.0,2,2
12.04,0.087129,-0.15498377,9.77363,-0.0003784706350415945,-0.0006052977987565099,-0.00033558811992406845,-9.348450660705566,21.70639419555664,-35.332950592041016,-0.08134353905916214,0.00505407154560089,0.04005718231201172,985.77587890625,1,1.0,2,2
12.08,0.072826385,-0.15975125,9.745227,-0.00011250923853367568,0.0012589709367603064,-6.942427717149258e-05,-9.112629890441896,21.50579071044922,-35.3575553894043,-0.047562353312969215,0.01909060776233673,0.0779256820678711,985.7814331054688,1,1.0,2,2
12.12,0.08959246,-0.15736888,9.757067,2.029421739280224e-05,-0.0008714984869584441,-0.00020273413974791765,-9.054367065429688,21.507858276367188,-35.674591064453125,-0.07582689821720122,0.014077395200729368,0.058979034423828125,985.7665405273438,1,1.0,2,2
12.16,0.08006966,-0.15975304,9.7547035,-0.0003795342054218054,0.0005932964850217104,-0.0003360441187396645,-8.882651329040527,20.298866271972656,-35.399356842041016,-0.06613636761903763,0.018713265657424927,0.04950523376464844,985.7637329101562,1,1.0,2,2
12.2,0.08966607,-0.16452058,9.7760105,-0.0002467308659106493,6.072214455343783e-05,-6.988015957176684e-05,-8.35589599609375,21.00312042236328,-35.983642578125,-0.07064229995012282,0.01825512945652008,0.03055858612060547,985.7891235351562,1,1.0,2,2
12.24,0.07746744,-0.15974782,9.7499485,-0.0005134012317284942,0.00019393765251152217,0.0004625996807590127,-8.891752243041992,21.50228881835937,-36.007259368896484,-0.060586575418710716,0.023160412907600403,0.04949283599853516,985.7947387695312,1,1.0,2,2
12.28,0.081981,-0.15497471,9.768862,0.0005528683541342616,-0.0010046471143141387,-0.00020275881979614496,-8.811477661132812,21.682907104492188,-36.184165954589844,-0.0638391524553299,0.013607755303382874,0.04480743408203125,985.7788696289062,1,1.0,2,2
12.32,0.058095932,-0.15259184,9.76413,0.0002904171124100685,-0.0006058007711544633,0.0001983713009394705,-8.850528717041016,20.85601806640625,-35.89880752563477,-0.049201257526874535,0.003938913345336914,0.03533458709716797,985.7921752929688,1,1.0,2,2
12.36,0.09395844,-0.14782567,9.761763,-0.0005086648743599653,-7.314709364436567e-05,-0.0003343181451782584,-8.844985008239746,21.230201721191406,-36.30648422241211,-0.08262604475021362,0.004001230001449585,0.04953575134277344,985.7922973632812,1,1.0,2,2
12.4,0.07485318,-0.15735908,9.764132,2.383207902312279e-05,0.00045950655476190144,-0.00020121794659644363,-9.071269035339355,20.96543884277344,-35.948184967041016,-0.06326267123222351,0.018085852265357968,0.03532886505126953,985.7595825195312,1,1.0,2,2
12.44,0.08920658,-0.16689248,9.7593975,0.00015685544349253178,0.00045952838263474405,6.504030898213388e-05,-9.033196449279783,21.42256164550781,-36.05778121948242,-0.0773194432258606,0.013156592845916748,0.05426311492919922,985.7922973632812,1,1.0,2,2
12.48,0.06771141,-0.16212632,9.754665,-0.0007753846002742647,0.000725866062566638,6.49825669825077e-05,-9.083551406860352,22.05999755859375,-35.7024040222168,-0.05359244719147682,0.012874379754066469,0.05899238586425781,985.8028564453124,1,1.0,2,2
12.52,0.07967489999999999,-0.15736009,9.766502000000001,-0.000376045354641974,0.001391677651554346,0.0003312408516649157,-8.830583572387695,21.401390075683594,-35.77982711791992,-0.06339913606643678,0.017109960317611694,0.04478073120117188,985.7724609375,1,1.0,2,2
12.56,0.07251915,-0.14544408,9.757033999999999,-0.0002430221065878868,0.0007259097183123231,-6.829074118286371e-05,-8.86683464050293,21.57787322998047,-35.32265853881836,-0.05836499482393265,-0.006613850593566895,0.04478073120117188,985.7753295898438,1,1.0,2,2
12.6,0.07253313,-0.15021099,9.757036,2.3159198462963104e-05,0.0008590897778049111,-0.00020150630734860897,-8.611366271972656,21.290496826171875,-35.65315246582031,-0.04876455292105675,0.017258748412132263,0.04477882385253906,985.790283203125,1,1.0,2,2
12.64,0.08927639999999999,-0.16212766,9.754669999999999,2.302462235093117e-05,0.00019332169904373583,0.00033106780028902,-8.723731994628906,21.76498413085937,-36.04851913452149,-0.07724201679229736,0.02219754457473755,0.0495147705078125,985.772705078125,1,1.0,2,2
12.68,0.07973075,-0.15497823,9.771241,0.0005555216921493411,6.0185702750459313e-05,0.00033101008739322424,-8.797375679016113,21.221961975097656,-36.0823860168457,-0.06738992035388948,-0.0064677149057388314,0.044777870178222656,985.7779541015624,1,1.0,2,2
12.72,0.0797447,-0.15497853,9.759407000000001,-0.00024356041103601456,0.0004596813523676246,0.000330952403601259,-8.495956420898438,20.81896209716797,-35.412391662597656,-0.05748505890369415,0.007581591606140138,0.04003715515136719,985.7860717773438,1,1.0,2,2
12.76,0.079758644,-0.16451202,9.759409,-0.0006431689253076911,-0.00033924449235200877,-0.00033489509951323265,-8.585630416870117,21.209625244140625,-36.26826095581055,-0.061829842627048485,0.011860117316246031,0.04002857208251953,985.770263671875,1,1.0,2,2
12.8,0.08455247,-0.15497918,9.761776,-0.000776461442001164,0.00019340912695042792,6.452103843912482e-05,-8.9981689453125,21.876750946044922,-36.01277160644531,-0.07119107991456985,0.011897265911102295,0.04476261138916016,985.7860717773438,1,1.0,2,2
12.84,0.08217651,-0.16689594,9.761778,0.00025484396610409016,0.0001442946377210319,7.475190795958042e-05,-8.93881893157959,21.14223861694336,-36.13290786743164,-0.06097894161939621,0.02144737541675568,0.04949283599853516,985.7682495117188,1,1.0,2,2
12.88,0.07502073,-0.14306356,9.757045,0.0003878674469888209,-0.001054104883223772,-0.0005910954787395895,-9.061976432800293,21.50049591064453,-35.28806686401367,-0.05120820552110672,0.002358943223953247,0.044757843017578125,985.7587280273438,1,1.0,2,2
12.92,0.09415394,-0.15498026,9.752312,0.0002545746974647045,0.00041065423283725977,-0.00019167916616424918,-9.085914611816406,21.794677734375,-36.14841842651367,-0.07458370923995973,0.011868610978126526,0.05895805358886719,985.7714233398438,1,1.0,2,2
12.96,0.08460826,-0.15259732,9.775986,0.000653914175927639,-0.00012195570161566138,-5.857896758243442e-05,-9.300704002380373,21.80406951904297,-35.80792999267578,-0.06453771889209747,0.007107317447662354,0.016345977783203125,985.7688598632812,1,1.0,2,2
13.0,0.084622264,-0.15259765,9.742846,-0.0004114842740818858,-0.00012193384463898838,-0.0001917946501635015,-8.81648063659668,20.94043731689453,-35.67804336547852,-0.06444863229990005,0.021211102604866028,0.0684194564819336,985.7684936523438,1,1.0,2,2
13.04,0.08702612,-0.14544816,9.745214,-0.000677934498526156,0.00014440389350056648,-0.0007244839216582477,-8.82503890991211,21.775569915771484,-36.1875,-0.06393980234861374,-0.007408708333969115,0.06841564178466797,985.761474609375,1,1.0,2,2
13.08,0.07509059,-0.15736492,9.754684,-0.000677934498526156,0.00014440389350056648,-0.0007244839216582477,-9.16869068145752,21.242820739746094,-35.718448638916016,-0.049230769276618964,0.021153524518013,0.06841373443603516,985.761474609375,1,1.0,2,2
13.12,0.087054044,-0.14783217,9.759419,0.00012087833601981399,-0.00012189010158181192,7.440586341544987e-05,-9.18127155303955,21.70523834228516,-35.89753341674805,-0.058739252388477325,0.006714865565299989,0.03527069091796875,985.7838134765624,1,1.0,2,2
13.16,0.072728574,-0.15259902,9.773624,-1.2413947843015194e-05,0.0002776055480353534,0.0003406640607863665,-8.517531394958496,21.378456115722656,-35.82672500610352,-0.05377738177776337,0.01128871738910675,0.03526592254638672,985.7816162109376,1,1.0,2,2
13.2,0.07752237,-0.16689904,9.754688,0.00012060930021107195,0.0008102591382339598,0.0002074484364129603,-8.581201553344728,21.10811996459961,-35.80109786987305,-0.06292876601219177,0.015995949506759644,0.05419921875,985.7637939453124,1,1.0,2,2
13.24,0.08231586,-0.16928269,9.749953999999999,-0.00041215692181140174,1.1333380825817585e-05,-5.892507033422589e-05,-8.938520431518555,21.774375915527344,-35.708038330078125,-0.057808086276054375,0.0255330353975296,0.06366825103759766,985.7792358398438,1,1.0,2,2
13.28,0.07277024,-0.16213317,9.752322999999999,-0.0002791337901726365,-0.00025496067246422166,0.0004736489499919117,-8.796533584594727,21.485809326171875,-35.55906295776367,-0.05727224051952363,0.006380707025527954,0.05892848968505859,985.751220703125,1,1.0,2,2
13.32,0.08234376,-0.16690011,9.764161,0.0002556613180786371,-0.000391092908103019,-0.00019276997772976762,-9.01727294921875,21.59522247314453,-35.60843276977539,-0.052658602595329285,0.024976879358291626,0.04945182800292969,985.7796020507812,1,1.0,2,2
13.36,0.082357734,-0.16690038,9.759428,-0.00014394649770110848,0.00014156059478409588,7.34884524717927e-05,-9.311357498168944,21.79376220703125,-35.26679611206055,-0.05720704793930054,0.02004849910736084,0.039978981018066406,985.7669067382812,1,1.0,2,2
13.4,0.08237171,-0.1597509,9.771265,-0.0001442156499251723,-0.00012471157242543995,0.0002065312582999468,-8.772862434387207,21.771747589111328,-36.19531631469727,-0.061439953744411475,0.019979134202003482,0.044709205627441406,985.7573852539062,1,1.0,2,2
13.44,0.075215936,-0.16928439,9.761797,-0.00041066575795412064,-0.0005241635954007506,7.331575034186244e-05,-8.933274269104004,21.51641845703125,-36.54057693481445,-0.05137479305267334,0.024599701166152958,0.05417442321777344,985.7771606445312,1,1.0,2,2
13.48,0.07045007,-0.14783521,9.771267,0.0005213052500039339,0.00027480584685690696,-0.00045937363756820565,-9.056730270385742,21.24253845214844,-36.12060546875,-0.04628453403711319,0.000642731785774231,0.04470062255859375,985.7520141601562,1,1.0,2,2
13.52,0.06807411,-0.15260209,9.764168,-0.0004109347937628627,-0.0003909619408659637,-0.00032627343898639083,-8.644435882568361,21.575836181640625,-36.04967498779297,-0.036445870995521545,0.0005840212106704713,0.035228729248046875,985.7847900390624,1,1.0,2,2
13.56,0.06808808400000001,-0.16451885,9.7547,-0.00027791131287813187,-0.0007904139929451048,0.00020630069775506854,-8.806507110595703,21.213123321533203,-35.61855697631836,-0.04553680121898651,0.029063060879707336,0.04942798614501953,985.7503051757812,1,1.0,2,2
13.6,0.07766163,-0.15736939,9.759436,-0.00014488794840872288,-0.0003909183433279395,7.308513158932328e-05,-8.397011756896973,20.543045043945312,-35.71943283081055,-0.054838411509990685,0.000333636999130249,0.0494232177734375,985.7730102539062,1,1.0,2,2
13.64,0.072895825,-0.16928612,9.754703,0.00025445153005421156,0.00014173521776683629,-0.0001932883751578629,-8.912922859191895,21.58758544921875,-35.62406539916992,-0.045234903693199165,0.02894531190395355,0.05889129638671875,985.7430419921876,1,1.0,2,2
13.68,0.07529968,-0.16213657,9.759438000000001,-1.1999043636023998e-05,0.0013401785399764776,0.00033928579068742687,-8.828083038330078,21.772624969482425,-36.03288650512695,-0.050165951251983636,0.014560237526893616,0.03995132446289063,985.7860107421876,1,1.0,2,2
13.72,0.07531363,-0.14307074,9.7499695,0.0005204983754083514,0.0009407266043126584,-0.0005928774480707942,-8.837214469909668,21.76378631591797,-35.569061279296875,-0.06446123868227005,-0.004550516605377197,0.054152488708496094,985.7710571289062,1,1.0,2,2
13.76,0.07293767,-0.14068778,9.766542,0.00012088997755199674,0.00027495870017446583,-6.030331132933499e-05,-9.136706352233887,21.694053649902344,-35.51883316040039,-0.054448060691356666,-0.00896976888179779,0.035218238830566406,985.7482299804688,1,1.0,2,2
13.8,0.072951615,-0.15975438,9.764175,-0.00014556036330759523,-0.0005239670863375069,-0.00019351887749508026,-8.7518310546875,21.580535888671875,-35.879432678222656,-0.040057450532913215,0.024118080735206604,0.04941558837890625,985.7787475585938,1,1.0,2,2
13.84,0.06818578,-0.16213794,9.745239,0.00025377911515533924,0.0006744761485606433,7.273926166817546e-05,-8.840801239013672,22.129127502441406,-35.51289749145508,-0.04006379842758179,0.019657716155052185,0.058887481689453125,985.7660522460938,1,1.0,2,2
13.88,0.07536942,-0.16213829999999999,9.747608,0.0006531181279569863,0.00014186630141921341,-0.0004599501262418926,-8.228991508483888,20.805744171142575,-35.76069259643555,-0.05413490533828736,0.0004973411560058594,0.07782268524169922,985.7484741210938,1,1.0,2,2
13.92,0.061043978,-0.15737207,9.761811999999999,0.0003866679035127163,-0.0002575856924522668,-0.0008594815735705197,-8.473806381225586,21.103424072265625,-35.97134017944336,-0.03475411236286163,0.010333269834518431,0.03994941711425781,985.7867431640624,1,1.0,2,2
13.96,0.07778728,-0.15737243,9.77365,0.0005196915008127688,0.00027506795595400035,0.0008715140866115688,-8.90933609008789,21.222240447998047,-35.68022537231445,-0.04882238432765007,0.01512385904788971,0.03521251678466797,985.7510375976562,1,1.0,2,2
14.0,0.0873608,-0.16452260000000002,9.757081,0.0002532409271225333,-0.0005238580051809549,7.250875933095813e-05,-8.826858520507812,21.141963958740234,-36.53506851196289,-0.0678250715136528,0.015109285712242125,0.04941368103027344,985.784423828125,1,1.0,2,2
14.04,0.08498487,-0.15260656,9.754715,-0.00041268300265073776,0.001606691163033247,-6.070680683478714e-05,-8.607885360717772,22.031494140625,-36.08196640014648,-0.05325967818498612,0.010030075907707214,0.04467296600341797,985.7714233398438,1,1.0,2,2
14.08,0.06826949,-0.15260692,9.752349,-0.0001465019304305315,0.00014197544078342617,-0.000593396311160177,-9.000669479370117,21.505512237548828,-35.759708404541016,-0.05287612229585648,0.010155752301216124,0.05414104461669922,985.7640991210938,1,1.0,2,2
14.12,0.082622826,-0.15737379999999998,9.773655,0.0009186272509396076,-0.0009232662850990893,-0.00019397999858483672,-8.946971893310547,21.50316619873047,-35.84483337402344,-0.05260496586561203,0.015080317854881288,0.03520393371582031,985.7638549804688,1,1.0,2,2
14.16,0.080246896,-0.16214071,9.759454,-1.3612792827188969e-05,0.00014201909652911127,7.227814057841897e-05,-9.0845308303833,21.690235137939453,-35.52664566040039,-0.056866928935050964,0.024253368377685547,0.04939842224121094,985.7748413085938,1,1.0,2,2
14.2,0.071174145,-0.16930248,9.750029,-0.0006795370718464255,-0.0006569067481905223,0.0002053784555755556,-9.024883270263672,21.587860107421875,-35.22190475463867,-0.03778395429253578,0.028913378715515137,0.05886650085449219,985.77197265625,1,1.0,2,2
14.24,0.08363902599999999,-0.15501545,9.757177,-1.5009893104434012e-05,0.0008080356055870652,-0.0005941102863289416,-8.85479736328125,21.48373794555664,-35.24202346801758,-0.05281345173716545,0.014595955610275269,0.05877494812011719,985.7597045898438,1,1.0,2,2
14.28,0.07413137,-0.15263347,9.75955,-1.817214069887996e-05,-0.00012935476843267682,0.00033320026705041533,-8.875829696655273,21.674945831298828,-35.55791091918945,-0.042811255902051926,0.00023117661476135254,0.04929733276367188,985.7776489257812,1,1.0,2,2
14.32,0.07179347,-0.1645511,9.761922,0.00011448486475273967,-0.0005287472158670424,-6.648828275501728e-05,-8.853679656982422,21.95941925048828,-36.11685562133789,-0.04725044593214989,0.014439940452575684,0.035086631774902344,985.772216796875,1,1.0,2,2
14.36,0.07184544,-0.16931896,9.766662,-5.42563502676785e-05,9.659334318712354e-05,-0.00024351384490728373,-9.082465171813963,21.32341766357422,-35.50550079345703,-0.04222569614648819,0.02382595837116241,0.035079002380371094,985.7673950195312,1,1.0,2,2
14.4,0.07667723,-0.16693692,9.752462,-0.0007205472211353482,-0.0004359571030363441,0.0006883770693093537,-9.20078182220459,21.897926330566406,-36.29072952270508,-0.04191987961530685,0.013695940375328064,0.06347274780273438,985.7574462890624,1,1.0,2,2
14.44,0.06716961,-0.16217168,9.761936,-0.0005878900992684066,-0.0011016654316335917,0.000821320281829685,-8.89784049987793,21.49639892578125,-35.69804000854492,-0.036557376384735114,0.013724297285079956,0.04452800750732422,985.7548828125,1,1.0,2,2
14.48,0.06722161,-0.15025653,9.754839,-0.0001889174454845488,9.68373497016728e-05,-0.00011100003030151127,-8.903790473937988,21.596420288085934,-36.08789443969727,-0.04125487804412842,-0.005760863423347472,0.06345462799072266,985.7852783203124,1,1.0,2,2
14.52,0.06488365,-0.14787458,9.773781,-0.0001889174454845488,9.68373497016728e-05,-0.00011100003030151127,-8.945992469787598,21.8729248046875,-36.02058792114258,-0.03165741264820099,-0.0009875446557998657,0.03030872344970703,985.7852783203124,1,1.0,2,2
14.56,0.074495256,-0.15740891,9.740644,-0.00032257643761113286,-3.623918746598065e-05,-0.000377530581317842,-9.063360214233398,21.604938507080078,-35.90983200073242,-0.045799896121025085,0.017898038029670715,0.0681753158569336,985.7597045898438,1,1.0,2,2
14.6,0.06737754,-0.15502696,9.77379,-0.00032307737274095416,-0.00016931584104895592,2.1728454157710075e-05,-9.327824592590332,21.989391326904297,-35.81459426879883,-0.026101291179656986,0.012754544615745544,0.039755821228027344,985.7523193359376,1,1.0,2,2
14.64,0.08415878,-0.162178,9.77853,-0.0009893679525703194,-0.0005687083466909826,-0.00011164427269250153,-9.077058792114258,21.59168243408203,-35.21409225463867,-0.05436979234218597,0.017504602670669556,0.0397491455078125,985.7730102539062,1,1.0,2,2
14.68,0.0627017,-0.16694589,9.747761,-5.7763478253036744e-05,-0.0004354690900072456,-0.00024501676671206946,-8.838736534118652,21.76231384277344,-35.491756439208984,-0.02520192414522171,0.01729938387870789,0.05867767333984375,985.7755126953124,1,1.0,2,2
14.72,0.06275368,-0.1550308,9.771438999999999,-5.826452979817986e-05,-3.591395216062665e-05,0.00042055814992636437,-8.761804580688478,21.30785369873047,-35.93892288208008,-0.030253317207098007,0.012316718697547913,0.0255279541015625,985.7733764648438,1,1.0,2,2
14.76,0.06997535,-0.16694845,9.75724,-5.8765348512679345e-05,-0.0008347802795469762,-0.0002454463392496109,-9.240077018737793,22.071460723876953,-35.67895126342773,-0.04409419000148773,0.02652144432067871,0.04445838928222656,985.7556762695312,1,1.0,2,2
14.8,0.077197045,-0.16933294,9.743041,0.0004728640778921545,-0.000834617530927062,-0.00024587579537183046,-8.845664978027344,21.492576599121094,-35.70585250854492,-0.03417622670531273,0.016625910997390747,0.06811904907226562,985.7531127929688,1,1.0,2,2
14.84,0.0629096,-0.15265132,9.757249,-0.001391847850754857,-0.0007013783324509858,-0.00037924840580672026,-8.754034042358397,21.84143829345703,-35.201499938964844,-0.028822142630815506,-0.007485419511795044,0.06337261199951172,985.7508544921876,1,1.0,2,2
14.88,0.07491106,-0.16218571,9.764356,0.00020554655930027368,-0.000301823194604367,-0.0005126210162416099,-8.7208251953125,21.662010192871094,-35.50405502319336,-0.03864763304591179,0.006788387894630432,0.04916572570800781,985.7635498046876,1,1.0,2,2
14.92,0.07735294,-0.15265383,9.750156,0.0004713613889180124,0.0006303637637756765,-0.000379677745513618,-8.964118957519531,21.961166381835934,-35.7920036315918,-0.04840564727783203,0.0021007657051086426,0.05389690399169922,985.776123046875,1,1.0,2,2
14.96,0.07262516,-0.17172135,9.757263,0.00020454457262530923,0.0007636030786670744,-0.0003798924153670669,-9.170755386352539,21.609634399414066,-35.73959350585937,-0.033841170370578766,0.016425564885139462,0.04442310333251953,985.7561645507812,1,1.0,2,2
15.0,0.07984683,-0.1621895,9.769103999999999,0.00020404340466484427,0.00023105257423594594,-0.00011379120405763389,-8.557668685913086,21.28814697265625,-35.73827362060547,-0.04800688475370407,0.016647592186927795,0.04915428161621094,985.768798828125,1,1.0,2,2
15.04,0.07511902,-0.15742426,9.75964,0.00020354246953502295,-0.00016833993140608072,-0.0002471640473231673,-8.610822677612305,20.92221069335937,-35.55470275878906,-0.047567930072546005,0.011694803833961487,0.05861473083496094,985.760986328125,1,1.0,2,2
15.08,0.06800127,-0.15027569,9.75491,6.988359382376075e-05,-0.000434574467362836,-0.00024737860076129436,-8.903386116027832,21.122215270996094,-35.29037094116211,-0.04245076328516007,-0.007384762167930603,0.04913902282714844,985.7669067382812,1,1.0,2,2
15.12,0.06327343,-0.14074384,9.769117999999999,6.938254227861762e-05,-0.0007008090033195912,1.8722552340477705e-05,-8.732320785522461,21.38785552978516,-35.48624038696289,-0.02784017100930214,-0.0028165727853775024,0.030193328857421875,985.7693481445312,1,1.0,2,2
15.16,0.07766482,-0.1574281,9.759655,-0.0004637501551769674,-0.0007007276872172952,-0.00038096611388027673,-8.99069595336914,21.778194427490234,-35.70022201538086,-0.041912727057933814,-0.0024710893630981445,0.03966045379638672,985.7672119140624,1,1.0,2,2
15.2,0.08110157,-0.17407806,9.747695,0.00033469655318185687,9.83012723736465e-05,0.0002846089191734791,-9.184858322143556,22.070587158203125,-35.84137344360352,-0.04510082677006722,0.030749455094337463,0.06345176696777344,985.7744750976562,1,1.0,2,2
15.24,0.09065735,-0.1621616,9.761898,-0.00019176356727257368,-0.0003021744196303189,-0.00011221983004361391,-9.209370613098145,21.520797729492188,-35.72844696044922,-0.049325764179229736,0.016279205679893494,0.049243927001953125,985.7819213867188,1,1.0,2,2
15.28,0.06436461,-0.16931129999999997,9.750061,-0.00018033027299679816,0.00035588117316365237,0.00042233336716890335,-8.9515380859375,21.498741149902344,-35.61291885375977,-0.03962207213044167,0.01603163778781891,0.05397510528564453,985.7318725585938,1,1.0,2,2
15.32,0.06197095,-0.15262823,9.761898,8.602216257713735e-05,8.955935481935741e-05,0.00015603320207446814,-8.759876251220701,20.83512115478516,-35.21870040893555,-0.02032240852713585,0.0016443431377410887,0.04923820495605469,985.7547607421876,1,1.0,2,2
15.36,0.07869643,-0.16216129999999998,9.764264,0.0035481648519635205,-0.0021741315722465515,-0.0005097406683489679,-9.006757736206055,21.49961853027344,-35.45048904418945,-0.04314007610082626,0.02722756564617157,0.0397939682006836,985.757080078125,1,1.0,2,2
15.4,0.066743135,-0.15739460000000002,9.757162,0.0008850432932376864,-0.0008425581036135553,0.0001560646342113614,-8.938520431518555,21.774375915527344,-35.70803451538086,-0.019801735877990726,0.002093866467475891,0.06344795227050781,985.9381713867188,1,1.0,2,2
15.44,0.07629892,-0.15739454,9.750061,-0.004174921661615372,0.002086910651996732,0.0006887121126055717,-8.50908088684082,21.649673461914066,-35.6899299621582,-0.038888461887836456,0.0063615888357162476,0.06344032287597656,985.7850952148438,1,1.0,2,2
15.48,0.0739052,-0.15977772,9.761896,-0.0004464629164431244,0.00022269348846748466,-0.00011021981481462714,-8.765528678894043,21.567283630371094,-35.18368911743164,-0.033398643136024475,0.011532142758369446,0.05871009826660156,985.7015991210938,1,1.0,2,2
15.52,0.07629129,-0.15262784,9.750059,0.002083574654534459,-0.0011088917963206768,-0.0005096778040751816,-8.963277816772461,22.22501373291016,-35.26868438720703,-0.03343876078724861,-0.002801582217216492,0.03977203369140625,985.7526245117188,1,1.0,2,2
15.56,0.07628751,-0.17646049,9.754794,-0.0019111268920823925,0.002086892956867814,0.00015612738206982613,-8.822813034057617,21.93497467041016,-35.042407989501946,-0.052791520953178406,0.024887800216674805,0.04922676086425781,985.8342895507812,1,1.0,2,2
15.6,0.06672406,-0.15024437,9.754793,-0.0012453004019334912,-0.00030995614361017937,2.2985332179814574e-05,-9.056570053100586,21.76876449584961,-34.996658325195305,-0.0239550918340683,0.0008513778448104857,0.05395984649658203,985.6837768554688,1,1.0,2,2
15.64,0.0643304,-0.15262754,9.745325,-0.0005794740281999111,0.0002226696815341711,0.00028931687120348215,-8.756534576416017,21.470199584960934,-34.948436737060554,-0.023665528744459152,0.005800321698188782,0.06816387176513672,985.7168579101562,1,1.0,2,2
15.68,0.07149628,-0.15739395,9.761894,0.00195056339725852,-4.3652165913954384e-05,0.0006888065254315734,-8.750148773193361,22.108234405517575,-34.83279037475586,-0.033237826079130166,0.006088048219680786,0.04923057556152344,985.7704467773438,1,1.0,2,2
15.72,0.07388237,-0.15262736,9.771362,-0.00017992701032198966,-0.0001768160727806389,-0.00011012551840394737,-9.038145065307617,22.31266021728516,-34.80037307739258,-0.03758218139410019,-0.008439481258392334,0.03975868225097656,985.7634887695312,1,1.0,2,2
15.76,0.07865834,-0.15501048,9.761894,-0.0008456797804683447,-0.0003099799796473235,0.00015620619524270296,-8.491091728210451,21.45551300048828,-35.21943664550781,-0.03253767639398575,0.005210116505622864,0.04448127746582031,985.77587890625,1,1.0,2,2
15.8,0.06670505,-0.15501048,9.766627,-0.000978801166638732,-0.000576301827095449,-0.0005095676751807332,-9.0338773727417,21.684940338134766,-35.4571533203125,-0.022348176687955856,-0.004117965698242188,0.05395221710205078,985.7557373046876,1,1.0,2,2
15.84,0.076260805,-0.16216017,9.757158,0.0003528147644829005,-0.00044314976548776036,0.0012215011520311234,-8.553783416748049,21.55493927001953,-35.369564056396484,-0.041466262191534035,0.010051846504211426,0.05868339538574219,985.7637329101562,1,1.0,2,2
15.88,0.06908733,-0.15739347,9.757158,-0.0002995530376210809,0.00038899455103091896,0.0009957717265933752,-8.95860481262207,21.123092651367188,-35.127941131591804,-0.027062520384788517,0.0054342448711395255,0.044483184814453125,985.7634887695312,1,1.0,2,2
15.92,0.06669366,-0.1597767,9.759525,0.000765747157856822,-0.00027680114726535976,0.0007294716779142617,-8.688190460205076,20.638614654541016,-34.833324432373054,-0.02704616263508797,0.00554390251636505,0.04448604583740234,985.7659912109376,1,1.0,2,2
15.96,0.07624942,-0.15501006,9.766625999999999,0.000765747157856822,-0.00027680114726535976,0.0007294716779142617,-8.491772651672362,21.717891693115234,-34.61880874633789,-0.03186414763331413,0.01519775390625,0.039752960205078125,985.7659912109376,1,1.0,2,2
16.0,0.07624563599999999,-0.15024342,9.771360000000001,0.0004994678311049938,0.0010547724086791275,0.00046317145461216574,-8.366251945495605,21.62495422363281,-35.017635345458984,-0.036623265594243996,-0.00347881019115448,0.025556564331054688,985.768798828125,1,1.0,2,2
16.04,0.06907207,-0.16930951,9.768991999999999,0.000499504734762013,0.0003889767394866793,-6.944459164515138e-05,-8.58104133605957,21.63434219360352,-34.67715072631836,-0.03179730102419853,0.0058043450117111215,0.05395984649658203,985.7529907226562,1,1.0,2,2
16.08,0.08101785,-0.16454293,9.747688,0.00023326207883656025,0.0001226488675456494,-0.0004688868648372591,-8.333181381225586,21.33960723876953,-34.62111282348633,-0.05069862306118012,0.010253414511680605,0.0728921890258789,985.7463989257812,1,1.0,2,2
16.12,0.07623422,-0.15024312,9.764257,0.00023326207883656025,0.0001226488675456494,-0.0004688868648372591,-8.333181381225586,21.33960723876953,-34.62111282348633,-0.04096610471606255,-0.004069924354553223,0.03975105285644531,985.7463989257812,1,1.0,2,2
16.16,0.07933992,-0.16932692,9.771425,-0.0004324907204136253,0.000388958869734779,0.00019691855413839218,-8.128365516662598,21.057525634765625,-35.02109146118164,-0.035934705287218094,0.020109504461288445,0.03028583526611328,985.7561645507812,1,1.0,2,2
16.2,0.06098032,-0.16457902,9.75019,0.0006328091258183122,-1.0520947398617864e-05,0.0007295659161172807,-8.561691284179688,20.91544342041016,-35.40790939331055,-0.01836778223514557,0.005500912666320801,0.06802177429199219,985.7540283203124,1,1.0,2,2
16.24,0.06103486,-0.16219704,9.780968,-0.0007052685832604767,0.000384162412956357,0.0004577254294417799,-8.639602661132812,21.00013732910156,-34.784984588623054,-0.02290598675608635,0.005251601338386536,0.0301361083984375,985.7565307617188,1,1.0,2,2
16.28,0.05869952,-0.15504853,9.757301,-0.00017488771118223667,-0.0002812619204632938,0.00019044469809159642,-8.429379463195799,20.986328125,-34.89355087280273,-0.027656950056552887,0.00992894172668457,0.03959846496582031,985.7968139648438,1,1.0,2,2
16.32,0.073093474,-0.15743317,9.750204,0.00022406014613807201,0.00038461323129013186,0.00032337737502530217,-8.862406730651855,21.47637176513672,-34.85550308227539,-0.022996969521045685,0.009891152381896973,0.05379676818847656,985.7667846679688,1,1.0,2,2
16.36,0.070758104,-0.16220112,9.780983,0.00022353429812937975,-0.00014793325681239367,0.00018999405438080433,-8.671151161193848,21.28695678710937,-35.25880813598633,-0.027307551354169846,0.02447113394737244,0.030120849609375,985.7918701171876,1,1.0,2,2
16.4,0.07081267,-0.15981908,9.788089999999999,0.00022300856653600934,-0.0009467955096624793,0.00018976867431774733,-8.312991142272951,20.884552001953125,-34.828548431396484,-0.03639915585517883,0.010136887431144714,0.0206451416015625,985.7821655273438,1,1.0,2,2
16.44,-0.629374,-0.083555594,9.773891,0.00035564077552407985,-0.0002809204743243754,-0.001275193877518177,-8.881075859069824,21.932903289794922,-34.72536849975586,0.6313832402229309,-0.18957263231277466,0.03485584259033203,985.7769165039062,1,1.0,2,2
16.48,0.82374084,-0.23132022,9.783365,-0.001775412238202989,0.0019828500226140022,-0.3650629222393036,-8.964554786682129,21.223114013671875,-35.51780319213867,-1.5014886856079102,0.2524251639842987,0.02061176300048828,985.7821044921876,1,1.0,2,2
16.52,0.061416745,-0.12884055,10.1124115,-0.0027080434374511238,0.002915040589869023,-0.2588030993938446,-8.792105674743652,21.38431167602539,-35.09189987182617,0.07503645122051239,0.03173060715198517,-0.031490325927734375,985.7616577148438,1,1.0,2,2
16.56,0.21920478,0.43361187,10.252081,-0.035332266241312034,0.005977759137749672,-0.04069061949849129,-9.19442653656006,21.323692321777344,-35.10333633422852,0.24507933855056765,-0.8350434303283691,-0.6288843154907227,985.7590942382812,1,1.0,2,2
16.6,0.22403920000000002,-0.7341959,9.570332,-0.17861074209213254,0.2532521486282349,-0.12458033859729767,-8.677644729614258,21.755271911621094,-35.74711990356445,-0.5824484825134277,0.20206472277641296,0.6552248001098633,985.6724853515624,1,1.0,2,2
16.64,0.099818826,-0.04542981,10.576397,-0.3510507941246033,0.2295500934123993,-0.12071900069713593,-8.589897155761719,21.83734130859375,-35.61147689819336,-0.41863876581192017,0.028416901826858517,-0.2658357620239258,985.6929321289062,1,1.0,2,2
16.68,0.29584533,0.25724524,10.817858,-0.3968576490879059,0.2647038996219635,-0.048547614365816116,-8.889090538024902,22.399742126464844,-35.13637161254883,-0.6869275569915771,-1.4140101671218872,-1.3413324356079102,985.6903076171876,1,1.0,2,2
16.72,-0.7269781,-1.051176,10.5409,-0.6357435584068298,0.8511316180229187,-0.4496195614337921,-7.858441352844237,22.57390594482422,-34.07363510131836,-0.7855942249298096,0.031742751598358154,-0.6060171127319336,985.713623046875,1,1.0,2,2
16.76,-1.6685449,-1.6374639,11.260534,-0.6832814812660217,1.4161207675933838,-0.8612109422683716,-6.493431568145753,22.74576187133789,-34.140064239501946,0.7120795249938965,0.5730869770050049,-1.8645048141479488,985.7109985351562,1,1.0,2,2
16.8,-1.0256068999999999,-0.45774227,10.609558,-0.003244347870349884,1.5415555238723757,-0.6024852991104126,-5.306821823120117,22.8564453125,-35.02225112915039,-1.4184014797210691,-0.6573155522346497,-1.009748458862305,985.7037963867188,1,1.0,2,2
16.84,-3.1669042000000003,-0.64125603,11.068800999999999,0.6277905702590942,0.9178439974784852,-0.2173928022384644,-4.4716339111328125,21.90079498291016,-36.17280960083008,0.8134970664978027,-0.15419960021972656,-1.885101318359375,985.7499389648438,1,1.0,2,2
16.88,-3.3771612999999996,-0.39577973,9.537225999999999,0.921669602394104,0.8812255859375,-0.435505747795105,-4.040724754333496,20.145004272460934,-36.983299255371094,0.6783478260040283,0.305084764957428,-0.3704042434692383,985.7442016601562,1,1.0,2,2
16.92,-3.642386,-0.56022733,8.962000999999999,1.1818596124649048,1.3133232593536377,-0.3649322092533112,-2.0660238265991206,17.727718353271484,-38.06996536254883,0.1582167148590088,0.5849140286445618,0.4530839920043945,985.7619018554688,1,1.0,2,2
16.96,-5.057153,0.111855835,10.405999999999999,0.8319201469421387,1.2906863689422607,-0.2437587231397629,-1.1516780853271484,16.477008819580078,-38.5225944519043,1.419564962387085,0.3523096442222595,-0.959782600402832,985.7596435546876,1,1.0,2,2
17.0,-4.617357,0.14760365,9.480428,0.6935684680938721,1.1147849559783936,0.020426398143172264,0.977919578552246,15.153136253356935,-39.92805862426758,0.6858000755310059,0.38737526535987854,-1.2022666931152344,985.7596435546876,1,1.0,2,2
17.04,-4.6746597,0.82921994,8.140596,1.0616165399551392,1.6008113622665403,0.24586255848407745,3.2774658203125,13.619223594665527,-40.65456771850586,-0.12957525253295898,0.6335517168045044,0.4070539474487305,985.7672119140624,1,1.0,2,2
17.08,-6.108546700000001,1.3678396000000002,9.478071,1.1172760725021362,1.393351435661316,0.30644920468330383,4.69013786315918,11.043931007385254,-40.87553024291992,0.5509052276611328,0.21970093250274655,-0.7860040664672852,985.75244140625,1,1.0,2,2
17.12,-5.336553,1.7849119999999998,8.150075,0.8718653917312622,1.1952124834060671,0.153184175491333,7.359882354736327,9.013480186462402,-41.09112930297852,0.15678167343139648,-0.017319083213806152,-0.943040370941162,985.762451171875,1,1.0,2,2
17.16,-6.335478299999999,1.9851061,7.9394,1.3309935331344604,1.7109333276748655,0.2802166044712067,9.65167999267578,7.366286277770996,-40.73203659057617,-0.011601448059082031,0.6233643293380737,-0.05272769927978516,985.7522583007812,1,1.0,2,2
17.2,-5.5371966,3.3483400000000003,8.107476,1.3917129039764404,1.1201117038726809,0.324824333190918,12.355857849121096,4.525744438171387,-41.75236892700195,-0.3183612823486328,-0.11226701736450197,-1.6508111953735352,985.7669067382812,1,1.0,2,2
17.24,-5.986443,3.5533004,6.334446400000001,1.770946383476257,0.9870868921279908,0.4776893854141235,13.341014862060547,1.6024227142333984,-41.271217346191406,-0.9180793762207032,0.007634162902832031,-0.2521882057189941,985.7348022460938,1,1.0,2,2
17.28,-6.9925375,4.239683599999999,5.108240599999999,1.8883911371231081,1.318117618560791,-0.08583521842956543,15.038066864013672,-2.024210929870605,-40.396705627441406,-0.07602453231811522,-0.3175828456878662,0.6446423530578613,985.734130859375,1,1.0,2,2
17.32,-7.683164,3.946539,4.9520106,1.8883911371231081,1.318117618560791,-0.08583521842956543,17.626121520996094,-5.343100547790527,-39.98543930053711,0.3023514747619629,-0.03037691116333008,0.3173437118530273,985.734130859375,1,1.0,2,2
17.36,-8.18021,4.1872487000000005,5.9817485999999995,1.406491994857788,1.3803023099899292,-0.22884707152843475,19.77069091796875,-6.443777084350586,-38.942771911621094,0.6368017196655273,0.019788265228271484,-0.7983117103576659,985.7496337890624,1,1.0,2,2
17.4,-7.8312287,4.447025,4.888106,0.7633385658264159,1.2050665616989136,-0.3324441909790039,21.037841796875,-6.732590675354004,-38.5052604675293,0.5778336524963379,-0.06645345687866211,-0.8142023086547852,985.7366943359376,1,1.0,2,2
17.44,-7.704510000000001,4.7925987,4.1637473,0.5825095176696777,0.8880177736282349,0.10098469257354736,22.493038177490234,-8.531947135925293,-36.54563903808594,-0.2252912521362305,-0.003428459167480469,-0.34163856506347656,985.757080078125,1,1.0,2,2
17.48,-8.642339999999999,4.849821599999999,3.2073069,0.8301827311515808,1.1454120874404907,0.4830145835876465,23.71363067626953,-10.761366844177246,-35.063587188720696,0.8575186729431152,-0.392338752746582,0.0827491283416748,985.757080078125,1,1.0,2,2
17.52,-7.763890700000001,5.2502379999999995,4.485501999999999,0.8359079957008362,0.7838883996009827,0.4186990857124329,25.1470947265625,-12.52744197845459,-34.64225006103516,0.6432986259460449,-0.4309377670288086,-0.2595753669738769,985.7413940429688,1,1.0,2,2
17.56,-7.4054136,4.518571400000001,5.0394263,0.40713897347450256,0.7339542508125305,0.4976615011692047,25.36337661743164,-13.747621536254885,-33.98830795288086,0.02511787414550781,1.4777860641479492,-2.368781566619873,985.7463989257812,1,1.0,2,2
17.6,-7.123414,6.446644,2.8639662,0.7943820953369141,0.7757626175880432,0.9979443550109864,25.91395568847656,-17.39463233947754,-32.32006072998047,-0.23255062103271484,-0.3652620315551758,-0.5282371044158936,985.7261962890624,1,1.0,2,2
17.64,-6.4877085999999995,5.6601624,1.5454335,1.3953239917755127,1.1624531745910645,1.0139232873916626,26.587608337402344,-19.87325096130371,-30.04628753662109,-0.6203885078430176,0.4977741241455078,0.035541296005249016,985.7033081054688,1,1.0,2,2
17.68,-7.288334,5.6625457,1.4602137,1.035664439201355,1.372177004814148,0.7482733726501465,28.23239898681641,-21.969417572021484,-27.713592529296875,0.07105445861816406,0.9928221702575684,0.03661370277404785,985.7158203125,1,1.0,2,2
17.72,-6.7840734,5.748344,1.3181806999999999,0.6190133094787598,1.041412591934204,0.6828927993774414,28.287452697753906,-23.288471221923828,-26.105205535888672,-0.06731081008911133,1.0882630348205566,-0.489082932472229,985.7492065429688,1,1.0,2,2
17.76,-6.0097537,6.060554,0.81159866,0.5578938722610474,0.7934725880622864,0.953602969646454,27.79346466064453,-24.91020584106445,-25.54926681518555,-0.4360895156860352,1.1796398162841797,-0.11538833379745485,985.74853515625,1,1.0,2,2
17.8,-5.519832,6.289348599999999,0.22689885,0.6159508228302002,0.5857462286949158,1.017119288444519,27.016319274902344,-26.90322113037109,-23.69622039794922,-0.6706762313842773,1.0637435913085938,0.2002390027046204,985.7540893554688,1,1.0,2,2
17.84,-5.259341200000001,6.911384,0.12984282,0.4871872067451477,0.4913371801376343,0.9267051815986632,26.58296203613281,-28.257570266723636,-23.01130485534668,-0.7219920158386229,0.9635243415832521,-0.2712850272655487,985.72607421875,1,1.0,2,2
17.88,-4.747911,6.711189699999999,-0.67027235,0.41554832458496094,0.5086477398872375,0.783160924911499,26.19860076904297,-29.72460174560547,-21.480518341064453,-1.2425880432128906,0.8819823265075684,0.3913195431232453,985.7311401367188,1,1.0,2,2
17.92,-5.1064050000000005,7.2259774000000006,-0.17789507,0.14816725254058838,0.6979983448982239,0.4996677041053772,25.99280166625977,-29.81229019165039,-20.904781341552734,-0.9384207725524902,0.8184452056884766,0.09055563807487488,985.7310791015624,1,1.0,2,2
17.96,-5.6441407,7.321309599999999,0.15114528,-0.16768327355384827,0.5193002820014954,0.3430739939212799,26.28163909912109,-29.75286865234375,-20.41387939453125,0.017887115478515625,0.6548056602478027,-0.5163919329643251,985.6904907226562,1,1.0,2,2
18.0,-4.7240376,7.8241806,0.12983969,-0.2876585125923157,0.5718976855278015,0.4352193176746368,26.230552673339844,-30.48563003540039,-20.20915985107422,-0.6543130874633789,0.38477277755737305,-0.492855578660965,985.7254638671876,1,1.0,2,2
18.04,-5.615479,7.623986,-0.33649996,-0.09098416566848756,0.5303524136543274,0.4994014501571655,26.25669860839844,-31.040714263916016,-20.02674102783203,-0.09689712524414062,0.5463724136352539,-0.3556855320930481,985.70751953125,1,1.0,2,2
18.08,-5.539010500000001,7.824180999999999,-1.1271464,0.18558497726917267,0.5647071599960327,0.1144418939948082,26.687923431396484,-31.74406433105469,-18.589332580566406,0.2555098533630371,0.21376657485961914,0.18977367877960205,985.6873168945312,1,1.0,2,2
18.12,-5.343047599999999,7.3832746,-1.4680243,0.17000557482242584,0.6705676317214966,0.1643761545419693,26.768901824951172,-31.40551376342773,-17.543840408325195,0.20510005950927732,1.1039996147155762,0.6282029151916504,985.6853637695312,1,1.0,2,2
18.16,-4.6906123,8.167374,-0.9614438,-0.10097075998783113,0.4523217976093292,0.3756978213787079,26.689170837402344,-31.954425811767575,-17.268482208251953,-0.3441038131713867,0.232696533203125,0.3037034869194031,985.7024536132812,1,1.0,2,2
18.2,-5.2928767,8.031527,-0.45959759999999994,-0.3491770625114441,0.2678980529308319,0.55319744348526,26.13931655883789,-32.10065460205078,-17.02122688293457,0.2260756492614746,0.3897161483764648,-0.27704918384552,985.6668701171876,1,1.0,2,2
18.24,-4.9869775999999995,8.057742999999999,-0.9235699,-0.2674180269241333,0.513574481010437,0.4297600388526917,25.566612243652344,-32.689285278320305,-17.437423706054688,0.5884108543395996,0.4921321868896485,-0.1639317274093628,985.6996459960938,1,1.0,2,2
18.28,-3.9497685,8.07681,-1.3165263999999999,-0.02174154110252857,0.5580492615699768,0.6121864914894104,25.31818008422852,-33.238513946533196,-16.520174026489258,-0.3293437957763672,0.7913889884948729,0.38728451728820795,985.6923828125,1,1.0,2,2
18.32,-3.8685207000000004,8.450984,-0.8170475,-0.07220832258462906,0.4947991371154785,0.7731744050979614,24.830718994140625,-34.11631393432617,-16.547664642333984,-0.4366822242736816,0.2422952651977539,-0.07800459861755371,985.6923217773438,1,1.0,2,2
18.36,-3.5219932000000003,8.2078905,-1.1342534,-0.25290355086326605,0.5717644095420837,0.6819612979888916,24.33953857421875,-34.734676361083984,-15.819915771484375,-0.05632829666137695,0.8971977233886719,-0.021403372287750244,985.6996459960938,1,1.0,2,2
18.4,-3.2973510000000004,8.265089999999999,-1.1247853,-0.2635560929775238,0.6053202748298645,0.7831613421440125,23.601173400878906,-35.3206787109375,-15.74883270263672,-0.3021535873413086,0.8237628936767578,0.2610819935798645,985.6945190429688,1,1.0,2,2
18.44,-3.0296905,8.741746000000001,-0.5684935999999999,-0.348643958568573,0.4529875218868256,0.8193804025650024,22.63764190673828,-35.69575881958008,-16.194284439086914,-0.15102648735046387,0.4565963745117188,-0.18612515926361084,985.7124633789062,1,1.0,2,2
18.48,-2.7046723,8.205508,-0.8501915000000001,-0.5294724106788635,0.5672370195388794,0.7462767362594604,22.040184020996094,-35.83375549316406,-16.171127319335938,-0.18978428840637207,1.0384054183959959,-0.02561664581298828,985.7098999023438,1,1.0,2,2
18.52,-2.7476990000000003,8.434302,-0.8880674999999999,-0.5925891995429993,0.7681723237037659,0.5739703774452211,21.30181884765625,-36.41975784301758,-16.100042343139652,0.014117002487182615,1.0208673477172852,0.4094347357749939,985.6895141601562,1,1.0,2,2
18.56,-2.6664507,8.241258,-0.30100206,-0.8153623342514038,0.7444701790809631,0.6366878151893616,20.912353515625,-36.73096084594727,-17.330551147460938,0.2408132553100586,1.1380624771118164,0.2347472757101059,985.7092895507812,1,1.0,2,2
18.6,-2.057528,8.231736,-0.047757335,-1.0924639701843262,0.6667060256004333,0.7526684403419495,20.27739715576172,-36.48210906982422,-18.171077728271484,0.20761942863464355,1.5746726989746094,0.24109598994255066,985.6656494140624,1,1.0,2,2
18.64,-1.4409595,9.161216,0.53457206,-1.15717613697052,0.563641369342804,1.0552041530609129,19.418354034423828,-36.7589225769043,-19.331239700317386,-0.2896860837936401,0.6223649978637695,0.155854731798172,985.6786499023438,1,1.0,2,2
18.68,-1.6512971,9.411461,1.4554113000000002,-1.2649028301239014,0.5430066585540771,1.082236647605896,18.26772689819336,-36.46596145629883,-20.40282440185547,0.3310939073562622,0.2868022918701172,-0.06305801868438721,985.7015991210938,1,1.0,2,2
18.72,-1.2068014999999999,9.332811999999999,2.5230172000000004,-1.2649028301239014,0.5430066585540771,1.082236647605896,16.933155059814453,-36.60835266113281,-21.88249397277832,0.43850135803222656,0.1831827163696289,-0.9383032321929932,985.7015991210938,1,1.0,2,2
18.76,-0.8340030999999999,9.015838,1.9785582999999998,-1.233743667602539,0.4591171443462372,0.965989887714386,15.974767684936525,-36.13505935668945,-23.533143997192386,0.18782931566238406,0.5973119735717773,-0.28997552394866943,985.6812133789062,1,1.0,2,2
18.8,-0.5472411,8.899058,2.7336934,-1.0044454336166382,0.6563239693641663,0.9574678540229796,15.487201690673828,-35.90650177001953,-23.933292388916016,0.3523872196674347,0.6280679702758789,-0.33275818824768066,985.6983032226562,1,1.0,2,2
18.84,0.16970319,9.142152000000001,3.1621544,-0.816559374332428,0.936088800430298,0.8128584027290344,15.127517700195312,-35.50557327270508,-24.28624725341797,-0.37410226464271545,0.424382209777832,-0.7160415649414062,985.700927734375,1,1.0,2,2
18.88,-0.21270742,8.653580999999999,3.3965050000000003,-0.9137644171714784,0.8846897482872009,0.8334980607032776,15.28874969482422,-35.40670394897461,-25.24068832397461,-0.09928292781114577,0.6012201309204102,-0.5929720401763916,985.7137451171876,1,1.0,2,2
18.92,-0.58077854,8.246041,3.3704636,-0.9553093910217284,1.047541856765747,0.7091286182403564,15.730798721313475,-34.781566619873054,-26.11523056030273,0.5366407632827759,0.926692008972168,-0.19118332862854004,985.7034912109376,1,1.0,2,2
