Timestamp,Ax,Ay,Az,Gx,Gy,Gz,Mx,My,Mz,LiAx,LiAy,LiAz,P,Value,Type,GroupType,Activities
0.0,0.050575137,-0.15641166,9.762963000000001,-0.00046198605559766287,-0.0022729234769940376,-0.00029479461954906583,-2.0012664794921875,21.63294982910156,-36.76876449584961,0.004771225154399872,0.01362556219100952,0.07629203796386719,985.5523681640624,0,13.0,1,1
0.04,0.062489092,-0.13496126,9.760593,0.00033660727785900235,0.005450294818729161,-0.00042810448212549085,-5.7955265045166025,22.189010620117188,-36.37058639526367,0.40468111634254456,0.6281486749649048,0.02539825439453125,985.5732421875,0,13.0,1,1
0.08,0.06006369,-0.15164335,9.781895,0.005739946849644184,0.004363001324236393,-0.00020854338072240355,-5.8302574157714835,22.366966247558594,-35.990726470947266,0.4091259837150574,0.6415479183197021,-0.002940177917480469,985.5732421875,0,13.0,1,1
0.12,0.052858472000000004,-0.14687593,9.753485000000001,0.0005471298354677856,-0.00029758218443021184,-0.0004747124621644616,-5.421849250793457,22.433475494384766,-36.28850936889648,0.4226323962211609,0.6264824271202087,0.035017967224121094,985.4319458007812,0,13.0,1,1
0.16,0.07194209,-0.15402485,9.770052,0.0010801040334627032,-0.0008302695350721477,-7.509184069931507e-05,-5.333964347839356,22.6214599609375,-36.8519401550293,0.3981709480285645,0.6445902585983276,0.016160011291503906,985.4721069335938,0,13.0,1,1
0.2,0.05756712,-0.15402405,9.772416,0.000680972880218178,-0.00016453544958494604,-0.0010070506250485778,-6.240998268127441,23.247398376464844,-37.21070098876953,0.41214579343795776,0.6484369039535522,0.020963668823242188,985.4976196289062,0,13.0,1,1
0.24,0.06231141,-0.15878971,9.767679,0.0009476311970502137,-0.0005640648887492716,-0.00020795618183910847,-5.965177536010742,23.03118896484375,-36.62467956542969,0.4209392368793488,0.6424762606620789,0.016330718994140625,985.4853515625,0,13.0,1,1
0.28,0.055106193,-0.14925571,9.770042,-0.0007830794202163815,-0.0005641205352731049,-0.001406230847351253,-5.77503776550293,22.36609649658203,-36.15315628051758,0.43435847759246826,0.641030490398407,0.030655860900878906,985.5054321289062,0,13.0,1,1
0.32,0.06702018,-0.13972177,9.762938,0.0002825265401042998,0.0005010874010622501,0.00032496912172064185,-6.039799690246582,22.118408203125,-36.48278427124024,0.4095709323883057,0.6206815242767334,0.01656341552734375,985.5156860351562,0,13.0,1,1
0.36,0.06698459400000001,-0.15640379999999998,9.7582,-0.00038292049430310726,0.0009005055762827396,5.880009848624468e-05,-6.090996742248535,22.491989135742188,-36.650726318359375,0.4136328101158142,0.638349711894989,0.016672134399414062,985.4976196289062,0,13.0,1,1
0.4,0.05499953,-0.16593607,9.7724,1.6895763110369447e-05,-0.000431129417847842,0.0003252627211622894,-5.739328384399414,22.557899475097656,-36.70877456665039,0.427284985780716,0.6561306118965149,0.016773223876953125,985.507080078125,0,13.0,1,1
0.44,0.057353914000000006,-0.15401879999999998,9.758194,-0.0005153933889232576,-0.0006975008873268963,-0.00034038012381643057,-5.728675842285156,22.568214416503906,-37.249908447265625,0.407128244638443,0.6360273957252502,0.031083106994628906,985.504638671875,0,13.0,1,1
0.48,0.06448808,-0.14925133,9.762924,1.758092548698187e-05,0.00010139112418983132,-0.00020707538351416588,-6.011700630187987,22.30284881591797,-36.6518783569336,0.4112491607666016,0.6206038594245911,0.031174659729003906,985.4873657226562,0,13.0,1,1
0.52,0.06684244,-0.15163375,9.762921,0.0010831869440153241,0.0005008094594813883,-7.377064321190119e-05,-6.262604713439941,22.59464263916016,-36.55330276489258,0.3962229490280152,0.6334802508354187,0.026548385620117188,985.5018920898438,0,13.0,1,1
0.56,0.054857373,-0.15163286,9.767652499999999,1.8265913240611553e-05,-0.0002981938596349209,-0.00033993960823863745,-5.70734453201294,23.009132385253906,-36.50915145874024,0.4095277488231659,0.6181330680847168,0.002980232238769531,985.4972534179688,0,13.0,1,1
0.6,0.059601694000000004,-0.151632,9.777118,0.000551240227650851,-0.00016509153647348285,-0.00020663498435169456,-5.659054279327393,22.738525390625,-36.88568115234375,0.4040170013904572,0.6218165755271912,0.007808685302734375,985.4764404296876,0,13.0,1,1
0.64,0.069188714,-0.14209963,9.765285,0.00041842478094622493,0.0005006425199098885,-0.00020648830104619265,-5.781668663024902,22.72848892211914,-35.942386627197266,0.4077390730381012,0.6206181049346924,0.03632736206054688,985.476318359375,0,13.0,1,1
0.68,0.062050283,-0.14210041,9.755819,0.00028560939244925976,0.0007669028709642589,0.0001931323786266148,-6.067463874816895,22.672016143798828,-36.5879020690918,0.40170180797576893,0.6099991202354431,0.0316925048828125,985.5243530273438,0,13.0,1,1
0.72,0.050070345,-0.14448296,9.758183,0.000282805907772854,-2.9110989999026063e-05,0.00032795045990496874,-6.016810417175293,22.66672134399414,-36.51841354370117,0.4154377281665802,0.6133862137794495,0.03179264068603516,985.5135498046876,0,13.0,1,1
0.76,0.05720955,-0.13733228,9.762915,0.00014994133380241692,-2.915864752139896e-05,-0.00020455569028854367,-5.998385429382324,23.21061706542969,-36.32212448120117,0.4046145677566528,0.6119019985198975,0.031928062438964844,985.4886474609376,0,13.0,1,1
0.8,0.06912869,-0.15163125,9.76528,-0.0006487129721790553,-0.00016236421652138233,0.000195043976418674,-5.973085403442383,22.391685485839844,-36.66302490234375,0.3992767035961151,0.6104069352149963,0.00362396240234375,985.4961547851562,0,13.0,1,1
0.84,0.06192857,-0.14686398,9.765276,-0.00024894587113522,0.00023706204956397411,-0.0006037779385223986,-6.359344482421875,22.609649658203125,-36.92419815063477,0.3982479274272919,0.6137920022010803,0.03214836120605469,985.4784545898438,0,13.0,1,1
0.88,0.05233848,-0.15162976,9.760538,0.0001508212590124458,-0.0004287753254175186,0.00032845325767993927,-5.830662727355957,22.84117126464844,-36.78825759887695,0.41204798221588135,0.6123062968254089,0.04171943664550781,985.478271484375,0,13.0,1,1
0.92,0.049918175,-0.15401222,9.760536,0.0002842726244125515,-2.934910298790783e-05,-7.089483551681043e-05,-5.783351421356201,22.20079803466797,-36.98903274536133,0.4060768187046051,0.6156179308891296,0.0134429931640625,985.4805908203124,0,13.0,1,1
0.96,0.052277625,-0.14924498,9.770002,-0.0005143816815689206,0.0003700770903378725,-0.0010028746910393238,-5.84520149230957,22.56407165527344,-36.6158332824707,0.39557760953903204,0.6188098192214966,0.0040950775146484375,985.4756469726562,0,13.0,1,1
1.0,0.04985732,-0.15639402,9.760530000000001,0.00028485918301157653,-0.0004289182252250612,0.0001956725027412176,-6.017352104187013,23.035011291503906,-36.61686325073242,0.4089047908782959,0.6177030801773071,0.027872085571289062,985.4908447265624,0,13.0,1,1
1.04,0.059386462,-0.14686014,9.769997,0.0008177843410521746,0.0006362977437674999,-7.051764987409115e-05,-5.642587661743164,22.54289245605469,-36.3378791809082,0.4031198918819428,0.6021275520324707,0.03271675109863281,985.483154296875,0,13.0,1,1
1.08,0.05218637,-0.16115911,9.755791,1.9130035070702437e-05,-0.00029585548327304423,0.00019592395983636382,-5.800636291503906,22.55288314819336,-36.23712921142578,0.3973502218723297,0.6099957823753357,0.03758049011230469,985.4903564453124,0,13.0,1,1
1.12,0.04498619,-0.15400852,9.772358,0.00028573928284458816,0.00023672863608226183,-0.0007360558956861496,-5.8897666931152335,22.57525634765625,-36.994544982910156,0.4105823636054993,0.6132822036743164,0.009298324584960938,985.51611328125,0,13.0,1,1
1.16,0.059295177000000004,-0.14447464,9.760519,-0.000646072905510664,-0.0005622665630653501,-0.00033645634539425373,-6.012786388397218,23.0394287109375,-36.84878158569336,0.3955862820148468,0.606665849685669,0.014153480529785156,985.5056762695312,0,13.0,1,1
1.2,0.044925332000000005,-0.15162374,9.767617999999999,-0.0003794636868406087,-0.00029599835397675633,0.0005957749672234057,-6.19741153717041,22.86644744873047,-36.6562385559082,0.40895044803619385,0.6099461317062378,0.028474807739257806,985.5051879882812,0,13.0,1,1
1.24,0.06401411,-0.1468565,9.767616,-0.0005123283481225371,0.00036974373506382113,-0.0003362050047144294,-5.8273210525512695,23.47625732421875,-36.51799774169922,0.3841162621974945,0.5937495827674866,0.019141197204589844,985.5205688476562,0,13.0,1,1
1.28,0.044864445999999995,-0.15877207,9.75341,-0.0005120352143421768,0.0009023279417306184,-6.976339500397444e-05,-5.693241596221924,22.54818725585937,-36.40736770629883,0.3968730270862579,0.606427013874054,0.033496856689453125,985.469482421875,0,13.0,1,1
1.32,0.061563373,-0.1516215,9.769978,0.0004084171669092029,0.0005773028242401779,0.0003527471562847495,-5.749845504760742,22.653507232666016,-36.86671447753906,0.3909941911697388,0.6047728061676025,0.014689445495605469,985.5205688476562,0,13.0,1,1
1.36,0.061532915,-0.14447097,9.758139,0.00014239459414966404,0.00017778138862922788,0.0004860307089984417,-5.58530330657959,22.175193786621094,-36.479164123535156,0.3851045072078705,0.5937604904174805,0.014813423156738281,985.4771728515624,0,13.0,1,1
1.4,0.05672264,-0.1563866,9.772339,-0.0005231017712503672,-0.0007543718675151467,-0.0003127912059426308,-5.3952717781066895,22.61644744873047,-36.38029479980469,0.3986620604991913,0.6019125580787659,0.01491546630859375,985.5076293945312,0,13.0,1,1
1.44,0.05908212,-0.13255303,9.753397999999999,0.0014745607040822506,0.0003108440432697534,-4.634959623217583e-05,-5.6705498695373535,22.4643669128418,-36.86787033081055,0.3879115581512451,0.5720961093902588,0.048171043395996094,985.4769897460938,0,13.0,1,1
1.48,0.054271877,-0.14923526,9.762865,0.0004095904587302357,0.000710270251147449,-0.0001793819246813655,-5.834983825683594,21.836326599121094,-36.88276290893555,0.390921950340271,0.5836389660835266,0.019975662231445312,985.4647827148438,0,13.0,1,1
1.52,0.03990203,-0.14685129,9.774697999999999,0.0004095904587302357,0.000710270251147449,-0.0001793819246813655,-5.834983825683594,21.836326599121094,-36.88276290893555,0.4001743793487549,0.5875666737556458,0.010560035705566406,985.4647827148438,0,13.0,1,1
1.56,0.04465142,-0.151617,9.767593,-0.0009216954931616783,-0.00022188288858160377,8.705980144441128e-05,-6.046293258666992,22.58672332763672,-36.97109603881836,0.4035254418849945,0.5998384356498718,0.015455245971679688,985.4896850585938,0,13.0,1,1
1.6,0.06613010000000001,-0.14208318,9.7581215,1.0703370207920669e-05,0.0005770170828327537,8.718552999198438e-05,-6.068739891052246,21.67011260986328,-36.83701705932617,0.37855127453804016,0.5792567729949951,0.04398155212402344,985.48779296875,0,13.0,1,1
1.64,0.06340718,-0.15875797,9.769928,-0.0009211087599396707,0.0001774956472218037,-4.5846798457205296e-05,-5.834548473358153,22.574382781982425,-37.1569709777832,0.3866795599460602,0.5966584086418152,0.020453453063964844,985.4667358398438,0,13.0,1,1
1.68,0.060666233,-0.15874936,9.760425999999999,0.00014444804401136935,0.0005769219133071601,8.743698708713056e-05,-5.5731282234191895,22.18698501586914,-37.097599029541016,0.3817250728607178,0.5805097222328186,0.04903697967529297,985.4822387695312,0,13.0,1,1
1.72,0.058221728,-0.16113128,9.767522999999999,0.00014024783740751443,5.165718903299421e-05,9.551376570016146e-05,-5.698648929595947,22.27992248535156,-36.69877624511719,0.3800396621227264,0.5931874513626099,0.025519371032714844,985.4920043945312,0,13.0,1,1
1.76,0.043827772,-0.15398012,9.762784,-0.0003890219668392092,0.001116375089623034,0.00023011257871985435,-5.9197940826416025,22.863544464111328,-37.54567337036133,0.38355007767677307,0.596211314201355,0.030394554138183594,985.4918212890624,0,13.0,1,1
1.8,0.06050247,-0.14921220000000002,9.76988,0.0002772939915303141,0.0003173418226651848,0.0003634961321949959,-5.749845504760742,22.65350341796875,-36.86671447753906,0.3827026784420013,0.5897429585456848,0.02577972412109375,985.4766845703124,0,13.0,1,1
1.84,0.058057994,-0.14206107,9.772242,-0.0005211277166381478,5.094062362331897e-05,0.0004968794528394939,-6.0047712326049805,22.57258605957031,-36.43777847290039,0.3763755857944489,0.5691694021224976,0.03065776824951172,985.47900390625,0,13.0,1,1
1.88,0.038884222999999996,-0.13729315,9.7533,0.0009441357105970383,0.0007166449795477092,-0.00030184269417077303,-6.166268825531006,23.05384063720703,-36.97993850708008,0.3895071744918823,0.5629830956459045,0.04498291015625,985.5000610351562,0,13.0,1,1
1.92,0.048389256,-0.13729183,9.746193,0.0002788720594253391,0.0007165594724938272,-0.00016845937352627516,-5.907893180847168,22.66349792480469,-36.76596450805664,0.3836923539638519,0.5613012909889221,0.035640716552734375,985.5026245117188,0,13.0,1,1
1.96,0.053114474,-0.14920683,9.765125,0.0009451877558603883,-0.00034878938458859915,0.00023123982828110454,-5.725332736968994,23.20329284667969,-36.97964859008789,0.3730405569076538,0.5735004544258118,0.02158164978027344,985.4793701171876,0,13.0,1,1
2.0,0.050669967999999996,-0.14205573,9.769855499999998,-0.0009184972150251267,0.00018375694344285878,9.83073841780424e-05,-5.9820804595947275,22.488765716552734,-36.89827346801758,0.3815384209156037,0.5570513010025024,0.021728515625,985.4894409179688,0,13.0,1,1
2.04,0.067344725,-0.14443763,9.762749000000001,-0.0011842873645946386,-0.00021580221073236322,0.000764322467148304,-6.074392318725586,22.40227508544922,-36.802005767822266,0.36631518602371216,0.5647358894348145,0.03132438659667969,985.46142578125,0,13.0,1,1
2.08,0.05295074,-0.15396936,9.762742999999999,-0.0007842873455956577,-0.0003490455565042794,0.0006313900230452418,-5.6503586769104,22.009307861328125,-37.0753059387207,0.36980482935905457,0.5680162906646729,0.045654296875,985.5047607421876,0,13.0,1,1
2.12,0.04572642,-0.15158479,9.765106,0.00121360772754997,0.0005829746369272469,0.0008979313424788414,-5.969605445861816,23.13268280029297,-37.09184265136719,0.3824196755886078,0.5613189339637756,0.017412185668945312,985.4515380859376,0,13.0,1,1
2.16,0.062401235,-0.16111653,9.767468,-0.00011691954568959773,0.0004496458568610251,-0.00016688136383891106,-6.253472328186035,22.603477478027344,-37.01713180541992,0.357403427362442,0.5737724900245667,0.02227878570556641,985.4918212890624,0,13.0,1,1
2.2,0.043227434,-0.1539654,9.762728,-0.0005158674903213979,0.00044956046622246493,0.0004991337773390113,-6.136242866516112,22.76554870605469,-36.42880630493164,0.379900187253952,0.5716938376426697,0.031905174255371094,985.5177001953124,0,13.0,1,1
2.24,0.052732438,-0.14919747,9.769825,-0.00051534129306674,-0.0003494725096970797,0.00023304339265450835,-5.448830604553223,22.724712371826172,-36.99425506591797,0.3692325651645661,0.5603376030921936,0.027301788330078125,985.487060546875,0,13.0,1,1
2.28,0.059847593,-0.13489653,9.750883,-0.00011534159420989454,0.0007157055661082268,0.00023326871450990438,-5.9614524841308585,22.77176284790039,-37.37991714477539,0.3536714613437653,0.5394610166549683,0.04163932800292969,985.4844970703124,0,13.0,1,1
2.32,0.06457278,-0.16349448,9.767448,0.0005509741604328157,-0.0002164853794965893,-0.00016597949434071782,-5.853217124938965,23.03091049194336,-37.02684020996094,0.3567908406257629,0.579990565776825,0.027616500854492188,985.4766845703124,0,13.0,1,1
2.36,0.05734855,-0.1444269,9.769810000000001,0.00015202639042399824,0.0004492189036682248,0.00010056176688522099,-6.330404281616211,23.05793762207031,-36.56996536254883,0.36092251539230347,0.569451630115509,0.02295494079589844,985.4969482421876,0,13.0,1,1
2.4,0.04773432,-0.13489248,9.765071,-0.00024692146689631045,-0.0006161299534142017,0.0003671031445264816,-6.518479347229004,23.356220245361328,-37.02034378051758,0.3790324032306671,0.5344546437263489,0.03254127502441406,985.4892578125,0,13.0,1,1
2.44,0.054849445999999996,-0.15157406,9.750862,0.00041939443326555187,4.957431519869715e-05,-0.00016530323773622513,-6.042269706726074,22.95942687988281,-37.301456451416016,0.35881489515304565,0.5565447807312012,0.056339263916015625,985.4612426757812,0,13.0,1,1
2.48,0.054794907999999996,-0.14918949,9.762692999999999,0.0005530781345441936,0.0001826469233492389,-0.0002982357982546091,-5.9207725524902335,22.49378204345703,-37.36992263793945,0.3577153980731964,0.5499051809310913,0.03753089904785156,985.479248046875,0,13.0,1,1
2.52,0.05235043,-0.15395464,9.762689,-0.0005116591928526759,-0.0007495441823266448,0.0007672532228752972,-6.52402400970459,22.982036590576172,-36.61267471313477,0.3614909052848816,0.5526250600814819,0.02346038818359375,985.4847412109376,0,13.0,1,1
2.56,0.05468574,-0.14680351,9.772153,2.1498563000932336e-05,-0.00021699773787986487,0.0009006366017274559,-6.586172103881836,22.713172912597656,-36.66434860229492,0.3556602299213409,0.5509336590766907,0.014110565185546875,985.46435546875,0,13.0,1,1
2.6,0.054631144000000006,-0.15395196,9.767412,-0.00011113335494883357,-0.00048339902423322195,-0.0004307173658162355,-6.343283653259277,22.888221740722656,-37.17392349243164,0.3546432554721832,0.5491176247596741,0.033172607421875,985.4844970703124,0,13.0,1,1
2.64,0.055953354000000004,-0.13968481,9.760432000000002,0.0004220244882162661,0.0005817791097797452,-3.101804759353399e-05,-6.213878154754639,23.06208038330078,-37.20403671264648,0.3518444299697876,0.5330747365951538,0.03791999816894531,985.4744262695312,0,13.0,1,1
2.68,0.06312305,-0.15398441,9.772267999999999,-0.0005227260990068316,0.0012496216222643852,-3.643729723989964e-05,-5.460624694824219,21.81841278076172,-37.401309967041016,0.3409629762172699,0.5451744794845581,0.019125938415527344,985.4718627929688,0,13.0,1,1
2.72,0.055953354000000004,-0.13968481,9.765166,-0.00038956812932156026,-8.195765258278698e-05,-3.643729723989964e-05,-6.02428150177002,22.76527404785156,-36.83096694946289,0.3493523597717285,0.529037356376648,0.014513969421386719,985.4947509765624,0,13.0,1,1
2.76,0.053563445999999994,-0.1468346,9.772267999999999,-0.0006558840395882727,-0.0014135371893644333,0.0002298785257153213,-6.023303031921388,23.135040283203125,-37.0067253112793,0.3580309748649597,0.5270078182220459,0.02409839630126953,985.46923828125,0,13.0,1,1
2.8,0.044003844,-0.14683463,9.777002,-0.00025641018874011934,0.0005838319775648415,-0.00016959523782134056,-5.9992265701293945,22.94676971435547,-36.8454475402832,0.3711099028587341,0.5394431352615356,0.0147552490234375,985.4951171875,0,13.0,1,1
2.84,0.07029277,-0.14683463,9.748596000000001,0.0001869169936981052,-0.0005427697324194014,-0.00047404930228367453,-5.6369056701660165,23.022987365722656,-37.44462966918945,0.346139520406723,0.5186969637870789,0.03853702545166016,985.4898071289062,0,13.0,1,1
2.88,0.05834326,-0.13730146,9.760432000000002,0.001252180547453463,0.00012301994138397276,0.00032489834120497113,-6.069527626037598,23.038833618164066,-36.609046936035156,0.3443387448787689,0.5027911663055421,0.04340839385986328,985.4920043945312,0,13.0,1,1
2.92,0.05834326,-0.13968478,9.767534,0.001252180547453463,0.00012301994138397276,0.00032489834120497113,-6.199476718902588,23.23326873779297,-36.67738723754883,0.3431175947189331,0.5245700478553772,0.02933502197265625,985.4920043945312,0,13.0,1,1
2.96,0.053563445999999994,-0.14921789,9.765166,-0.0007451885612681508,0.001188283320516348,-0.00034089136170223355,-6.1012139320373535,23.21973419189453,-36.3838005065918,0.3421560823917389,0.5323834419250488,0.015236854553222656,985.5302734375,0,13.0,1,1
3.0,0.05834326,-0.1468346,9.767534,-0.00021255682804621761,-0.0009422435541637242,-0.0008735228911973536,-5.740009784698486,22.820274353027344,-36.10814666748047,0.3408167064189911,0.5255001783370972,0.034310340881347656,985.4741821289062,0,13.0,1,1
3.04,0.06073314,-0.13968478,9.760432000000002,0.00032007493427954614,0.00012301997048780322,-0.0006072070100344718,-6.043387413024902,22.48374938964844,-36.4266242980957,0.34436535835266113,0.5185746550559998,0.03917694091796875,985.5026245117188,0,13.0,1,1
3.08,0.065512955,-0.14683463,9.765167,-0.0004788727092090994,0.00038933585165068507,5.8582460042089224e-05,-5.806586742401122,22.65290832519531,-36.62697982788086,0.3379652500152588,0.5157784819602966,0.025144577026367188,985.4794921875,0,13.0,1,1
3.12,0.06790286,-0.15875097,9.75333,-0.0004788727092090994,0.00038933585165068507,5.8582460042089224e-05,-5.806586742401122,22.65290832519531,-36.62697982788086,0.33253228664398193,0.5244926810264587,0.03467082977294922,985.4794921875,0,13.0,1,1
3.16,0.05834326,-0.14206807,9.748596000000001,0.0001869169936981052,-0.0009422435541637242,0.0005912142223678528,-5.942485332489014,22.947368621826172,-37.08517837524414,0.33559471368789673,0.5032255649566649,0.03955650329589844,985.4725341796876,0,13.0,1,1
3.2,0.06073314,-0.14921789,9.7628,-7.939888746477664e-05,0.0011882834369316695,0.000458056281786412,-5.625846862792969,22.559097290039066,-37.188236236572266,0.3345833718776703,0.5249522924423218,0.03967571258544922,985.4955444335938,0,13.0,1,1
3.24,0.053563445999999994,-0.14206804,9.746229,-0.0004788727092090994,0.00012301997048780322,0.0007243721629492939,-6.17069673538208,23.15533447265625,-37.44710159301758,0.3427967429161072,0.49458670616149897,0.05399894714355469,985.5049438476562,0,13.0,1,1
3.28,0.06790286,-0.16113426,9.762799000000001,-7.939888746477664e-05,-0.00027645385125651956,-7.457548053935172e-05,-6.459672451019287,22.98999786376953,-37.23892593383789,0.3082044720649719,0.5211763381958008,0.020977020263671875,985.4672241210938,0,13.0,1,1
3.32,0.04878363,-0.15398444,9.769900999999999,0.00032007493427954614,-1.0137999197468163e-05,-0.0006072072428651153,-5.86264705657959,22.389934539794922,-36.98788070678711,0.3359003961086273,0.5051871538162231,0.011610031127929688,985.4822387695312,0,13.0,1,1
3.36,0.05834326,-0.15636767,9.746229,0.00032007493427954614,-0.0004096117918379605,0.000458056281786412,-6.0478153228759775,22.585247039794922,-36.89379119873047,0.32980582118034363,0.5176649689674377,0.04960346221923828,985.4827880859376,0,13.0,1,1
3.4,0.06790286,-0.13968481,9.767534,0.0001869169936981052,0.00025617791106924415,5.8582460042089224e-05,-5.561633110046387,22.461143493652344,-37.11541366577149,0.3098050653934479,0.4920694231987,0.026029586791992188,985.4955444335938,0,13.0,1,1
3.44,0.06073314,-0.15160115,9.75333,-7.939888746477664e-05,-0.001341717434115708,-0.00020773342112079265,-5.6484007835388175,22.74883270263672,-37.42681503295898,0.32323169708251953,0.4993634819984436,0.04034996032714844,985.4873657226562,0,13.0,1,1
3.48,0.055953354000000004,-0.15160112,9.75333,-0.0003457147686276585,-0.0004096118500456214,0.00032489834120497113,-5.7718563079833975,22.474952697753906,-37.00684356689453,0.3269406259059906,0.5021054148674011,0.04519939422607422,985.4826049804688,0,13.0,1,1
3.52,0.06790286,-0.14683463,9.767534,-0.0003457147686276585,0.00012301991228014228,0.000458056281786412,-6.1195011138916025,22.781753540039066,-37.2791633605957,0.3163053095340729,0.5048593282699585,0.02164173126220703,985.47509765625,0,13.0,1,1
3.56,0.055953324000000006,-0.15875097,9.755697,-0.0003457147686276585,-0.0012085593771189453,-7.457548053935172e-05,-5.948573112487793,22.94147491455078,-36.77595901489258,0.3344929814338684,0.5027186274528503,0.03595733642578125,985.4680786132812,0,13.0,1,1
3.6,0.077462435,-0.14921786,9.769900999999999,-0.0008783465018495918,-0.0005427697906270623,-7.457548053935172e-05,-5.934332847595215,22.586444854736328,-37.37324905395508,0.3091215193271637,0.4958728551864624,0.036087989807128906,985.4955444335938,0,13.0,1,1
3.64,0.06073314,-0.13968481,9.769900999999999,0.00032007493427954614,-0.00027645390946418047,0.00019174040062353012,-5.8509063720703125,21.66366577148437,-37.33211135864258,0.3178049921989441,0.4798710346221924,0.04091644287109375,985.4730224609376,0,13.0,1,1
3.68,0.055953354000000004,-0.14445134,9.777002,0.0005863908445462584,-0.0009422435541637242,-0.00047404930228367453,-5.764246940612793,22.48231506347656,-37.393367767333984,0.3216027021408081,0.4876853823661804,0.012607574462890623,985.5062255859376,0,13.0,1,1
3.72,0.055953354000000004,-0.14921786,9.755697,0.0001869169936981052,-1.0137970093637705e-05,0.000458056281786412,-6.130995750427246,22.507591247558594,-37.26134872436523,0.3201233148574829,0.4906803369522095,0.036398887634277344,985.493408203125,0,13.0,1,1
3.76,0.04878363,-0.15398444,9.760432000000002,-0.0003457147686276585,0.000389335909858346,-0.0010066807735711336,-5.47236442565918,22.54468536376953,-37.05707550048828,0.3285062909126282,0.4982494711875916,0.03651237487792969,985.4884033203124,0,13.0,1,1
3.8,0.051173538,-0.14683463,9.760432000000002,0.0007195487851276994,-0.00014329598343465477,5.8582460042089224e-05,-5.7416930198669425,22.292579650878906,-37.15478897094727,0.32737624645233154,0.472653329372406,0.06028842926025391,985.4986572265624,0,13.0,1,1
3.84,0.046393722000000005,-0.16351755,9.762799000000001,0.0001869169936981052,-0.0004096118500456214,0.0005912142223678528,-5.586145401000977,21.91135025024414,-37.00248336791992,0.3308273255825043,0.4995034337043762,0.03672695159912109,985.4833374023438,0,13.0,1,1
3.88,0.06312305,-0.15636767,9.741495,-0.0006120306206867099,0.0005224936758168042,0.000458056281786412,-5.771313667297362,22.106666564941406,-36.90839385986328,0.3056240975856781,0.4922611713409424,0.05106353759765625,985.4584350585938,0,13.0,1,1
3.92,0.06073314,-0.15636770000000003,9.750963,-0.0006120306206867099,-0.0008090856135822832,-0.00047404930228367453,-6.450136184692383,22.52463531494141,-36.90523147583008,0.3141359984874725,0.4855323433876038,0.04643535614013672,985.4937133789062,0,13.0,1,1
3.96,0.046393752,-0.14206807,9.765167,-0.0003457147686276585,-0.00027645390946418047,-0.0006072070100344718,-6.1243648529052725,22.14519500732422,-37.47211837768555,0.3176040053367615,0.4740460515022278,0.022878646850585938,985.5040283203124,0,13.0,1,1
4.0,0.053563445999999994,-0.14921789,9.772267999999999,0.0007195487851276994,0.0007888096151873468,-7.457548053935172e-05,-5.664897918701173,21.73220443725586,-36.90288162231445,0.3208632469177246,0.4627670049667358,0.051400184631347656,985.4736938476562,0,13.0,1,1
4.04,0.06312305,-0.16351755,9.760432000000002,-7.939888746477664e-05,-1.0137970093637705e-05,-0.00034089136170223355,-5.8219666481018075,22.111957550048828,-36.97788619995117,0.3007758557796478,0.4846018552780152,0.03729915618896485,985.476318359375,0,13.0,1,1
4.08,0.051173538,-0.14921786,9.762799000000001,0.0001869169936981052,-0.0008090855553746222,-7.457548053935172e-05,-6.0609397888183585,23.41596221923828,-37.171329498291016,0.3184654414653778,0.4731305241584778,0.03741741180419922,985.4788818359376,0,13.0,1,1
4.12,0.053563445999999994,-0.15160115,9.765167,-7.939888746477664e-05,0.0006556517910212277,5.8582460042089224e-05,-5.967540740966798,22.765869140625,-37.07069778442383,0.30764520168304443,0.4664750695228577,0.028057098388671875,985.4866943359376,0,13.0,1,1
4.16,0.06073314,-0.15160115,9.767534,0.00032007493427954614,0.00038933585165068507,5.8582460042089224e-05,-5.6510396003723145,22.27167510986328,-36.47467422485352,0.30134275555610657,0.4789941310882568,0.0234375,985.5096435546876,0,13.0,1,1
4.2,0.046393722000000005,-0.14683463,9.767534,0.0001869169936981052,-1.0137999197468163e-05,5.8582460042089224e-05,-5.771313667297362,22.10666275024414,-36.908390045166016,0.3193333446979523,0.4532591700553894,0.028275489807128906,985.4976196289062,0,13.0,1,1
4.24,0.065512955,-0.158751,9.75333,-7.939888746477664e-05,-0.0014748753746971488,-0.00047404930228367453,-5.474322319030762,21.805156707763672,-36.705562591552734,0.2994822561740875,0.4608864784240722,0.04256725311279297,985.4995727539062,0,13.0,1,1
4.28,0.05408126,-0.14208077,9.760479,0.00032007493427954614,-0.0013417173177003858,0.0005912142223678528,-6.0803422927856445,22.50230026245117,-37.19186019897461,0.3033484518527985,0.4495945572853088,0.03792285919189453,985.4772338867188,0,13.0,1,1
4.32,0.054617673,-0.14924373,9.760529,0.0001831847766879946,0.0002567836781963706,-0.0006088067893870175,-6.313120365142822,22.70585632324219,-37.321868896484375,0.3250390887260437,0.4526231288909912,0.028456687927246094,985.489990234375,0,13.0,1,1
4.36,0.06898183,-0.15877743,9.758164,6.440837751142679e-05,-0.0009263055399060248,0.00035975687205791473,-6.030912399291992,23.127670288085934,-36.62019729614258,0.2903596758842468,0.4792617559432984,0.04749774932861328,985.469482421875,0,13.0,1,1
4.4,0.052277207,-0.1540115,9.753432,0.00033048584009520715,0.0010711022187024355,0.0003596546594053507,-5.761340141296388,22.37934875488281,-36.84890365600586,0.3078814744949341,0.4630643129348755,0.04761219024658203,985.47509765625,0,13.0,1,1
4.44,0.05708173,-0.14447905,9.755801,0.00033048584009520715,0.0010711022187024355,0.0003596546594053507,-5.829033374786378,21.736305236816406,-36.49290466308594,0.2924826741218567,0.4465097188949585,0.04771900177001953,985.47509765625,0,13.0,1,1
4.48,0.059496402999999996,-0.1516294,9.772374000000001,-0.00046870004734955733,5.877416697330772e-06,-0.00017307919915765524,-5.993138313293457,22.952659606933594,-37.15466690063477,0.30104342103004456,0.4541683793067932,0.033606529235839844,985.4905395507812,0,13.0,1,1
4.52,0.07147062,-0.15163006,9.753439,6.369329639710486e-05,-0.0005267156520858407,-0.00017318141181021931,-6.079501152038574,22.76614761352539,-36.66853713989258,0.2803696393966675,0.4572970867156982,0.043178558349609375,985.4772338867188,0,13.0,1,1
4.56,0.059545815,-0.14448078,9.760544,0.00019661287660710516,5.954803782515228e-06,-0.0005727573297917843,-6.107026100158691,23.42567443847656,-37.47273254394531,0.3028361201286316,0.4360067844390869,0.03382587432861328,985.4873657226562,0,13.0,1,1
4.6,0.09063929,-0.16116442,9.76528,-0.0006025731563568115,0.0006717831129208207,9.293010225519538e-05,-5.91925048828125,22.49525451660156,-37.44722366333008,0.2546595335006714,0.4385870695114136,0.029169082641601562,985.4728393554688,0,13.0,1,1
4.64,0.05720538,-0.14686532,9.755813,-0.0006028114585205913,-0.0013255473459139464,-0.00017348781693726778,-6.011264324188232,23.04090118408203,-36.926082611083984,0.2915060222148895,0.4459168314933777,0.05295467376708984,985.4951171875,0,13.0,1,1
4.68,0.07156956,-0.15401573,9.7463455,-0.0010025234660133722,-0.0006597188767045736,-0.0008393797324970366,-6.0203962326049805,23.032062530517575,-36.46225357055664,0.28084462881088257,0.4439438581466675,0.04831504821777344,985.5238037109376,0,13.0,1,1
4.72,0.054864943,-0.13733341,9.758184,-0.00020381438662298024,0.0004055834142491221,9.262369712814687e-05,-5.8146018981933585,23.1197509765625,-37.037986755371094,0.2942466139793396,0.4326992034912109,0.03892803192138672,985.5181884765624,0,13.0,1,1
4.76,0.062059373,-0.14210062,9.770023,0.0004617369559127837,-0.0014585891040042045,-0.0007064261008054018,-6.307168960571289,22.60582733154297,-36.93201446533203,0.28844866156578064,0.4354236721992493,0.02008342742919922,985.4805297851562,0,13.0,1,1
4.8,0.057304323,-0.14210121,9.779492999999999,-0.0003374489315319807,0.0001393448910675943,9.241944644600153e-05,-6.2800493240356445,22.420509338378906,-36.92535018920898,0.28734979033470154,0.4334743022918701,0.024910926818847656,985.4908447265624,0,13.0,1,1
4.84,0.062108904000000006,-0.15163489,9.755824,6.178647163324058e-05,-0.0010590378660708666,0.00035863317316398025,-5.5666351318359375,21.71866607666016,-36.609291076660156,0.2765840291976929,0.4367101192474365,0.04866790771484375,985.4883422851562,0,13.0,1,1
4.88,0.06452346,-0.15401877,9.755827,0.00019470593542791903,0.00013942227815277874,9.221513755619526e-05,-5.7432146072387695,22.29110717773437,-37.077484130859375,0.2751724720001221,0.430175244808197,0.04403018951416016,985.4909057617188,0,13.0,1,1
4.92,0.062158316,-0.1564026,9.774764999999999,0.0007270993664860724,0.0004057768965139985,0.000491586746647954,-6.0478148460388175,22.58525085449219,-36.89379119873047,0.2739274799823761,0.4425565004348755,0.02518939971923828,985.4783325195312,0,13.0,1,1
4.96,0.062183052,-0.14210363,9.760566,-7.20866082701832e-05,-0.0002599741565063596,0.00035832670982927084,-6.254994869232178,22.602008819580078,-36.9398307800293,0.29190945625305176,0.42639392614364624,0.044216156005859375,985.5015869140624,0,13.0,1,1
5.0,0.06937748,-0.15878718,9.753466,-0.00033864084980450565,-0.00012677752238232642,0.00022506655659526587,-6.32515811920166,22.79998779296875,-37.40250778198242,0.27649691700935364,0.4483567476272583,0.049037933349609375,985.4909057617188,0,13.0,1,1
5.04,0.052672863,-0.14687134,9.758203,0.0004600684333126992,-0.0006593706202693285,-0.0007071411237120628,-6.226895332336426,22.78644943237305,-37.10892105102539,0.28020355105400085,0.4178149104118347,0.04912757873535156,985.4909057617188,0,13.0,1,1
5.08,0.06225723,-0.14210548,9.784245,0.00019351413357071579,-0.00025985806132666767,-0.00017461157403886318,-5.894876003265381,22.93912506103516,-36.86108016967773,0.28404396772384644,0.4254894852638245,0.016068458557128906,985.4716796875,0,13.0,1,1
5.12,0.06706178,-0.1564057,9.762941,-0.0010053839068859816,-0.00012662276276387274,-4.165794234722853e-05,-5.989689826965332,22.48139953613281,-36.51174926757813,0.2731994986534119,0.4234607219696045,0.03510284423828125,985.4918212890624,0,13.0,1,1
5.16,0.06469664,-0.14448996,9.767678,-0.0010053839068859816,-0.00012662276276387274,-4.165794234722853e-05,-5.989689826965332,22.48139953613281,-36.51174926757813,0.2668366432189941,0.4119580388069153,0.039943695068359375,985.4918212890624,0,13.0,1,1
5.2,0.06233138,-0.14449055,9.762945,0.00019256075029261408,0.0004060863866470754,-0.0003081780159845948,-6.137626647949219,22.8699951171875,-37.05057907104492,0.2609398066997528,0.410133421421051,0.035294532775878906,985.4867553710938,0,13.0,1,1
5.24,0.06474605,-0.15164097,9.753478999999999,-0.0002071514318231493,0.00027296715416014194,0.0007569832960143684,-6.28624439239502,23.520957946777344,-36.98878479003906,0.278941422700882,0.4221969246864319,0.05432891845703125,985.4702758789062,0,13.0,1,1
5.28,0.07769972,-0.14207383,9.769922,-0.0010063373483717444,-0.00012646795948967338,0.0006237231427803637,-5.924359321594237,22.859130859375,-37.31376266479492,0.26453015208244324,0.41550928354263306,0.021413803100585938,985.4600219726562,0,13.0,1,1
5.32,-0.058556378,-0.12539013,9.760452,0.00046547554666176433,0.0008072009659372269,-0.00016879977192729712,-6.330405235290527,23.057941436767575,-36.56996536254883,0.3490453064441681,0.4045185446739197,0.03571128845214844,985.4880981445312,0,13.0,1,1
5.36,0.12065458,-0.11108972,9.7651825,0.0008685769280418754,-0.0010575992055237293,-0.0014988243347033858,-5.957024574279785,22.670265197753906,-36.912757873535156,0.4576602876186371,0.3408548235893249,0.04053974151611328,985.4896850585938,0,13.0,1,1
5.4,0.13974205,-0.29221803,9.791219,-0.0029926975257694717,-0.0018565964419394727,-0.005493431817740202,-6.603617668151856,22.539043426513672,-37.0363883972168,-0.006024658679962158,0.6039119958877563,0.021709442138671875,985.4577026367188,0,13.0,1,1
5.44,0.04650417,-0.09202187,9.772278,-6.291677709668875e-05,0.002803882118314505,0.002629334107041359,-5.90362548828125,22.03578186035156,-37.42274856567383,0.193255752325058,0.3027117252349853,0.03598976135253906,985.4976806640624,0,13.0,1,1
5.48,-0.018054903,-0.08963786,9.739135000000001,0.0030000214464962482,-0.0015903798630461097,0.001963675022125244,-5.3879594802856445,21.991668701171875,-37.19169235229492,0.3783687055110931,0.3450644016265869,0.08812904357910156,985.4957275390624,0,13.0,1,1
5.52,0.10379839,-0.23263372,9.732031,-0.000594937417190522,-0.0006583237554877996,-0.0016314584063366055,-6.0764570236206055,22.76909255981445,-36.823150634765625,0.23406633734703064,0.4902214407920837,0.0645589828491211,985.4633178710938,0,13.0,1,1
5.56,0.04640901,-0.11585234,9.755699,-0.00019515783060342076,-0.00025889964308589697,-0.00096553738694638,-6.002132892608643,23.04973602294922,-37.38991165161133,0.19493132829666135,0.37865394353866577,0.05517387390136719,985.4631958007812,0,13.0,1,1
5.6,0.09178543,-0.16351713,9.772266,-0.0015264317626133561,0.0013389461673796175,-0.0005659327143803238,-6.1038756370544425,22.32227325439453,-37.25468826293945,0.2634837329387665,0.4512253701686859,0.03643989562988281,985.470458984375,0,13.0,1,1
5.64,0.09414363,-0.1492167,9.7746315,-0.0009934941772371528,0.002004686277359724,0.0004994618939235806,-5.850471019744872,22.401721954345703,-37.60631942749024,0.2106781005859375,0.3934753835201264,0.026994705200195312,985.4863891601562,0,13.0,1,1
5.68,0.020024955,-0.12061657,9.762792999999999,0.0004715487593784928,-0.0005253643612377347,0.0006327508017420769,-6.153550148010254,22.69733428955078,-37.49992752075195,0.34806814789772034,0.3875043392181397,0.017600059509277344,985.4940795898438,0,13.0,1,1
5.72,0.05823165,-0.15636499,9.741485,0.001537117874249816,-0.0011912037152796984,-0.00016606587450951338,-6.09444522857666,22.96324920654297,-37.293643951416016,0.3043220043182373,0.4096226990222931,0.0697488784790039,985.4688110351562,0,13.0,1,1
5.76,0.058199942000000005,-0.15874751,9.765153999999999,-6.04711240157485e-05,-0.0005254636635072528,-0.0013643562560901046,-5.586688041687012,22.279640197753906,-37.10093307495117,0.2648214995861053,0.4171728193759918,0.0319671630859375,985.4872436523438,0,13.0,1,1
5.8,0.058168232,-0.15874667,9.762783,-0.0005927974125370383,0.0012055400293320413,-0.0005652777617797256,-5.634840965270996,22.65617370605469,-37.42348098754883,0.26788708567619324,0.3817401230335236,0.05101585388183594,985.4872436523438,0,13.0,1,1
5.84,0.0868153,-0.15636267,9.772249,-0.0008588075870648026,0.00014022685354575515,0.00036695896415039897,-6.016128540039063,22.404346466064453,-37.119041442871094,0.2478606402873993,0.3842965066432953,0.02743053436279297,985.471923828125,0,13.0,1,1
5.88,0.055714905,-0.14921202,9.758042999999999,-0.0008588075870648026,0.00014022685354575515,0.00036695896415039897,-6.398205280303955,23.521240234375,-36.58662796020508,0.26531925797462463,0.3872476816177368,0.05120372772216797,985.471923828125,0,13.0,1,1
5.92,0.034174025,-0.1420614,9.753305000000001,0.00047338299918919807,0.0010722330771386623,-0.0008312006248161198,-5.551660060882568,22.73382568359375,-37.05592727661133,0.27351900935173035,0.3619751632213593,0.056018829345703125,985.48779296875,0,13.0,1,1
5.96,0.079550505,-0.15874358,9.753304,0.00047338299918919807,0.0010722330771386623,-0.0008312006248161198,-5.834249496459961,23.20652008056641,-36.73209762573242,0.2341983914375305,0.3791688680648804,0.04663276672363281,985.48779296875,0,13.0,1,1
6.0,0.06278944,-0.1372933,9.769871,-5.894288187846541e-05,-0.0001262379955733195,-0.0006979114841669798,-5.440678596496582,22.363784790039066,-37.28232192993164,0.2283157110214233,0.3960243463516235,0.04672431945800781,985.4954223632812,0,13.0,1,1
6.04,0.05080819,-0.12537615,9.760399000000001,-0.0007244270527735353,0.00014002830721437928,-0.0005646225763484836,-5.7461204528808585,22.39407730102539,-37.62195205688477,0.293992280960083,0.3470444679260254,0.03732872009277344,985.4747314453124,0,13.0,1,1
6.08,0.07467556,-0.17304088,9.748560000000001,0.0007406160002574326,6.820759153924882e-06,-0.0006976495496928692,-6.480299949645996,22.70700454711914,-36.75728225708008,0.2454410195350647,0.40236175060272217,0.056338310241699226,985.4880981445312,0,13.0,1,1
6.12,0.045964986,-0.14920737,9.755659,-5.802547093480826e-05,-0.0009253344032913445,0.0002345871180295944,-5.9966187477111825,22.21166229248047,-36.72584915161133,0.2586223781108856,0.3862383961677551,0.05642032623291016,985.48291015625,0,13.0,1,1
6.16,0.045933247,-0.15397309,9.774593,0.00020859588403254747,0.0002730373525992036,-0.0005642295582219957,-5.888650894165039,23.05093765258789,-37.86937713623047,0.2571013867855072,0.3748295903205872,0.023374557495117188,985.4629516601562,0,13.0,1,1
6.2,0.069800586,-0.13967277,9.760387,-0.0004568881122395396,0.00040614570025354624,-0.0005640984745696187,-6.510326385498048,22.995296478271484,-37.30841445922852,0.2274012267589569,0.3584848642349243,0.04712867736816406,985.4732666015624,0,13.0,1,1
6.24,0.04662001,-0.13254045,9.746249,-0.0009892141679301858,-0.00012653572775889188,0.0006344540161080657,-6.4074974060058585,22.98617553710937,-37.24674606323242,0.25965669751167303,0.34759169816970825,0.05666923522949219,985.4814453125,0,13.0,1,1
6.28,0.07128322,-0.1444756,9.762891,0.0006089865928515793,0.0006723623955622315,0.0007677428657189013,-5.953980445861816,22.67321014404297,-37.06736373901367,0.27103474736213684,0.37915870547294617,0.032944679260253906,985.4654541015624,0,13.0,1,1
6.32,0.052193135,-0.1635425,9.777097,0.00047432677820324903,-0.0001263414742425084,0.00010130956070497632,-6.004496097564697,22.784423828125,-37.835933685302734,0.2696986496448517,0.391347885131836,0.01882648468017578,985.45068359375,0,13.0,1,1
6.36,0.06895164,-0.15401007,9.765263000000001,-0.00046782908611930907,0.0009380585397593676,0.0002270392724312842,-5.917185306549072,22.128440856933594,-37.42607879638672,0.22128960490226746,0.3657140135765076,0.04255390167236328,985.4814453125,0,13.0,1,1
6.4,0.057031333,-0.14209442,9.758163,-0.0006012681405991317,-0.0006597911124117672,0.0008927084272727369,-6.006155967712402,22.677032470703125,-37.05955123901367,0.22497987747192386,0.3399868011474609,0.052093505859375,985.4794921875,0,13.0,1,1
6.44,0.064230144,-0.15639482,9.743963,-0.00033523348974995315,-0.0005265874788165091,0.000892587937414646,-5.723023414611816,21.83605194091797,-37.2849235534668,0.23778706789016724,0.3481825590133667,0.0569000244140625,985.4693603515624,0,13.0,1,1
6.48,0.059479535,-0.15639563,9.770004,0.0007297487463802098,0.00027240579947829247,0.0004929935093969107,-6.2419776916503915,22.87763595581055,-37.03494644165039,0.23670068383216855,0.3750143051147461,0.038028717041015625,985.4721069335938,0,13.0,1,1
6.52,0.052339017,-0.14209665,9.760538,-0.00033579589216969907,0.0008050830801948905,0.0006260310183279216,-6.359344959259032,22.609649658203125,-36.9241943359375,0.2353217899799347,0.3590660393238068,0.023899078369140625,985.4872436523438,0,13.0,1,1
6.56,0.052368164,-0.14924724,9.748706,0.0008623442845419049,-0.0003932926920242608,0.00035959453089162713,-6.261082649230957,22.59611511230469,-36.63061141967773,0.2393146157264709,0.3479456901550293,0.06182861328125,985.44677734375,0,13.0,1,1
6.6,0.061957000000000005,-0.14924796,9.762912,-0.00046979755279608065,-0.001192149007692933,-0.00017327821115031838,-6.143576622009277,22.97001647949219,-37.44043731689453,0.2291666567325592,0.35554763674736023,0.03820991516113281,985.4679565429688,0,13.0,1,1
6.64,0.06915587,-0.14924867,9.736875,0.000994658563286066,-0.0006594715523533522,0.00035923306131735444,-5.73516845703125,23.03652191162109,-37.73821640014648,0.21387284994125366,0.3541229367256165,0.07140636444091797,985.4755859375,0,13.0,1,1
6.68,0.06440526,-0.13733299,9.767652499999999,-0.0002040440740529448,0.0002726796665228904,0.00022595463087782266,-6.094583034515381,22.85733413696289,-36.59456634521485,0.22685617208480835,0.33347010612487793,0.033598899841308594,985.460693359375,0,13.0,1,1
6.72,0.054874837,-0.15163334,9.760552,-0.00020432544988580048,0.0005390411824919283,0.00035899196518585086,-6.35880184173584,22.24135971069336,-36.82574462890625,0.23515796661376956,0.3555691838264465,0.04787254333496094,985.4708251953124,0,13.0,1,1
6.76,0.06685352,-0.15401734,9.760555,0.0001948672870639712,0.0004059288767166436,-0.00030691822757944465,-6.079799175262451,22.134010314941406,-37.09341049194336,0.21962636709213254,0.3444826304912567,0.04793548583984375,985.5015869140624,0,13.0,1,1
6.8,0.05493319,-0.14686824,9.760558,0.0005940598202869296,-0.00012665717804338783,-0.00017388089327141643,-5.911777973175049,22.396705627441406,-37.134674072265625,0.2279432415962219,0.3428467810153961,0.052734375,985.4683227539062,0,13.0,1,1
6.84,0.066911876,-0.14210238,9.755825999999999,6.11468858551234e-05,0.0006723361439071597,9.231449803337456e-05,-6.230917930603027,22.413742065429688,-36.7785530090332,0.22185203433036804,0.3268236517906189,0.033865928649902344,985.496826171875,0,13.0,1,1
6.88,0.08128044,-0.16355260000000002,9.760563000000001,-0.0006049241637811066,-0.00012656586477532983,-0.0003072798135690391,-5.881614685058594,22.214332580566406,-37.28261947631836,0.20644572377204892,0.3535704016685486,0.04340076446533203,985.47119140625,0,13.0,1,1
6.92,0.062190413,-0.15163691,9.767667999999999,6.0584425227716565e-05,0.00027295359177514905,9.207351831719279e-05,-5.518452167510986,22.55439758300781,-37.35847854614258,0.21495375037193296,0.36146342754364014,0.04819297790527344,985.4766845703124,0,13.0,1,1
6.96,0.05027008,-0.14687105,9.765303,-0.0002060127153526992,-0.00012647456605918703,-0.00017436285270377994,-5.49589729309082,22.36466217041016,-37.11989974975586,0.24217820167541504,0.3261503577232361,0.04353523254394531,985.4767456054688,0,13.0,1,1
7.0,0.076588154,-0.15163834,9.762938499999999,-0.00020629391656257207,-0.0002595868718344718,0.00022499036276713014,-5.986943244934082,21.85221099853516,-37.09122848510742,0.20317894220352173,0.3434871137142181,0.03885173797607422,985.4342041015624,0,13.0,1,1
7.04,0.06944764,-0.13972266,9.770042,-0.00020657511777244506,-0.0007921729702502488,9.171193232759832e-05,-5.935311317443848,22.2166748046875,-37.1974983215332,0.20229259133338928,0.3369850516319275,0.029438018798828125,985.4569091796876,0,13.0,1,1
7.08,0.06230712,-0.13495685,9.755842,-0.0007394881686195731,0.00040629418799653655,-0.00017472455510869622,-6.2634453773498535,22.330795288085934,-37.07662582397461,0.22972360253334045,0.3210292458534241,0.04843902587890625,985.4855346679688,0,13.0,1,1
7.12,0.064726174,-0.15164046,9.767681,0.00019233618513680997,0.0006726557039655745,0.0006241025985218585,-6.592123031616211,22.813201904296875,-37.05420303344727,0.2091277539730072,0.33373361825942993,0.029570579528808594,985.48291015625,0,13.0,1,1
7.16,0.050415963,-0.14925791,9.767683,-0.0003405767201911658,0.0005395433981902896,0.0008902979316189885,-6.049880027770996,22.95206451416016,-36.91493606567383,0.2365476787090301,0.32723268866539,0.043837547302246094,985.4496459960938,0,13.0,1,1
7.2,0.07673406599999999,-0.14687534,9.762951,5.86158421356231e-05,0.00027327321004122496,0.000357545679435134,-6.427580833435059,22.33489227294922,-36.66665267944336,0.1918219029903412,0.3198702931404114,0.03919410705566406,985.4676513671876,0,13.0,1,1
7.24,0.069482565,-0.1492566,9.762945,-7.482329965569079e-05,0.0001401609479216859,-0.00017520663095638156,-5.781691551208496,22.308181762695312,-37.76541519165039,0.19119825959205627,0.32376083731651306,0.04869365692138672,985.4605712890624,0,13.0,1,1
7.28,0.052664815999999996,-0.14448784,9.760569,-0.0006066748173907398,0.0012052977690473199,-4.171422915533185e-05,-6.358366012573242,22.97940826416016,-37.09994888305664,0.237682580947876,0.3457690477371216,0.05825614929199219,985.4556884765624,0,13.0,1,1
7.32,0.06463465,-0.1707045,9.746367999999999,-0.000604002270847559,0.0004041805805172771,-0.0003090559039264917,-6.033574104309082,22.230209350585934,-37.49108505249024,0.21266642212867734,0.3440473973751068,0.058315277099609375,985.456298828125,0,13.0,1,1
7.36,0.055095375,-0.14687224,9.753471000000001,-0.000604002270847559,0.0004041805805172771,-0.0003090559039264917,-5.6614179611206055,22.473201751708984,-37.33169937133789,0.20676732063293454,0.3185008764266968,0.05837345123291016,985.456298828125,0,13.0,1,1
7.4,0.06706518,-0.15163924,9.748739,0.000327907531755045,4.738554707728326e-06,-0.00044229777995496994,-6.165183067321777,22.3172607421875,-36.78303909301758,0.1966472864151001,0.3076048791408539,0.05841064453125,985.4716186523438,0,13.0,1,1
7.44,0.06947541,-0.14687313,9.762944000000001,0.0002631195820868016,-0.0007558101206086576,0.0005402724491432308,-6.65883731842041,22.5399169921875,-36.873966217041016,0.18631532788276672,0.3107021450996399,0.039520263671875,985.4716186523438,0,13.0,1,1
7.48,0.06710583,-0.15164019,9.765312,-3.392109647393226e-06,-0.0010220941621810198,-0.0006582329515367746,-5.885200500488281,22.579673767089844,-37.22645950317383,0.2140401005744934,0.323488712310791,0.03957080841064453,985.4619140625,0,13.0,1,1
7.52,0.05995643,-0.15640731,9.753478999999999,-0.00013674574438482526,4.32011584052816e-05,-0.00039200100582093,-5.558588981628418,22.46408462524414,-37.27002334594727,0.2125648558139801,0.32675158977508545,0.049102783203125,985.47216796875,0,13.0,1,1
7.56,0.059976757,-0.15640779,9.748747,0.00039569020736962557,0.000442706688772887,-0.00039208494126796717,-5.816421985626222,22.486141204833984,-37.38555145263672,0.20200461149215695,0.320267915725708,0.07282829284667969,985.4564819335938,0,13.0,1,1
7.6,0.067166746,-0.15402497,9.765317999999999,-0.00013713748194277287,0.0007090544677339494,-0.0003921687602996826,-6.2335262298583975,23.14884948730469,-36.89815139770508,0.19584167003631592,0.31400781869888306,0.04448127746582031,985.4727172851562,0,13.0,1,1
7.64,0.05762747,-0.14687563,9.774788000000001,0.00012898276327177882,-8.986145257949829e-05,-0.0002590946387499571,-6.312140941619872,23.07561492919922,-37.49762344360352,0.19978520274162287,0.3026933670043945,0.01612567901611328,985.4572143554688,0,13.0,1,1
7.68,0.060037673,-0.14925946,9.758221,-0.00040384475141763687,0.0004428020329214633,-0.00039233651477843523,-5.968382358551025,22.50202178955078,-37.59402084350586,0.1987033188343048,0.30130141973495483,0.03511238098144531,985.5009155273438,0,13.0,1,1
7.72,0.060057967999999996,-0.15402652,9.758222,-0.00027088267961516976,-0.00035611377097666264,-0.00025926250964403147,-5.573127746582031,22.186981201171875,-37.09760284423828,0.2167094349861145,0.3142169415950775,0.05410003662109375,985.4451293945312,0,13.0,1,1
7.76,0.06485811,-0.16832669,9.77006,0.0007941850926727058,0.0005760235944762826,-0.0006588202668353915,-5.87620735168457,22.48259735107422,-36.99121475219727,0.19668254256248474,0.3222014904022217,0.030475616455078125,985.4784545898438,0,13.0,1,1
7.8,0.07204813,-0.14449437,9.75349,0.0007937934715300797,0.000709245097823441,-0.0003926721401512623,-6.262466430664063,22.700557708740234,-37.25238037109375,0.18513482809066767,0.2917270064353943,0.04002285003662109,985.4716186523438,0,13.0,1,1
7.84,0.057729006,-0.13257845,9.760595,0.0007937934715300797,0.000709245097823441,-0.0003926721401512623,-6.262466430664063,22.700557708740234,-37.25238037109375,0.19921445846557614,0.2906665503978729,0.04951286315917969,985.4716186523438,0,13.0,1,1
7.88,0.050579607,-0.14211212,9.758229,0.000260966073255986,0.0007092768209986389,-0.0003927561920136213,-6.1657257080078125,22.685550689697266,-36.88148880004883,0.21261852979660034,0.2893662452697754,0.04008769989013672,985.4490966796876,0,13.0,1,1
7.92,0.057769655999999996,-0.15641229,9.741661,-0.0005381775554269552,-0.0010217445669695737,0.0004061076033394784,-6.06928300857544,22.038406372070312,-36.93546676635742,0.18811312317848208,0.3070917725563049,0.0685281753540039,985.4642944335938,0,13.0,1,1
7.96,0.043450564000000004,-0.15164621,9.751130999999999,0.000793206156231463,-0.00022276512754615402,6.5498752519488335e-06,-6.401547431945801,22.88615417480469,-36.85689163208008,0.201202392578125,0.30082345008850103,0.05911350250244141,985.4417114257812,0,13.0,1,1
8.0,0.05303049,-0.14211361,9.765336999999999,-5.937297828495504e-06,-0.0004890492418780923,-0.00012669200077652929,-6.4074974060058585,22.98617553710937,-37.24674606323242,0.19563016295433044,0.2898284792900085,0.04495048522949219,985.4620971679688,0,13.0,1,1
8.04,0.05066088,-0.14211406,9.758237,0.0007928145350888371,-0.0003558595199137926,0.00013954006135463715,-6.6026387214660645,22.90880584716797,-37.2121467590332,0.2035652995109558,0.2742946743965149,0.026070594787597656,985.4724731445312,0,13.0,1,1
8.08,0.057850897000000005,-0.15641429,9.762972999999999,0.0002597912680357694,-0.0004889538395218551,-0.00026010163128376007,-6.266053199768066,23.065902709960934,-37.19622421264648,0.19804111123085025,0.3110041618347168,0.04504680633544922,985.4749145507812,0,13.0,1,1
8.12,0.053091407,-0.13734858,9.748772,0.00012643751688301566,4.3709660531021655e-05,0.00013928825501352549,-6.218443870544434,23.057659149169922,-36.97212219238281,0.2013972699642181,0.2809910178184509,0.05930519104003906,985.4909057617188,0,13.0,1,1
8.16,0.057891517999999996,-0.15879856,9.765345,0.0001262417063117027,0.0011090049520134926,-0.0003934273263439536,-5.962974548339844,22.77029037475586,-37.3026123046875,0.20950767397880554,0.2888942360877991,0.04516029357910156,985.470458984375,0,13.0,1,1
8.2,0.053132057,-0.16118229999999997,9.7535095,-7.111928425729276e-06,0.0005764050292782485,0.00013912050053477287,-6.084067344665527,22.7617301940918,-36.436622619628906,0.1846982836723328,0.306205153465271,0.04520606994628906,985.4656982421876,0,13.0,1,1
8.24,0.052896023,-0.14926018,9.7463875,0.00025900796754285693,0.00017696303257253018,-0.0006599111948162317,-6.128632545471191,22.772918701171875,-36.81533432006836,0.19788603484630585,0.2955695390701294,0.05001163482666016,985.4791259765624,0,13.0,1,1
8.28,0.04812634,-0.14687715,9.762959,-0.00026873755268752575,0.0005729909753426909,-0.000661082100123167,-5.95756721496582,23.038555145263672,-37.01120376586914,0.191989004611969,0.2844070196151733,0.04059410095214844,985.4810791015624,0,13.0,1,1
8.32,0.055306256,-0.14687736,9.75349,-0.0002685341169126332,0.00017348412075079978,0.0008037423831410706,-6.336354732513428,23.157958984375,-36.95981979370117,0.19099213182926175,0.2782920598983765,0.059574127197265625,985.453857421875,0,13.0,1,1
8.36,0.05292642,-0.15402742,9.767694,0.0006634736200794578,4.034207086078823e-05,-0.0003947210498154163,-5.977513790130615,22.493186950683594,-37.13018798828125,0.18505635857582087,0.2816928327083588,0.03121471405029297,985.4845581054688,0,13.0,1,1
8.4,0.04576689,-0.14211126,9.751125,-0.00040188769344240427,0.0007061477517709137,-0.0005279206670820713,-5.921208381652832,21.75572967529297,-37.0957145690918,0.18833138048648834,0.2656199336051941,0.05021190643310547,985.481689453125,0,13.0,1,1
8.44,0.06250635,-0.15641119,9.75586,-2.5115441530942917e-06,0.0008393214084208013,0.0004041428328491747,-6.5453548431396475,22.541114807128906,-37.35342788696289,0.17785881459712982,0.2975752055644989,0.04551792144775391,985.4747924804688,0,13.0,1,1
8.48,0.045787155999999996,-0.15879472,9.746392,-0.0004020831547677517,-0.0002259261964354664,0.0008035748032853007,-6.220807075500487,22.79234313964844,-37.41814041137695,0.19602879881858826,0.30067068338394165,0.05503273010253906,985.487548828125,0,13.0,1,1
8.52,0.060136735,-0.14926185,9.751127,-0.00026902317767962813,-0.0004922262160107493,0.0002709010150283575,-6.3527140617370605,22.24725341796875,-37.13496780395508,0.18566857278347013,0.2753441333770752,0.06453895568847656,985.4721069335938,0,13.0,1,1
8.56,0.06731656,-0.14926217,9.741659,-2.8049107640981674e-06,-0.00022589444415643809,0.00027085922192782164,-6.401547431945801,22.88615417480469,-36.85689163208008,0.1610308289527893,0.2786531150341034,0.0645751953125,985.4679565429688,0,13.0,1,1
8.6,0.033868103999999996,-0.13972928,9.751128999999999,-0.00026921858079731464,0.00017359523917548356,0.00040397525299340487,-6.271598815917969,22.69171905517578,-36.788551330566406,0.2074153572320938,0.27715811133384705,0.05515861511230469,985.5029907226562,0,13.0,1,1
8.64,0.060167134000000004,-0.14211279999999998,9.760599000000001,0.0006627891561947763,0.0011057168012484908,4.459405317902565e-06,-5.6900596618652335,22.65704345703125,-37.26105880737305,0.18699343502521515,0.2758805453777313,0.04100227355957031,985.478271484375,0,13.0,1,1
8.68,0.036278307,-0.15402944,9.748764,-0.00013625627616420388,0.0008394167525693773,0.0001375754363834858,-5.715115070343018,22.475547790527344,-37.246578216552734,0.19519709050655365,0.28307950496673584,0.06473541259765625,985.45068359375,0,13.0,1,1
8.72,0.06018743,-0.15879627,9.765335,-0.00040266988798975945,-0.001291094464249909,0.00040384952444583183,-6.145779609680176,23.230918884277344,-36.762508392333984,0.1900148093700409,0.2679717242717743,0.05528450012207031,985.47314453125,0,13.0,1,1
8.76,0.06975722,-0.15402992,9.7535,-0.00013645179569721222,0.00017365874373354018,-0.0006614560261368753,-5.866532325744629,22.123146057128906,-37.356590270996094,0.15559378266334534,0.2809399366378784,0.04585456848144531,985.4640502929688,0,13.0,1,1
8.8,0.03152892,-0.13258065,9.753501,-0.00013654970098286867,0.0008394643664360046,-0.0009278138168156148,-6.064143180847168,22.88679504394531,-38.14066696166992,0.20693619549274445,0.2459152489900589,0.04590320587158203,985.4808349609376,0,13.0,1,1
8.84,0.062607795,-0.15879692,9.753502000000001,-0.001068752957507968,0.00017369052511639893,-0.00012890785001218322,-5.5245394706726065,22.54850769042969,-37.049259185791016,0.16761286556720734,0.28237006068229675,0.045948028564453125,985.473388671875,0,13.0,1,1
8.88,0.053058325999999996,-0.14688082,9.762972,-0.001068752957507968,0.00017369052511639893,-0.00012890785001218322,-5.920910835266112,22.387863159179688,-36.670841217041016,0.17643292248249054,0.2524372339248657,0.04598045349121094,985.473388671875,0,13.0,1,1
8.92,0.057848275,-0.1564141,9.772442,8.652417454868555e-05,-0.00033271958818659186,0.000647806329652667,-6.243499279022218,22.876163482666016,-36.95764541625977,0.16577227413654327,0.2747594714164734,0.0270843505859375,985.4819946289062,0,13.0,1,1
8.96,0.026789695,-0.12781514,9.772444,-0.0007125212578102946,0.0003330859763082117,0.0002482906566001475,-6.093902587890625,22.59496307373047,-37.19519424438477,0.18347838521003726,0.2307504564523697,0.03659725189208984,985.4819946289062,0,13.0,1,1
9.0,0.10088679,-0.17786427,9.744038,0.0007521182997152209,0.0008657336002215742,0.0009140383917838336,-5.482635498046875,21.639862060546875,-37.54143905639648,0.05917617678642272,0.32005882263183594,0.07448768615722656,985.4744262695312,0,13.0,1,1
9.04,0.022030205,-0.14211531,9.767711,0.00035254668910056347,-0.0016642514383420348,-0.0001512671005912125,-5.897239208221436,22.673809051513672,-37.30709457397461,0.23919859528541565,0.23744270205497744,0.02246189117431641,985.4996337890624,0,13.0,1,1
9.08,0.06266862,-0.14688210000000002,9.765345,-0.00031334080267697567,0.001265239086933434,-0.0010834145359694958,-6.106919288635254,22.31932830810547,-37.10007858276367,0.1759541481733322,0.25954586267471313,0.04617881774902344,985.4850463867188,0,13.0,1,1
9.12,0.053119242000000004,-0.15403219,9.753509,-0.0005797544727101923,6.683359970338643e-05,0.0010470706038177011,-6.104961395263673,23.058856964111328,-37.45158767700195,0.1704479455947876,0.24868284165859225,0.04620838165283203,985.4667358398438,0,13.0,1,1
9.16,0.050739408,-0.13973276,9.755877,-0.0012456419644877315,0.00059948128182441,-0.00028455053688958287,-5.937238693237305,22.689414978027344,-37.91772079467773,0.15981242060661316,0.23793980479240415,0.04624557495117188,985.485595703125,0,13.0,1,1
9.2,0.043753445,-0.15165363,9.758261,0.0010179452365264297,6.686538108624518e-05,-0.0001514347386546433,-5.968083381652832,23.13415908813477,-37.16914749145508,0.1924954354763031,0.2603452205657959,0.05574607849121094,985.4676513671876,0,13.0,1,1
9.24,0.06784665599999999,-0.14927508,9.751177,0.0003520578029565513,-6.627672701142728e-05,0.00024799723178148264,-6.171133041381836,22.417282104492188,-37.17289352416992,0.1628168672323227,0.24937547743320465,0.0699462890625,985.4577026367188,0,13.0,1,1
9.28,0.055921257,-0.13735928,9.763016,-0.00018192018615081904,-0.0012644795933738349,-0.0008178431889973581,-6.05612850189209,22.419952392578125,-37.72966384887695,0.15262576937675476,0.25277990102767944,0.05576705932617188,985.4705200195312,0,13.0,1,1
9.32,0.060725212,-0.17310907,9.755916000000001,-0.0004479530907701701,-0.00033388176234439015,-0.0001552304020151496,-5.957322597503662,22.038127899169922,-37.337623596191406,0.1612318456172943,0.2703562080860138,0.06527137756347656,985.4961547851562,0,13.0,1,1
9.36,0.055969507,-0.13974379,9.751184,-0.00018186963279731566,0.0004651035997085273,-0.00015533005353063345,-5.9027838706970215,22.29962158203125,-36.8994255065918,0.14592306315898895,0.2309738099575043,0.06056880950927735,985.4713745117188,0,13.0,1,1
9.4,0.060773373,-0.16596042,9.763022,-0.00031549241975881165,0.0005983369774185121,-0.0009544770000502467,-6.35880184173584,22.24135971069336,-36.82574462890625,0.13493181765079498,0.25750166177749634,0.04167842864990234,985.4768676757812,0,13.0,1,1
9.44,0.067967236,-0.15166135,9.765391000000001,-0.00031549241975881165,0.0005983369774185121,-0.0009544770000502467,-6.35880184173584,22.24135971069336,-36.82574462890625,0.1488247811794281,0.2566506564617157,0.041695594787597656,985.4768676757812,0,13.0,1,1
9.48,0.056041837000000004,-0.14927866,9.75119,0.00021690697758458557,-0.00020057286019437012,-0.0005551027134060861,-6.0923805236816415,22.596435546875,-37.27250289916992,0.15761463344097135,0.24570968747138974,0.05592823028564453,985.480224609375,0,13.0,1,1
9.52,0.06562555,-0.14927925,9.763029,0.0004827580123674125,-6.73394533805549e-05,0.00011048780288547275,-5.879794120788574,22.847938537597656,-36.935054779052734,0.15204419195652008,0.2446631044149399,0.037014007568359375,985.4677124023438,0,13.0,1,1
9.56,0.060869873,-0.13974674,9.767764999999999,-0.0003164221125189215,-0.0005999335553497076,-0.0001559276133775711,-6.05528736114502,22.683799743652344,-37.20634078979492,0.14192235469818115,0.2243887186050415,0.04177093505859375,985.462646484375,0,13.0,1,1
9.6,0.058504075,-0.15166374,9.760666,0.0007486090762540697,-0.0007330537191592157,0.0006429204368032515,-6.280592918395996,22.78879547119141,-37.02379989624024,0.15561243891716006,0.2232392132282257,0.04179286956787109,985.47509765625,0,13.0,1,1
9.64,0.048968554000000004,-0.14928104,9.755934,8.258686284534633e-05,-0.0008661739411763848,0.00024334690533578399,-5.927701473236084,22.224044799804688,-37.584022521972656,0.1839631348848343,0.2506612539291382,0.04654216766357422,985.462646484375,0,13.0,1,1
9.68,0.07528162,-0.15166493,9.763036999999999,8.235449786297977e-05,-0.0008661361644044517,-2.306862734258175e-05,-6.1089844703674325,22.686145782470703,-37.12121963500977,0.14997440576553345,0.23521250486373899,0.04182720184326172,985.4583129882812,0,13.0,1,1
9.72,0.070525885,-0.15643205,9.7464695,0.0006147538078948855,-0.00020030877203680572,-0.0001563261030241847,-5.64024829864502,22.387908935546875,-37.71488952636719,0.14441044628620148,0.2435847222805023,0.05605506896972656,985.4758911132812,0,13.0,1,1
9.76,0.056210637,-0.13736643,9.755939999999999,-5.1268230890855186e-05,-0.0002002710389206186,-0.0002895835787057877,-5.6695709228515625,22.83412933349609,-37.04362487792969,0.15318113565444946,0.2086702287197113,0.0655527114868164,985.466064453125,0,13.0,1,1
9.8,0.082523674,-0.1588165,9.751207,-0.0007172905607149005,-0.00020023332035634667,-0.00028968323022127146,-5.781828880310059,22.202266693115234,-37.06633377075195,0.1428617537021637,0.2405801862478256,0.06084442138671875,985.4564819335938,0,13.0,1,1
9.84,0.06820834,-0.14690073,9.779617,-0.0008506806334480642,0.0001992782345041633,-0.0002897829981520772,-6.293609619140625,22.513168334960934,-36.92868041992188,0.13242360949516296,0.2438031136989593,0.022996902465820312,985.4613647460938,0,13.0,1,1
9.88,0.037163764,-0.14690132,9.763048,-0.0007177552906796336,0.0005987898330204189,-0.00015672459267079833,-6.04325008392334,22.58966827392578,-37.12570571899414,0.19807736575603485,0.21842053532600406,0.04197406768798828,985.4717407226562,0,13.0,1,1
9.92,0.092155606,-0.16835143,9.758316,-0.00031851374660618603,-6.696220953017473e-05,0.0005089655751362443,-5.626282215118408,21.821041107177734,-36.91402816772461,0.12575384974479675,0.2506110966205597,0.05619716644287109,985.4671020507812,0,13.0,1,1
9.96,0.051551400000000004,-0.14928578,9.758319,8.072753553278744e-05,0.00019939144840463999,-0.0004232396604493261,-6.183171272277832,22.511417388916016,-37.25353240966797,0.14414024353027344,0.23959538340568545,0.05148696899414063,985.4550170898438,0,13.0,1,1
10.0,0.05396542,-0.15405293,9.779625999999999,-0.0007184523856267332,0.000332586991135031,0.00024245050735771656,-5.934333324432372,22.586444854736328,-37.37324905395508,0.1623118817806244,0.21421656012535092,0.03257942199707031,985.4647216796876,0,13.0,1,1
10.04,0.058769315,-0.14213715,9.760691,-0.00018605325021781027,-0.0007326386985369028,-0.0006897547282278537,-6.061375141143799,22.67790985107422,-36.89712142944336,0.15195110440254211,0.22278478741645813,0.03733634948730469,985.470458984375,0,13.0,1,1
10.08,0.07313284,-0.15643741,9.763061,-5.312749999575317e-05,0.00033266248647123575,0.0009080409072339537,-6.2012977600097665,22.59966278076172,-37.02495193481445,0.136910080909729,0.2406013309955597,0.0515594482421875,985.4678344726562,0,13.0,1,1
10.12,0.05403775,-0.14452158,9.765429,0.0008787454571574925,-0.0004662473220378161,-2.4164211936295036e-05,-6.640275001525879,23.189727783203125,-37.37675476074219,0.15060174465179446,0.22512683272361755,0.056315422058105476,985.4347534179688,0,13.0,1,1
10.16,0.046892107,-0.14928873,9.763065,-0.0005862242542207241,-0.000466209661681205,0.0003752099582925439,-6.077299118041992,22.5052490234375,-37.34646987915039,0.164033904671669,0.2144774794578552,0.03740215301513672,985.4452514648438,0,13.0,1,1
10.2,0.07740259,-0.15410020000000002,9.75613,0.0008782807271927595,-0.00019985594553872946,0.00037511042319238186,-5.966019153594972,22.76734161376953,-37.14799880981445,0.12834873795509338,0.21351562440395355,0.03251934051513672,985.4735107421876,0,13.0,1,1
10.24,0.05837977,-0.14456947,9.751403999999999,-0.0007247128523886204,-0.0011358088813722136,0.0004955350304953754,-5.614351272583008,22.833251953125,-37.206050872802734,0.14231806993484494,0.2169257551431656,0.060931205749511726,985.4786376953124,0,13.0,1,1
10.28,0.044136762999999996,-0.13980527,9.765616,0.00020220634178258479,-0.00020286135259084404,-0.00043879303848370915,-6.026102066040039,22.13166046142578,-37.17853164672852,0.1701684594154358,0.21564170718193051,0.04674434661865234,985.4566650390624,0,13.0,1,1
10.32,0.06335235,-0.14934076,9.746688,0.00020220634178258479,-0.00020286135259084404,-0.00043879303848370915,-5.993980407714844,22.68881607055664,-37.6779899597168,0.14561380445957184,0.20958587527275085,0.06095790863037109,985.4566650390624,0,13.0,1,1
10.36,0.07539824,-0.14934315,9.7609005,-0.0004645124136004597,-0.0007353423279710113,-0.00017287553055211902,-5.786938190460205,22.56613922119141,-36.9328727722168,0.12561540305614471,0.21341380476951602,0.03730010986328125,985.4464721679688,0,13.0,1,1
10.4,0.06354511,-0.14696224,9.751439999999999,0.00020034846966154876,-0.0007351915119215847,-0.00043958955211564904,-5.7369651794433585,22.82321929931641,-36.26275634765625,0.12956899404525754,0.2121991217136383,0.051517486572265625,985.4491577148438,0,13.0,1,1
10.44,0.06364149,-0.15173115,9.770387,0.00013902757200412452,0.0006286751595325768,-0.0005223311018198729,-5.566880226135254,22.719097137451172,-36.28287124633789,0.14293549954891205,0.22050973773002625,0.037331581115722656,985.447021484375,0,13.0,1,1
10.48,0.06134796,-0.15411676,9.756191000000001,-0.00026137506938539445,0.0003625100362114608,0.00014306051889434457,-5.724789619445801,22.83500671386719,-36.881195068359375,0.1422719657421112,0.21897029876708984,0.06101799011230469,985.4345092773438,0,13.0,1,1
10.52,0.059054434,-0.15173586,9.763303,-0.0006617777980864048,-0.0005694447318091989,0.0002758203772827983,-5.623620986938477,22.71849822998047,-36.04314041137695,0.136778324842453,0.21299174427986145,0.0515594482421875,985.4819946289062,0,13.0,1,1
10.56,0.05198109,-0.1398219,9.763311,-0.0002632329997140914,9.649577259551734e-05,0.0006748960586264731,-5.6344356536865225,22.181968688964844,-36.625953674316406,0.1453632116317749,0.2024931907653809,0.046840667724609375,985.427490234375,0,13.0,1,1
10.6,0.06402695,-0.15174063,9.765687,0.00040162794175557787,0.0004961203667335212,0.00040818203706294304,-6.0634403228759775,23.04472351074219,-36.918270111083984,0.14437782764434814,0.20157767832279205,0.032652854919433594,985.437255859375,0,13.0,1,1
10.64,0.06412336,-0.17319252,9.770430000000001,1.2251839507371187e-06,-0.00030267646070569754,-0.0009237953927367926,-5.673593521118164,22.46141815185547,-36.7132568359375,0.12889817357063293,0.23392602801322934,0.046875,985.4530639648438,0,13.0,1,1
10.68,0.07616922,-0.14697881,9.772806,2.9630609788000584e-07,0.0003632640582509339,-0.00025840383023023605,-5.440976619720459,21.731651306152344,-37.70719528198242,0.12819823622703552,0.20822912454605105,0.05162239074707031,985.4786987304688,0,13.0,1,1
10.72,0.052366585,-0.14698108,9.74441,-0.00040010639349929983,0.0004965728730894625,-0.0011909076711162925,-5.7263121604919425,22.83353042602539,-36.80389022827149,0.14658582210540771,0.19756245613098145,0.07530403137207031,985.4457397460938,0,13.0,1,1
10.76,0.06919223,-0.14936672,9.770457,-0.0006673510652035475,9.724967821966855e-05,0.00014027371071279052,-5.403584957122803,22.451148986816406,-37.21616744995117,0.13174264132976532,0.20586633682250974,0.03743457794189453,985.436279296875,0,13.0,1,1
10.8,0.06928864,-0.13983603,9.765732,-2.4902692530304193e-06,-0.0005683891358785331,-0.0003927559591829777,-5.901124000549316,22.407012939453125,-37.67580795288086,0.11641088128089905,0.19034048914909366,0.04691982269287109,985.4611206054688,0,13.0,1,1
10.84,0.05026579,-0.14937146,9.765739,-0.0006692088209092617,-0.0004350804374553263,0.0006721094250679016,-5.589594841003418,22.382614135742188,-37.64540481567383,0.15860098600387573,0.20826058089733124,0.03746223449707031,985.4568481445312,0,13.0,1,1
10.88,0.06948137,-0.15652366,9.75628,-4.348141374066472e-06,0.0004971759044565259,-0.001059341826476157,-5.5291056632995605,22.544086456298828,-36.817344665527344,0.11939460039138795,0.21212702989578247,0.05641365051269531,985.4513549804688,0,13.0,1,1
10.92,0.057628214000000004,-0.13984312,9.7586565,0.00012788097956217825,0.0002310107956873253,0.0006713132024742662,-5.734763145446777,22.56231689453125,-36.94068908691406,0.123618945479393,0.18739141523838046,0.03748035430908203,985.4564819335938,0,13.0,1,1
10.96,0.06728423,-0.15652843,9.761032,0.0007927416590973735,-0.00030147010693326587,0.00027144135674461717,-6.252631187438965,22.86732482910156,-36.493812561035156,0.1183016300201416,0.19586281478405,0.05169010162353516,985.4521484375,0,13.0,1,1
11.0,0.06260079,-0.14938094,9.763409,-0.00014029265730641782,-0.0007007931126281619,-0.0002615886041894555,-6.322113990783691,22.80292510986328,-37.5571174621582,0.12707288563251495,0.19453538954257965,0.04223155975341797,985.4395751953124,0,13.0,1,1
11.04,0.06508708,-0.14938332,9.758682,-0.001074256026186049,-0.00016785979096312076,0.0004034050507470965,-5.983463764190674,22.59320831298828,-37.52004623413086,0.12645040452480316,0.18373267352581024,0.04697418212890625,985.4431762695312,0,13.0,1,1
11.08,0.06518343,-0.14700241,9.775262,-0.00014307929086498916,-0.0014992884825915098,0.0005361647927202284,-5.575491428375244,21.921661376953125,-37.54362106323242,0.11651788651943208,0.1967706084251404,0.02803897857666016,985.4823608398438,0,13.0,1,1
11.12,0.05333036,-0.14938809,9.770536,-0.0005434820195659995,0.00023191560467239467,-0.00013002287596464154,-5.809492588043213,22.755878448486328,-37.17145156860352,0.13005214929580688,0.19070357084274286,0.04225349426269531,985.4552612304688,0,13.0,1,1
11.16,0.06445414,-0.1493678,9.763359,0.0003876947157550603,-0.0004337233258411288,-0.00039673701394349337,-6.304806709289551,22.87114715576172,-36.48599624633789,0.12126947939395905,0.18949255347251887,0.04716587066650391,985.4754638671876,0,13.0,1,1
11.2,0.056402653,-0.14934619,9.756177000000001,0.0003889875661116093,-3.445940092206001e-05,-0.0001298669958487153,-5.774219512939452,22.20963287353516,-37.45286178588867,0.13515879213809967,0.19383943080902102,0.04717540740966797,985.4632568359376,0,13.0,1,1
11.24,0.04447472,-0.13743033,9.760913,-0.00025387114146724343,8.585731848143041e-05,-0.00026577559765428305,-5.579621315002441,22.655296325683594,-37.58591079711914,0.14857548475265506,0.168982595205307,0.03299140930175781,985.4459838867188,0,13.0,1,1
11.28,0.056445837,-0.14696394,9.756181,0.0004117105272598565,0.000485364900669083,-0.0009316543582826852,-5.785959243774414,22.935901641845703,-37.10862731933594,0.1329534500837326,0.18159306049346924,0.04722309112548828,985.463623046875,0,13.0,1,1
11.32,0.061247199999999995,-0.15888087,9.75855,-0.000387445033993572,-4.7233144869096584e-05,3.6205165088176727e-07,-6.301219940185548,22.50580596923828,-36.54215621948242,0.12795594334602356,0.18590417504310608,0.056696891784667976,985.4530029296876,0,13.0,1,1
11.36,0.049319267,-0.15649809,9.76092,0.00014497875235974791,8.595859981141983e-05,-0.00026604300364851946,-6.1514854431152335,22.33051300048828,-37.478782653808594,0.12700606882572174,0.19898086786270144,0.04724788665771485,985.4642944335938,0,13.0,1,1
11.4,0.046950936,-0.14934881,9.768023,-0.0002547030453570187,8.599236025474966e-05,-0.0001329741207882762,-5.914279460906982,22.025474548339844,-36.881614685058594,0.14098282158374786,0.174104705452919,0.047257423400878906,985.4463500976562,0,13.0,1,1
11.44,0.0613119,-0.15173264,9.751453,0.00041087873978540296,-0.0011123953154310584,0.00026641064323484903,-5.83248233795166,22.207561492919922,-37.135826110839844,0.12597770988941193,0.1923160552978516,0.05200386047363281,985.4312744140624,0,13.0,1,1
11.48,0.054163784000000006,-0.14696659,9.758557000000001,0.00027751276502385736,-0.000313413969706744,-0.000266310409642756,-5.870119094848633,22.48849105834961,-37.30043411254883,0.1350467950105667,0.18664436042308807,0.05674839019775391,985.4642944335938,0,13.0,1,1
11.52,0.05418539,-0.16365002,9.760927,-0.00012216897448524833,0.001284515135921538,-0.0002663995837792754,-6.305648326873778,22.60730361938477,-37.00931930541992,0.1145799160003662,0.1902492344379425,0.052041053771972656,985.472412109375,0,13.0,1,1
11.56,0.06137666,-0.13981785,9.751461,1.078099012374878e-05,-0.0004465043602976948,-1.726439222693443e-07,-5.604133129119873,22.105510711669922,-37.47298049926758,0.12833264470100406,0.17506800591945648,0.052051544189453125,985.4822387695312,0,13.0,1,1
11.6,0.066178024,-0.14458491,9.763297999999999,1.057301415130496e-05,8.616113336756825e-05,-0.0001334197586402297,-5.440135002136231,21.99549102783203,-37.183876037597656,0.1180824339389801,0.17866744101047516,0.028394699096679688,985.4442138671876,0,13.0,1,1
11.64,0.05664003,-0.14935203,9.753832000000001,-0.00038910872535780067,-0.0007127528078854084,-3.509921953082085e-07,-5.720223426818848,22.83942413330078,-37.11310958862305,0.1226377785205841,0.1777569204568863,0.056805610656738274,985.4400634765624,0,13.0,1,1
11.68,0.061441362,-0.13981939999999998,9.760935,0.00040963088395074015,-0.00018008719780482352,0.00026587583124637604,-5.668729782104492,23.09797286987305,-36.520301818847656,0.1174510419368744,0.162773460149765,0.0520782470703125,985.46044921875,0,13.0,1,1
11.72,0.04951346,-0.1493531,9.751469,0.0012083705514669418,-0.000712685170583427,-5.292240530252457e-07,-5.323310852050781,22.63177490234375,-37.3930778503418,0.1120806485414505,0.17161452770233154,0.05682373046875,985.4396362304688,0,13.0,1,1
11.76,0.05670473,-0.14220376,9.772775,0.00014289910905063152,0.001284717582166195,-0.00040009221993386745,-5.8806352615356445,22.58409881591797,-37.4583740234375,0.12492094933986665,0.16582795977592468,0.033181190490722656,985.4755249023438,0,13.0,1,1
11.8,0.047166705,-0.14697085,9.753839,-0.00025678268866613507,0.000752119696699083,-7.07455910742283e-07,-5.608401298522949,22.73323059082031,-36.81619262695313,0.1334632933139801,0.1744047999382019,0.04266834259033203,985.4608154296876,0,13.0,1,1
11.84,0.056747884000000005,-0.1445881,9.753841,-0.00025678268866613507,0.000752119696699083,-7.07455910742283e-07,-5.883136749267577,22.212860107421875,-37.20531463623047,0.1285584568977356,0.17334437370300293,0.056874275207519524,985.4608154296876,0,13.0,1,1
11.88,0.063939154,-0.16365482,9.760944,-0.0005233064875937998,-0.0007125838892534375,-7.96513631939888e-07,-5.712071418762207,22.478496551513672,-37.40118408203125,0.1132756769657135,0.1912570893764496,0.05689239501953125,985.4585571289062,0,13.0,1,1
11.92,0.044841528,-0.15412225,9.770414,0.00014227518113330007,0.0006190291605889798,-0.000267201685346663,-5.902784824371338,22.29962921142578,-36.8994255065918,0.14583821594715118,0.18533489108085632,0.04270553588867188,985.4585571289062,0,13.0,1,1
11.96,0.0520328,-0.14458968,9.756214,-0.0010005880612879992,-0.0003857170522678644,0.00022144732065498834,-5.5806002616882315,22.285533905029297,-37.410152435302734,0.13555781543254852,0.17983570694923398,0.052186012268066406,985.4559936523438,0,13.0,1,1
12.0,0.052054405,-0.14935674,9.763319000000001,0.0004639413673430682,0.0006795802619308232,-0.0003112733829766512,-5.707643508911133,22.376998901367188,-36.934024810791016,0.12495076656341553,0.1740206778049469,0.05220508575439453,985.4437255859376,0,13.0,1,1
12.04,0.049686074000000004,-0.16604017,9.751484,0.00019741745200008157,0.0004132981412112713,-4.50467923656106e-05,-5.740170478820801,22.29405975341797,-37.23209762573242,0.12377582490444185,0.18730652332305908,0.061695098876953125,985.4744262695312,0,13.0,1,1
12.08,0.054487437,-0.1541244,9.758588,-0.0007348959916271268,0.0009459636639803648,0.00048749585403129464,-6.128089904785156,22.404624938964844,-36.716880798339844,0.12317593395709993,0.16712841391563416,0.05697059631347656,985.4822387695312,0,13.0,1,1
12.12,0.05689892,-0.14697503,9.749121,0.00019700161647051573,0.0004133657203055918,-0.00017838296480476856,-6.30219841003418,22.13603973388672,-36.366397857666016,0.10856957733631134,0.16159969568252566,0.061709403991699226,985.4622192382812,0,13.0,1,1
12.16,0.060857385,-0.1493382,9.75378,0.00046310946345329285,-0.0009181799832731484,-0.00044478802010416985,-5.78237247467041,22.570556640625,-37.1647834777832,0.10314145684242247,0.1747020184993744,0.05698585510253906,985.4473266601562,0,13.0,1,1
12.2,0.0480361,-0.15408333,9.760800999999999,-0.0002028882154263556,0.00014711728726979342,-0.0003117193700745702,-5.8435420989990225,22.67146301269531,-37.39221954345703,0.11406929790973665,0.17397823929786682,0.04294490814208984,985.4496459960938,0,13.0,1,1
12.24,0.04799038,-0.14216585,9.756063000000001,-0.00019704719306901097,-0.0006496107671409844,-0.0003050478408113122,-6.021535873413086,22.13607788085937,-37.41044616699219,0.12328098714351655,0.15404358506202698,0.04769325256347656,985.4703369140624,0,13.0,1,1
12.28,0.050334603,-0.15646441,9.774997,0.00034392642555758357,-0.0006509650265797973,9.800086263567208e-05,-6.395459175109862,22.89204406738281,-37.16611099243164,0.12237881124019626,0.17220889031887054,0.04298114776611328,985.4598999023438,0,13.0,1,1
12.32,0.059848547,-0.15407993,9.756055,0.00021120876772329209,0.000147911167005077,0.0003645055694505572,-6.233824729919434,22.51670837402344,-37.323020935058594,0.10279768705368042,0.1712357997894287,0.05246353149414063,985.465576171875,0,13.0,1,1
12.36,0.04785335,-0.15407892,9.763152999999999,0.0003448069910518825,-0.00038479213253594935,-0.0005674113053828478,-6.57497501373291,22.355194091796875,-37.10702896118164,0.12145745754241945,0.16071878373622894,0.03827381134033203,985.4526977539062,0,13.0,1,1
12.4,0.05258751,-0.13739474,9.765514999999999,-0.0007200164254754782,-0.0007843374041840434,-0.0003009068313986063,-5.95732307434082,22.038131713867188,-37.33762741088867,0.12104099988937378,0.16478097438812256,0.02881908416748047,985.4583129882812,0,13.0,1,1
12.44,0.040592313,-0.15169336,9.756041999999999,0.0004788455553352833,0.0005471705226227641,0.0006313875783234835,-5.953980445861816,22.67321014404297,-37.06736373901367,0.12986856698989868,0.16884104907512665,0.05724430084228516,985.44873046875,0,13.0,1,1
12.48,0.042936534000000005,-0.15169223,9.751303,-0.000452379637863487,0.00028071171254850924,-0.0005666564684361218,-6.0050697326660165,21.940452575683594,-36.86265182495117,0.12444055080413817,0.15808260440826416,0.06673049926757812,985.4337768554688,0,13.0,1,1
12.52,0.042890847,-0.15645765,9.756033,-0.00018562335753813383,1.4324381481856106e-05,0.000765111530199647,-5.889767169952393,22.57525634765625,-36.994544982910156,0.11881744861602785,0.16185124218463898,0.04781341552734375,985.4513549804688,0,13.0,1,1
12.56,0.057184577,-0.1445402,9.75603,-0.000717814895324409,0.00014741081395186484,0.0008984581800177693,-6.218337059020996,21.951316833496094,-36.59946823120117,0.10885527729988098,0.15609842538833618,0.052559852600097656,985.4266967773438,0,13.0,1,1
12.6,0.04518941,-0.15168883,9.760759,-0.00018474285025149584,0.00028049733373336494,0.000632330949883908,-5.812834739685059,22.12079620361328,-37.44171142578125,0.13657797873020172,0.16002710163593292,0.047847747802734375,985.4420776367188,0,13.0,1,1
12.64,0.05948311,-0.15168776,9.772591,0.0006146449595689774,0.00041358379530720413,0.00036620371975004673,-5.720521926879883,22.2072868347168,-37.53798294067383,0.10243289172649384,0.15457352995872498,0.02892780303955078,985.4468994140624,0,13.0,1,1
12.68,0.054657638,-0.14692004,9.763119,0.0010145592968910933,-0.0003854353853967041,-0.0004325550980865955,-6.22841739654541,22.78497695922852,-37.0316162109375,0.1114281564950943,0.14912882447242734,0.05734825134277344,985.4571533203124,0,13.0,1,1
12.72,0.05461198,-0.14930226,9.760747,0.00021605176152661443,0.0009460726287215947,-3.2892683520913124e-05,-5.639949321746826,23.020042419433594,-37.29001998901367,0.11060261726379396,0.1579727977514267,0.038430213928222656,985.4395141601562,0,13.0,1,1
12.76,0.0569562,-0.15168436,9.756008,0.0003496499266475439,0.0005465273279696703,0.000899401493370533,-6.1045570373535165,22.584651947021484,-36.654056549072266,0.10988767445087433,0.16658563911914825,0.04791545867919922,985.4301147460938,0,13.0,1,1
12.8,0.06169033,-0.14215018,9.758371,-0.00018254161113873124,0.00028013999690301716,-0.00016567332204431295,-5.8235955238342285,23.216827392578125,-37.27323532104492,0.09007027745246887,0.1420881748199463,0.04319858551025391,985.4476928710938,0,13.0,1,1
12.84,0.056864828,-0.14929886,9.770204,0.00021737255156040192,-0.00011940534750465305,-0.0005649583181366324,-5.99770450592041,22.9482421875,-36.922752380371094,0.09459181129932404,0.15097063779830933,0.04320716857910156,985.4403686523438,0,13.0,1,1
12.88,0.052039385,-0.14929776,9.755997,0.0003509707166813314,-0.00011947679740842432,0.00036733585875481367,-6.376790046691895,22.435516357421875,-37.29623794555664,0.11312347650527955,0.15955157577991486,0.062160491943359375,985.4429321289062,0,13.0,1,1
12.92,0.051993698,-0.14929663,9.74889,-4.806293873116374e-05,-0.00011954826186411084,-0.0004314231919124722,-6.0478153228759775,22.585247039794922,-36.8937873840332,0.1077459305524826,0.1489148885011673,0.05744075775146485,985.4557495117188,0,13.0,1,1
12.96,0.044778287,-0.13499583,9.753621,-0.0013792021200060847,0.0008124858140945435,-0.0006975503638386726,-6.3971195220947275,22.784652709960934,-36.38972473144531,0.10687419772148132,0.14308863878250122,0.05272483825683594,985.4454345703124,0,13.0,1,1
13.0,0.061461985,-0.14452781,9.763084,0.0002191333915106952,-0.00011969120532739908,0.0006342176930047573,-6.161159992218018,22.689971923828125,-37.1134033203125,0.1017293930053711,0.15662334859371185,0.04800224304199219,985.4556884765624,0,13.0,1,1
13.04,0.04707685,-0.14452668,9.758347,-4.674232332035899e-05,-0.0006523943739011884,-3.1383358873426914e-05,-5.745821952819824,23.02621459960937,-37.19708251953125,0.10626533627510072,0.1560085564851761,0.062213897705078125,985.4531860351562,0,13.0,1,1
13.08,0.05181098,-0.1445256,9.770178,0.0004863297217525542,-0.0002529920602682978,-3.119464963674545e-05,-5.689516544342041,22.28875732421875,-37.1626091003418,0.11045759916305542,0.12186317890882492,0.043290138244628906,985.43603515625,0,13.0,1,1
13.12,0.061324954,-0.14452447,9.758338,0.0003536120639182627,0.00041272616363130515,-3.100594040006399e-05,-5.789844512939452,22.66911315917969,-37.47733688354492,0.08602869510650635,0.14016224443912506,0.04803943634033203,985.4715576171876,0,13.0,1,1
13.16,0.06677163,-0.15413256,9.760985,-0.00017857947386801246,-0.0005194509867578745,0.00010234070941805841,-6.050178050994872,22.319923400878906,-37.339805603027344,0.08729653060436249,0.14881783723831174,0.04303550720214844,985.461669921875,0,13.0,1,1
13.2,0.062069118,-0.1565177,9.77046,-0.0008690284448675811,0.0005426131538115442,0.0004817693261429668,-5.9213151931762695,22.862075805664066,-37.4683723449707,0.0960412472486496,0.15751102566719055,0.028837203979492188,985.4795532226562,0,13.0,1,1
13.24,0.059756517,-0.13745345,9.777571,6.233173189684749e-05,0.00040957628516480327,-0.0005838137585669756,-6.18828010559082,22.87528991699219,-37.12006759643555,0.10465729236602783,0.12822332978248596,0.024106979370117188,985.4613647460938,0,13.0,1,1
13.28,0.059833884000000004,-0.1469884,9.761006,0.00019474443979561332,0.0008091710624285043,0.0002148146741092205,-6.176241874694824,22.781158447265625,-37.03943252563477,0.09457027912139893,0.13188989460468292,0.06671714782714844,985.447021484375,0,13.0,1,1
13.32,0.06947076,-0.1517569,9.751545,0.00019474443979561332,0.0008091710624285043,0.0002148146741092205,-5.9294681549072275,23.222999572753906,-37.1802978515625,0.08427365124225616,0.1501389592885971,0.05251598358154297,985.447021484375,0,13.0,1,1
13.36,0.06954813,-0.16367514,9.763389,-0.00047179043758660555,-0.00025597150670364505,-0.0005844522966071963,-5.912864685058594,23.133285522460934,-37.33157730102539,0.08388502895832063,0.16361255943775174,0.03830909729003906,985.4415283203124,0,13.0,1,1
13.4,0.057675958,-0.14937742,9.756293,0.0004595697391778231,0.00014362337242346254,0.0003473337274044752,-5.888245582580566,22.57673263549805,-37.07184982299805,0.0926084816455841,0.143750861287117,0.04778385162353516,985.44970703125,0,13.0,1,1
13.44,0.06492296,-0.14461274,9.751566,-0.0004732810193672776,1.0586387361399831e-05,0.00021385645959526298,-5.730740547180176,22.935028076171875,-37.27105712890625,0.09171608090400696,0.1240752562880516,0.07145977020263672,985.4346313476562,0,13.0,1,1
13.48,0.06022048,-0.15176447,9.763409,0.00031259545357897883,0.00058498524595052,-0.0005973981460556388,-5.876070022583008,22.58851623535156,-37.69029235839844,0.1006694883108139,0.13780809938907626,0.05252265930175781,985.4423828125,0,13.0,1,1
13.52,0.05790794,-0.15176637,9.753947,0.00044500810327008367,0.0005851062014698982,-6.508571095764637e-05,-5.933491230010986,22.85028839111328,-36.84992599487305,0.09572288393974304,0.13739967346191406,0.052516937255859375,985.4525756835938,0,13.0,1,1
13.56,0.07232463,-0.14938499,9.763424,0.0011100524570792911,-0.0007463521906174718,6.775290239602326e-05,-6.240455627441406,22.879108428955078,-37.11225128173828,0.07620058953762054,0.14586687088012695,0.02884197235107422,985.4398193359376,0,13.0,1,1
13.6,0.058062552999999996,-0.14462037,9.770533,4.404369974508881e-05,-0.0006130732363089919,0.00046690728049725294,-6.028709888458253,22.86676788330078,-37.29813003540039,0.0951552391052246,0.13084709644317627,0.03830432891845703,985.4532470703124,0,13.0,1,1
13.64,0.055750012,-0.15177207,9.751600999999999,-0.0008888070588000119,-0.0012787419836968186,0.000200271955691278,-6.079501152038574,22.766151428222656,-36.66853713989258,0.09973226487636566,0.1445925533771515,0.06670570373535156,985.4635009765624,0,13.0,1,1
13.68,0.07016671,-0.15177394,9.753975,0.0008415007614530622,-0.00034651538589969283,6.679468788206577e-05,-6.19923210144043,22.23284149169922,-37.00380325317383,0.0800417810678482,0.13416215777397156,0.061970710754394524,985.4437866210938,0,13.0,1,1
13.72,0.060684443,-0.14700929999999998,9.746881,-0.00022450805408880117,-0.00034639437217265373,0.00019963312661275268,-5.712912559509277,22.214645385742188,-37.92450714111328,0.08950947225093843,0.13820722699165344,0.07616615295410156,985.4434814453124,0,13.0,1,1
13.76,0.058371842,-0.13271154,9.758724,4.106253618374467e-05,-0.00034627338754944503,-0.0005996340187266469,-6.121022701263428,22.78028106689453,-37.20185852050781,0.0889146476984024,0.11862177401781082,0.04302501678466797,985.4337158203124,0,13.0,1,1
13.8,0.053669333,-0.14939637,9.753998,0.0008392648887820543,-0.0007456262828782201,0.000864784000441432,-5.999524593353272,22.31462860107422,-37.27031326293945,0.09344621002674104,0.13212886452674866,0.05248737335205078,985.4312133789062,0,13.0,1,1
13.84,0.0633063,-0.14463176,9.768207,-0.00035990180913358927,-0.0006123473285697402,-6.764102727174759e-05,-6.308011054992676,22.34197998046875,-37.4553337097168,0.08328238129615784,0.12653478980064392,0.033550262451171875,985.4110107421876,0,13.0,1,1
13.88,0.056213915,-0.15416674,9.749277000000001,-0.0006269630393944682,-0.000612226314842701,-6.796035449951887e-05,-6.283637046813965,22.785850524902344,-36.86919021606445,0.08742272853851317,0.14447006583213806,0.07142448425292969,985.44189453125,0,13.0,1,1
13.92,0.065850854,-0.13510239999999998,9.765854,0.00030439719557762146,0.0007194740464910865,0.00033119396539404983,-6.112029075622559,22.683204650878906,-36.966609954833984,0.08670628070831299,0.11028829962015152,0.03355121612548828,985.4036254882812,0,13.0,1,1
13.96,0.061148375,-0.14225413,9.768229,-0.00022972509032115343,-0.00021238949557300657,-0.0006015503313392402,-6.072977066040039,23.510093688964844,-37.2519645690918,0.08631156384944916,0.1286066174507141,0.03828144073486328,985.4325561523438,0,13.0,1,1
14.0,0.061225742,-0.14940585,9.761133000000001,-0.0003636284382082522,0.0007198370294645429,0.0008628675132058562,-5.742778301239014,23.02915954589844,-37.35168838500977,0.09023573994636536,0.146991029381752,0.05722236633300781,985.432373046875,0,13.0,1,1
14.04,0.046963662,-0.16132416,9.761141,0.0004345737979747355,0.000453642220236361,-6.955757271498443e-05,-6.10692024230957,22.319332122802734,-37.100074768066406,0.1037501096725464,0.14643588662147522,0.052491188049316406,985.4353637695312,0,13.0,1,1
14.08,0.05899048,-0.15894274,9.746945,0.0007001443882472812,0.0003206052351742983,-6.98768999427557e-05,-6.48472785949707,22.808502197265625,-37.22444534301758,0.07000085711479187,0.13134221732616425,0.061953544616699226,985.4328002929688,0,13.0,1,1
14.12,0.063233525,-0.15654634,9.761099,-0.00023270660312846303,-0.00087769515812397,6.296136416494846e-05,-6.182191848754883,22.88117980957031,-37.42928695678711,0.07423935830593109,0.12593045830726626,0.04301548004150391,985.4248046875,0,13.0,1,1
14.16,0.06743944,-0.14699920000000002,9.751577000000001,-0.0004953508614562452,-0.000212501545320265,0.0001976930070668459,-6.048656463623048,22.32140350341797,-37.41711044311523,0.07536047697067261,0.1248953491449356,0.047855377197265625,985.4435424804688,0,13.0,1,1
14.2,0.06507748,-0.1565329,9.761049,4.9321679398417466e-05,-0.0003538757446222008,5.964352749288082e-05,-6.252493381500244,22.97323989868164,-37.19288635253906,0.0796499252319336,0.12901993095874786,0.05259227752685547,985.4384765625,0,13.0,1,1
14.24,0.05315587,-0.15891685,9.768154,0.0003153686411678791,-0.0002206741919508204,5.9528276324272156e-05,-6.106483459472656,23.05738067626953,-37.3742790222168,0.07921411097049713,0.13795316219329834,0.04312515258789063,985.4330444335938,0,13.0,1,1
14.28,0.062743425,-0.14223464,9.756319,0.0001819415483623743,4.568538861349225e-05,-7.374514825642109e-05,-5.81848669052124,22.85295867919922,-37.40669631958008,0.07871367037296295,0.108535036444664,0.03839397430419922,985.4432373046876,0,13.0,1,1
14.32,0.06277132,-0.16130154,9.765791,-0.00048411730676889414,-0.0003537447482813149,0.0005919294198974968,-5.877729415893555,22.481124877929688,-36.91390609741211,0.07837463915348053,0.13613930344581604,0.04312801361083984,985.4334716796876,0,13.0,1,1
14.36,0.06518912,-0.14461936,9.761059,-0.0010170181049034,0.0005784044624306263,0.0004586561117321253,-6.000748634338379,22.945297241210934,-36.76813888549805,0.07284951210021973,0.11617134511470795,0.047867774963378906,985.4800415039062,0,13.0,1,1
14.4,0.060437202,-0.1422366,9.770531,-0.00021833938080817458,-8.734151197131722e-05,-0.0002072490751743317,-5.619758605957031,22.56498718261719,-37.49745559692383,0.07724373042583466,0.12513692677021027,0.038399696350097656,985.4136352539062,0,13.0,1,1
14.44,0.06524491,-0.14462067,9.75633,0.00044718134449794883,-0.0003536136937327683,0.0004584254929795861,-5.9092774391174325,22.76793670654297,-37.387733459472656,0.08653798699378967,0.11953715234994887,0.06207084655761719,985.4672241210938,0,13.0,1,1
14.48,0.0628829,-0.15653773,9.751598,-0.0002188774524256587,0.0007116935448721051,0.00045831030001863837,-5.5560879707336435,22.835323333740234,-37.52308654785156,0.0714477151632309,0.12354276329278945,0.057342529296875,985.4392700195312,0,13.0,1,1
14.52,0.05813104,-0.14462204,9.753967,-0.0003523045452311635,0.00031226332066580653,0.00045819493243470793,-5.962974548339844,22.77029037475586,-37.3026123046875,0.08510415256023407,0.12304804474115373,0.038410186767578125,985.4420166015624,0,13.0,1,1
14.56,0.048599333,-0.13747282,9.746868,0.0008458479424007237,-0.00048664060886949295,0.0007243955042213203,-5.681907176971436,22.296123504638672,-37.549129486083984,0.0989486128091812,0.10360982269048692,0.062085151672363274,985.4449462890624,0,13.0,1,1
14.6,0.053407073,-0.14224006,9.761074,0.00017978937830775976,4.603475099429488e-05,-7.466739043593407e-05,-6.004633903503418,22.678504943847656,-37.1368522644043,0.08398573100566864,0.12208332121372226,0.05261993408203125,985.4395141601562,0,13.0,1,1
14.64,0.07016426,-0.16130699,9.761078,4.636240191757679e-05,0.0005787102272734046,0.00045784912072122097,-5.687016010284424,22.659996032714844,-37.41566848754883,0.06915906071662903,0.13551518321037292,0.057354927062988274,985.4501342773438,0,13.0,1,1
14.68,0.05824268,-0.1517746,9.751611,-8.706469088792801e-05,0.00031243800185620785,-7.48978927731514e-05,-6.0884952545166025,22.86322784423828,-36.90378952026367,0.07778491079807281,0.12999358773231506,0.052628517150878906,985.4552612304688,0,13.0,1,1
14.72,0.07022011,-0.13985892,9.768184,-0.0007531236624345182,0.0012445873580873013,-0.0003413292579352856,-5.966019153594972,22.76734161376953,-37.14799880981445,0.07241998612880708,0.10535694658756256,0.028960227966308594,985.4581909179688,0,13.0,1,1
14.76,0.072637916,-0.15177591,9.76582,-0.0007531236624345182,0.0012445873580873013,-0.0003413292579352856,-6.142192363739014,22.86557388305664,-36.81866836547852,0.06267654895782471,0.12373128533363342,0.03842544555664063,985.4581909179688,0,13.0,1,1
14.8,0.06310624,-0.14939333,9.763454,-0.0002207604120485485,-0.000486422301037237,-7.512862794101238e-05,-5.805905342102051,22.390533447265625,-37.22761154174805,0.0812268853187561,0.12323395907878874,0.057368278503417976,985.4404296875,0,13.0,1,1
14.84,0.058354348,-0.14939405,9.751621,0.0004447601968422532,-0.0002200627495767549,0.0005905458237975836,-6.011020183563232,22.040477752685547,-37.25250244140625,0.08113735914230348,0.10353074967861177,0.05736351013183594,985.4404296875,0,13.0,1,1
14.88,0.055992365,-0.15177806,9.758725,4.501722287386656e-05,0.0001794547715689987,0.000324114691466093,-6.166268348693848,23.05384063720703,-36.979942321777344,0.08060015738010406,0.12661351263523102,0.0478973388671875,985.4585571289062,0,13.0,1,1
14.92,0.05602026,-0.14701207,9.763463,4.474807064980269e-05,-0.0004862913046963513,5.7683442719280727e-05,-6.632259845733643,22.72289276123047,-36.96575164794922,0.07035960257053375,0.10722194612026216,0.03843212127685547,985.461669921875,0,13.0,1,1
14.96,0.056048185,-0.14224626,9.770567,0.00031079509062692523,0.00044585799332708115,0.00032388407271355385,-6.1491217613220215,22.59583282470703,-37.03276443481445,0.083454430103302,0.11156909167766572,0.03844547271728516,985.4491577148438,0,13.0,1,1
15.0,0.05607605,-0.13748042,9.775303,0.0006957086734473705,0.0009148475364781916,-0.00019692629575729367,-6.425761222839356,22.96850204467773,-36.31908798217773,0.0830463171005249,0.09661513566970824,0.04318046569824219,985.43896484375,0,13.0,1,1
15.04,0.053714067000000004,-0.1493975,9.765837,-0.00010350815136916935,0.0005154174868948758,-6.388360634446144e-05,-5.948030471801758,22.57318878173828,-36.67750930786133,0.0733209103345871,0.11501848697662355,0.05264568328857422,985.4696044921876,0,13.0,1,1
15.08,0.058521807,-0.14701487,9.7516365,-0.00023693518596701324,0.0005154611426405609,-0.0008629465010017158,-5.821531295776367,22.85000991821289,-37.2520866394043,0.08254130184650421,0.1141810268163681,0.05264568328857422,985.4065551757812,0,13.0,1,1
15.12,0.05357954,-0.14701085,9.756355000000001,0.0002954275405500084,-0.0008160746656358242,0.00020220165606588125,-5.656010627746582,22.741470336914066,-37.0402946472168,0.08197017014026642,0.10411765426397324,0.04319858551025391,985.444091796875,0,13.0,1,1
15.16,0.055989742,-0.14939470000000002,9.763459,-0.0005037890514358878,-0.00015024126332718882,0.0002020864048972726,-5.928382873535156,22.48641967773437,-36.983394622802734,0.07161037623882294,0.11339159309864046,0.04794120788574219,985.4447631835938,0,13.0,1,1
15.2,0.06317973,-0.15177847,9.761092999999999,-0.00023397878976538775,0.00011257400910835713,0.00020028755534440282,-5.947892665863037,22.67910385131836,-37.37658309936523,0.06643602252006531,0.12183456122875215,0.03373527526855469,985.4657592773438,0,13.0,1,1
15.24,0.06081015,-0.14939566,9.761097,-0.00023397878976538775,0.00011257400910835713,0.00020028755534440282,-5.947892665863037,22.67910385131836,-37.37658309936523,0.07087820768356322,0.10248367488384247,0.05267333984375,985.4657592773438,0,13.0,1,1
15.28,0.060830414000000006,-0.14462961,9.765833,0.00016529939603060484,-0.0002868680167011917,0.0004665195301640778,-5.704599380493164,22.37994384765625,-37.0886344909668,0.07052241265773773,0.10176804661750792,0.04794025421142578,985.4631958007812,0,13.0,1,1
15.32,0.06324065,-0.16131298,9.753998,-0.00010121206287294626,0.0007784272311255336,0.0008659095037728548,-5.442200183868408,22.36231231689453,-37.205020904541016,0.07011565566062927,0.12009650468826295,0.04794120788574219,985.4483032226562,0,13.0,1,1
15.36,0.060871005,-0.15654702,9.756367,-0.0003677236963994801,-2.0488572772592306e-05,0.00046635183389298623,-5.161430835723877,21.25600814819336,-37.87641143798828,0.07433296740055084,0.11451718956232072,0.047943115234375,985.4326171875,0,13.0,1,1
15.4,0.056111515,-0.15654749999999998,9.751635,-0.0006342352135106921,-2.0456849597394463e-05,0.00033311004517599935,-5.75318717956543,22.01842498779297,-37.1369743347168,0.07901626825332643,0.11398901045322417,0.06214237213134765,985.4561157226562,0,13.0,1,1
15.44,0.058521748,-0.15893127,9.754004,-0.00036831048782914877,-0.0005530250491574408,0.0008655741112306714,-6.524566650390625,23.350326538085934,-36.711124420166016,0.06455361843109131,0.10363566875457764,0.062138557434082024,985.448486328125,0,13.0,1,1
15.48,0.04898241,-0.15178193,9.756372,0.00016412546392530206,-0.0010856251465156674,-0.00019977317424491048,-6.564566135406494,23.365936279296875,-37.32174301147461,0.07393835484981537,0.10320953279733658,0.05266761779785156,985.4386596679688,0,13.0,1,1
15.52,0.060952216,-0.13748272,9.76821,0.0008297195890918374,-0.0005529615445993841,-0.00019985699327662587,-6.1520280838012695,22.69880676269531,-37.57723617553711,0.06457430124282837,0.08851037919521333,0.03372383117675781,985.4439697265624,0,13.0,1,1
15.56,0.07053214,-0.1422499,9.746907,-0.00023573951330035922,-0.00108556158374995,0.0003326907171867788,-6.261625289916992,22.96440124511719,-36.72906112670898,0.05940760672092438,0.09258638322353364,0.07159900665283203,985.4517822265624,0,13.0,1,1
15.6,0.053823113,-0.15416674,9.758744,-0.0007685670861974359,-0.00041974009945988655,-0.0002000248641707003,-6.280592918395996,22.788799285888672,-37.02379989624024,0.07368123531341553,0.10150296986103058,0.06686210632324219,985.4569702148438,0,13.0,1,1
15.64,0.06579292,-0.14940067,9.763481,0.0005628167418763041,-2.023452543653548e-05,0.000332523079123348,-5.865691184997559,22.38698959350586,-36.83327102661133,0.06360451877117157,0.10111200064420699,0.04319190979003906,985.426513671875,0,13.0,1,1
15.68,0.06581324,-0.14463459,9.749279,0.0008289370452985168,0.0006455869879573584,0.00019928131951019168,-6.3654327392578125,22.60375595092773,-36.61497497558594,0.057888776063919074,0.10064445436000824,0.05266761779785156,985.4496459960938,0,13.0,1,1
15.72,0.061053723,-0.14701833,9.758751,-0.00023652223171666265,0.00011298699246253818,0.00019919750047847626,-6.188822746276856,23.24357604980469,-37.2185173034668,0.07203604280948639,0.11430297791957855,0.057399749755859375,985.4547119140624,0,13.0,1,1
15.76,0.04912448,-0.14940219,9.749284,-0.0006361916894093156,0.0002461766707710922,-6.720231613144279e-05,-5.785714626312256,21.93547821044922,-37.4350471496582,0.07159571349620819,0.10878720879554747,0.057399749755859375,985.4906616210938,0,13.0,1,1
15.8,0.058704436,-0.14463611,9.761122,-0.000370071385987103,-0.00015326539869420233,-0.00020044395932927728,-5.928925037384032,22.854705810546875,-37.081844329833984,0.07124868035316467,0.09348997473716736,0.04319381713867188,985.4630737304688,0,13.0,1,1
15.84,0.056334823,-0.14940311,9.775327,-0.0009028987260535359,-0.0012184971710667016,-0.0006000016001053153,-5.589594841003418,22.382614135742188,-37.6453971862793,0.062006086111068726,0.0973435714840889,0.0242462158203125,985.4656982421876,0,13.0,1,1
15.88,0.058744997,-0.1303374,9.761125999999999,2.901104744523764e-05,-0.0008189916843548418,0.0001988621079362929,-5.922837257385254,22.860599517822266,-37.39106369018555,0.06635862588882446,0.0731295496225357,0.04318523406982422,985.4530029296876,0,13.0,1,1
15.92,0.065935016,-0.15655388,9.768229,-0.00023750041145831347,0.0001131457247538492,0.0005982520524412394,-5.8125367164611825,22.752933502197266,-37.01684188842773,0.061088904738426215,0.11076316237449646,0.0384521484375,985.4785766601562,0,13.0,1,1
15.96,0.05639571,-0.15655454,9.765863000000001,0.00016177777433767915,0.000512651342432946,0.00019869446987286207,-6.1195006370544425,22.781753540039066,-37.2791633605957,0.07482205331325531,0.09580937027931212,0.04792404174804688,985.4765014648438,0,13.0,1,1
16.0,0.06597561,-0.13987206,9.754029,-0.00037104974035173655,-1.9948667613789443e-05,-6.770534673705697e-05,-6.2836360931396475,22.785850524902344,-36.86919021606445,0.06499046087265015,0.09517043828964232,0.06686019897460938,985.4667358398438,0,13.0,1,1
16.04,0.05643630000000001,-0.15893872,9.761133000000001,-0.00023808743571862578,0.00011324101069476455,-0.000733578868675977,-5.791367530822754,22.66764068603516,-37.4000358581543,0.06458961963653563,0.09928040206432344,0.05739021301269531,985.4842529296876,0,13.0,1,1
16.08,0.06375152,-0.15179242,9.765881,0.0006938225706107914,-1.9885148503817615e-05,0.0003316007205285132,-5.929766654968263,22.590862274169922,-37.605167388916016,0.07361412048339844,0.09895149618387222,0.03845500946044922,985.4515991210938,0,13.0,1,1
16.12,0.061514735,-0.158946,9.751691000000001,-0.0006382541032508017,0.00024651148123666644,6.507179932668805e-05,-5.745279312133789,22.65792465209961,-37.098628997802734,0.06829068064689636,0.10781049728393556,0.04789924621582031,985.4721069335938,0,13.0,1,1
16.16,0.06632495,-0.16371335,9.780101,0.00016026219236664474,0.00011077367526013403,6.190885324031115e-05,-6.163660526275635,22.318729400634766,-36.86034393310547,0.058592841029167175,0.11176560819149016,0.019486427307128903,985.4697265625,0,13.0,1,1
16.2,0.06157565,-0.15894754,9.756432,0.0002931267081294209,-0.0010876001324504614,-0.0004708487540483475,-6.140670776367188,22.86705017089844,-36.89596939086914,0.06279921531677246,0.0971650779247284,0.04789447784423828,985.4822387695312,0,13.0,1,1
16.24,0.06399602,-0.14703189,9.761168,0.00029283305048011243,0.00011086893209721892,-0.0003378167748451233,-6.032732963562013,22.494060516357425,-36.9677619934082,0.05781907588243485,0.09695716202259064,0.04789352416992188,985.489990234375,0,13.0,1,1
16.28,0.054466814,-0.13034971,9.763538,0.00029283305048011243,0.00011086893209721892,-0.0003378167748451233,-5.901261806488037,22.301097869873047,-36.97673416137695,0.061804547905921936,0.0680869072675705,0.04789829254150391,985.489990234375,0,13.0,1,1
16.32,0.05688721,-0.1494167,9.770643,0.001091487123630941,0.0009098642040044068,-0.0006042581517249347,-6.032732963562013,22.494064331054688,-36.9677619934082,0.056683339178562164,0.0961897224187851,0.03842735290527344,985.4850463867188,0,13.0,1,1
16.36,0.05452776,-0.14941742,9.761177,0.0001590881438460201,0.0006435959949158133,0.00019456358859315515,-5.99952507019043,22.31463623046875,-37.27031707763672,0.07048328220844269,0.08632078766822815,0.06210136413574219,985.4671630859376,0,13.0,1,1
16.4,0.054558218,-0.14703484,9.758813,-0.000373837276129052,-0.00042161988676525647,-0.00033819407690316433,-5.674978256225586,22.56586456298828,-37.33502578735352,0.07537639886140822,0.08543623983860016,0.04788875579833984,985.4546508789062,0,13.0,1,1
16.44,0.061758400000000005,-0.15895207,9.735142999999999,0.00015850100317038596,-0.0009542039479129015,-7.200392428785563e-05,-6.000067710876465,22.68292236328125,-37.36877059936523,0.05564070492982864,0.09417886286973952,0.06682682037353516,985.4802856445312,0,13.0,1,1
16.48,0.05939892,-0.1565695,9.768286999999999,-0.0007738979766145349,0.0002442651311866939,-0.0004716035909950733,-6.239912986755371,22.510818481445312,-37.0138053894043,0.05011603236198425,0.09832528233528136,0.01948451995849609,985.4956665039062,0,13.0,1,1
16.52,0.06659907,-0.13988729,9.756454,-0.00021535891573876145,0.00111680431291461,-0.0005014385678805411,-6.192303657531737,22.50257873535156,-36.78970336914063,0.04908318817615509,0.09292831271886826,0.05263042449951172,985.4725341796876,0,13.0,1,1
16.56,0.057069957000000004,-0.15180446,9.758823,-0.00034881039755418897,0.0011168519267812373,-0.0002352485316805541,-5.956343650817871,22.40789031982422,-37.51338577270508,0.06297565996646881,0.08799829334020615,0.04789924621582031,985.5017700195312,0,13.0,1,1
16.6,0.057100385,-0.14227213,9.763561,-8.278805762529373e-05,0.0005842678365297617,0.00029725750209763646,-6.259965419769287,23.071792602539066,-37.50544357299805,0.053039148449897766,0.08279287815093994,0.052631378173828125,985.507080078125,0,13.0,1,1
16.64,0.052350997999999996,-0.135123,9.751728,0.0005827081622555853,-8.147426706273109e-05,0.00016397377476096153,-5.5558433532714835,21.83489227294922,-37.84950637817383,0.08118236064910889,0.0681377649307251,0.05736732482910156,985.5068359375,0,13.0,1,1
16.68,0.052381486,-0.13750704,9.758833000000001,0.0007155726198107004,0.00045120518188923603,-0.00036878377432003617,-6.090858459472656,22.597904205322266,-37.34980392456055,0.06640541553497313,0.06741498410701753,0.04316139221191406,985.4689331054688,0,13.0,1,1
16.72,0.052411914000000004,-0.15180744,9.761202,-0.0006163003272376955,-8.137896656990051e-05,-0.00023575167870149014,-6.396843910217285,22.996490478515625,-37.78788375854492,0.061054609715938575,0.09065338969230652,0.03842735290527344,985.47900390625,0,13.0,1,1
16.76,0.050052464000000005,-0.15895797,9.777775,-0.0003502779291011393,0.00045130046783015127,0.00016359641449525952,-5.835389137268066,22.310531616210934,-37.68029403686523,0.06990097463130951,0.0997691974043846,0.04316425323486328,985.47998046875,0,13.0,1,1
16.8,0.054862738,-0.13035940000000001,9.791982,-0.0003505713539198041,0.00045134808169677854,0.0006961023900657892,-6.198391437530518,22.49668884277344,-36.4804801940918,0.06920608878135681,0.07066640257835388,0.03843212127685547,985.4599609375,0,13.0,1,1
16.84,0.057283102999999995,-0.15180970000000002,9.768312,0.0009807144524529576,0.0008508695755153893,-0.00010297104017809032,-5.916749477386475,22.866493225097656,-37.70028305053711,0.06875316053628923,0.09432931244373323,0.0431671142578125,985.4847412109376,0,13.0,1,1
16.88,0.052533746,-0.13036092,9.751745,0.00018117984291166067,0.00045149109791964287,0.0001630932092666626,-6.2690978050231925,23.062957763671875,-37.0416145324707,0.06826312094926834,0.07936666160821915,0.052634239196777344,985.4671630859376,0,13.0,1,1
16.92,0.04539448,-0.13512821,9.761216000000001,-0.0011506930459290745,0.00045153871178627014,0.00042928333277814085,-6.046293258666992,22.58672332763672,-36.97109603881836,0.06801451742649077,0.06912384182214737,0.04789543151855469,985.4800415039062,0,13.0,1,1
16.96,0.052594602000000004,-0.15181191,9.765953,-0.0008846708224155008,-0.0004805192002095282,0.0001628416357561946,-6.13458251953125,22.87294006347656,-37.2051887512207,0.05755937099456788,0.09244921058416368,0.04789924621582031,985.4521484375,0,13.0,1,1
17.0,0.04067561,-0.15181269,9.747017999999999,0.0003134571597911417,0.0007179498206824063,2.955779200419784e-05,-5.819465637207031,22.483192443847656,-37.23093795776367,0.06674302369356155,0.07760395109653473,0.06683540344238281,985.45263671875,0,13.0,1,1
17.04,0.055045425999999995,-0.14943011,9.758858,0.00018000573618337512,0.00018536574498284608,-0.0002368837012909353,-6.3055100440979,22.713218688964844,-37.708396911621094,0.05197807401418686,0.0820922926068306,0.0478973388671875,985.488037109375,0,13.0,1,1
17.08,0.042856038,-0.13512458,9.756468,0.00044602813431993127,-0.00021406041923910382,0.000428780127549544,-6.4410033226013175,22.533470153808594,-37.36906051635742,0.06594709306955338,0.0626719668507576,0.04789638519287109,985.4607543945312,0,13.0,1,1
17.12,0.056939422999999996,-0.15180124,9.763546,0.00031721335835754866,-0.00048463867278769607,-0.0009040906443260609,-6.4602155685424805,23.35829162597656,-37.337379455566406,0.06144192069768905,0.09096136689186096,0.04321002960205078,985.4608154296876,0,13.0,1,1
17.16,0.056948304000000005,-0.16371779,9.775383,-7.981207454577087e-05,0.001246016938239336,-0.0006367253954522313,-6.394480228424072,23.26181030273437,-37.34186172485352,0.06062231212854385,0.1095610409975052,0.04321575164794922,985.4761352539062,0,13.0,1,1
17.2,0.035448073999999996,-0.15656818,9.768282000000001,0.000719049945473671,4.76094865007326e-05,-0.0007699202396906912,-6.345348834991455,23.25504302978516,-37.195072174072266,0.06948232650756836,0.08500383049249649,0.03374958038330078,985.518798828125,0,13.0,1,1
17.24,0.056966065999999996,-0.15418519,9.739875999999999,-0.00021314126206561923,0.00031393923563882714,0.0005616226699203253,-6.139148712158202,22.86852264404297,-36.9732780456543,0.05971372872591019,0.07521235942840576,0.06215572357177735,985.491943359375,0,13.0,1,1
17.28,0.049805224,-0.14465229,9.758816,-0.00021322688553482291,0.0007134269690141082,0.0004284279712010175,-5.637341499328612,22.284934997558594,-37.1704216003418,0.05905862897634506,0.08434398472309113,0.0526885986328125,985.491943359375,0,13.0,1,1
17.32,0.05459392,-0.13511945,9.754082,0.000319319311529398,0.0004471250576898456,-0.000237398489844054,-5.870119094848633,22.488487243652344,-37.30043029785156,0.05381535738706589,0.06993312388658524,0.06216239929199219,985.4689331054688,0,13.0,1,1
17.36,0.05460283,-0.16133569,9.761183,-0.0002133981324732304,0.0009797706734389069,0.00042835460044443613,-6.316844463348389,22.96527862548828,-36.56663131713867,0.05786793678998948,0.08831740915775299,0.04796314239501953,985.4817504882812,0,13.0,1,1
17.4,0.04744202,-0.14941944,9.754083999999999,5.283218342810869e-05,4.767900099977851e-05,-0.00010431389091536404,-5.992595672607423,22.58437347412109,-37.05621719360352,0.0669555515050888,0.07333824038505554,0.057430267333984375,985.504638671875,0,13.0,1,1
17.44,0.061790287,-0.14226986,9.765921,-0.0007462010253220798,0.0003140087937936187,-0.0005038243834860623,-6.10898494720459,22.68614959716797,-37.12121963500977,0.05249188095331192,0.07739061117172241,0.04322242736816406,985.4872436523438,0,13.0,1,1
17.48,0.04984969,-0.13512026,9.744616,0.00018581881886348128,-0.00048492499627172947,-0.00023754517314955592,-6.2696404457092285,23.43124771118164,-37.14006423950195,0.04758906364440918,0.0533922016620636,0.043221473693847656,985.4955444335938,0,13.0,1,1
17.52,0.04985857,-0.14227034,9.770655999999999,0.0001857331953942776,-8.543723379261792e-05,0.00016189197776839137,-6.313800811767577,22.968223571777344,-36.72124099731445,0.047597043216228485,0.07231812179088593,0.0006103515625,985.5333251953124,0,13.0,1,1
17.56,0.059427053,-0.1613368,9.7588215,0.00045196345308795566,-0.0014170027570798993,-0.0002376185148023069,-6.168769836425781,22.682605743408203,-36.72687911987305,0.04739254713058472,0.08116669207811356,0.03848075866699219,985.4827880859376,0,13.0,1,1
17.6,0.057045995999999995,-0.13988753,9.754087,-0.00034706981386989355,0.00018090639787260446,0.0002949764602817595,-5.831503868103027,22.57732391357422,-37.31158065795898,0.051588274538517,0.0713767483830452,0.06215763092041016,985.4955444335938,0,13.0,1,1
17.64,0.057054907,-0.14703746,9.768291,0.00018547638319432733,-8.539552800357343e-05,-0.00037084979703649884,-5.972649574279785,23.129741668701172,-36.93723678588867,0.05640701949596405,0.09001736342906952,0.03847980499267578,985.483154296875,0,13.0,1,1
17.68,0.04989409400000001,-0.15418755,9.754088000000001,0.00018547638319432733,-8.539552800357343e-05,-0.00037084979703649884,-6.030369758605957,22.759380340576172,-36.52174377441406,0.06535815447568892,0.08971340209245683,0.06215667724609375,985.483154296875,0,13.0,1,1
17.72,0.05707267,-0.14942123,9.7801285,0.00045170658268034464,-8.538163092453034e-05,-0.00010457070311531425,-6.089612007141112,22.38754653930664,-36.028953552246094,0.059917829930782325,0.07537289708852768,0.02428722381591797,985.4806518554688,0,13.0,1,1
17.76,0.05947143,-0.15180476,9.761192,0.0009842527797445657,0.0013793696416541936,-0.00023776531452313066,-5.872322082519531,22.7493896484375,-36.622501373291016,0.04546623677015305,0.08910271525382996,0.06215858459472656,985.5160522460938,0,13.0,1,1
17.8,0.06665003,-0.13273875,9.754091,5.20615722052753e-05,-0.0003516697324812412,0.0005611455417238176,-6.041865348815918,22.48522186279297,-36.5039291381836,0.0354270413517952,0.05508444458246231,0.052689552307128906,985.5088500976562,0,13.0,1,1
17.84,0.054709435,-0.15895502,9.775396,-0.000613813754171133,4.781798634212464e-05,0.0001616350491531193,-6.582286834716798,22.979965209960934,-36.29563522338867,0.04496990889310837,0.07894893735647203,0.0526885986328125,985.45849609375,0,13.0,1,1
17.88,0.057108223,-0.14703877,9.775397,0.0005845220293849707,0.0003141476772725582,2.844043774530292e-05,-5.819465637207031,22.483192443847656,-37.2309455871582,0.03013639152050018,0.06437917053699492,0.01955127716064453,985.4841918945312,0,13.0,1,1
17.92,0.06189686,-0.15418886,9.761196,0.000584436405915767,-0.0002184700861107558,0.0004278775013517589,-5.745279312133789,22.657928466796875,-37.098628997802734,0.03973214328289032,0.06899318099021913,0.04321956634521485,985.5165405273438,0,13.0,1,1
17.96,0.05234617,-0.15418907,9.742258,0.0003180349012836814,-0.00021845618903171268,0.0008273146813735366,-6.1416497230529785,22.497283935546875,-36.72021484375,0.04439125210046768,0.07778964191675186,0.07635688781738281,985.5096435546876,0,13.0,1,1
18.0,0.06430459,-0.15895586,9.758828999999999,-8.152448572218418e-05,-0.00048475817311555147,2.8330308850854632e-05,-5.9499573707580575,23.045917510986328,-37.39773178100586,0.039065830409526825,0.08154169470071793,0.05268096923828125,985.4739379882812,0,13.0,1,1
18.04,0.057143748,-0.14942302,9.751729,-0.0012301398674026134,0.0007534230244345963,0.0005430660676211119,-6.5025553703308105,23.52887725830078,-36.57099533081055,0.04863908886909485,0.07165001332759857,0.052677154541015625,985.4769897460938,0,13.0,1,1
18.08,0.058208168,-0.14468254,9.758928,0.0001013539731502533,-0.0009776164079084992,0.00014355563325807452,-5.9041690826416025,22.404067993164066,-37.52119827270508,0.0518910214304924,0.06675416976213455,0.05258369445800781,985.5076904296876,0,13.0,1,1
18.12,0.065428555,-0.14706708,9.763666,0.0007670580525882543,0.00022081896895542738,-0.0009217445622198284,-6.430487632751465,22.437862396240234,-37.21111679077149,0.051490023732185364,0.08060602843761444,0.04311180114746094,985.4923706054688,0,13.0,1,1
18.16,0.067869246,-0.15421815,9.75657,-0.0004375204152893275,0.0007514026947319508,-0.0005299685872159898,-6.400461196899414,22.14957427978516,-36.65998458862305,0.04625609517097473,0.08504015952348709,0.062047004699707024,985.4877319335938,0,13.0,1,1
18.2,0.060750245999999994,-0.14468627,9.756575,0.0006272543687373401,-4.746552440337837e-05,0.0009345593280158936,-6.148578643798827,22.22754669189453,-36.93431854248047,0.0365387499332428,0.07507495582103729,0.052570343017578125,985.4974975585938,0,13.0,1,1
18.24,0.05841106,-0.15183736,9.7873535,-0.000438498129369691,0.0002189296938013285,2.244196366518736e-06,-6.279070854187013,22.790271759033203,-37.10110473632813,0.04553100466728209,0.0791621208190918,0.0715036392211914,985.51318359375,0,13.0,1,1
18.28,0.048902184,-0.14945532,9.758951,-0.00017267142538912594,-0.0005799385253340006,2.0345323719084263e-06,-6.480842590332031,23.075298309326172,-36.85573959350586,0.05493322014808655,0.07407787442207336,0.04782581329345703,985.5029296875,0,13.0,1,1
18.32,0.053732753,-0.14707328,9.768425,-4.0002312744036324e-05,0.0010180360404774547,-0.000397648720536381,-6.3442630767822275,22.518463134765625,-36.9981689453125,0.04490093141794205,0.0642009899020195,0.04782295227050781,985.4834594726562,0,13.0,1,1
18.36,0.05617338400000001,-0.13754143,9.763695,-4.098020144738257e-05,0.00021924727479927242,0.0001345639466308057,-6.014606952667236,22.40582275390625,-37.19634246826172,0.04951263219118118,0.044673435389995575,0.05254936218261719,985.5064697265624,0,13.0,1,1
18.4,0.06578368,-0.1446925,9.754230499999998,-4.1469145799055696e-05,-4.6989269321784384e-05,-0.0001319614821113646,-5.932267665863037,22.219623565673828,-37.35210800170898,0.04445232450962066,0.05847758799791336,0.06201362609863281,985.5115966796876,0,13.0,1,1
18.44,0.061054617,-0.14707704,9.751868,-0.000441431679064408,-4.6909961383789785e-05,9.8691089078784e-07,-5.747642517089844,22.392601013183594,-37.54465103149414,0.044158607721328735,0.06732761859893799,0.057270050048828125,985.4864501953124,0,13.0,1,1
18.48,0.07544476,-0.14231174,9.763708,-0.00030876285745762283,0.0014179068384692073,-0.0002655385178513825,-6.172654628753662,22.415809631347656,-37.0955924987793,0.024351708590984344,0.05752600729465485,0.04306697845458984,985.5146484375,0,13.0,1,1
18.52,0.05398637,-0.1494628,9.773182,-0.00030925191822461784,8.64067696966231e-05,-0.00013259024126455188,-6.292630672454834,22.882930755615234,-37.104434967041016,0.04768342524766922,0.07621912658214569,0.033596038818359375,985.4864501953124,0,13.0,1,1
18.56,0.06837654,-0.14946403,9.763717999999999,0.0006223649252206088,0.0007522758096456528,0.0010656218510121107,-5.966156005859375,22.66143035888672,-36.44892501831055,0.042720839381217963,0.07596411556005478,0.057261466979980476,985.5173950195312,0,13.0,1,1
18.6,0.06603736,-0.1566151,9.749519,8.924418943934143e-05,-0.00044606628944166005,0.00026646460173651576,-6.17181396484375,22.679656982421875,-36.57226943969727,0.03752375394105911,0.08025483042001724,0.033585548400878906,985.5172119140624,0,13.0,1,1
18.64,0.058918357000000005,-0.14469998,9.76136,-0.0008433505427092314,0.0006192766595631838,0.0005325708189047873,-5.652423858642577,22.376121520996094,-37.09645080566406,0.032527439296245575,0.055879928171634674,0.03831386566162109,985.50732421875,0,13.0,1,1
18.68,0.06135899,-0.15185107,9.773201,-0.0003112076374236495,-0.0003127495292574167,0.00039920344715937967,-5.87827205657959,22.84941482543945,-37.01235961914063,0.04189503937959671,0.06479480117559433,0.028835296630859375,985.5098876953124,0,13.0,1,1
18.72,0.06379965,-0.15661885,9.759003,-0.0007111702580004929,-0.0003126701922155917,0.0007984677795320749,-5.747642517089844,22.392608642578125,-37.54464721679688,0.04185184091329575,0.08323206007480621,0.057232856750488274,985.5121459960938,0,13.0,1,1
18.76,0.06624028,-0.15185355,9.7590065,-4.586970317177474e-05,-0.00031259073875844484,-0.0006664792890660465,-6.2540154457092285,22.97177124023437,-37.11558151245117,0.04177291691303253,0.06362581998109818,0.0524892807006836,985.4789428710938,0,13.0,1,1
18.8,0.07107076,-0.15185477,9.756644999999999,-0.000712148379534483,8.696242002770305e-05,-0.0002672150149010122,-5.8074278831481925,22.389060974121094,-37.15030288696289,0.026350177824497226,0.07687792181968689,0.05248260498046875,985.5000610351562,0,13.0,1,1
18.84,0.06395185,-0.14232288,9.74718,-0.0005794791504740715,0.0012854632223024964,0.00013204937567934394,-6.340240478515625,22.89117431640625,-37.32853317260742,0.035528846085071564,0.057531706988811486,0.057216644287109375,985.510498046875,0,13.0,1,1
