Timestamp,Ax,Ay,Az,Gx,Gy,Gz,Mx,My,Mz,LiAx,LiAy,LiAz,P,Value,Type,GroupType,Activities
0.0,0.11324543,-0.13901272,9.740051,0.00492739,-0.008753111,-0.00030417222,-10.851984,23.629595000000002,-27.537871999999997,0.00052818656,-0.0048798025,0.0706768,990.4019,0,13.0,1,1
0.04,0.10604649999999999,-0.1413953,9.775556,0.00492739,-0.008753111,-0.00030417222,-10.854188,23.890495,-26.85994,0.0058857575,0.0044569373,0.013856888000000001,990.4019,0,13.0,1,1
0.08,0.12513655,-0.14854443,9.773187,-0.00012755021,-0.00182972,-0.00016884488,-10.985956,23.451323000000002,-27.275840000000002,-0.013115168,0.014199241999999999,0.051735878,990.1513699999999,0,13.0,1,1
0.12,0.09881842,-0.13662729,9.766082,0.00027220487,0.0003007614,-0.0009676718,-10.548065,23.59783,-27.12094,0.015655532,0.014344349499999999,0.056473732,990.2230000000001,0,13.0,1,1
0.16,0.11312866,-0.14377633,9.758977,0.00093827595,-0.0012971796,0.00023087012000000003,-11.118406,23.274519,-27.091117999999998,-0.0027761459999999997,0.014738321,0.042272567999999996,990.2559,0,13.0,1,1
0.2,0.10831967,-0.14377561,9.78028,0.0006722411999999999,-0.00089775136,-0.00016848318,-10.361375,23.403992000000002,-27.292334000000004,0.012159221000000001,0.00028698146,0.037531853,990.25366,0,13.0,1,1
0.24,0.10112080000000001,-0.13900834,9.782645,-0.00025958335,-0.0015635868,0.00063058495,-10.969353,23.361609,-27.427120000000002,0.0075254887,0.004801497,0.013855933999999999,990.2456699999999,0,13.0,1,1
0.28,0.11543104,-0.14139092,9.777907,-0.0009250917,-0.0011641587,0.00036438964999999996,-10.714563,23.33661,-27.156982,-0.0021263137,-0.000265792,0.02332592,990.2460000000001,0,13.0,1,1
0.32,0.12735134,-0.1413902,9.792108,-0.00012586266000000001,0.0007000069000000001,-0.00016812159999999999,-11.145527000000001,23.45984,-27.097784000000004,-0.02085349,-0.00018064678,0.009122848499999999,990.2585,0,13.0,1,1
0.36,0.108202964,-0.13423964,9.770800999999999,0.0002738922,-0.00049846014,-0.0011001066,-10.712063,23.707846,-27.410041999999997,0.012883835,-0.009592101,0.03279686,990.23285,0,13.0,1,1
0.4,0.10578388,-0.13185564,9.775533,0.00054048933,-0.0007648217,-0.00043419650000000004,-10.936826,23.444554999999998,-27.12905,0.017485403,-0.00010588764999999999,0.0138607025,990.2354,0,13.0,1,1
0.44,0.10814464,-0.12947169,9.775528999999999,-0.000391335,0.0009661858999999999,0.0008975035000000001,-11.035631,23.82638,-27.521085999999997,0.01748687,0.00041164458,0.028077126,990.2353,0,13.0,1,1
0.48,0.11161286,-0.14141455,9.761425,0.0009405257,-0.000764913,-0.0004339554,-10.834105000000001,24.541784,-27.440033000000003,0.016664766,-0.0040787607,0.042181015,990.2736,0,13.0,1,1
0.52,0.11400044,-0.13903117,9.773261,0.0006691617,-0.00036461974,-0.00043611885999999997,-10.966852000000001,23.732847,-27.68018,0.011587165,-0.003901869,0.05638981,990.2256,0,13.0,1,1
0.56,0.11877799,-0.13188133,9.766158,0.00013128761,0.00030202096,9.426623e-05,-10.615728,24.167048,-27.836679999999998,-0.007561028000000001,0.0006752312,0.04218483,990.2833,0,13.0,1,1
0.6,0.109216064,-0.1437976,9.763791000000001,-0.00013498415000000002,-0.00023061795,-0.0005715045,-10.557358,23.06277,-27.781059999999997,0.011474937,0.0055491180000000005,0.056390762000000004,990.2582,0,13.0,1,1
0.64,0.12116331,-0.15333074,9.782729,-1.8040882e-06,-0.0015622010999999999,0.00036061055,-10.52483,23.145718,-27.482986,0.007333912,0.019744961999999998,0.027976036,990.2557,0,13.0,1,1
0.68,0.10443169,-0.139031,9.77326,-1.8040882e-06,-0.0015622010999999999,0.00036061055,-10.52483,23.145718,-27.482986,0.012179546000000001,0.015065744499999999,0.032710075,990.2557,0,13.0,1,1
0.72,0.113988936,-0.14379749,9.785096000000001,-0.0001349398,-9.7467186e-05,0.00022746206000000003,-10.497710000000001,22.960398,-27.476321999999996,0.01674617,0.0055905880000000005,0.032712936,990.2404,0,13.0,1,1
0.76,0.10681701,-0.1509473,9.766158,-0.0001349398,-9.7467186e-05,0.00022746206000000003,-10.333712,22.850384,-27.187217999999998,0.0026737452,0.02909483,0.046909332000000005,990.2404,0,13.0,1,1
0.8,0.113984406,-0.14379737,9.777992999999999,0.00026457815,0.0001688415,-0.0003051508,-10.636353999999999,23.88405,-27.355034000000003,0.017440312,0.014985964,0.04217434,990.2475599999999,0,13.0,1,1
0.84,0.11159223,-0.14141405,9.763791000000001,0.00026457815,0.0001688415,-0.0003051508,-10.636353999999999,23.88405,-27.355034000000003,-0.0063411295,0.0054600835,0.03743744,990.2475599999999,0,13.0,1,1
0.88,0.11158994,-0.13664743,9.777992999999999,-0.0005343251400000001,0.0003019923,0.00049381587,-10.321238000000001,23.494303,-27.380789,-0.0015768707,0.00022079049999999999,0.023227692,990.2527,0,13.0,1,1
0.92,0.11397752,-0.13664737,9.775625999999999,-0.0005343031400000001,-0.0007632748500000001,-0.00030512235,-10.8701105,23.717836,-27.309288000000002,-0.0065557435,0.004878357,0.018494606,990.2575699999999,0,13.0,1,1
0.96,0.10680556,-0.14141384,9.775625,-0.0005343031400000001,-0.0007632748500000001,-0.00030512235,-10.8701105,23.717836,-27.309288000000002,0.012310803,0.014289752,0.023230552999999998,990.2575699999999,0,13.0,1,1
1.0,0.12114262599999999,-0.13664731,9.768523,-0.00026796537,0.00043514304000000003,-0.00030511292,-11.217755,24.024635,-27.581608000000003,-0.011491649,-5.0738454e-05,0.023229599,990.2451,0,13.0,1,1
1.04,0.11397067,-0.1342639,9.782727000000001,0.00013155268999999998,-0.0006301276000000001,-0.000305094,-10.668882,23.801104000000002,-27.653107000000002,0.008195691,-0.004888937,0.027955055,990.24994,0,13.0,1,1
1.08,0.11635828,-0.14141375,9.768523,0.00013155268999999998,-0.0006301276000000001,-0.000305094,-10.668882,23.801104000000002,-27.653107000000002,0.00790263,0.0048134476,0.046899795999999994,990.24994,0,13.0,1,1
1.12,0.10679635400000001,-0.13664708,9.777991,0.00013159681,-9.750299999999999e-05,-0.00030507502,-10.244848,23.408134,-27.926407,-0.0012101233000000001,0.004717335,0.032691002000000004,990.2575699999999,0,13.0,1,1
1.16,0.11874363,-0.14379689,9.787461,0.00013161905000000002,-0.0004969804,9.440823e-05,-10.798831,23.995539,-27.721443,-0.0008926317,0.014183432,0.023216248,990.2475,0,13.0,1,1
1.2,0.10201198,-0.15571317,9.773257000000001,0.00013161905000000002,-0.0004969804,9.440823e-05,-10.798831,23.995539,-27.721443,0.008775748,0.00927873,0.023213387000000002,990.2475,0,13.0,1,1
1.24,0.10678953,-0.12473056,9.77089,-0.00053412665,0.00056827586,0.00049390097,-10.881606,23.443682,-27.291475,0.023100852999999998,-0.0051202476,0.037415504,990.2626,0,13.0,1,1
1.28,0.11395693,-0.15094653,9.780358,-0.00053412665,0.00056827586,0.00049390097,-10.881606,23.443682,-27.291475,0.00878571,0.018737122,0.042150497,990.2626,0,13.0,1,1
1.32,0.102005124,-0.13903013,9.770888000000001,0.00026486535,-0.0003638368,-0.00017186982,-10.936826,23.444554999999998,-27.129046999999996,0.027803041,-0.00035773218,0.042152405,990.2549,0,13.0,1,1
1.36,0.118732154,-0.13426343,9.775624,-0.00066721824,0.0007014231,0.00036077143,-10.944298,23.543108,-27.4416,-0.00096078217,-0.0005310029,0.027947426,990.26965,0,13.0,1,1
1.4,0.10917023,-0.14141327,9.785092,0.0011970149,-9.75281e-05,-3.869293e-05,-11.116747,23.38191,-27.8675,0.0038395673,0.0047110766,0.009016037,990.25995,0,13.0,1,1
1.44,0.118727565,-0.13426337,9.76142,0.0005312476,-0.00036384762,0.0006271063,-10.93158,23.1866,-27.96159,0.013426125,0.00043536723,0.04689884,990.2679,0,13.0,1,1
1.48,0.10205399999999999,-0.13903129,9.777994999999999,0.0009307433,-9.753533000000002e-05,0.00036079980000000003,-10.731711,23.794615,-27.104156,0.023069903,-0.0043985397,0.037421227,990.285,0,13.0,1,1
1.52,0.09966412,-0.14379784,9.761425,-0.0004012991,-0.0006300918,0.00022744367000000003,-10.496188,22.961872,-27.553627000000002,0.008553617,0.0006851703,0.032693863,990.262,0,13.0,1,1
1.56,0.10922372,-0.136648,9.777994999999999,0.0011965283,0.00016886683,0.00036057254,-10.7516575,23.249247,-27.223139,0.008416079,0.0006023496400000001,0.013756751999999999,990.2393,0,13.0,1,1
1.6,0.10922372,-0.13903129,9.785097,0.00066389656,3.570884e-05,0.0002274146,-10.928374,23.715765,-26.992252,0.018120348,0.010452821999999999,0.027962685,990.2345,0,13.0,1,1
1.64,0.12595305,-0.15333098,9.766160000000001,-1.8931460000000001e-06,-0.00036376496,0.0002274146,-10.454092999999999,23.791708,-27.993593,-0.010640651000000001,0.01541169,0.037434577999999996,990.2496,0,13.0,1,1
1.68,0.10205403,-0.15333098,9.780362,0.0007970545,-9.744906999999999e-05,-0.00017205923,-10.368304,23.134253,-27.506434999999996,0.0328098,0.010820761000000002,0.042167664,990.24445,0,13.0,1,1
1.72,0.09249443,-0.12949821,9.768527,-1.8931460000000001e-06,-0.0014290285000000001,-0.00030521728,-10.683421000000001,23.524002,-27.480682,0.022878096,-0.017827123,0.02323246,990.2292,0,13.0,1,1
1.76,0.11161363,-0.13903129,9.780362,0.00040979695,0.0011244738,0.0006157204,-10.777256,23.436037,-27.307108000000003,-0.0011362135,0.010264993,0.023226737999999997,990.2595,0,13.0,1,1
1.8,0.10444391,-0.15094772,9.773261,-0.0010549404,0.0013907896,-0.00018322724,-10.437627,23.596079,-27.445793,0.036719322,0.019671246,0.046902657,990.2651400000001,0,13.0,1,1
1.84,0.10205399999999999,-0.13903129,9.770894,-0.00025599275,-0.00047342165,0.0007488783400000001,-10.625839,23.788443,-27.197094,0.017379507,0.009950936,0.023229599,990.262,0,13.0,1,1
1.88,0.09966412,-0.13188145,9.770894,-0.00025599275,0.0009913157,-0.00031638517999999996,-11.388819999999999,23.758995000000002,-27.385734999999997,0.0119865015,0.00035129488,0.013768196000000002,990.2366300000001,0,13.0,1,1
1.92,0.094884336,-0.13903129,9.766160000000001,-0.0003891507,0.00059184193,8.308863999999999e-05,-10.9722595,23.464579,-27.971588,0.026135512000000003,0.009750977,0.05164337,990.25684,0,13.0,1,1
1.96,0.10444391,-0.14856443,9.766160000000001,-0.0003891507,0.0005918419,0.00021624658,-10.732552,23.530767,-27.627476,0.016443357,0.004823059,0.03270626,990.2212,0,13.0,1,1
2.0,0.097274214,-0.14141458,9.775628,1.0323139999999999e-05,0.000325526,-5.0069300000000005e-05,-10.820436500000001,23.342779999999998,-27.064045,0.029966503,0.0046922565,0.03744793,990.2442,0,13.0,1,1
2.04,0.11161363,-0.13903129,9.773261,-0.0003891507,0.0011244736,-0.00031638529999999997,-10.676492999999999,23.793737,-27.266579999999998,0.005987406,3.3304095000000005e-05,0.03271675,990.247,0,13.0,1,1
2.08,0.10922372,-0.14379784,9.768527,1.0323139999999999e-05,-0.0003402637,-0.00018322736,-10.848398,23.264254,-27.59403,0.015516616,0.0048262626,0.042185783,990.262,0,13.0,1,1
2.12,0.097274214,-0.14379784,9.763792,0.00040979695,0.0008581577,0.00048256245999999997,-11.012098,24.006404999999997,-27.458263,0.015308201,0.0049142838000000005,0.046923637000000004,990.2518,0,13.0,1,1
2.16,0.09966409,-0.14856443,9.773261,0.00040979695,0.0008581577,0.00048256245999999997,-10.87704,23.448097,-27.523388,0.020020053,0.009985520999999999,0.032725334,990.2518,0,13.0,1,1
2.2,0.10444391,-0.13188145,9.775628,0.0009424287,-7.394781e-05,-0.00031638529999999997,-10.619643,22.687994,-27.133656,0.020142935,-0.0044412166,0.032722472999999995,990.2442,0,13.0,1,1
2.24,0.09966412,-0.14379784,9.785097,0.0009424287,-7.394781e-05,-0.00031638529999999997,-10.619643,22.687994,-27.133656,0.024683252000000003,0.0052389055,0.018523216000000002,990.2442,0,13.0,1,1
2.28,0.09966412,-0.13903129,9.761425,-0.0003891507,-0.00047342165,-0.0011153329,-10.865002,23.353966,-27.442753000000003,0.024719521,0.00012604892,0.05165863,990.2518,0,13.0,1,1
2.32,0.10205399999999999,-0.14379784,9.763792,-0.0007886245,5.921012800000001e-05,-0.00044954324,-11.301617,24.209356,-27.348540999999997,0.015121579,0.014002442,0.046919823,990.2594,0,13.0,1,1
2.36,0.106833816,-0.13188145,9.763792,1.0323139999999999e-05,0.00045868388,0.00034940452,-10.987042,24.187901999999998,-27.472744,0.009825736,-0.00018821657,0.027990341000000002,990.27216,0,13.0,1,1
2.4,0.11639345,-0.12949815,9.773261,-0.00025599275,0.0007249999,-0.00044954324,-10.993131,24.182013,-27.163522999999998,0.014967791999999999,-0.0048840046,0.05165863,990.2591,0,13.0,1,1
2.44,0.11115402,-0.13663676,9.773219000000001,-0.0001228348,-0.0008728954,0.00021624658,-10.789292999999999,23.530169,-27.387745000000002,0.005691729499999999,0.004894525,0.037549973,990.2591,0,13.0,1,1
2.48,0.11066681,-0.13662478,9.770807000000001,0.00067940215,0.0015234135,-0.00018181768,-10.713883000000001,23.074236,-27.757608,-0.0043079853,0.00028805435,0.018623352,990.2516,0,13.0,1,1
2.52,0.110630006,-0.14854029,9.775538000000001,0.00067940215,0.0015234135,-0.00018181768,-10.713883000000001,23.074236,-27.757608,0.0052439496,0.01444234,0.028092383999999998,990.2516,0,13.0,1,1
2.56,0.1105932,-0.13423970000000002,9.770800999999999,1.8250663e-05,0.00032698485,-0.00017716354,-10.982913,23.45427,-27.430452000000002,-0.009069875,0.00017081201000000002,0.028096199,990.2492,0,13.0,1,1
2.6,0.11294633,-0.13900533,9.766063,0.00041807910000000005,-7.254658e-05,0.00048877817,-10.79636,23.154516,-26.90277,0.009936139,0.00040911138,0.051778793,990.2414,0,13.0,1,1
2.64,0.11768937,-0.13423792,9.770794,1.8959981e-05,6.0553837000000004e-05,-4.370167000000001e-05,-10.805354,23.251596,-27.138015999999997,0.00017151237,0.005321607,0.042315483,990.2518,0,13.0,1,1
2.68,0.11287278,-0.14853665,9.763688,0.00055194634,0.0013920757,0.00035592413,-10.814892,23.716963,-27.471714000000002,0.00029992312,0.00544025,0.02812004,990.2516,0,13.0,1,1
2.72,0.10805616,-0.13900265,9.766052,0.00028598506,-0.001004825,-0.00057602953,-10.656002,23.970816,-27.049149,0.009690091,0.0051885396,0.047058105,990.26715,0,13.0,1,1
2.76,0.115189135,-0.14376834,9.77315,2.0023668e-05,0.0009924867,-0.0001764037,-10.609235,23.698729,-27.348370000000003,-0.0046338663,0.010036379,0.023389816,990.2416400000001,0,13.0,1,1
2.8,0.119932115,-0.1413841,9.792085,0.00028669415,-0.000871782,-4.309380999999999e-05,-10.815189,23.084826,-27.896587,0.009958103000000001,0.014559536999999999,0.028122902,990.2539999999999,0,13.0,1,1
2.84,0.112725586,-0.15091634,9.775511999999999,-0.0010445308,-7.28919e-05,-0.0011082053999999998,-10.912313000000001,23.994343,-27.241982,0.009937584000000001,0.014572933,0.04232979,990.25146,0,13.0,1,1
2.88,0.11029893,-0.13899902,9.782608999999999,-0.00011207046999999998,-0.00020610740000000003,-0.00044226364,-10.777255,23.436037,-27.307108000000003,0.02418387,0.00013287365,0.03286457,990.2387,0,13.0,1,1
2.92,0.112652004,-0.15568104,9.770769999999999,0.00055407395,0.0008590985699999999,-0.00017579584,-10.399308999999999,23.05278,-27.881813,1.180172e-05,0.024058118,0.042342186,990.2439,0,13.0,1,1
2.96,0.11022538,-0.13899726,9.770766,2.1796674e-05,0.00045956712,0.0007564617,-10.838426,23.536939999999998,-27.534538,-0.018937744,0.004824102,0.018668175,990.2311,0,13.0,1,1
3.0,0.11257845,-0.13184646,9.782599000000001,-0.0002441646,-0.00033943803,-4.2334024e-05,-10.479584,22.87216,-27.704906,0.009667203000000001,-0.009230241,0.032881737,990.2442,0,13.0,1,1
3.04,0.11732146,-0.13184562,9.78023,0.00042197970000000003,0.00019313613000000002,-0.00044165578,-10.972397,23.358664,-27.272509999999997,0.009647042,-0.013902247,0.051822662,990.2611699999999,0,13.0,1,1
3.08,0.12445438,-0.13661125,9.766022999999999,-0.00011029758,5.9920596e-05,0.0006237597,-10.81587,23.347198000000002,-27.295959999999997,-0.0045746120000000005,0.00524424,0.0423584,990.2264,0,13.0,1,1
3.12,0.10529834,-0.1461434,9.763652,0.0008221627,-0.0003396108,-4.1878026e-05,-10.886171000000001,23.43926,-27.059559000000004,0.005255676999999999,0.010078505,0.037626266,990.2643,0,13.0,1,1
3.16,0.09570199,-0.15329245,9.766015,2.3569679e-05,-0.0003396683,0.00035774775000000004,-10.869568,23.349546,-27.210838,0.0057237074,0.005458504,0.023422241,990.2414,0,13.0,1,1
3.2,0.110004604,-0.14614162,9.775481,0.00068971387,-0.0015381472,-0.0001747321,-10.696981,23.61666,-27.484015000000003,0.015233241000000002,0.019627392,0.03289509,990.2389999999999,0,13.0,1,1
3.24,0.124307215,-0.14375749,9.775477,-0.00067385053,-0.0006708297,-0.00024824514,-10.732553,23.530767,-27.627476,-0.017888888999999998,0.009783268000000001,0.03289032,990.2438,0,13.0,1,1
3.28,0.10754111400000001,-0.13899001,9.763638,0.00039176748,0.00012806048999999998,-0.00038125116,-11.11384,23.27894,-27.323032,0.0011729449,0.00038783252,0.028162956,990.2264,0,13.0,1,1
3.32,0.11467403,-0.13422251,9.768369,0.00039176748,0.00012806048999999998,-0.00038125116,-11.11384,23.27894,-27.323032,0.001377292,0.0049266964000000005,0.028158187999999997,990.2264,0,13.0,1,1
3.36,0.10985747,-0.14375481,9.777835000000001,-0.00040682557,-0.0008041026299999999,1.8374645e-05,-10.7385025,23.630793,-28.017334,-0.0030398145000000002,0.009525329,0.023422241,990.2362,0,13.0,1,1
3.4,0.11221057,-0.14613715,9.782566000000001,-0.0002733129,-0.00013837053999999998,0.00015168459999999998,-10.433496,22.862444,-27.403503000000004,-0.0032513887,0.009369135,0.023425102000000003,990.2442,0,13.0,1,1
3.44,0.11797398,-0.13424489,9.775554,0.0006521803,-0.0010694027000000001,-0.00025062298,-10.735458,23.633738,-28.171944,-0.008361243,-0.004664868,0.028067589,990.25146,0,13.0,1,1
3.48,0.10841817,-0.14139482,9.763719,0.0006521803,-0.0010694027000000001,-0.00025062298,-10.735458,23.633738,-28.171944,-0.0034391508,8.904934000000002e-05,0.04226780000000001,990.25146,0,13.0,1,1
3.52,0.11798161,-0.13662833,9.756617,0.00051659415,-0.00040321879999999995,0.00041412594,-10.871496,23.82228,-27.93106,-0.0032438189,0.0048368424,0.04226494,990.2416400000001,0,13.0,1,1
3.56,0.120375305,-0.14616159,9.777923,0.00051659415,-0.00040321879999999995,0.00041412594,-10.77864,23.54048,-27.92888,-0.027363762000000003,0.014415011,0.00439167,990.2416400000001,0,13.0,1,1
3.6,0.11320943,-0.13662854,9.796861,0.000117046875,-3.7330174e-06,0.00014777857,-10.724102,23.80198,-27.490679999999998,0.010837451000000001,-0.014008015,-0.00033950806000000006,990.2389999999999,0,13.0,1,1
3.64,0.1108233,-0.14139518,9.766086999999999,0.00011697365,-0.0009358267,-0.000118568714,-10.980412,23.825504000000002,-27.683514000000002,0.0016517043,0.004975617,0.028061867,990.23395,0,13.0,1,1
3.68,0.10843721,-0.14854509,9.775557000000001,0.00011697365,-0.0009358267,-0.000118568714,-10.980412,23.825504000000002,-27.683514000000002,0.015970468999999998,0.018949509,0.03752327,990.23395,0,13.0,1,1
3.72,0.09888142,-0.12709573,9.758986,-0.0006820106599999999,-0.00040318900000000003,-0.00038490029999999997,-10.740025,23.62932,-27.94003,0.006394021,-0.00018586218,0.042258263,990.24646,0,13.0,1,1
3.76,0.12278426,-0.1366289,9.775557000000001,-0.0006820106599999999,-0.00040318900000000003,-0.00038490029999999997,-10.740025,23.62932,-27.94003,-0.0033498034000000003,-0.009700700999999999,0.032791138,990.24646,0,13.0,1,1
3.8,0.12517795,-0.14377883,9.785027000000001,-0.0008152419500000001,0.0001294547,-0.00011861591999999998,-10.774212,23.438982,-27.461717999999998,0.0016318709,0.013895973999999998,0.01858139,990.2691699999999,0,13.0,1,1
3.84,0.12279183,-0.14139566,9.777925,-0.0008152419500000001,0.0001294547,-0.00011861591999999998,-10.774212,23.438982,-27.461717999999998,0.0064699203,0.009307757,0.03752041,990.2691699999999,0,13.0,1,1
3.88,0.11323607,-0.13186261,9.773191,-1.6331094e-05,-0.00013685528,-0.00011863158000000001,-10.325123,23.227510000000002,-27.7495,0.006290965,-0.00033695995999999997,0.05172443400000001,990.23395,0,13.0,1,1
3.92,0.101290345,-0.14854565,9.792129,0.0005162275599999999,0.00039578837,0.00041396875,-10.768261,23.338957,-27.071859999999997,0.025549479,0.009409964,0.032787323,990.2416400000001,0,13.0,1,1
3.96,0.118023485,-0.13424611,9.754253,0.0005162275599999999,0.00039578837,0.00041396875,-10.768261,23.338957,-27.071859999999997,-0.0029369220000000002,-0.00974147,0.04698658,990.2416400000001,0,13.0,1,1
4.0,0.10846764,-0.12947965,9.768457000000001,-0.0006822675,-3.6735291e-06,0.00081341114,-10.477327,24.243822,-27.631544,0.006226301,-7.5921416e-05,0.05646324,990.25903,0,13.0,1,1
4.04,0.106081575,-0.15331253,9.770825,0.0006492754,0.0007952800999999999,0.00028076363,-10.678855,23.528418,-27.712597,-0.0036429614000000003,0.014288694,0.02805996,990.25397,0,13.0,1,1
4.08,0.12042478,-0.13186306,9.768458,-1.6551236e-05,0.00012949633,-0.000118725875,-10.959242,23.74021,-28.066706,0.0013551563,-0.0048451275,0.046993256,990.2514,0,13.0,1,1
4.12,0.10847905,-0.13662973,9.77556,0.00038288604,0.00039581815000000003,-0.0007845312400000001,-11.085306,24.201439,-27.76633,0.00095281005,-0.0050895065,0.013853073,990.2314,0,13.0,1,1
4.16,0.11565262,-0.14377972,9.777927,0.00038288604,0.00039581815000000003,-0.0007845312400000001,-11.085306,24.201439,-27.76633,-0.008466393000000001,0.0048843472999999995,0.028060913,990.2314,0,13.0,1,1
4.2,0.12760589,-0.1390132,9.785029,0.00011649681,-0.00080259144,0.00014754286,-10.795786999999999,23.998484,-27.876053000000002,-0.008033179,-0.0004595071,0.01857853,990.2518,0,13.0,1,1
4.24,0.120440006,-0.12471363,9.768460000000001,-0.00081564556,-0.0009357433,-0.0010508944999999999,-10.6297245,23.52165,-27.565803999999996,-0.012900807,-0.01024954,0.0280447,990.2518,0,13.0,1,1
4.28,0.115664005,-0.13186356,9.773194,-0.0008156821000000001,0.00026268404,0.00014751136999999998,-10.493824,23.22719,-27.107609999999998,0.001378715,-0.0007996857000000001,0.04224682,990.24677,0,13.0,1,1
4.32,0.11566782,-0.13186368,9.792132,-0.00028308714,0.00012953208,-0.00011882023,-10.644263,23.244549,-27.393381,0.016129783999999998,-0.010732858999999999,0.01856327,990.26685,0,13.0,1,1
4.36,0.103722095,-0.14378014,9.775561999999999,-0.0010820715,-0.0010688833,0.00028063788,-10.978484,23.352772,-26.963290999999998,0.016527451999999998,0.0036290586,0.032762527,990.25684,0,13.0,1,1
4.4,0.12966898,-0.12708881,9.784999000000001,0.0002494714,-0.0012020353,1.4306279e-05,-10.468088999999999,23.146314999999998,-27.722717,-0.011824258,-0.015078589,0.028030396000000003,990.24646,0,13.0,1,1
4.44,0.10540697,-0.1413796,9.775497999999999,0.0006497376599999999,-0.00053637434,-0.00025167002,-10.699345,23.35134,-27.930033,0.02256579,0.0039090514,0.042292595,990.2492,0,13.0,1,1
4.48,0.11494249,-0.14852884,9.773128,-0.00014465654,-9.308096e-07,0.0012174635,-10.928237,23.821684,-27.691329999999997,0.0029013231,0.008800611,0.037570953,990.2771,0,13.0,1,1
4.52,0.10296887,-0.14614496,9.761291,0.0006545233000000001,0.00053166325,0.00015229953000000002,-10.992588,23.81372,-27.065071000000003,0.007538527299999999,0.008611634,0.028102875,990.2337,0,13.0,1,1
4.56,0.110114455,-0.14376107,9.775491,-1.1033993e-05,0.00013215165,0.0005518729,-10.79288,23.895514000000002,-27.331584999999997,0.0029259622,0.004063517,0.03284073,990.2337,0,13.0,1,1
4.6,0.10531056,-0.13661066,9.768388,-0.00014395968,-0.0007999915400000001,0.0002856565,-10.668339,23.432812,-27.554655,0.021972165,-0.005328416999999999,0.042313576,990.2365,0,13.0,1,1
4.64,0.11962587,-0.1318435,9.782588,0.00038890445,0.0006647080000000001,0.00015259813999999997,-10.701547999999999,23.612242000000002,-27.252102,0.002699405,-0.005548358000000001,0.028113365,990.27216,0,13.0,1,1
4.68,0.098092616,-0.13899276,9.763648,-1.0337014999999999e-05,0.0006646703,0.0006853296,-10.574069,24.25883,-28.002438,0.016787902,-0.010183141,0.042324065999999994,990.23914,0,13.0,1,1
4.72,0.121967584,-0.146142,9.773114999999999,0.00038936894,-0.00013431507,-0.0009124662,-10.975005,24.093771,-27.392104999999997,0.012262605,0.008561954,0.04705429,990.2362699999999,0,13.0,1,1
4.76,0.11716366,-0.13660827,9.773112,5.6383127000000006e-05,0.0005625168599999999,0.00029675827999999996,-11.086966,24.09405,-26.989948,0.007323265,-0.0056390315,0.04705906,990.22864,0,13.0,1,1
4.8,0.11235976,-0.13899097,9.77311,5.6383127000000006e-05,0.0005625168599999999,0.00029675827999999996,-11.086966,24.09405,-26.989948,-0.006918356,0.0039094537,0.023388863,990.22864,0,13.0,1,1
4.84,0.10755584,-0.13660708,9.7778425,5.6615492000000005e-05,-0.00023646848999999998,-0.0010347216,-11.179277,24.007559,-26.893679,0.0120667,-0.005440085999999999,0.037596702999999995,990.24445,0,13.0,1,1
4.88,0.109921634,-0.13898978,9.749433999999999,5.6615492000000005e-05,-0.00023646848999999998,-0.0010347216,-10.744728,23.518984,-27.009037,0.002442427,-0.0053652376,0.06600857,990.24445,0,13.0,1,1
4.92,0.11228743,-0.14375576,9.763635,0.0012552693,0.0006955993,0.00016379947,-10.630566,23.257803,-28.089127,-0.0023509786,0.009007305,0.013933181999999999,990.2442,0,13.0,1,1
4.96,0.11465323,-0.13422206,9.782571,5.7080222e-05,0.0001629299,-0.00023557464,-10.843533500000001,23.900806,-27.401072999999997,-0.0025194436,-0.014722228,0.03287697,990.2416400000001,0,13.0,1,1
5.0,0.12418878,-0.13660473,9.770732,0.00019070254000000002,0.0009618021,-0.00010221769000000001,-10.550972,23.7008,-27.665405,-0.016816199,-0.00041717290000000003,0.02814579,990.24677,0,13.0,1,1
5.04,0.107435316,-0.12707105,9.77073,0.00019070254000000002,0.0009618021,-0.00010221769000000001,-10.550972,23.7008,-27.665405,0.021312855,-0.0050036013,0.051822662,990.24677,0,13.0,1,1
5.08,0.11458096,-0.13422027,9.770728,0.00059087336,2.9583373999999998e-05,-0.00010191902400000001,-10.527438,23.880823,-27.602581,0.011664212,-0.009471819,0.04709816,990.2595,0,13.0,1,1
5.12,0.107387096,-0.15566918,9.773093,0.00059087336,2.9583373999999998e-05,-0.00010191902400000001,-10.922286999999999,23.721657,-27.301471999999997,0.021345936,0.01448448,0.03763199,990.2595,0,13.0,1,1
5.16,0.11214286,-0.1413689,9.789661,0.00059087336,2.9583373999999998e-05,-0.00010191902400000001,-10.922286999999999,23.721657,-27.301471999999997,0.0024392977,0.00040733813999999996,0.013961791999999999,990.2595,0,13.0,1,1
5.2,0.10494903,-0.12706864,9.765986,0.000724496,-0.00023680796000000002,0.00043091195,-10.88465,23.440735,-27.136865999999998,0.0074659362,-0.009287074000000001,0.03763199,990.247,0,13.0,1,1
5.24,0.12165421,-0.13660118,9.768352,0.000724496,-0.00023680796000000002,0.00043091195,-10.88465,23.440735,-27.136865999999998,-0.002083324,0.00056889653,0.056575775,990.247,0,13.0,1,1
5.28,0.10968059,-0.13898388,9.777819000000001,-0.0006068509999999999,-0.0010357933,0.00016469558,-10.652416,23.605473999999997,-27.105309000000002,0.012364045,0.004972145,0.032899857000000005,990.2722,0,13.0,1,1
5.32,0.12160605,-0.15089968,9.768348,-0.00034007052,-0.000103763145,-0.00023457922999999998,-10.712063,23.707848000000002,-27.410041999999997,0.002578579,0.014662951,0.061315536,990.2648300000001,0,13.0,1,1
5.36,0.107242525,-0.1461325,9.77308,-0.00034007052,-0.000103763145,-0.00023457922999999998,-10.712063,23.707848000000002,-27.410041999999997,0.012056998999999999,0.010036424,0.032913208,990.2648300000001,0,13.0,1,1
5.4,0.12116068599999999,-0.13426438,9.761424,-7.329015000000001e-05,0.000961425,0.00029825182999999996,-10.800108,22.993639,-27.970558,-0.014253125,0.0005052089700000001,0.042204857,990.2646,0,13.0,1,1
5.44,0.11643672,-0.14141563,9.751961,0.00045158445999999994,0.0002940176,0.00055875105,-11.280203,23.123639999999998,-28.058153000000004,-0.005071223,0.0052057207,0.051671028,990.2648300000001,0,13.0,1,1
5.48,0.111712694,-0.14141700000000001,9.768536,0.00045158445999999994,0.0002940176,0.00055875105,-11.280203,23.123639999999998,-28.058153000000004,-0.00021749735000000002,0.0050928295,0.027994156,990.2648300000001,0,13.0,1,1
5.52,0.11415845,-0.13426852,9.766173,0.00017480575,-0.00023691557999999996,0.00015479306,-10.657143,23.074832999999998,-27.997341,0.004370816,0.0052659809999999994,0.046928406,990.2372,0,13.0,1,1
5.56,0.11182436,-0.13665316,9.766179,4.1109743e-05,0.00016264553,0.0005540363500000001,-10.71236,23.075708,-27.834915000000002,0.0041658133000000005,-0.0043551773,0.046926499999999996,990.2622,0,13.0,1,1
5.6,0.10232055,-0.13665453,9.780387,-0.0002257441,0.00016273287,2.1173968e-05,-10.541296,23.341348999999997,-28.030787,0.0039803535,0.00068216026,0.018515587,990.2421,0,13.0,1,1
5.64,0.11432588,-0.13665596,9.773291,0.0007058235400000001,0.0002959781,-0.00011221453000000002,-10.771028999999999,23.547846,-28.315407,-0.00077824295,0.005333051,0.037448882999999995,990.25006,0,13.0,1,1
5.68,0.11438173,-0.14142382,9.773295,0.00017265381999999996,0.00016290751,0.0005533446,-10.952206,22.903605,-27.479946,-0.01562605,0.010044903,0.027980803999999998,990.2546,0,13.0,1,1
5.72,0.11682743,-0.13665870000000002,9.780402,-0.00049367384,0.0012282585,-0.0005121495,-11.120877,24.115545,-27.90979,0.0035604609999999996,0.0051863045,0.023234367000000002,990.2549,0,13.0,1,1
5.76,0.119273126,-0.13427672,9.766204,-0.00022789603,-0.0007690233,0.0006860414,-11.094872,23.454546,-27.028296,-0.0014219731,-0.0042170584,0.037436485,990.2546,0,13.0,1,1
5.8,0.11215925,-0.14619455,9.773311,0.0003041979,0.0004294854,2.0021223e-05,-10.422001,23.136602,-27.421314000000002,0.007922471,0.019671127,0.046905518,990.2626,0,13.0,1,1
5.84,0.10504538,-0.13904598,9.775683,0.0005699757,-0.000103059036,-0.00024652532999999997,-10.5800495,23.146593,-27.320559999999997,0.007983029,0.0008198172,0.027960777000000003,990.2497599999999,0,13.0,1,1
5.88,0.11705068,-0.13666412,9.787524000000001,0.00030312198,3.0186230999999997e-05,1.9560073e-05,-10.993428999999999,23.549871,-27.588394,-0.01087223,-0.0039277375,0.01848793,990.26807,0,13.0,1,1
5.92,0.12188628,-0.13904878,9.763858,0.0005688997,0.0001634315,-0.0007796182000000001,-10.508769000000001,23.424295,-27.732715999999996,-0.015915409,-0.0039449334,0.037421227,990.2501,0,13.0,1,1
5.96,0.12433201,-0.13666686,9.780433,-0.0006300594999999999,-0.00036911288,0.00015225691999999998,-11.012938499999999,23.742556,-27.981585,-0.015643358,-0.0037211925,0.027943611,990.26764,0,13.0,1,1
6.0,0.11482823,-0.13428494,9.770969000000001,0.0007009817,-0.0006353415,-0.00024744746,-11.218053999999999,23.3925,-28.006477,0.0083043575,-0.0034946352000000003,0.056350708,990.2546,0,13.0,1,1
6.04,0.11488408,-0.14381945,9.775708,0.0007004439999999999,0.00016369353000000002,0.0005512695999999999,-10.50366,23.060423,-27.86618,-0.0012495816,0.015587479,0.027938842999999998,990.26025,0,13.0,1,1
6.08,0.11732975,-0.14143759,9.778081,0.00056674774,-0.00023569296000000003,0.0008173549,-10.672768,23.53431,-28.021818,0.0035836846000000004,0.0060296953,0.051600455999999996,990.2878,0,13.0,1,1
6.12,0.117385566,-0.14858875,9.773352000000001,-0.0008990655000000001,-0.0009013078999999999,-0.00011521188,-10.59263,23.609018,-27.499646999999996,0.013454883999999999,0.01036334,0.042116165,990.2347,0,13.0,1,1
6.16,0.11027169,-0.15812328,9.770989,-0.0008990655000000001,-0.0009013078999999999,-0.00011521188,-10.861958,23.356913,-27.597363,0.0033724234000000004,0.019834608,0.04685116,990.2347,0,13.0,1,1
6.2,0.11271742,-0.13905832,9.763894,-0.0008990655000000001,-0.0009013078999999999,-0.00011521188,-10.861958,23.356913,-27.597363,0.01312454,0.010380238,0.051579475,990.2347,0,13.0,1,1
6.24,0.11277324,-0.14620963,9.761531,0.00016458391,0.00029737555000000003,0.0005498861400000001,-10.97476,23.093344000000002,-27.718525,-0.0014224574,0.01998575,0.04684162,990.2347,0,13.0,1,1
6.28,0.11282903,-0.13906106,9.771005,0.00016458391,0.00029737555000000003,0.0005498861400000001,-10.97476,23.093344000000002,-27.718525,-0.006155826,-0.003804192,0.03263569,990.2347,0,13.0,1,1
6.32,0.12722427,-0.14144579,9.782846000000001,0.0005180198,-0.0006922082000000001,-5.956316999999999e-05,-10.980305,22.719162,-27.310856,-0.015482992,-0.0034574568,0.023161888,990.26776,0,13.0,1,1
6.36,0.11533058,-0.13668057,9.77575,-0.00014830803,0.00023998466,-0.00045926744000000005,-11.034108999999999,23.827852,-27.598391999999997,0.0033199042,-0.0036499797999999996,0.01842022,990.2679,0,13.0,1,1
6.4,0.11394018,-0.14856288,9.775622,0.00025062784,0.00024007203,-0.00045949817000000005,-11.462166,23.848112,-26.994723999999998,-0.009774856,0.0010547638,0.023284912,990.2831,0,13.0,1,1
6.44,0.10915911,-0.15094617,9.766154,0.00012959656,0.00036932550000000005,0.00034313387,-10.934324,23.81579,-27.382109999999997,0.009160481,0.01028274,0.037486076,990.24994,0,13.0,1,1
6.48,0.11871746,-0.14617947,9.768521,-0.0005344902,0.00036904902999999997,0.00034386373999999994,-10.587384,23.351063,-28.332190999999998,0.004519157,0.0005825907,0.051685333,990.2755,0,13.0,1,1
6.52,0.123495996,-0.13426307,9.792192,-0.00026816234,-0.00029674266,-0.00018876266999999999,-11.075333,24.474123000000002,-27.706840000000003,5.8464706e-05,0.0053025780000000005,0.013806343,990.2705,0,13.0,1,1
6.56,0.111545205,-0.13664636,9.768519,-0.00026816234,-0.00029674266,-0.00018876266999999999,-11.075333,24.474123000000002,-27.706840000000003,0.0094383955,-0.00419499,0.037481308,990.2705,0,13.0,1,1
6.6,0.121103555,-0.14856270000000002,9.777989,-0.00013499195,-0.0006962184,0.0003438742,-10.831358,23.912592,-28.019515999999996,0.0091654435,0.005252436,0.037483215,990.2757,0,13.0,1,1
6.64,0.11632246,-0.15094593,9.766152,-1.8216596999999998e-06,0.0009016748500000001,-0.00032191025,-10.7922,23.63314,-27.932213,-0.0048770458,0.019383699,0.032743454,990.2475599999999,0,13.0,1,1
6.68,0.116321206,-0.13187966,9.766152,0.00039766403,0.0001027252,0.00021072674999999999,-10.710297,22.708893,-27.813765999999998,-0.004436098,-0.009537458,0.023264885,990.2507,0,13.0,1,1
6.72,0.116319954,-0.14141282,9.787457,-0.001067061,-0.0006962244,-5.558389199999999e-05,-10.893644,23.537813,-27.372111999999998,8.197129000000001e-05,0.014146522,0.023264885,990.2507,0,13.0,1,1
6.76,0.113928795,-0.14617929,9.766152,-0.0006675746000000001,-0.00042991043,-0.00032189447999999996,-10.964787,23.366028,-27.659035,0.0049176216,0.014119356999999999,0.037467003,990.26807,0,13.0,1,1
6.8,0.101978004,-0.14141268,9.775622,0.0002645551,-0.0001635986,-0.00032188406,-10.709019,23.71079,-27.564653000000003,0.00039485097,-9.319186e-05,0.03746605,990.23285,0,13.0,1,1
6.84,0.10675651,-0.14379594,9.768519,0.0006640414999999999,-0.0008293902999999999,0.00034391094,-10.842991,23.532516,-27.302623999999998,0.0049560964,0.009332001,0.03273201,990.23285,0,13.0,1,1
6.88,0.10436535,-0.14141268,9.761417,0.00013142172,-3.044463e-05,-5.5557669999999996e-05,-10.75318,23.247774,-27.145832000000002,0.014375023999999998,0.0089419335,0.051667213,990.2404,0,13.0,1,1
6.92,0.11631361,-0.14617917,9.7803545,-0.0012001457000000001,0.0006353430999999999,7.760551e-05,-10.813805,22.980381,-27.274815000000004,0.005095765,0.01360248,0.023256302000000003,990.2404,0,13.0,1,1
6.96,0.11153251,-0.14141259,9.77562,-0.00013486948,-0.0006962383000000001,-0.00018870516,-10.6466255,22.979226999999998,-27.839396999999998,-0.009101197,-0.0056514144,0.023251534,990.2253,0,13.0,1,1
7.0,0.10675144,-0.15332896,9.763784,-0.00040117337,-0.00042992434000000004,0.00047708984000000004,-10.417978,23.50931,-27.75168,0.014606126,0.02290681,0.056394577,990.2684300000001,0,13.0,1,1
7.04,0.09958047,-0.13664600000000002,9.768519,0.00013147038,0.000768495,-0.00018869468,-10.705976,23.713739999999998,-27.719263,0.028487481000000002,-0.0011368096000000001,0.042194366,990.2557,0,13.0,1,1
7.08,0.111528695,-0.14379573,9.773253,-0.00053430663,0.0005021772,0.0002107844,-10.825951,24.180858999999998,-27.728107,0.018762574,0.0132869035,0.05166626,990.2557,0,13.0,1,1
7.12,0.11391735,-0.14617899,9.787457,0.00039781095,0.0003690173,-0.0007213159700000001,-11.069138,23.37367,-27.643402000000002,0.004378915,0.013239368999999999,0.027994156,990.26544,0,13.0,1,1
7.16,0.09957668,-0.13902918,9.763784,-1.6508784e-06,0.00010269943000000002,-0.0008544687,-11.27754,24.021093,-27.187265000000004,-0.00030119717,-0.005340501700000001,0.018531799999999998,990.2456699999999,0,13.0,1,1
7.2,0.09957543,-0.14617899,9.7732525,0.0010636252,-0.00029677642,-0.0005881475,-11.090413999999999,24.56531,-27.632865999999996,0.023522823999999998,0.018391013,0.032733917,990.2685,0,13.0,1,1
7.24,0.10913375,-0.13902906,9.775619500000001,0.00039784773,-0.0010957259,0.00034396333,-10.775733,23.43751,-27.384413000000002,0.009665698,-0.00071772933,0.032728195,990.2735,0,13.0,1,1
7.28,0.101962775,-0.14141232,9.7827215,-0.00040108803999999997,-0.0004299382599999999,0.00034396854,-11.004925,23.275717,-27.570581,0.00011591613000000002,0.008924574000000001,0.009057999,990.2710599999999,0,13.0,1,1
7.32,0.10913122,-0.13426247,9.7732525,-0.00026791764,-0.00056309823,-0.00058813184,-10.714426,23.442526,-27.85606,0.009944841,0.0037225484999999997,0.027985573,990.2611699999999,0,13.0,1,1
7.36,0.11378294,-0.148559,9.763772,-0.0005342212,-0.00042994227,7.766313500000001e-05,-11.165037,23.652525,-27.49097,-0.0041809976,0.008804604,0.02327919,990.2864400000001,0,13.0,1,1
7.4,0.099307835,-0.13902256,9.770862,-0.0005342212,-0.00042994227,7.766313500000001e-05,-11.006147,23.906378,-27.068405,0.009698749,-0.0006561726299999999,0.03275776,990.2864400000001,0,13.0,1,1
7.44,0.09929639,-0.14855537,9.777961999999999,0.00026723812,0.0011675453,0.00034505547999999996,-10.840925,23.1657,-27.281478999999997,0.033471823,0.008650288,0.028020859,990.2612,0,13.0,1,1
7.48,0.113624394,-0.14378855,9.768492,-0.00039844144999999997,0.000102263904,0.00034510266000000004,-11.07911,23.100985,-27.702892,-7.864088e-05,-0.0008531362,0.018554688,990.26886,0,13.0,1,1
7.52,0.10405338,-0.13425520000000002,9.770858,-0.0009309632000000001,0.000235404,-5.4323900000000003e-05,-10.905544,23.73786,-28.151827,0.018840909,-0.0059632063,0.05169487,990.2459,0,13.0,1,1
7.56,0.104041964,-0.12948826,9.773225,0.00013441045,0.000102228136,-0.00058690854,-10.355286999999999,23.409885,-27.601554999999998,0.0049787015,-0.0059059709999999994,0.023283957999999997,990.2637300000001,0,13.0,1,1
7.6,0.10642046,-0.1485543,9.756653,0.00013441045,0.000102228136,-0.00058690854,-10.632332,24.256757999999998,-27.685402000000003,0.009340093,0.01329647,0.042229652,990.2637300000001,0,13.0,1,1
7.64,0.11835849,-0.14378741,9.775589,0.00026778853,0.00063482416,-0.0005868142,-11.073704,23.369251000000002,-27.411488000000002,-0.009684271999999999,0.008427203000000001,0.013822556000000001,990.23615,0,13.0,1,1
7.68,0.120737016,-0.13425401,9.775588,0.00026778853,0.00063482416,-0.0005868142,-10.378277,22.86157,-27.565929999999998,-0.00970789,-0.0055688918000000006,0.018561363,990.23615,0,13.0,1,1
7.72,0.11355585,-0.13663703,9.782689,0.00026789866,0.00036849038,-5.413522e-05,-10.496731,23.33016,-27.652077000000002,0.013808711999999999,-0.0005350709,0.03750801,990.2586699999999,0,13.0,1,1
7.76,0.111154556,-0.13187018,9.773219000000001,0.00040127675000000004,0.00023529676,-0.0003203568,-10.805898,23.619882999999998,-27.236466999999998,-0.00044831634000000003,-0.0010258108,0.028035163999999998,990.26416,0,13.0,1,1
7.8,0.10397339,-0.14378628,9.763749,-0.0010633505,-0.00029735293,-5.3993690000000004e-05,-11.011556,23.638115,-27.359811999999998,0.00949657,0.0035340934999999996,0.046966553,990.2462,0,13.0,1,1
7.84,0.10635191,-0.14140278,9.770849,-0.00034496794,-0.0008039863999999999,6.498338000000001e-05,-10.664316,23.805521,-27.885022999999997,0.018545605,0.0036420821999999997,0.046975135999999994,990.2616,0,13.0,1,1
7.88,0.11590009999999999,-0.13901913,9.766114,0.0003209319,0.0011933647,-0.00060075906,-10.995495,23.916693,-27.609539,-0.0053347126,-0.005669266,0.042243958,990.2311,0,13.0,1,1
7.92,0.11827853,-0.13901889999999997,9.768479,0.0005873579,-5.074544e-06,6.507774e-05,-10.825407,23.812567,-27.629658000000003,-0.0054107085,0.008636966,0.032777786,990.2489999999999,0,13.0,1,1
7.96,0.123046935,-0.14855179,9.780315,0.0005873579,-5.074544e-06,6.507774e-05,-10.825407,23.812567,-27.629658000000003,0.0043571293,0.008754596,0.032777786,990.2489999999999,0,13.0,1,1
8.0,0.106306195,-0.14616814,9.763744,5.4836288e-05,0.00026122347,0.0005977567,-10.664316,23.805521,-27.885022999999997,0.004680313,0.013304099,0.03750515,990.26416,0,13.0,1,1
8.04,0.10868466,-0.1366348,9.770844,0.00018810436000000003,-0.00040458416,-6.798576e-05,-10.482192,23.607267,-27.824503000000004,-0.004786633,-0.0010934621000000002,0.023301125,990.26416,0,13.0,1,1
8.08,0.11106312,-0.13901779,9.777944999999999,-0.00087693916,0.00012801192,0.0007310562,-10.709019,23.71079,-27.564651,0.0044020116,0.0034710765,0.028038025,990.25397,0,13.0,1,1
8.12,0.12300122,-0.13425091,9.77321,-7.7881254e-05,-0.00013832185,-0.0008667919300000002,-10.773776,24.177038,-27.735924,-0.01434084,0.0033953340000000003,0.02330017,990.24396,0,13.0,1,1
8.16,0.099090815,-0.13186738,9.759006,-0.00047724496,-0.00040465558,-0.00033411300000000003,-10.902203,24.372942000000002,-27.881565000000002,0.004436955,-0.001369819,0.03750801,990.2621,0,13.0,1,1
8.2,0.10146928,-0.13663366,9.75427,-7.766111e-05,0.00066059007,-0.00033406573,-10.743611,23.994660999999997,-27.88387,0.013913497,0.0034232438,0.056448936,990.2542,0,13.0,1,1
8.24,0.11818719,-0.13425007,9.763738,0.0009877125,-5.217501999999999e-06,-0.00046717657999999993,-10.375776,23.232805,-27.818989000000002,0.009243913000000001,-0.001196295,0.05645084400000001,990.2493,0,13.0,1,1
8.28,0.11339593,-0.13901642,9.768472000000001,-0.0006100727500000001,-0.0001383933,-0.00046712937000000003,-10.536868,23.239851,-27.563623,-0.0049657375,0.008350044499999999,0.037511826,990.262,0,13.0,1,1
8.32,0.11099458,-0.14378262,9.785041,-0.00047680468,-0.00027156918,-0.00046708217000000004,-11.224685000000001,23.7549,-27.795709999999996,0.0091237575,-0.0012491196000000001,0.023312568999999998,990.2824,0,13.0,1,1
8.36,0.10671374,-0.1390284,9.77325,0.00018909517,-0.00013842912,0.00046507062999999997,-10.793722,23.631666,-27.854908000000002,-0.0005525574,-0.010703862,0.023262977999999997,990.2849,0,13.0,1,1
8.4,0.11150241,-0.14617833,9.777986,0.00045185955,-0.00040416839999999997,-0.00046855703,-10.28985,22.681269,-28.03091,0.009030826,0.013259023,0.037467957,990.2393,0,13.0,1,1
8.44,0.11151132,-0.13187891,9.773252000000001,0.0004505776,-0.00013764443000000002,-6.963263e-05,-10.863481,23.355438,-27.520058000000002,0.013834208,-0.0060736835,0.04693222,990.2646,0,13.0,1,1
8.48,0.1115202,-0.1366457,9.775619500000001,-0.00074792944,-0.00013763046,-6.9669244e-05,-10.891144,23.909048000000002,-27.625171999999996,0.004453905,-0.0013379753,0.042194366,990.2853,0,13.0,1,1
8.52,0.11630887,-0.15571219,9.77562,-8.2225175e-05,-0.0005370905,0.0005960838,-10.3211,23.600222,-28.079865,-0.009891315999999999,0.012716948999999998,0.013781548000000001,990.2774,0,13.0,1,1
8.56,0.11392784,-0.143796,9.763785,-0.00034862664,-4.4448243e-06,0.00046288910000000005,-11.019028,23.736667999999998,-27.672363,0.009306446,0.008068159,0.061127663,990.2519,0,13.0,1,1
8.6,0.11632663,-0.14617953,9.773255,0.001249183,0.00039504288,0.00019653657,-10.992992,24.287928,-27.862602000000003,-0.01009427,0.012962966999999999,0.032725334,990.29803,0,13.0,1,1
8.64,0.11872539,-0.13902989,9.775623,5.0675953e-05,0.00026189885,0.0004628158,-11.071203,23.740488,-27.664547,-0.005387187,-0.0013285875,0.018521309,990.26495,0,13.0,1,1
8.68,0.11634439,-0.15332973,9.787459,-0.00034888345,0.00012875476,-0.00020301066000000002,-10.950248,23.643131,-27.831459000000002,-0.005334601,0.0129279345,0.02325344,990.2543300000001,0,13.0,1,1
8.72,0.10918361,-0.13664702,9.773257000000001,5.0504705999999994e-05,-0.00027070509999999997,0.00019642654999999998,-11.233816000000001,23.746057999999998,-27.331878999999997,0.013692326999999999,-0.0012784451,0.046926499999999996,990.27765,0,13.0,1,1
8.76,0.104412615,-0.13188067,9.777992999999999,-0.00021589662,0.0006614143499999999,-0.00086887367,-10.7244,23.169842000000003,-27.91555,0.022868171,-0.006002426,0.023259163,990.2594,0,13.0,1,1
8.8,0.106811404,-0.15333045,9.768525,0.0009824393,0.0005282703,-6.996273e-05,-11.028458,23.095694,-27.633406,0.008142799000000001,0.017675161,0.023260117,990.2699,0,13.0,1,1
8.84,0.11399001,-0.13903102,9.768525,-0.00034922594,0.0009277580499999999,0.00032947440000000004,-11.0772915,23.734598000000002,-27.355328000000004,0.013020694,-0.0013729334,0.06113434,990.275,0,13.0,1,1
8.88,0.11638879999999999,-0.13903117,9.785096000000001,-0.00034922594,0.0009277580499999999,0.00032947440000000004,-11.0772915,23.734598000000002,-27.355328000000004,-0.0013038516,-0.0014164895000000001,0.023257256,990.275,0,13.0,1,1
8.92,0.11400777,-0.1461812,9.770894,-0.00061571284,0.00012883818,-0.00020323067999999998,-10.980412,23.825504000000002,-27.683514000000002,-0.0012609214,0.007850185,0.027986526,990.2649,0,13.0,1,1
8.96,0.109236866,-0.13903159,9.761426,0.00031630718,-0.00013746381,0.00019620644000000002,-10.811167,23.457532999999998,-28.226952,-0.010646208999999998,0.0080215335,0.032720566,990.2598,0,13.0,1,1
9.0,0.111635625,-0.13664854,9.773263,0.00044937956,-0.0005369237599999999,-0.00020330402,-10.741547,23.627844,-27.862724,0.013708763,-0.0014797449,0.042183875999999995,990.2853,0,13.0,1,1
9.04,0.11881420000000001,-0.14141533,9.782733,-0.0014150029000000001,-0.000403738,6.293849e-05,-11.019464,22.998613,-27.398159000000003,-0.00046072155,0.012236789,0.023234367000000002,990.25494,0,13.0,1,1
9.08,0.114043295,-0.15809855,9.775632,-0.00034982489999999997,-0.00013740822,-0.00020341403000000003,-10.733095,23.899057,-27.725929999999998,-0.0004227832,0.031051247999999997,0.03269863,990.2955300000001,0,13.0,1,1
9.12,0.10927236,-0.13903248,9.770899,-0.00034982489999999997,-0.00013740822,-0.00020341403000000003,-10.733095,23.899057,-27.725929999999998,0.018532746,0.012088895,0.05163765,990.2955300000001,0,13.0,1,1
9.16,0.10928124,-0.13426611,9.775634,-0.00034982489999999997,-0.00013740822,-0.00020341403000000003,-10.934187,23.92171,-28.081188,0.008852959,-0.0022584796,0.042170525,990.2955300000001,0,13.0,1,1
9.2,0.10451031,-0.14379945,9.766166,4.956349e-05,0.00012892153,0.00019602311999999998,-10.992887,23.181583,-27.489944,0.0087025985,-0.0022683442000000003,0.027967453,990.2855,0,13.0,1,1
9.24,0.118858576,-0.12950003,9.766166,4.9392125e-05,0.0005284231,0.00032910766000000005,-10.495209,23.331636,-27.729382,-0.020333536,-0.0023865402,0.0327034,990.26044,0,13.0,1,1
9.28,0.11647758,-0.13903335,9.78037,-0.0006164830400000001,0.0009279108500000001,-7.040278000000001e-05,-11.1113405,23.650175,-27.576094,-0.0062379390000000005,0.0018005370999999999,0.023227692,990.2348,0,13.0,1,1
9.32,0.11667514,-0.13665494,9.761451,-0.0010160422999999999,0.0005284509,-0.0007362291000000001,-10.793178999999999,23.263376,-27.756458000000002,-0.011181988,-0.0027369708000000003,0.032661438,990.2555,0,13.0,1,1
9.36,0.10732451,-0.14380988,9.773306,0.00052041386,-0.00052592263,-1.0301592e-06,-10.970737,23.466053,-28.048893,0.008326337,-0.0027855337,0.027920722999999998,990.2859,0,13.0,1,1
9.4,0.1097385,-0.13427737,9.768573,-0.00014770405,-0.0011935113,-0.00040293112,-10.9041605,23.633417,-27.530056,-0.010702706999999999,-0.0032944977,0.032645226,990.258,0,13.0,1,1
9.44,0.11932224,-0.15096092,9.789882,0.00011837958,-0.00026136788,0.0005290749,-10.9757395,22.72358,-27.54277,0.0037128255,0.016193584,0.023176192999999998,990.2832599999999,0,13.0,1,1
9.48,0.114566505,-0.14619496,9.773313,-0.00014816866000000003,-0.00026133022,-0.00013681455,-10.832880000000001,23.91112,-27.942211,0.0039033815,0.00663808,0.037376404,990.29315,0,13.0,1,1
9.52,0.11220074,-0.14619556,9.766213,-0.00041471678,-0.00039445050000000003,-0.00013691408,-10.597059,23.710516000000002,-27.966812,-0.0058162436,-0.0033338070000000003,0.03263378,990.2987699999999,0,13.0,1,1
9.56,0.105055094,-0.14142957,9.773316000000001,-0.0002817912,0.00013821905000000002,-0.00040332943999999994,-10.440533,23.699049,-27.990261,0.013056524,0.0011507869,0.032629967,990.258,0,13.0,1,1
9.6,0.114638865,-0.13189706,9.761483,-0.0002817912,0.00013821905000000002,-0.00040332943999999994,-10.440533,23.699049,-27.990261,-0.0016102567,-0.008576453000000001,0.046833992000000005,990.258,0,13.0,1,1
9.64,0.10749322,-0.13189763,9.780422999999999,-1.5940062e-05,0.001203558,0.00012910325000000002,-10.851549,24.367651000000002,-27.812079999999998,0.012307233999999998,-0.008543581,0.046833992000000005,990.2916,0,13.0,1,1
9.68,0.11946684,-0.14381465,9.761488,-1.5940062e-05,0.001203558,0.00012910325000000002,-10.851549,24.367651000000002,-27.812079999999998,0.0030207038,0.005416705999999999,0.05155945,990.2916,0,13.0,1,1
9.72,0.10993135,-0.14143196,9.768592,-0.0008153523,-0.0006605778,-0.00027056987,-10.710977999999999,22.971266,-27.213141999999998,-0.0015927106,-0.009031564,0.018411636000000002,990.2734,0,13.0,1,1
9.76,0.114735246,-0.14143255,9.763860000000001,-0.0002829528,-0.00039422407,-0.00040382723,-11.123379,23.744310000000002,-27.65673,0.0030086413,-0.0042566955,0.04208374,990.28864,0,13.0,1,1
9.8,0.11236948,-0.14143315,9.775698,-1.6869289999999997e-05,0.00013844534,-0.00040392687999999993,-10.788611999999999,23.267794,-27.988373,0.012576698999999998,0.00026971102000000004,0.046811104000000006,990.2789,0,13.0,1,1
9.84,0.11000365,-0.14620027,9.770964999999999,-0.0005497334,0.00013848299999999998,-0.00040402636,-10.673449,23.796684,-27.421191999999998,-0.0018237531,0.009769365,0.03260708,990.2734,0,13.0,1,1
9.88,0.11958736,-0.15811726,9.7662325,-1.7333787e-05,0.0006711525,0.0006611376299999999,-10.421566,23.874659,-27.695521999999997,-0.006807446500000001,0.014690027,0.056282043,990.25085,0,13.0,1,1
9.92,0.117221594,-0.13905159,9.775704,-0.00015072433,-0.00039407331,0.00052788004,-10.436105,23.597551,-27.523097999999997,-0.011237815,-0.014178841999999999,0.02312851,990.28656,0,13.0,1,1
9.96,0.11246592,-0.12951908,9.759135,0.00011535942,-0.0006603515,0.00039462241999999997,-10.662794,23.806993,-27.962328000000003,0.003060259,-0.019153059,0.056264877000000005,990.28394,0,13.0,1,1
10.0,0.11487988,-0.13905278,9.773341,-0.0006838208,5.4759294e-06,0.000128207,-10.962286,23.737263000000002,-27.912096000000002,0.008234426,0.0044728070000000005,0.042051315,990.2687400000001,0,13.0,1,1
10.04,0.11490399,-0.13905334,9.780444000000001,-0.000550895,-0.0010597499000000001,0.00012810747,-10.93821,23.549001999999998,-27.750821999999996,-0.0010034889,-0.014425114,0.027845382999999998,990.2912,0,13.0,1,1
10.08,0.105368495,-0.1438205,9.761510000000001,0.00024782027999999996,-0.0011928701,-0.00013830791999999999,-11.056663499999999,24.017591,-27.836971000000002,0.013848744,0.00021727382999999997,0.032575607,990.2792400000001,0,13.0,1,1
10.12,0.10300273,-0.15812078,9.782817,0.0010465356,-0.0011928324000000001,0.00026106634,-10.858073,23.623704999999998,-27.228651,0.0047518759999999995,0.014543146000000002,0.027832985,990.2639999999999,0,13.0,1,1
10.16,0.117366195,-0.14382169,9.756780000000001,0.0010465356,-0.0011928324000000001,0.00026106634,-10.858073,23.623704999999998,-27.228651,-0.0039181113,-0.004206449,0.051495552,990.2639999999999,0,13.0,1,1
10.2,0.11500043,-0.13190591,9.778087,0.00051343907,-0.0019917045999999997,0.00012770908999999999,-10.861958,23.356913,-27.597363,0.019941978,0.00044581294,0.042024612,990.26624,0,13.0,1,1
10.24,0.12458414,-0.13190648,9.773355,0.00051343907,-0.0019917045999999997,0.00012770908999999999,-10.384228,22.961594,-27.955786,0.0015166476,-0.009262562,0.037275314,990.26624,0,13.0,1,1
10.28,0.117438555,-0.13667363,9.761519,-0.00041889864999999996,5.702211599999999e-06,-0.00053818006,-11.136938,23.83697,-27.660065000000003,0.0015525222,-0.009083644,0.046746254,990.28955,0,13.0,1,1
10.32,0.11390227,-0.13426223,9.763783,-0.0005522891,-0.0017253133,0.0010596155,-11.065114999999999,23.746382,-27.973768,0.011993438,-0.004401952,0.06105423,990.2792400000001,0,13.0,1,1
10.36,0.10909957,-0.14141151,9.77325,0.00011326837,0.00013893559999999998,0.00012741051999999998,-10.695459,23.618132,-27.561321000000003,0.006907113,0.0049254,0.027917862,990.29205,0,13.0,1,1
10.4,0.10907677,-0.14141098,9.775615,-0.00014275606000000002,-0.0001272416,-1.4872057e-07,-10.663772999999999,23.437231,-27.786571999999996,0.0023216307,-0.004483506,0.023184776,990.2848,0,13.0,1,1
10.44,0.11622363,-0.13902715,9.77798,-0.00014275606000000002,-0.0001272416,-1.4872057e-07,-10.586542999999999,23.614908,-27.808868,-0.003056176,-3.3974647999999994e-06,0.03265953,990.2848,0,13.0,1,1
10.48,0.11142102,-0.14140984,9.773244,-0.00027569397999999996,0.00027219654,-5.4424162999999994e-08,-11.011417,23.74403,-28.05889,0.020577192,0.0047039837,0.05160141,990.2819,0,13.0,1,1
10.52,0.116178006,-0.13902602,9.775609,-0.0010744216,0.0009379504499999999,-0.0005325919,-10.860000999999999,24.096436999999998,-27.948875,0.01113946,-0.0003171116,0.042128563,990.2468,0,13.0,1,1
10.56,0.09464601,-0.14617527,9.782708,-0.0004079717,-0.0010595256,0.0010655863,-10.544884,23.706694,-27.974628000000003,0.03543184,-0.0003426373,0.027924538,990.2568,0,13.0,1,1
10.6,0.11613232,-0.14379147,9.777972,-0.0004079717,-0.0010595256,0.0010655863,-10.370369,23.501072,-27.527582000000002,0.020888418,0.004191488,0.042128563,990.2568,0,13.0,1,1
10.64,0.10177004,-0.13425773,9.787438,-0.0005409095300000001,0.0005383337999999999,0.0006662068,-11.084763,23.833147,-27.667881,0.01614388,-0.009911343000000001,0.018462181,990.2797,0,13.0,1,1
10.68,0.11608666,-0.13425723,9.777967,-0.0005409095300000001,0.0005383337999999999,0.0006662068,-11.084763,23.833147,-27.667881,0.0019196644,-0.004972725999999999,0.046871185,990.2797,0,13.0,1,1
10.72,0.113673925,-0.1437898,9.763761500000001,0.00052479404,-0.0005270012,-0.0007983417599999999,-10.455072,23.421947,-27.817837,-0.007209882,1.3485551000000001e-05,0.0421381,990.2548,0,13.0,1,1
10.76,0.09931165,-0.14855579,9.766127000000001,0.00052479404,-0.0005270012,-0.0007983417599999999,-10.455072,23.421947,-27.817837,0.01660031,0.009463534000000001,0.032670975,990.2548,0,13.0,1,1
10.8,0.12318784,-0.13187227,9.77086,-7.397648000000001e-06,0.00040503290000000003,0.00040026819999999997,-10.998538,23.913744,-27.454929999999997,-0.0073170215000000005,-0.018996596,0.023205757,990.27716,0,13.0,1,1
10.84,0.12077513,-0.13187167,9.770858,-7.177506599999999e-06,-0.00079342426,8.8871457e-07,-11.08672,23.09362,-27.316368,-0.0019060895,-0.004524961,0.051609993,990.24963,0,13.0,1,1
10.88,0.11358261,-0.14140424,9.770856,0.0009034992,-0.0027800156,-0.0003398497,-11.192158000000001,23.837843,-27.497637,0.0034522489,0.0005779713400000001,0.02320385,990.2446,0,13.0,1,1
10.92,0.11355978,-0.15093681,9.763751,0.0003710875,0.00028258128,0.0003260343,-10.267539999999999,23.491957,-27.465909999999997,0.012928858,0.01949881,0.042142868,990.2899,0,13.0,1,1
10.96,0.11831671,-0.13187000000000001,9.773218,0.00010499175,1.6229664e-05,0.00059244456,-10.649074,24.240557,-26.835045,0.0032211244,-0.009199187,0.032676697000000005,990.2498,0,13.0,1,1
11.0,0.11112416,-0.14378586,9.773216,-0.0012263677000000001,0.0014809314000000001,5.9907004e-05,-10.549992999999999,24.070566,-27.841162,-0.0021635368,-0.004670441,0.02794838,990.2475599999999,0,13.0,1,1
11.04,0.11110136,-0.14378527,9.773214,-0.0005603578,0.0014808956,-0.00073894614,-10.957177,23.373392000000003,-28.045559,0.011638998999999999,0.00010907649999999999,0.042160034000000006,990.2601,0,13.0,1,1
11.08,0.12063813,-0.13186827,9.770845,0.00037196782,0.00041559633,-7.3062285e-05,-10.50877,23.424295,-27.732715999999996,0.016595893,-0.004672259000000001,0.03742504,990.27075,0,13.0,1,1
11.12,0.10388601,-0.14378414,9.775577,0.00023903002,-0.0010491767,0.0005928217400000001,-10.719971000000001,23.068342,-27.448390000000003,0.017158695,0.00022757053,0.023220062000000003,990.25745,0,13.0,1,1
11.16,0.11820257,-0.13425049,9.768473,0.0009050397,-0.0014486861999999999,-7.2873634e-05,-10.626137,23.156305,-27.621964000000002,-0.011137888,-0.004453048,0.032689095,990.26215,0,13.0,1,1
11.2,0.122959554,-0.13901648,9.761369,0.00063894375,-0.0011824061999999998,0.0005930104,-11.059163999999999,23.646357000000002,-27.583911999999998,-0.010278717,0.0011151283999999999,0.046895027,990.2602,0,13.0,1,1
11.24,0.11576700000000001,-0.13424936,9.777939,0.0006391641,-0.0010492839,-7.268498000000001e-05,-10.974461999999999,23.725479999999997,-27.293654999999998,0.018091127,-0.013203188999999999,0.037430763,990.23224,0,13.0,1,1
11.28,0.11813402,-0.13901535,9.780303,-0.0002927214,0.0006817336,0.0004600411,-10.695459,23.618132,-27.561321000000003,0.008183494,0.005616739399999999,0.03743553,990.2224,0,13.0,1,1
11.32,0.11381349,-0.14617646,9.770877,0.0005064461000000001,0.00014906607,-0.00020565433,-10.76576,23.710192000000003,-27.324920000000002,0.017412014,0.010641843,0.032661438,990.2682,0,13.0,1,1
11.36,0.11619961,-0.14379314,9.775611,-0.0005626229,0.0002828418,-0.00047360120000000005,-11.153244,24.55882,-27.083916,-0.006766311999999999,0.005472034000000001,0.023190497999999997,990.2784,0,13.0,1,1
11.4,0.12575543,-0.13425985,9.768508,-0.0002968339,0.0008155590600000001,0.0004582786,-10.628883,23.785498,-27.042484,-0.016160063,-0.003858745,0.032660484,990.2528699999999,0,13.0,1,1
11.44,0.11858189,-0.13902631,9.761406,0.00076846615,-0.0013149738000000002,5.8820469999999995e-05,-11.061665,23.275118,-27.330849,-0.0011988282000000002,-0.0034544467999999997,0.046863555999999994,990.2576,0,13.0,1,1
11.48,0.11140841,-0.13902625,9.759039999999999,0.00050218694,-0.0006491901599999999,5.8836245e-05,-11.051554,23.653719,-27.970436,0.018132657,0.010936737,0.056329727,990.26074,0,13.0,1,1
11.52,0.104234874,-0.13187635,9.780342999999998,0.0005022238500000001,-0.00051603816,0.00019200990000000002,-10.560945,23.428114,-27.7249,0.008448884,-0.008240789,0.032658577,990.2682,0,13.0,1,1
11.56,0.11857051,-0.13902608,9.775609,-0.0013619142000000002,0.0020139506,0.00045835722,-10.894485000000001,23.273966,-27.895435,0.0025418922,0.0006950795699999999,0.04686737,990.2535,0,13.0,1,1
11.6,0.12812626,-0.15570894,9.773242,-0.0013619142000000002,0.0020139506,0.00045835722,-10.894485000000001,23.273966,-27.895435,-0.016691685,0.010110259,0.027929306,990.2535,0,13.0,1,1
11.64,0.11856291,-0.14140919,9.780342999999998,-0.0008292456599999999,0.0013481551999999998,5.8899049999999996e-05,-10.543797,22.970112,-27.777725,-0.0031859278999999997,0.00029204786,0.0421381,990.2609,0,13.0,1,1
11.68,0.11377928,-0.14855888,9.775607,0.00036924894,0.00068235357,-0.00034054325,-11.105932000000001,23.91844,-27.284686999999998,-0.008519216999999999,0.009842217,0.023209572,990.3141,0,13.0,1,1
11.72,0.108995676,-0.14617556,9.777974,0.00036924894,0.00068235357,-0.00034054325,-11.060687,23.644882,-27.506607000000002,0.010608896999999999,-0.009052068,0.03268051,990.3141,0,13.0,1,1
11.76,0.12333131,-0.14617544,9.780341,0.00036924894,0.00068235357,-0.00034054325,-11.060687,23.644882,-27.506607000000002,-0.013409734,-0.0042519122,0.018479347,990.3141,0,13.0,1,1
11.8,0.11854768,-0.14617532,9.768505000000001,0.000103006634,0.00028286779999999996,-0.00047366988,-11.034108999999999,23.827852,-27.598391999999997,0.0006031245,0.010011539,0.042155266,990.2585,0,13.0,1,1
11.84,0.12571359,-0.15094182,9.77324,0.000103006634,0.00028286779999999996,-0.00047366988,-10.5875225,23.245146,-27.633112,-0.008923419,0.01001671,0.042154312,990.2585,0,13.0,1,1
11.88,0.11376029,-0.15332499,9.768504,-0.0006959047,0.00081549364,0.0009910832,-11.084518,22.832722,-27.9943,0.010245271,0.019240186,0.04688549,990.2585,0,13.0,1,1
11.92,0.11136654,-0.14140853,9.768504,0.00023623792000000002,-0.00038293379999999996,0.0004584672,-10.476541000000001,22.875104999999998,-27.859515999999996,-0.008468576,-6.7949295e-05,0.03740883,990.27356,0,13.0,1,1
11.96,0.12092239,-0.13664189,9.777972,-0.00016319935,-0.00024978173,0.00032532495,-10.629724000000001,23.52165,-27.565803999999996,-0.018140688999999998,-0.019147664,0.02320671,990.25085,0,13.0,1,1
12.0,0.12330845,-0.1533247,9.780339,-0.00029628383,-0.00024979367000000003,0.0003253564,-10.772689999999999,23.440456,-27.539021999999996,-0.008310057,0.0047552586,0.027939796,990.26404,0,13.0,1,1
12.04,0.12091476,-0.13902494,9.77087,-0.00029628383,-0.00024979367000000003,0.0003253564,-10.772689999999999,23.440456,-27.539021999999996,0.0059611127,7.927418e-06,0.061081885999999995,990.26404,0,13.0,1,1
12.08,0.11374122,-0.14140812,9.773237,0.00023638437,-0.00051611545,-7.410176e-05,-10.820843,23.816986,-27.861572,0.010908238999999998,0.0094310045,0.04214096,990.2389,0,13.0,1,1
12.12,0.113737434,-0.13902476,9.770869,-0.0006956847,1.6510283e-05,-0.00034040186000000003,-10.495752,23.699926,-27.827833000000002,0.001560986,0.009235218,0.03266716,990.2763,0,13.0,1,1
12.16,0.11612349999999999,-0.14140794,9.763767999999999,0.0006359683,0.00028281426,0.00019226133,-10.856114999999999,24.363229999999998,-27.580161999999998,0.011246145,5.979835999999999e-05,0.061077118,990.2615400000001,0,13.0,1,1
12.2,0.113729835,-0.13902459,9.773235000000001,0.00010337311,-0.00024982347,0.0008580667,-10.66323,23.068941,-27.688121999999996,-0.0030872002,-0.009482041,0.03267193,990.25903,0,13.0,1,1
12.24,0.11133617,-0.14140776,9.775603,-0.0008286955999999999,-0.0002498294,0.0005917665499999999,-10.496188,22.96187,-27.553627000000002,0.006506018299999999,-0.004831790999999999,0.018465996000000002,990.2565,0,13.0,1,1
12.28,0.1212247,-0.12949947,9.763797,0.0005029203599999999,1.6480510000000003e-05,0.00019230848,-10.625158,23.52607,-27.797718,0.0065946057,-0.019162431,0.037402153,990.26666,0,13.0,1,1
12.32,0.10962415,-0.14857426,9.778031,0.00023425979,0.00015001906999999998,-0.0002081703,-10.867609,24.089071,-27.56235,0.010299273000000001,0.0046568513,0.032610892999999995,990.2691699999999,0,13.0,1,1
12.36,0.11920664,-0.14142495,9.782769,-0.0004356393799999999,0.00055016,0.0005890162400000001,-10.784727,23.534585999999997,-27.619659999999996,-0.01346688,0.00012052058999999999,0.013672829,990.2542,0,13.0,1,1
12.4,0.13117898,-0.14857534,9.780403999999999,0.00062229554,8.170842e-06,0.00013014994,-11.215691,23.65782,-27.560463000000002,-0.0040028244000000004,0.005117193,0.0326128,990.2565300000001,0,13.0,1,1
12.44,0.1120826,-0.1390428,9.780406,-4.371440400000001e-05,-0.0006575831,0.00013005556,-10.542817999999999,23.339874,-27.953484000000003,0.010400325,0.0050024837,0.032608032,990.2394400000001,0,13.0,1,1
12.48,0.11449534,-0.1366601,9.770938000000001,0.0004886972,0.0005408741,-3.1966774e-06,-11.073267999999999,24.107306,-27.685694,0.010767065,-0.0046699643,0.032600403,990.2567,0,13.0,1,1
12.52,0.11690807,-0.15096033,9.778042999999998,-0.00031047058,-0.0013233013000000001,0.00012986684999999998,-10.6090975,23.804647,-28.04745,-0.008393928,0.0047915727,0.008923531,990.24677,0,13.0,1,1
12.56,0.12649053,-0.1485776,9.761475,-0.00017753289000000002,0.0006741035000000001,-0.00026970138,-10.704996000000001,24.083502,-27.895020000000002,0.0008273423,0.0048577785,0.04206562,990.24396,0,13.0,1,1
12.6,0.11456388,-0.1461949,9.773313,0.0002217208,0.00040782342000000003,0.0007954678,-10.737117999999999,23.526346,-27.395560999999997,-0.0041144267,0.00031615794,0.046804427999999995,990.26184,0,13.0,1,1
12.64,0.109806925,-0.12712917,9.7780485,0.00035465846,0.00067417504,0.00012958379,-10.978347,23.458689,-27.662369,-0.0042773187,-0.013828769,0.027867317000000003,990.22644,0,13.0,1,1
12.68,0.11221969,-0.14381269,9.770949,0.00048759637999999997,-0.0001247369,0.00039580527999999996,-10.507247,23.425767999999998,-27.81002,0.005014986,0.00043275952000000004,0.032603264,990.2442599999999,0,13.0,1,1
12.72,0.11463239999999998,-0.14142999,9.770951,-4.5255627e-05,0.0005410885,0.00026255302000000003,-11.152157,23.822239,-26.887012,-0.004596524,0.0146009475,0.032600403,990.2316,0,13.0,1,1
12.76,0.11226535,-0.14858043,9.782789999999999,-0.0008444235400000001,0.0024053357,0.00039561652000000004,-10.839404,23.167173000000002,-27.358784000000004,0.0033656359000000004,-0.000100925565,0.008937836,990.2343,0,13.0,1,1
12.8,0.11945789999999999,-0.15334752,9.763853999999998,-0.0005783278,0.0020058975,-0.00053658336,-11.02718,24.097591,-27.384289000000003,-0.006736867,0.018637716999999998,0.05628109,990.2677,0,13.0,1,1
12.84,0.09797162,-0.14381495,9.792262,0.0023509266,-0.0033203843,-0.0012024675,-10.740705499999999,23.891695000000002,-27.339401000000002,0.03213676,0.0047710687,0.04681015,990.2674,0,13.0,1,1
12.88,0.11711371,-0.13666567,9.773327,-0.0012445578,0.0018728110999999999,-0.0005367721,-10.496731,23.330161999999998,-27.652077000000002,-0.006066716999999999,-0.0046607554,0.027870178,990.2142,0,13.0,1,1
12.92,0.11474663,-0.13189968,9.778064,-4.6356450000000006e-05,0.00054126733,0.0007947128999999999,-11.234795,23.376297,-27.156124,-0.010904327,-0.01880996,0.027870178,990.257,0,13.0,1,1
12.96,0.11237955,-0.14143339,9.7828,-0.00017973476000000002,8.671253000000001e-06,-4.3290784e-06,-10.45355,23.42342,-27.895142,0.0032080784,-0.00937438,0.018400192,990.2552,0,13.0,1,1
13.0,0.1195721,-0.13428405,9.775701,-0.00017973476000000002,8.671253000000001e-06,-4.3290784e-06,-10.985819000000001,23.557238,-27.97492,-0.0059956014,-0.008919165,0.04207325,990.2552,0,13.0,1,1
13.04,0.11242527,-0.13428465,9.7686,0.00021929866,0.0002750587,-0.00013767582,-11.012939,23.742558,-27.981585,-0.0054682717,-0.013326108,0.037334442,990.2473,0,13.0,1,1
13.08,0.11483800400000001,-0.14620158,9.773337,0.0011511841,-0.0017222747,0.00039486165,-10.552357,23.805246,-28.28718,-8.7976456e-05,0.0009202659,0.03258896,990.2575699999999,0,13.0,1,1
13.12,0.12442046400000001,-0.1390523,9.768605,-4.7457506e-05,-0.0015890810999999998,-4.706555e-06,-10.737960000000001,23.262503,-27.918884000000002,0.00045806169999999997,-0.0034366995000000003,0.04205513,990.2193599999999,0,13.0,1,1
13.16,0.11966351,-0.1390529,9.775708,0.00048473384000000005,-0.000523746,-0.00027121117,-10.813369999999999,23.718432999999997,-27.549019,-0.0041210204,-0.0032388865999999996,0.042053223,990.2449,0,13.0,1,1
13.2,0.12207627,-0.12952039,9.770976,0.00048473384000000005,-0.000523746,-0.00027121117,-10.8494835,24.000834,-27.790932,-0.008846089,0.0016195327,0.027849197000000003,990.2449,0,13.0,1,1
13.24,0.107759655,-0.14143726,9.768611,8.5039894e-05,-0.00012423642,-0.0002713056,-10.591949000000001,23.346643,-28.100275,-0.008926243,-0.007679075,0.027851105,990.2423,0,13.0,1,1
13.28,0.1174694,-0.15097407,9.768625,8.5039894e-05,-0.00012423642,-0.0002713056,-10.591949000000001,23.346643,-28.100275,-0.014808378999999998,0.005933299699999999,0.04204178,990.2423,0,13.0,1,1
13.32,0.10793769,-0.14144167,9.768628,0.00061745127,8.957286e-06,-0.0002714,-10.59263,23.609018,-27.499646999999996,-0.011543311,-0.0046866387,0.027838707,990.2499,0,13.0,1,1
13.36,0.11991513,-0.14620894,9.770997,-0.003376113,0.0054657767,-0.00027431882,-11.106475999999999,24.286734,-27.383136999999998,-0.016218826000000002,0.000923872,0.02784729,990.2550699999999,0,13.0,1,1
13.4,0.10799354,-0.1485928,9.775735000000001,0.000617789,0.0006722264,-0.0006741511,-10.618526,23.163671,-28.008490000000002,-0.0073487014,0.005449608000000001,0.023112297,990.2427,0,13.0,1,1
13.44,0.122360885,-0.13429382,9.763900999999999,-4.826972e-05,0.0005391121400000001,0.00012468133,-10.891441,23.276913,-28.050045,-0.012010156999999999,-0.003806144,0.02784729,990.26025,0,13.0,1,1
13.48,0.11282918,-0.13429454,9.768638000000001,0.0006172508,-0.00025979188,0.0003908819,-11.000900999999999,23.648426,-27.900948,-0.0024359077,-0.008662224,0.056248665,990.2427,0,13.0,1,1
13.52,0.12480658,-0.15097824,9.780477000000001,-0.00031512344,-0.00012659021999999998,-0.00040818102,-10.874975,23.081282,-27.502243,0.002050452,0.014718278999999999,0.027837753,990.2325,0,13.0,1,1
13.56,0.12961423,-0.14382899,9.782846000000001,-0.0009811822,0.000805559,0.00039065134,-10.28042,23.32224,-28.06987,-0.012342535,0.005251944000000001,0.023100852999999998,990.22284,0,13.0,1,1
13.6,0.11530274,-0.15097955,9.763911,0.00021697013,0.00027297088,0.00039053606,-10.6200485,23.162198999999998,-27.931185,0.0066892803,0.015021086000000001,0.05151081,990.2325,0,13.0,1,1
13.64,0.12250039,-0.13191399,9.766281,0.00021697013,0.00027297088,0.00039053606,-10.6200485,23.162198999999998,-27.931185,-0.0027097464,-0.0037544965999999997,0.04203987,990.2325,0,13.0,1,1
13.68,0.11296868,-0.13906458,9.766283,0.0012816958,-0.0001264156,0.00078977935,-10.621273,23.792864,-27.429008000000003,-0.0026459768,-0.008114725,0.032574654,990.23755,0,13.0,1,1
13.72,0.10821682,-0.13906524,9.766286000000001,0.00048247926,0.00040625985,-0.00040875745000000003,-10.7666025,23.446348,-27.848244,0.020997747999999997,-0.0029736906,0.04678154,990.2654,0,13.0,1,1
13.76,0.122584105,-0.13906589,9.775758,8.273639999999999e-05,0.0004063035,0.00012375915,-10.923128,23.457811,-27.824795,-0.0035469383,0.0020943582000000002,0.042057037,990.2758,0,13.0,1,1
13.8,0.12500197,-0.14859971,9.773392999999999,0.0008814148599999999,0.0014716107000000002,0.0009225914,-10.918401,23.988451,-26.93276,-0.0039524140000000004,0.002231434,0.046795845,990.258,0,13.0,1,1
13.84,0.11547026,-0.13191745,9.7639265,0.000747988,0.00093902263,0.00052300235,-10.718449,23.069817,-27.525692,0.005665875999999999,-0.007299483000000001,0.04679203,990.25037,0,13.0,1,1
13.88,0.11549812599999999,-0.14383456,9.768661999999999,-0.0003175444,-0.0001261972,-0.00054237654,-11.263437,23.560143,-27.085484,-0.008597888,0.0070319623,0.032586098,990.2534,0,13.0,1,1
13.92,0.122695714,-0.14145187,9.7734,0.0015463978,-0.0011914171,-9.859999000000001e-06,-11.096939,23.821363,-27.04944,-0.022916175,-0.0023129432999999997,0.037319183,990.2560000000001,0,13.0,1,1
13.96,0.115553945,-0.14383587,9.782872,-0.0011170302,0.0024038912,0.00012318272,-10.968810000000001,22.993319,-27.328669,0.00040667504,-0.016502634,0.032590866,990.26355,0,13.0,1,1
14.0,0.11797178,-0.13668674,9.780507,-0.0001851937,0.00014024964,-0.00040956437999999996,-10.565511,23.423697,-27.492983000000002,-0.013515501999999999,-0.002482608,0.01837349,990.24316,0,13.0,1,1
14.04,0.115609765,-0.14860386,9.759205,8.085361e-05,-0.0013244441,0.00038926797999999993,-10.962423,23.631348000000003,-27.213017999999998,-0.009282663,0.0068144947,0.05624962,990.2231400000001,0,13.0,1,1
14.08,0.11802760000000001,-0.13192153,9.778145,-0.0004520473,0.0013387584,-1.03211205e-05,-10.9865,23.819613,-27.374291999999997,-0.014092698999999998,-0.00734514,0.027843475,990.24835,0,13.0,1,1
14.12,0.12283528,-0.14383861,9.771046,0.00021347337000000003,0.00014038064,0.00065535336,-11.268003,23.555723,-26.853566999999998,-0.023893698999999997,0.002231434,0.03257847,990.2279699999999,0,13.0,1,1
14.16,0.1133036,-0.13907278,9.78762,0.00034636214999999996,0.0012056878999999999,0.00025576419999999997,-10.897231,23.903157999999998,-27.315952000000003,-0.004567921,0.016714081000000002,0.018370628,990.2382,0,13.0,1,1
14.2,0.11811131,-0.14384004,9.7805195,0.00034609334999999996,-0.0011911116000000001,0.00012249098,-10.529802,23.615507,-28.0486,0.004963115,0.002528295,0.032575607,990.25085,0,13.0,1,1
14.24,0.112982094,-0.14144814,9.759183,0.00021266648999999997,7.353694000000001e-06,0.00012237573,-10.602604,23.336332000000002,-27.559140000000003,-0.0038976893,0.0073397309999999995,0.046844482,990.25085,0,13.0,1,1
14.28,0.1126098,-0.14858887,9.778087,0.00034645983,0.00014040852,-0.00040998365,-10.823343,23.445751,-27.608513000000002,0.009961024,0.0074734837,0.03738308,990.25604,0,13.0,1,1
14.32,0.117387116,-0.13428912,9.773353,-0.00044623480000000005,-0.0007927122000000001,0.0006579597,-10.534506,23.50517,-27.117607,0.010301024,-0.0069836230000000004,0.037377357,990.2484,0,13.0,1,1
14.36,0.11021486,-0.14382216,9.76625,0.00056557823,0.00025451375,-0.00017459384999999998,-10.747635,23.621954000000002,-27.553504999999998,-0.008937730999999999,0.012284741000000002,0.042116165,990.24097,0,13.0,1,1
14.4,0.122161806,-0.13428900000000002,9.778087,0.00056557823,0.00025451375,-0.00017459384999999998,-10.747635,23.621954000000002,-27.553504999999998,0.00049272925,-0.0020834506,0.03738308,990.24097,0,13.0,1,1
14.44,0.11259973,-0.14858863,9.768616999999999,0.00043246927000000006,-0.00014496804,-0.00030773077999999996,-10.721058,23.804924,-27.645290000000003,0.0006890371400000001,0.012326986000000002,0.046850204000000006,990.23364,0,13.0,1,1
14.48,0.10064763,-0.13428888,9.754414,0.00043246927000000006,-0.00014496804,-0.00030773077999999996,-10.721058,23.804924,-27.645290000000003,-0.0042082146,-0.0022025555,0.051582336,990.23364,0,13.0,1,1
14.52,0.112594604,-0.13190553,9.773351,0.00043246927000000006,-0.00014496804,-0.00030773077999999996,-11.120036,24.379393,-27.386470000000003,-0.004272923,-0.0070275813,0.02791214,990.23364,0,13.0,1,1
14.56,0.107812285,-0.12952217,9.768616999999999,-0.00010011348,0.00038765586,-0.00017455188,-10.421022,23.506365,-27.597069,-0.004218027,-0.0023535043,0.032645226,990.23364,0,13.0,1,1
14.6,0.11019960000000001,-0.13190539999999998,9.76625,-0.00010011348,0.00038765586,-0.00017455188,-10.421022,23.506365,-27.597069,0.009698369,-0.007017329300000001,0.04685402,990.23364,0,13.0,1,1
14.64,0.103027344,-0.1414384,9.775718,-0.00036640515,-0.00027813792000000003,-0.0007071732499999999,-10.98552,24.189377,-27.550048999999998,0.0096932575,0.011886433,0.023180008,990.2308300000001,0,13.0,1,1
14.68,0.09107533,-0.14620498,9.778085,0.00029940935,0.00092027965,0.0002249429,-10.817392,23.345724,-27.218655,0.009752385,-0.0023760349,0.023180962000000003,990.2384,0,13.0,1,1
14.72,0.117361724,-0.13905501,9.785186,-0.00023317375,0.000121324076,0.00062443764,-10.8013315,23.624302,-27.468384000000004,0.00010905415000000001,-0.00259386,0.018444061,990.2337,0,13.0,1,1
14.76,0.11496931,-0.14143828,9.787552999999999,-0.00023317375,0.000121324076,0.00062443764,-10.8013315,23.624302,-27.468384000000004,-0.004521206,-0.0026079863,0.02791214,990.2337,0,13.0,1,1
14.8,0.10301724,-0.14620474,9.759147,-0.00036630713,-0.0001449958,0.0002249743,-10.438467,23.332232,-27.969114,0.028443366,0.011123463500000002,0.04684639,990.2288,0,13.0,1,1
14.84,0.11257428,-0.1390549,9.770982,0.00016637352999999998,0.0014528916,-0.00057395233,-10.880925,23.181305,-27.892101,0.009240553,0.0017930716,0.037382126,990.2417,0,13.0,1,1
14.88,0.11018187,-0.14143804,9.787552999999999,0.00016637352999999998,0.0014528916,-0.00057395233,-10.880925,23.181305,-27.892101,-0.009980589,-0.0031980574,0.0042390823,990.2417,0,13.0,1,1
14.92,0.11256924,-0.13667145,9.768614999999999,3.324004e-05,-0.0005444814499999999,-0.00030762599999999997,-10.954814,23.638711999999998,-27.599543,-0.009930335,-0.007844611999999999,0.037381172000000004,990.2314,0,13.0,1,1
14.96,0.11973643,-0.15097106,9.766247,-0.00076568313,0.00038762006,0.000757648,-10.85685,22.99304,-27.730827,-0.0049904063,0.011037528500000001,0.06104946,990.21375,0,13.0,1,1
15.0,0.11973389999999999,-0.14382115,9.773347,-0.00023302682999999996,-0.00054448936,-0.0007070788400000001,-11.07827,23.364832,-27.179572999999998,0.004903838,0.0061593056000000005,0.042107582000000005,990.2539999999999,0,13.0,1,1
15.04,0.110171705,-0.13905454,9.778083,-9.984456e-05,-0.00081080943,-0.0005739104,-11.20213,23.565160000000002,-27.557128999999996,-0.0003862083,-0.0033347905,0.023176192999999998,990.2492,0,13.0,1,1
15.08,0.117338896,-0.14143777,9.773348,0.0008323102,-0.00014502753000000002,0.0002250582,-11.038538,23.92935,-28.065554,0.014220998,0.0013014823,0.04684353,990.2418,0,13.0,1,1
15.12,0.10060704,-0.15812066,9.785184,0.0008323102,-0.00014502753000000002,0.0002250582,-11.038538,23.92935,-28.065554,0.004465050999999999,0.015851796,0.023177147000000002,990.2418,0,13.0,1,1
15.16,0.1077742,-0.13905436,9.768613,0.00029972717,-0.00014503548000000002,0.0003582371,-10.901116,23.636364,-27.684665999999996,-0.009593338,0.0013844669,0.023172379,990.2645,0,13.0,1,1
15.2,0.10060197,-0.14382085,9.768613,0.00016659367,-0.00027819746,-0.00044070007,-10.53839,23.238379000000002,-27.486319,0.009424917,0.0059010090000000005,0.037373542999999995,990.2495,0,13.0,1,1
15.24,0.10799056,-0.1485928,9.76153,-9.969788e-05,0.0005207463,9.194216999999999e-05,-10.709562,24.079079999999998,-27.663104999999998,-0.00059441477,0.005842551600000001,0.046824455,990.2418,0,13.0,1,1
15.28,0.11038682,-0.13905981,9.768634,-0.0007665275,-1.1716677999999999e-05,-0.00070745125,-11.016664500000001,24.001986,-27.226349,0.013952881,0.005652562,0.05155182,990.2393,0,13.0,1,1
15.32,0.10800326,-0.14144328,9.787571,-0.00023500019,-0.00041101116000000004,-0.00044160863,-10.804236999999999,23.72727,-28.01285,0.008780174,0.00094623864,0.013682365,990.2398,0,13.0,1,1
15.36,0.110399574,-0.1485933,9.775736,0.00016441252,0.0009205781,-0.00044163482,-10.443033999999999,23.327814,-27.737198,0.018262043999999998,0.015340164,0.037355423,990.2474,0,13.0,1,1
15.4,0.10323620000000001,-0.14621013,9.761534,3.1193227e-05,0.0002547984,-0.00017534525,-10.5859995,23.246617999999998,-27.710419,0.008508034,0.0008837282699999999,0.05155754,990.2393,0,13.0,1,1
15.44,0.09129304,-0.14621025,9.768636,0.00016428981,0.0003879663,0.0003572602,-10.748613,23.25219,-27.377747999999997,0.02260217,0.005456984000000001,0.02788639,990.24005,0,13.0,1,1
15.48,0.10324889400000001,-0.14144388,9.773372,-0.000501561,0.00078745,-0.00097434537,-11.274252,23.023611,-27.668296999999995,0.0031639934,-0.004013106,0.018419266,990.2655,0,13.0,1,1
15.52,0.09847539999999999,-0.15336046,9.775739,3.1009640000000005e-05,-0.00014464563,0.0003572078,-11.140823,23.570175,-28.028776,0.017465763,0.01980485,0.042092323,990.207,0,13.0,1,1
15.56,0.110431254,-0.1342943,9.768638000000001,-0.00023536724999999997,0.00038799603,0.0004903396,-10.901116,23.636364,-27.684665999999996,-0.006432101,-0.004017934,0.037356377,990.2477,0,13.0,1,1
15.6,0.10326785,-0.13667777,9.771006,0.00043036122,-0.00027778366,-0.00044179222000000003,-10.943617,23.280732999999998,-28.042229,0.007912866999999999,-0.004186913400000001,0.051555634,990.2604,0,13.0,1,1
15.64,0.09132472,-0.13429466,9.766271000000001,-0.00050180533,-0.0004109317,9.081344e-05,-10.55195,23.331038,-27.48965,0.0033649653000000002,-0.00436455,0.018410683,990.2502,0,13.0,1,1
15.68,0.12956947,-0.1462112,9.778108,0.00029708116,-0.0006772376400000001,-4.2370782e-05,-11.442518,23.761347,-27.300613000000002,-0.025135085,0.0055038034999999996,0.03734969999999999,990.2249,0,13.0,1,1
15.72,0.110456616,-0.13667825,9.775742,-0.00023561172000000001,0.00012171986000000001,9.076108e-05,-11.031065,23.830797,-27.753002000000002,0.008066125,-0.008563578,0.023151397999999997,990.258,0,13.0,1,1
15.76,0.11524275,-0.14382827,9.77811,-0.00036883065999999997,0.00025488767999999997,-0.00017558111,-10.561786,23.164270000000002,-28.24822,-0.011043176000000002,-0.009301901,0.018405914,990.2605,0,13.0,1,1
15.8,0.105689466,-0.12714544,9.76864,-0.0005020498,-1.1418248000000002e-05,-0.00044192307,-10.369688,23.238697,-28.128208,0.012696981000000001,-0.0043625683,0.046816826,990.28076,0,13.0,1,1
15.84,0.11764532,-0.13429543,9.7686405,-0.0005021719,0.00012175954,-0.0009746072,-10.7494545,22.988342000000003,-27.90107,0.0029481128000000004,-0.0043709576,0.046818733,990.24316,0,13.0,1,1
15.88,0.112871885,-0.13191238,9.773375999999999,-0.0005021719,0.00012175954,-0.0009746072,-10.7494545,22.988342000000003,-27.90107,0.0028748587,-0.018939108,0.018407822,990.24316,0,13.0,1,1
15.92,0.10570851,-0.14621216,9.771009,-0.0009129505999999999,-0.00025549982000000004,0.00034611017,-10.512112,22.789210999999998,-28.002975,0.012687786999999999,0.0049106777,0.046812057000000004,990.2409,0,13.0,1,1
15.96,0.120054245,-0.14144579,9.775744,-0.0009129505999999999,-0.00025549982000000004,0.00034611017,-10.61312,23.431938,-27.717083000000002,-0.0064821467,-0.0046991854999999996,0.061014175,990.2409,0,13.0,1,1
16.0,0.105721176,-0.14621243,9.763909,0.00028534865,-0.00012232203,-5.3416005999999995e-05,-10.990385,23.552818,-27.743004,0.0081662685,0.009518608000000001,0.051538467000000004,990.2358,0,13.0,1,1
16.04,0.10811743,-0.14144608,9.771011,-0.00011418617,-0.00038862802000000005,-0.0007192319000000001,-10.624614999999999,23.15778,-27.699268,0.008393727,0.0049438924,0.042069435,990.23834,0,13.0,1,1
16.08,0.09856415,-0.12714651,9.782847,0.00041838447,-0.0005217760299999999,-0.00045294221,-11.084763,23.833147,-27.667881,0.02271422,-0.009401649,0.03733349,990.23834,0,13.0,1,1
16.12,0.110520035,-0.14144635,9.771011999999999,-0.00024746634999999996,-0.00025545022999999995,-5.3494587e-05,-11.305502,23.942564,-27.717253000000003,-0.0063535944,0.0002373904,0.032606125,990.2411,0,13.0,1,1
16.16,0.10574663,-0.13906327,9.761544,-0.00024746634999999996,-0.00025545022999999995,-5.3494587e-05,-11.305502,23.942564,-27.717253000000003,0.012472823000000001,-0.00934726,0.065748215,990.2411,0,13.0,1,1
16.2,0.10814285,-0.14144665,9.761544,1.872683e-05,0.0002772014,7.9610734e-05,-10.805759,23.725798,-27.935545,0.007873222,0.00047123432000000003,0.051546097,990.2181,0,13.0,1,1
16.24,0.108823836,-0.14146337,9.766341,0.00055129745,-0.00012226237,-0.0008525208999999999,-10.931142999999999,23.924654,-28.235796,0.012492298999999998,-0.00477989,0.05146885,990.2587,0,13.0,1,1
16.28,0.11363661,-0.13908097,9.766345,-0.0009176821000000001,-0.0009233531,0.00020890994,-11.450426,23.121843,-27.338959000000003,0.007149941999999999,0.014276579,0.051472664,990.25885,0,13.0,1,1
16.32,0.10649988,-0.15814802,9.775817,-0.0003861567,0.00094103784,-0.0005905119,-10.830273,23.176012,-27.822613,0.006847903000000001,0.019095317,0.05147457,990.2339999999999,0,13.0,1,1
16.36,0.104142934,-0.12954944,9.759249,-0.0003861567,0.00094103784,-0.0005905119,-10.830273,23.176012,-27.822613,0.006561689,-3.8295984e-05,0.06567764,990.2339999999999,0,13.0,1,1
16.4,0.104175925,-0.14861646,9.768722,0.00014615749,0.0009410894,0.00047461542999999997,-10.4150715,23.40634,-27.207212,0.01126872,0.004969761,0.042006493,990.2389999999999,0,13.0,1,1
16.44,0.1089887,-0.14146742,9.778192,0.00027867957000000005,-0.0009230185,-0.0007240783299999999,-10.476242,23.50724,-27.434642999999998,0.00642737,0.00023521482999999996,0.04673767,990.2264,0,13.0,1,1
16.48,0.12097114,-0.13908496,9.761625,-0.00025426978,0.00014229656999999998,-5.8424834e-05,-10.800789,23.256014,-27.369932000000002,-0.008012839,-0.0044655353,0.05147171,990.25885,0,13.0,1,1
16.52,0.10666472,-0.1510022,9.768728999999999,0.0002780443,0.0006749799400000001,0.0004740707,-10.728964999999999,23.165422,-27.683636,0.005992204,0.010017008,0.046740532,990.2416400000001,0,13.0,1,1
16.56,0.10430779999999999,-0.12717015,9.768733000000001,-0.0006543794,9.241805e-06,-0.00019185519,-10.927151,23.085102,-27.494427,0.0110773,-0.014222651999999999,0.046728134000000004,990.2389999999999,0,13.0,1,1
16.6,0.10434076,-0.13432083,9.775838,-0.00012206516000000002,0.00027560919999999997,-0.00019199138999999999,-10.781928,24.537962,-27.44785,0.006081603499999999,-0.0046867129999999995,0.027789116000000003,990.2416400000001,0,13.0,1,1
16.64,0.10915357,-0.13432166,9.771106,0.00014393314,0.00054197665,0.00020734625,-10.656845,23.706972,-27.572468,-0.013316966999999999,-0.00026276707999999996,0.027784347999999997,990.262,0,13.0,1,1
16.68,0.09723699,-0.14385554,9.761641000000001,-0.00092164834,0.0001425545,7.4052135e-05,-10.63331,23.886993,-27.509644,0.019765027,0.004535705,0.051455497999999995,990.23145,0,13.0,1,1
16.72,0.10921949,-0.14623967,9.780581,-0.0001230186,0.00014260610000000002,-0.0004587159,-11.131829,23.473097,-27.79353,0.014817700000000001,-1.9058585e-05,0.041989325999999993,990.262,0,13.0,1,1
16.76,0.10447264,-0.1343241,9.773482000000001,0.00027613763999999997,0.0006752895,0.0003400956299999999,-10.800651,23.361929,-28.06901,0.01948917,-0.00025819242,0.037249565,990.262,0,13.0,1,1
16.8,0.097335905,-0.13909143,9.764016,0.00040897800000000005,0.00040902515,0.0011389072,-10.946117999999998,22.909498000000003,-27.789165,0.009468391999999999,-0.009722769000000001,0.041986465,990.2368,0,13.0,1,1
16.84,0.11648810000000001,-0.1271759,9.76402,-0.00039028793,0.0009417085,0.00073929713,-10.720811999999999,22.804499,-27.971709999999998,-0.014680222,-0.009817049,0.03725052,990.2446,0,13.0,1,1
16.88,0.10935134,-0.13670975,9.759288,-0.00025744745,-0.00025666138,7.337121999999999e-05,-11.091692,23.563408,-27.88198,-0.004877350999999999,-0.009471938000000001,0.051452637,990.237,0,13.0,1,1
16.92,0.12133381,-0.13909385,9.766392999999999,-0.0002577649,-0.00025660974999999997,0.0011384985000000001,-10.681219,23.263102,-28.158615,-0.0048068017,-0.004693523,0.05618286,990.28033,0,13.0,1,1
16.96,0.102247566,-0.14147797,9.761662,0.0002745488,-0.0002565582,7.309887e-05,-11.042017,23.188349,-27.636738,0.014078826000000001,-0.004891485,0.046710014,990.2855,0,13.0,1,1
17.0,0.09511083,-0.13432893,9.7735,-0.00012524283,0.0002761251,-6.0195277999999996e-05,-11.215691,23.65782,-27.560461,0.019247144,0.009315327,0.03249836,990.2548,0,13.0,1,1
17.04,0.12143269,-0.136713,9.778238,7.5976423e-06,-0.0010554027,0.0004723003400000001,-11.031065,23.8308,-27.753002000000002,-0.02356875,-0.009734362,0.023023605,990.2549,0,13.0,1,1
17.08,0.12385559,-0.13671383,9.768772,7.2797119999999994e-06,-0.0009221932,0.00047216415999999997,-10.845353999999999,23.267198999999998,-27.74864,-0.009244911,-0.00030647217999999995,0.05615902,990.2471300000001,0,13.0,1,1
17.12,0.109549165,-0.14386445,9.780610000000001,-0.00065882795,0.0005425957499999999,-6.060378000000001e-05,-10.953292,23.640184,-27.67685,-0.023465417000000002,0.0047110766,0.013548851,990.2701400000001,0,13.0,1,1
17.16,0.109582126,-0.13194886,9.77588,-0.00065882795,0.0005425957499999999,-6.060378000000001e-05,-10.577005,23.14954,-27.475170000000002,-0.004329905,-0.014088213,0.027750969,990.2701400000001,0,13.0,1,1
17.2,0.10222381,-0.13909408,9.773496000000002,0.00053895847,-0.00012309081,-6.0876133e-05,-10.817255000000001,23.451641,-27.917732,0.01489187,5.7920814e-05,0.04199314,990.24506,0,13.0,1,1
17.24,0.109191716,-0.14385566,9.77111,0.00053895847,-0.00012309081,-6.0876133e-05,-10.817255000000001,23.451641,-27.917732,-0.008881316,6.106496e-05,0.027787209,990.24506,0,13.0,1,1
17.28,0.11398667,-0.14147279,9.78058,0.00027635208,-0.00025685097,-0.0007250760000000001,-11.043944999999999,23.661085,-28.356956,-0.008963935,0.0051328987,0.032525063,990.23285,0,13.0,1,1
17.32,0.11161202,-0.1319401,9.768745,9.742595e-06,0.00014267051,-5.9412094e-05,-10.424364,22.871283,-27.86733,-0.009022355,0.0004194528,0.02305603,990.2403,0,13.0,1,1
17.36,0.08055854,-0.14624009,9.773481,9.742595e-06,0.00014267051,-5.9412094e-05,-10.424364,22.871283,-27.86733,0.033994667,0.01467596,0.041992188,990.2403,0,13.0,1,1
17.4,0.106862724,-0.13909066,9.771115,9.595910999999999e-06,-0.00012362149,-5.9475016e-05,-10.591949000000001,23.346643,-28.100275,-0.009546883,0.0002900511,0.023057937999999997,990.24536,0,13.0,1,1
17.44,0.10209811,-0.14385757,9.764014,0.00029842602000000005,0.0008800191,0.0005594087,-10.893644,23.537813,-27.372111999999998,-0.00012850761,0.0005208254,0.03252983,990.202,0,13.0,1,1
17.48,0.102113366,-0.13670808,9.77822,3.1963347e-05,0.00048056910000000006,-0.000106444,-10.671246,23.535784,-28.099123,0.014353022,-0.0043961555,0.03725815,990.2556,0,13.0,1,1
17.52,0.10690838,-0.13909176,9.764018,-0.0005008151,-0.0009841444,-0.0006391386,-10.496731,23.330161999999998,-27.652077000000002,-0.008858590999999999,0.0002516806,0.03251362,990.2403,0,13.0,1,1
17.56,0.10931355,-0.146242,9.771121,-0.00023464613999999999,-0.0015167523999999998,-0.00023972772999999997,-10.851848,23.735514000000002,-28.236947999999998,0.00044014305,0.0049467683,0.027778625,990.2174699999999,0,13.0,1,1
17.6,0.111718655,-0.13909248,9.768756,-0.00010163499,0.00061379856,2.6525231e-05,-11.013781,23.478711999999998,-28.504906,0.009966321,-0.0046155006,0.04197979,990.2531,0,13.0,1,1
17.64,0.11173385400000001,-0.14147612,9.764022,-0.00010163499,0.00061379856,2.6525231e-05,-11.013781,23.478711999999998,-28.504906,-0.009231642,4.8458576000000005e-05,0.018306732,990.2531,0,13.0,1,1
17.68,0.11891878,-0.13670996,9.778227000000001,-0.00010178179,8.1190614e-05,-0.00010669557399999999,-11.129328,23.844334,-28.046589,-0.004607357,-0.014521405,0.032506942999999996,990.2302,0,13.0,1,1
17.72,0.106984556,-0.14862674,9.766392,-0.0009008762400000001,-5.1943476e-05,0.0008253470299999999,-10.916496,23.095413,-28.035564,0.009909019,0.004421532,0.05143833,990.2506,0,13.0,1,1
17.76,0.10460988,-0.13671067,9.759292,0.00016409368000000002,-0.00045136964999999997,0.00069206324,-10.916199,23.727552,-27.610691,0.014824063,-0.000520885,0.04669857,990.2456699999999,0,13.0,1,1
17.8,0.10940492,-0.14386097,9.775864,0.00016409368000000002,-0.00045136964999999997,0.00069206324,-10.916199,23.727552,-27.610691,-0.0092858225,0.0044355392,0.027765274,990.2456699999999,0,13.0,1,1
17.84,0.11419994,-0.13432819,9.771131,-0.00010251591,0.0004807836,-0.0007727999499999999,-10.895029,23.642254,-27.993885,-0.013991571999999999,-0.01447165,0.03249836,990.2258,0,13.0,1,1
17.88,0.12138486,-0.14624494,9.782967999999999,-0.00036897848,-0.0005844561,-0.000107073225,-10.744591,23.624899,-27.708115000000003,0.0004971847,-0.009614468000000001,0.023028374,990.23096,0,13.0,1,1
17.92,0.12140012,-0.1343289,9.773501,0.00016350648,8.135745e-05,0.0002923378,-11.10968,23.757565,-28.352474,-0.018745571000000003,-0.01406315,0.018296242,990.2735,0,13.0,1,1
17.96,0.111855745,-0.14386246,9.7664,0.0012286232000000002,0.0004808551,0.00029227487,-11.152861,23.664307,-28.109413,-0.009276457,-8.945167e-05,0.041963577,990.24316,0,13.0,1,1
18.0,0.10948104,-0.14624605,9.77587,0.0012286232000000002,0.0004808551,0.00029227487,-11.152861,23.664307,-28.109413,-0.009276457,-8.945167e-05,0.041963577,990.24316,0,13.0,1,1
18.04,0.12622559,-0.14386317,9.773503999999999,-0.0007688927,0.00021456307000000002,0.00069168577,-11.165037,23.652525,-27.490973999999998,-0.018826008,-0.000116571784,0.027758598,990.23816,0,13.0,1,1
18.08,0.13102067,-0.14863011,9.77824,-0.0005028704,0.00021461074,-0.0005068615,-11.010033,23.63959,-27.437116999999997,-0.018557854,0.01812981,0.027741432000000003,990.24115,0,13.0,1,1
18.12,0.11669645,-0.13671407,9.782976,0.00042908837,0.00021463452000000001,-0.00024060857999999997,-10.912068,22.993916,-27.568401,0.00040547550000000004,0.004088893499999999,0.03721428,990.2233,0,13.0,1,1
18.16,0.1143218,-0.15101412,9.766408,0.0008284153999999999,0.00074729015,0.0002919603,-11.052236,23.916092000000003,-27.369808000000003,0.00031884759999999997,0.009387359,0.051424026,990.2233,0,13.0,1,1
18.2,0.10662496,-0.1486179,9.775828,0.0012277424000000001,-5.1633768e-05,0.00015873942,-11.088242999999999,23.092148,-27.239063,-0.008623369,-0.00047126412000000006,0.023059845,990.2362699999999,0,13.0,1,1
18.24,0.12095803,-0.1295515,9.759257,-0.0011653558,-0.0004517154,2.7186383e-05,-10.711925500000001,23.813763,-28.10912,-0.0036359504,-0.014646754,0.041998863,990.24365,0,13.0,1,1
18.28,0.11139208,-0.14861760000000002,9.7805605,0.00043387164000000005,-0.0003187737,-0.00010540068600000001,-10.86693,23.8267,-28.162975,0.0012254192999999998,0.0044416785,0.03252983,990.2513,0,13.0,1,1
18.32,0.108995855,-0.13431779,9.7687235,-0.00036501489999999997,-0.0004519416,2.7783447999999997e-05,-11.145389999999999,23.56576,-27.796862,0.010685593,-0.009951726,0.046733856,990.2641,0,13.0,1,1
18.36,0.11854905,-0.13670090000000001,9.763989,0.00070030964,0.00061331206,0.0008267573,-11.510074000000001,23.224215,-27.643696000000002,-0.013339326,-0.005202666,0.041999817,990.2237,0,13.0,1,1
18.4,0.11137301,-0.13908401,9.7805605,-9.8576296e-05,0.00048014402000000003,0.00056046783,-11.243651,23.57929,-28.090446000000004,-0.0036791859999999997,-0.00051777065,0.01832676,990.2515,0,13.0,1,1
18.44,0.10658687,-0.14623374,9.790028,-0.00063114695,0.00034697622,0.000560494,-10.923127000000001,23.457811,-27.824795,-0.0038723648,0.004233166599999999,0.01832962,990.2515,0,13.0,1,1
18.48,0.11614013,-0.13908371,9.773457,-0.00063114695,0.00034697622,0.000560494,-10.66141,23.702552999999998,-27.340553000000003,0.0007623136,-0.0052039027000000005,0.042004585,990.2515,0,13.0,1,1
18.52,0.10418427,-0.13431695,9.768722,0.0007005546,-0.00058514916,0.00016107258999999998,-10.971417,23.728426000000002,-27.448265000000003,0.019891545,-0.0050720274,0.042007446,990.2415,0,13.0,1,1
18.56,0.10895774,-0.1319336,9.775822,-9.833182399999999e-05,0.00048010437999999997,2.7940783000000002e-05,-11.114384,23.64723,-27.421484000000003,0.0007196142999999999,-0.014470786000000001,0.03254223,990.25635,0,13.0,1,1
18.6,0.11851102,-0.14384982,9.756885,0.00083383475,-0.00018569521000000002,0.00016112498,-10.718992,23.438108,-27.624144,0.0053793713,0.0048742740000000005,0.06568813,990.24445,0,13.0,1,1
18.64,0.11133495,-0.12954998,9.782924000000001,0.0003012641,0.0006132425,0.00029430900000000003,-10.824864999999999,23.444277,-27.531206,0.0007444247599999999,-0.0045799613,0.027813911,990.24146,0,13.0,1,1
18.68,0.108938694,-0.14146623,9.766353,3.5009354e-05,-0.000318873,-0.00010513851999999999,-11.068296,23.637518,-27.120079999999998,-0.004009612,0.009993389,0.02781868,990.25964,0,13.0,1,1
18.72,0.10654247,-0.14146605,9.773454,3.5009354e-05,-0.000318873,-0.00010513851999999999,-11.068296,23.637518,-27.120079999999998,0.015225902,-0.00415729,0.046757698,990.25964,0,13.0,1,1
18.76,0.10892603,-0.13669929,9.771085000000001,0.00070086005,-5.2567055e-05,-0.00010511243999999998,-10.8257065,23.180429999999998,-28.05453,0.0008495003,0.004593432,0.032544136,990.2420699999999,0,13.0,1,1
18.8,0.0969702,-0.14623229999999998,9.754514,-0.00036428123999999995,-5.2586875e-05,-0.0005045339,-10.9463625,23.909925,-27.462746000000003,0.034446567000000004,-0.009653494,0.060951233,990.25214,0,13.0,1,1
18.84,0.11369318,-0.12954918,9.773452,-0.00049737806,-5.2596800000000004e-05,0.00056075584,-10.517763,23.521376,-27.967962,0.0012391061,-0.009652019,0.03254223,990.247,0,13.0,1,1
18.88,0.11368683,-0.14861524,9.775819,-0.00023100106,-0.0005852384,-0.00063763943,-11.077833,24.102885999999998,-27.453777000000002,-0.008479364,0.004566744,0.02307415,990.247,0,13.0,1,1
18.92,0.111290574,-0.15576497,9.763982,-9.778210999999999e-05,0.00048001515,-0.00037129736000000006,-10.772689999999999,23.440456,-27.539021999999996,-0.008913659,0.0045966953,0.042016983,990.20874,0,13.0,1,1
18.96,0.123233765,-0.13431534,9.756879,0.00029197062000000003,0.0011302889,0.00040419065,-11.160471000000001,23.656942,-27.722889000000002,-0.008956522,-0.009548201999999999,0.05622387,990.2498,0,13.0,1,1
19.0,0.11844754,-0.13431513,9.759246000000001,0.00029203162,0.0003313314,-0.00012841492,-11.193977,23.204233,-27.845203,0.001009427,-0.01431942,0.060955048,990.22687,0,13.0,1,1
19.04,0.118441224,-0.14384809,9.785285,0.00029203162,0.0003313314,-0.00012841492,-11.193977,23.204233,-27.845203,-0.013061061499999999,0.00019711256,0.027814865,990.22687,0,13.0,1,1
19.08,0.10170555,-0.12716505,9.778182000000001,0.00015899639999999998,-0.00046763615999999996,-0.00039467824,-11.275881,24.12848,-27.96365,0.020331584,3.1873584e-05,0.03728199,990.25745,0,13.0,1,1
19.12,0.111258835,-0.14623106,9.761612,-0.00024041619999999998,-0.00073396193,0.00040429566,-10.685784,23.25868,-27.9267,-0.0078011677,0.0048633515999999995,0.042012215,990.24,0,13.0,1,1
19.16,0.11386254400000001,-0.14861956,9.768733000000001,0.00029227656000000004,-0.000600814,-0.0003946259,-11.224141,23.386606,-27.697258,-0.0034068078000000003,0.0096592605,0.060910225,990.232,0,13.0,1,1
19.2,0.11886945,-0.1367088,9.778222,0.00015865204,-6.8106456e-05,4.648027200000001e-06,-11.162537,24.02376,-27.744034000000003,0.0013293996,-5.4314732999999994e-05,0.027765274,990.2320599999999,0,13.0,1,1
19.24,0.12605056,-0.15100873,9.775855,-0.0005108673,0.00019881487,0.00040252349999999996,-10.372732000000001,23.23575,-27.973598,-0.01778008,0.01421015,0.032499312999999995,990.2626,0,13.0,1,1
19.28,0.1141125,-0.13909253,9.771123,-0.00037781934999999995,-0.00020064104,-0.0009291032300000001,-10.508225999999999,23.056005,-27.634265999999997,0.0014987588,-0.004899889,0.04196453,990.2626,0,13.0,1,1
19.32,0.109344125,-0.14147618,9.761655000000001,0.00028786034,-6.746531e-05,0.00026927117000000004,-10.778777,23.434565,-27.229803000000004,-0.012957916000000002,-0.009392992,0.032499312999999995,990.2451,0,13.0,1,1
19.36,0.11174542,-0.14147642,9.759289,0.0006872241499999999,0.00033202642,-0.00039656574,-10.702931,23.716684,-27.873875,-0.008357711,-0.0047160685,0.032499312999999995,990.25037,0,13.0,1,1
19.4,0.11414677,-0.13671017,9.778228,-0.00011183348999999998,-0.00020058748,-0.0006629286999999999,-11.0676155,23.375142999999998,-27.720707,-0.008277096,-0.004496366,0.013562201999999999,990.2498,0,13.0,1,1
19.44,0.123717785,-0.15339342,9.780595,2.1214437e-05,0.00019890421999999998,-0.00026350204,-10.787229,23.163351000000002,-27.3666,-0.0124981925,0.014021769,0.023015976,990.2498,0,13.0,1,1
19.48,0.116559446,-0.15101036,9.775863000000001,-0.0009110013,-0.0011326573,-0.00026354924,-10.576164,23.413387,-26.951846999999997,0.006678395,0.01411581,0.041953087,990.24,0,13.0,1,1
19.52,0.10940119599999999,-0.14624411,9.778231,0.0006867841,-0.0013989554,0.0002690354,-11.031065,23.830797,-27.753002000000002,0.00757318,0.0046703964,0.027739525,990.24005,0,13.0,1,1
19.56,0.10224289,-0.13671127,9.759294,0.00042035797,-0.0012657795,-0.00039680142,-10.747932,22.989817000000002,-27.978374,0.012438073999999999,-0.00017736852,0.05140686,990.245,0,13.0,1,1
19.6,0.11898363,-0.14147809,9.773498,-0.00064501545,6.58177e-05,-0.0005300066000000001,-10.729944,22.79566,-27.507881,-0.0017916784,-0.005147367700000001,0.046668053,990.24255,0,13.0,1,1
19.64,0.12138492,-0.146245,9.7687645,-0.0005119675,-0.00020048026999999998,-0.00026373777999999997,-11.032588,23.829325,-27.675696999999996,-0.006595038,0.009341702,0.041936874,990.2579300000001,0,13.0,1,1
19.68,0.10466701,-0.1390954,9.7734995,0.0002868701,-6.73045e-05,-0.0005301009,-10.941253999999999,23.546051000000002,-27.59621,0.012523487,0.009294689,0.041934013,990.2477,0,13.0,1,1
19.72,0.099898666,-0.14386222,9.768767,-0.00024587189999999997,-0.00046676047999999996,0.00013564166,-10.864023,23.723728,-27.618509999999997,0.016856566,0.004379913,0.03246689,990.2633,0,13.0,1,1
19.76,0.11185956,-0.12717962,9.761666,0.0002866501,0.0012643106,-0.0010628267999999998,-11.099845,23.924333999999998,-27.593906,-0.0067590919999999995,-0.019443229,0.037197113,990.24286,0,13.0,1,1
19.8,0.109481096,-0.12956312,9.782972000000001,2.0223975e-05,-0.00020040879,0.0005350212000000001,-10.725921000000001,23.168367,-27.838246999999996,0.01245553,-0.02415663,0.032461166,990.23755,0,13.0,1,1
19.84,0.1142723,-0.13909653,9.778239,-0.0005125178,-0.00059986475,-0.0002639737,-10.468633,23.514608,-27.821167,0.007714972,-0.014527023,0.041930199999999994,990.23035,0,13.0,1,1
19.88,0.1023342,-0.15816307,9.773505,-0.0005125178,-0.00059986475,-0.0002639737,-11.055577,23.281010000000002,-27.640068,0.022180557000000004,0.009175046999999999,0.056128502000000004,990.23035,0,13.0,1,1
19.92,0.10712546,-0.13909706,9.752202,0.00015316201000000002,-0.00033353112,0.00026861098,-11.007831,23.378687,-28.11505,0.00783807,-0.010084808,0.04665661,990.2382,0,13.0,1,1
19.96,0.09996718,-0.13909736,9.778242,0.00081873155,-6.717947e-05,-0.0010630628,-11.104273,24.025831,-28.06107,0.012403972,-0.00026027858,0.01825428,990.2484,0,13.0,1,1
20.0,0.1095382,-0.14624748,9.79008,0.00028598978,0.0007317860000000001,2.1536252000000004e-06,-10.848398,23.26425,-27.59403,-0.0074050203000000005,0.009633958,0.018266678,990.27875,0,13.0,1,1
20.04,0.104769796,-0.14624774,9.773508999999999,0.00028598978,0.0007317860000000001,2.1536252000000004e-06,-10.815733,23.453115,-27.995037,0.0072179290000000005,0.004966527,0.03720188,990.27875,0,13.0,1,1
20.08,0.10956102599999999,-0.1510146,9.761675,0.00041903769999999995,0.0009981197,-0.00026420942999999997,-10.21759,23.32873,-28.61882,0.012168221000000002,0.004622653,0.05139637,990.2305,0,13.0,1,1
20.12,0.10957241,-0.1367152,9.756941000000001,0.00015250181999999999,-0.00046658184,0.0005346439,-11.373738000000001,23.66781,-27.459705,0.0030651465,-0.014131427,0.04192543,990.2535,0,13.0,1,1
20.16,0.11697501,-0.14148751,9.766430999999999,0.0005518655000000001,-0.00073287974,-0.00039750892999999995,-10.859457,23.728148,-27.850426000000002,0.0030439943,0.009393275,0.05609989,990.2713,0,13.0,1,1
20.2,0.11460546,-0.14863783,9.778269,-0.00077974796,-0.0004690173,-0.00013297104,-10.742525,23.258081,-27.686970000000002,0.0028555840000000004,-0.0002772361,0.027691841000000002,990.2437,0,13.0,1,1
20.24,0.10984594,-0.13910517,9.766435000000001,-0.00077974796,-0.0004690173,-0.00013297104,-10.742525,23.258081,-27.686970000000002,0.007512301,-0.0049753785,0.0513649,990.2437,0,13.0,1,1
20.28,0.11225617,-0.15578863,9.775905999999999,-0.00024835520000000003,0.0004632893799999999,-0.0006661338999999999,-10.747091000000001,23.253662,-27.455053000000003,0.0121104345,0.014158338000000001,0.046631813,990.2838,0,13.0,1,1
20.32,0.11705625,-0.15102252,9.7664385,1.7764993e-05,0.0005964791,0.0003990459,-10.38295,23.963495,-27.706669,-0.02087684,0.009010941,0.03714943,990.2558,0,13.0,1,1
20.36,0.10273713,-0.15102312,9.768808,-0.00078157394,0.00059654267,0.0005320362,-10.773531,23.176609,-28.062344,0.027159505,0.00872767,0.056077957000000005,990.2305,0,13.0,1,1
20.4,0.112317026,-0.13910720000000001,9.775910000000001,-0.00051545363,-0.0012676368,-0.00026699534,-10.84992,23.262777,-27.516726000000002,0.0032445267,-0.0057601480000000005,0.032401085,990.23364,0,13.0,1,1
20.44,0.11711714,-0.14149097,9.768811,-0.0005156493,-6.918354999999999e-05,0.00013239463,-11.010332,23.00745,-27.861988,-0.01608105,0.0037326217,0.032401085,990.2916,0,13.0,1,1
20.48,0.10518792,-0.13195829999999997,9.764078999999999,-0.00010139208500000001,0.0005259968,0.00050273875,-11.203109,23.195396,-27.381372,-0.0016943589,-0.015315309,0.037132263,990.29926,0,13.0,1,1
20.52,0.109988034,-0.15817487,9.768815,-0.00010139208500000001,0.0005259968,0.00050273875,-11.203109,23.195396,-27.381372,-0.006645724,0.008341476,0.03713131,990.29926,0,13.0,1,1
20.56,0.1004487,-0.13672593,9.773551,0.00029769044999999997,0.0013250079,-3.0060706e-05,-10.909567,23.365152,-27.82146,0.026339754,-0.0010508448,0.037135124,990.2560000000001,0,13.0,1,1
20.6,0.11719829,-0.13434312,9.759350999999999,-0.00023513687,-6.539776000000001e-06,-0.0002964604,-11.468116,23.94814,-27.384583000000003,-0.012255438,-0.015030965,0.046610832000000005,990.27435,0,13.0,1,1
20.64,0.105269134,-0.13911018,9.773556,0.0006967728999999999,0.0009255975,-3.0228344e-05,-10.815189,23.084826,-27.896584999999998,0.021371141,-0.0052154359999999995,0.05608082,990.2208,0,13.0,1,1
20.68,0.100509584,-0.14387721,9.768823,0.00043026142999999994,-0.0009385817699999999,0.00023600369,-11.152455,23.1901,-27.311885999999998,0.021417423999999997,0.0089622885,0.037137985,990.27435,0,13.0,1,1
20.72,0.11247939,-0.12957802,9.771192,3.0592040000000004e-05,0.0006593452,0.0011680254,-11.265365,24.032877,-27.805706,-0.0027628465999999996,-0.0055636913,0.027667046,990.2768,0,13.0,1,1
20.76,0.11727950000000001,-0.15341139,9.7688265,-0.000102761594,-0.0002727286,0.00023583599,-11.017506,23.738138,-27.749670000000002,-0.012204729,0.013739511000000001,0.03240204,990.24115,0,13.0,1,1
20.8,0.11251998,-0.13911220000000002,9.77593,3.0200768e-05,-6.3809857e-06,0.00023575214,-10.983891999999999,23.084505,-27.254696000000003,-0.0028714612,-0.00036336482000000006,0.022935867000000002,990.2362,0,13.0,1,1
20.84,0.11493021,-0.1343461,9.76883,-0.000103152866,0.00012680872,-0.00043012144000000003,-11.115768,23.751673,-28.043257,-0.022133157,-0.0005544871,0.027666092000000003,990.2518,1,1.0,2,2
20.88,0.11256057,-0.15817937,9.773566,2.9809496e-05,0.00079263025,-3.0731433e-05,-10.829293,23.545773999999998,-27.99837,0.0064391717,0.018462136,0.046604155999999994,990.2518,1,1.0,2,2
20.92,0.091071755,-0.14864674,9.768834,2.9613802e-05,-0.00027260158,0.00036865854,-10.825409,23.812567,-27.629658000000003,0.011297204,0.01827377,0.022925377,990.2315,1,1.0,2,2
20.96,0.11021128,-0.14149746,9.771203,-0.0003700556,0.00065953576,0.00050173263,-11.015141999999999,24.003458,-27.303653999999998,-0.0030861720000000003,-0.010380894,0.0323925,990.2643400000001,1,1.0,2,2
21.0,0.10545176,-0.14626452,9.775939,-0.00090288295,-0.0006720119999999999,0.00036849087,-11.321264,24.296125,-27.042652,0.011239879,-0.001284644,0.04185295,990.2846,1,1.0,2,2
21.04,0.10786196599999999,-0.13673186,9.771207,-0.0010362366,-0.0002725063,-0.00016422471000000001,-10.73864,23.524874,-27.318255999999998,0.01113534,-0.0063115507,0.051317215,990.23895,1,1.0,2,2
21.08,0.103102475,-0.1414989,9.771208,-0.00023748462000000003,0.00012699931999999998,-0.00016430864,-10.984436,23.452795000000002,-27.353147999999997,0.015702643,0.002762407,0.041843414,990.2619,1,1.0,2,2
21.12,0.10790259,-0.14626595,9.768842999999999,-0.00037083816,-0.00013928482,0.00023508138999999998,-10.406239,22.783041,-28.095915,0.011006191,-0.0020394623000000002,0.046572685,990.23413,1,1.0,2,2
21.16,0.10301441,-0.13673022,9.790138,0.0002970891,-0.00014163108,-3.195973e-05,-10.755107,23.720507,-27.866058000000002,0.020683228999999997,0.0028795153,0.027646065,990.2797,1,1.0,2,2
21.2,0.11019933,-0.13673055,9.771202,0.0002970891,-0.00014163108,-3.195973e-05,-10.755107,23.720507,-27.866058000000002,0.0116986185,-0.0064157397,0.032377243,990.2797,1,1.0,2,2
21.24,0.11499435,-0.14864734,9.775938,0.00096273597,-0.0013400292999999998,-3.2020966e-05,-10.820299,23.448698,-27.763122999999997,-0.011464044,0.012970269,0.027635574,990.2626300000001,1,1.0,2,2
21.28,0.10783982,-0.14388117,9.76647,0.00096273597,-0.0013400292999999998,-3.2020966e-05,-11.085742,23.463385,-27.492125,0.0035744979999999997,-0.0014866889000000002,0.037093163,990.2626300000001,1,1.0,2,2
21.32,0.10785508,-0.12004879,9.768839,0.0005629688,-0.0017394557,0.0008999589,-10.704452999999999,23.715212,-27.796568,0.013772643999999999,-0.024972066,0.046557426,990.2420699999999,1,1.0,2,2
21.36,0.11742988,-0.13673207,9.759371,0.0005629688,-0.0017394557,0.0008999589,-10.417435000000001,23.14102,-27.653229,0.008152299,0.003191501,0.05602932,990.2420699999999,1,1.0,2,2
21.4,0.11505517,-0.13911572,9.780678,0.0005629688,-0.0017394557,0.0008999589,-10.417435000000001,23.14102,-27.653229,0.012810878000000001,-0.006213397,0.041828156,990.2420699999999,1,1.0,2,2
21.44,0.12701994,-0.14864922,9.775945,-0.00010311440599999999,-0.0012067760000000001,-0.00016543036,-11.030521,23.46251,-27.65455,-0.020412691,0.003147468,0.00867939,990.27,1,1.0,2,2
21.48,0.100746244,-0.13434991,9.76411,-0.00010311440599999999,-0.0012067760000000001,-0.00016543036,-11.030521,23.46251,-27.65455,0.01737377,-0.0065746306999999995,0.046556473,990.27,1,1.0,2,2
21.52,0.12944025,-0.13911685,9.77358,2.9896852e-05,0.0010569327,0.00036713856,-11.233274,23.377768,-27.233428999999997,-0.02067922,-0.0018673241,0.022880553999999997,990.295,1,1.0,2,2
21.56,0.117506,-0.15103361,9.768847000000001,-0.0005028815,0.00065748265,-0.00016555609,-10.734074,23.529293,-27.55017,-0.011378586000000001,-0.0019370317,0.037083626,990.2424,1,1.0,2,2
21.6,0.107961625,-0.1486507,9.77595,2.9456801999999998e-05,0.00092384615,0.0005001079,-10.907205000000001,23.630472,-27.375444,0.0071292743,0.012453048999999999,0.022886276,990.2524,1,1.0,2,2
21.64,0.11514655,-0.14388457,9.778319,0.00029562612,0.001057028,-0.00016574468,-11.197702,23.463663,-27.089965999999997,-0.021865204,0.0076907723999999995,0.022888184,990.2828,1,1.0,2,2
21.68,0.10082233,-0.14150164,9.754648,2.9163435e-05,0.00079073594,0.00049998215,-10.910249,23.627527,-27.220834999999997,0.011149436,-0.011515558,0.05129528,990.2524,1,1.0,2,2
21.72,0.11756688,-0.15818495,9.768853,-0.00037045707,0.0009239176,-3.2712473e-05,-10.941935,23.808426,-26.995583,0.0012959614,0.012190551,0.051296234,990.2524,1,1.0,2,2
21.76,0.11758208,-0.14150235,9.775955999999999,-0.00010428775600000001,0.00079078344,-0.00016593328000000002,-10.653502,24.342054,-27.302208,0.00068315864,-0.0072264373,0.032359123,990.2547599999999,1,1.0,2,2
21.8,0.115207374,-0.13673618,9.773589999999999,-0.0009033822000000001,0.001589755,0.00036663562000000005,-10.899593,23.637835,-27.76197,-0.014812908999999999,-0.0123716,0.022895812999999998,990.2547599999999,1,1.0,2,2
21.84,0.09610343,-0.14388642,9.780692,-0.0010366867999999998,0.0029213579999999998,0.0011655203999999999,-10.878126,24.184679,-27.720290999999996,0.003153354,-0.0030959845,0.013435363999999998,990.2576,1,1.0,2,2
21.88,0.10328835,-0.14388674,9.747554,-0.0006373597,0.0026550659999999998,0.0010322996,-11.131967,23.367182,-27.094452,0.012462676,-0.0031378418,0.05604458,990.29834,1,1.0,2,2
21.92,0.10569343,-0.1534203,9.78543,-0.00010487448999999999,0.0005245629,-3.3026794e-05,-10.715107000000001,23.704898999999997,-27.255432,-0.0019055232,0.006222531,0.0039625170000000005,990.27045,1,1.0,2,2
21.96,0.110488474,-0.14865407,9.773596000000001,2.8136536000000003e-05,0.00012511289,0.00010006825000000001,-10.641762,23.615786,-27.646441999999997,0.0023991615,0.0064445883,0.032375336,990.2655,1,1.0,2,2
22.0,0.108113796,-0.14865443,9.771230000000001,0.00029430597,0.0010572424,0.00036632129999999996,-10.311425,23.240768,-28.445244,-0.002383396,0.0068041533,0.03711319,990.2755,1,1.0,2,2
22.04,0.09856939,-0.1438882,9.778333,0.000959949,-7.997529e-06,-0.0010984789,-10.703612,23.979057,-27.273246999999998,0.0066358373,-0.0032465159999999996,0.022907257,990.27295,1,1.0,2,2
22.08,0.1009745,-0.14150539,9.768866000000001,-0.0013038829,0.0011904478,-3.327825e-05,-10.743611,23.994660999999997,-27.88387,0.0017673298999999999,0.0061155707,0.022904396,990.2602,1,1.0,2,2
22.12,0.09879023,-0.13912714,9.768885000000001,0.0006933396,-0.0006737395,0.0006324486,-10.694778,23.355759,-28.161945000000003,-0.007553473000000001,-0.012609228500000002,0.02290535,990.25006,1,1.0,2,2
22.16,0.11334661,-0.14866552,9.771272,-0.00037343265,0.00012545308,0.0006318019000000001,-10.422001,23.136602,-27.421314000000002,-0.008269071999999999,0.006340936,0.037073135,990.2554,1,1.0,2,2
22.2,0.11576694,-0.13674995,9.778376,-0.0005078173,-0.00040875506,9.718686e-05,-10.798287,23.627249,-27.622992,-0.012112251999999999,-0.0030906646999999997,0.013388633999999998,990.2475,1,1.0,2,2
22.24,0.1062378,-0.14151722,9.768908999999999,0.00042399502,-0.0012076551,0.0008960088000000001,-10.749157,23.620480999999998,-27.4762,-0.002168186,-0.00756903,0.022854805,990.2449,1,1.0,2,2
22.28,0.11343795,-0.14866778,9.776014,0.0006900172,-0.0010744494,0.00023009322,-10.637196000000001,23.620203,-27.878357,0.0071795135999999996,0.011532038,0.037056923,990.2576,1,1.0,2,2
22.32,0.106298685,-0.14628527,9.780750999999999,0.00015709207,0.0005234934999999999,0.00022996737999999997,-11.029542999999999,23.832272,-27.830307,0.012190901,0.0071367322999999995,0.037056923,990.2679,1,1.0,2,2
22.36,0.10871905,-0.14628604,9.780753,0.0009557461,-0.00067488034,-0.0011017378,-10.969353,23.361609,-27.427120000000002,-0.0023924707999999997,0.002314493,0.032323837,990.2426,1,1.0,2,2
22.4,0.113529325,-0.14152017,9.776023,-0.00024296872000000003,0.0005235888,-0.00043607392999999995,-10.586542,23.614908,-27.808868,0.0069624186,0.0023121238,0.060728073,990.2908,1,1.0,2,2
22.44,0.10639006,-0.14628747,9.778392,-0.00077589444,0.0006567944000000001,-3.6725890000000006e-05,-10.330774,23.959673000000002,-27.714484999999996,-0.0024715661999999998,0.006960049300000001,0.022845268,990.2298,1,1.0,2,2
22.48,0.11359024,-0.14628829999999998,9.768925999999999,0.00055539183,-0.0002752636,0.0014278857,-10.619207000000001,23.426046,-27.407864,-0.011724568999999999,0.0069166272999999995,0.03230858,990.2655,1,1.0,2,2
22.52,0.10884094,-0.13675588,9.7736635,0.00055539183,-0.0002752636,0.0014278857,-10.708476,23.3425,-27.466202000000003,-0.0064324215,-0.006929606,0.03230667,990.2655,1,1.0,2,2
22.56,0.082582414,-0.11769038400000001,9.797338499999999,0.0010874365,-0.004003591,9.605463e-05,-10.861958,23.35691,-27.597363,0.0013184249,-0.010419458000000001,0.013349533,990.2579,1,1.0,2,2
22.6,-1.1505766000000002,-0.17012331,9.764201,0.0022852707,-0.094018266,0.39144698,-10.789837,23.89846,-27.486195000000002,1.3495218999999998,0.30777329999999997,0.06976509,990.2375,1,1.0,2,2
22.64,0.6777289000000001,-0.010444403,9.787875,0.0022852707,-0.094018266,0.39144698,-10.789837,23.89846,-27.486195000000002,-0.5130099,0.10288659,0.055467605999999996,990.2375,1,1.0,2,2
22.68,-0.20172456,-0.09147659,9.787878,0.008410241,-0.040755037,0.44564214,-10.490889,24.336481,-27.634878000000004,0.5455603,-0.075528845,0.03148651,990.3322,1,1.0,2,2
22.72,0.75187683,-0.08432749,9.81392,0.008410241,-0.040755037,0.44564214,-10.242294000000001,25.411935999999997,-27.428177,-0.47007233,-0.061310843,-0.041205406,990.3322,1,1.0,2,2
22.76,0.46511899999999995,-0.21779189,9.778414999999999,0.016532583,-0.088292375,0.37347040000000004,-10.558826,24.693865,-26.952461,-0.19581282,0.12328066,0.14837646,990.43616,1,1.0,2,2
22.8,0.5201172000000001,-0.10816178,9.778417999999999,0.012537258,-0.2759118,0.2520301,-11.000848,25.28099,-27.149653999999998,-0.04100114,0.06730424,-0.05151844,990.571,1,1.0,2,2
22.84,1.0315868000000001,-0.23447624,9.780787,0.012537258,-0.2759118,0.2520301,-11.000848,25.28099,-27.149653999999998,-0.24107778,0.12921312,-0.0068616867,990.571,1,1.0,2,2
22.88,0.8069664000000001,-0.022365272000000002,9.809197,0.013335618,-0.64382714,0.15815352,-12.797500999999999,25.494738,-26.4234,0.57519233,-0.15009318,-0.094454765,990.5538,1,1.0,2,2
22.92,1.366234,-0.0032997727,9.67427,0.013335618,-0.64382714,0.15815352,-12.797500999999999,25.494738,-26.4234,0.49409652,-0.16776305,-0.03979206,990.5538,1,1.0,2,2
22.96,2.4058714,-0.19396278,9.48963,0.018129012,-1.0952325,0.13631551,-14.103160999999998,24.588375,-26.477103999999997,-0.36630988,0.04831244,0.105807304,990.4748,1,1.0,2,2
23.0,2.3198657000000003,-0.14868131,9.506203999999999,0.0957595,-1.2696693000000001,0.42686588,-16.879787,25.04297,-24.92107,0.25507545,-0.0009488836,-0.09667969,990.3519,1,1.0,2,2
23.04,3.5291862000000003,-0.23209679,9.134555,0.0957595,-1.2696693000000001,0.42686588,-16.879787,25.04297,-24.92107,0.27468276,-0.19073752,-0.13867378,990.3519,1,1.0,2,2
23.08,3.7825464999999996,-0.21541452,8.949916,0.11706448,-1.0365098,0.45256522,-17.741714,25.289434,-24.802673000000002,-0.38766742,0.11822577,0.20148754,990.2426,1,1.0,2,2
23.12,3.4344778,-0.1605615,9.250411,-0.0034437498999999997,-1.4381138999999998,-0.01402032,-19.499346,25.117815,-23.290036999999998,-0.13799977,0.06419131,0.15909481,990.33154,1,1.0,2,2
23.16,3.6782160000000004,-0.11051187,9.0989065,-0.04925037,-0.8423653,-0.12707153,-20.232302,24.800076999999998,-22.927547,0.21107554,0.02301588,-0.20104694,990.7008,1,1.0,2,2
23.2,3.9721422,-0.12242752,8.968708,-0.20530189999999998,0.15259112,-0.31694916,-20.637123000000003,24.368223,-22.685926000000002,0.117549896,0.031851046,-0.062999725,990.54834,1,1.0,2,2
23.24,4.2397795,-0.091444135,8.805367,0.007888232,-0.7638026,-0.05489248,-22.265648000000002,23.738321,-21.628275,0.12163067,-0.03735719,-0.038104057000000004,990.4868,1,1.0,2,2
23.28,4.454839,-0.14625874,8.769855999999999,0.005758012,-0.670592,0.009822409,-23.608784,23.639104999999997,-20.722637,0.22316885,-0.0129855275,-0.19630718,990.4386599999999,1,1.0,2,2
23.32,4.7678843,-0.0175609,8.649127,0.0016304306,-0.7949616,0.06721361,-24.523022,23.78347,-19.897346,0.21574116,0.0055262743999999996,-0.22494698,990.3725599999999,1,1.0,2,2
23.36,5.4537544,0.11352011599999999,8.147277,-0.07733193,-1.266607,-0.11521264,-25.861187,23.21446,-18.426095999999998,0.08441019,-0.25732625,-0.08079243,990.48975,1,1.0,2,2
23.4,5.7811394,-0.41795012,7.8632089999999994,0.0321242,-1.587784,-0.051829327,-26.9931,23.891497,-15.981758,0.04977846,0.44299399999999994,0.019990921000000002,990.4132699999999,1,1.0,2,2
23.44,6.0583363,0.020573854,7.6714625,-0.034188148,-1.1286556,-0.08085762,-28.155632,23.592546,-14.938297,0.04286003,-0.099430114,0.018800259,990.3339,1,1.0,2,2
23.48,6.220818,-0.30593452,7.505756,-0.03698416,-0.5595386,-0.05222854,-28.967041,23.7278,-14.051331,-0.06398296,0.39708564,0.14324236,990.19214,1,1.0,2,2
23.52,6.020035,0.051558047999999995,7.84663,-0.01634437,-0.08523002,-0.019205239,-28.899105,23.370417,-14.7337475,0.123316765,-0.21378814,-0.24505329,990.179,1,1.0,2,2
23.56,6.4238963,0.082541406,7.4252652999999995,0.0048280475,-0.25593856,-0.0037587834999999997,-28.826034999999997,23.069468,-13.726601,-0.09218645,-0.15041739,0.067977905,990.2682,1,1.0,2,2
23.6,6.574428599999999,-0.29878238,7.2855973,0.0034967734999999996,-0.7584767,-0.0045576,-29.967644,23.685648,-12.73991,0.10566616,0.20057191,-0.14542961,990.2248,1,1.0,2,2
23.64,6.8659644,0.24698918,7.1222577000000005,0.0054944484,-0.67285615,-0.009750629,-30.045307,22.769918,-12.443408999999999,0.031817912999999996,-0.3279875,-0.06265354,990.1539300000001,1,1.0,2,2
23.68,7.1551113,-0.16055062,6.8405576,0.03625424,-0.93051684,-0.009484181999999999,-30.842861,23.444649,-11.128239,0.061396122000000004,-0.012598395,-0.03570175,990.1865,1,1.0,2,2
23.72,7.095332000000001,0.049178615,6.6014667000000005,0.049437176,-1.0034875,0.0048970063,-32.090237,22.960657,-9.675955,0.45558548,-0.28734887,-0.42152452,990.1356,1,1.0,2,2
23.76,7.8863573,0.2827407,5.9339129999999995,-0.021535696,-1.4833887,-0.052360777000000004,-32.452694,22.77852,-8.377692999999999,0.0028429031,-0.008990683000000001,-0.048388004000000005,990.1841,1,1.0,2,2
23.8,7.924565299999999,-0.38695976,5.7871440000000005,-0.09450594,-1.0483617,-0.10895276,-33.448864,22.634870000000003,-6.5991116,-0.07461119,0.007039424,-0.07017994,990.4234,1,1.0,2,2
23.84,8.151572999999999,-0.7516006,5.5953975,0.06781389,-0.81933016,-0.024796825,-33.277397,22.426306,-5.997455599999999,0.032265663,0.1936157,0.07546234,990.5793,1,1.0,2,2
23.88,7.94123,0.0015161782999999999,5.8581543,-0.04723426,-0.28150526,0.16761653,-34.211964,22.919813,-4.2656480000000006,-0.14492607,-0.28832006,-0.12385273,990.56104,1,1.0,2,2
23.92,8.280565,-0.120030254,5.5267425,-0.009417100999999999,-0.06592262,0.34884462,-33.86168,23.090166,-4.945469,0.15115166,-0.18432537,-0.34507513,990.50494,1,1.0,2,2
23.96,8.478894,-0.64911723,5.4344187,-0.0034246934,0.18228376,0.48919323,-33.68507,23.729988,-5.549012,-0.4636612,0.28783634,0.36134863,990.6475,1,1.0,2,2
24.0,8.548169999999999,-0.008014604,6.625118700000001,-0.056287784,-0.03396485,0.8266157,-33.308292,25.609959,-4.870248999999999,-0.5516863000000001,-0.9806425,-1.4955553999999998,990.95776,1,1.0,2,2
24.04,8.911405,-0.59191704,5.458084599999999,-0.056287784,-0.03396485,0.8266157,-33.308292,25.609959,-4.870248999999999,-0.87021446,-0.6757797,-0.86782026,990.95776,1,1.0,2,2
24.08,9.084011,-0.21298891,5.713792,-0.056287784,-0.03396485,0.8266157,-32.632626,26.29539,-5.0914583,-0.97444344,-0.27583474,0.36251116,990.95776,1,1.0,2,2
24.12,8.0951605,-0.7420906999999999,7.278564500000001,0.6414602,-0.122115456,0.60983473,-32.817516,26.702536,-6.395524,-0.29647540000000006,-0.65736055,-1.8399067,990.9607,1,1.0,2,2
24.16,7.961339,-0.71110845,7.205183,0.15768684,0.801736,0.24724114,-32.665141999999996,27.0044,-8.284292,-0.32589102,-0.39232874,-1.1918906999999999,990.5199,1,1.0,2,2
24.2,8.099969,-1.1710813999999998,6.670196499999999,0.15768684,0.801736,0.24724114,-32.665141999999996,27.0044,-8.284292,-0.75843096,0.043990552,-0.37674332,990.5199,1,1.0,2,2
24.24,6.864403,-1.9051316000000003,6.911652,0.79910856,0.60945594,0.47267747,-32.252193,26.655023999999997,-10.6370125,0.8230200000000001,1.1542678999999998,-0.532104,990.3821,1,1.0,2,2
24.28,7.488181,-0.6157783,7.39693,0.8519721,0.62743235,0.56442326,-32.235855,27.145429999999998,-12.284897,-0.15101767,-0.48976102,-1.0909256999999999,990.2803,1,1.0,2,2
24.32,6.687578,-1.6691878,6.3340573,1.1220163,0.123962194,0.9448554,-31.649315,27.853234999999998,-13.263523000000001,0.72847366,0.75802296,-0.119954586,990.2702,1,1.0,2,2
24.36,7.053247,-0.8850895000000001,7.0347505,1.4529135,-0.17724106,1.1852055000000001,-31.073727,27.918591999999997,-14.125889,1.046833,0.36495805,-1.5513843999999999,990.24963,1,1.0,2,2
24.4,7.426085499999999,-0.6396121,5.761196599999999,1.8627735,-0.7132018,1.3471253,-31.098751,28.949354,-15.183142000000002,0.05187130000000001,-0.5231596,0.2623601,990.1577,1,1.0,2,2
24.44,6.7210784,-1.6072235000000001,6.4429526,2.1807547,-0.9659355,1.7109130000000001,-29.995728000000003,29.456590000000002,-17.230420000000002,1.4135265,0.64630854,-1.2106781,990.3187,1,1.0,2,2
24.48,6.7856197,-1.5619416000000002,6.0405297,1.9972627,-0.82066023,1.7439360000000002,-28.787212,30.85217,-18.345135,1.4979528999999998,0.40361845,-1.0582862,989.9743699999999,1,1.0,2,2
24.52,6.608781,-1.4451611999999998,5.55052,2.1984644,-1.0282533999999999,1.9765627000000001,-27.089226,31.126165000000004,-20.162506,1.6344571,-0.12143433,-0.0033597946000000004,989.799,1,1.0,2,2
24.56,6.405653,-1.252116,4.449772,2.3453372000000003,-0.8990902,1.9608501,-26.160313000000002,31.364813,-21.859299,1.5438104,-0.6279993,0.64912367,990.0122,1,1.0,2,2
24.6,5.889448000000001,-2.4842713,5.8345866,2.1245613,-0.885508,1.7110456000000003,-25.46363,31.438734000000004,-23.58765,2.9222354999999998,1.1456343999999998,-1.1334867,989.9613,1,1.0,2,2
24.64,7.1465507,-1.571476,4.774081,2.179289,-0.882179,1.8300889999999999,-24.222889000000002,32.285114,-24.829166,1.3409739,-0.32664955,-0.052464485,989.9307,1,1.0,2,2
24.68,7.2565002000000005,-2.269777,4.231993,2.4675759999999998,-0.9628726999999999,1.8782919999999999,-23.36903,30.872938,-26.10986,1.351603,0.10797882,0.13659382,990.01996,1,1.0,2,2
24.72,7.459656,-2.5724537,5.069984,2.1973984,-0.5788452,1.7592488999999998,-22.043201,30.903940000000002,-28.08662,0.8915081,0.04014349,-0.6837715999999999,990.2158,1,1.0,2,2
