Timestamp,Ax,Ay,Az,Gx,Gy,Gz,Mx,My,Mz,LiAx,LiAy,LiAz,P,Value,Type,GroupType,Activities
0.0,0.05532080000000001,-0.1311536,9.782532000000002,0.0014512308407574892,-0.002189279068261385,0.0004770822997670621,-10.179500579833984,22.70329093933105,-39.383934020996094,-0.001018434762954712,-0.005619943141937256,0.05590057373046875,988.1585083007812,0,13.0,1,1
0.04,0.062232465,-0.14068039,9.791977000000001,0.002522188238799572,0.0027267918922007084,0.00042449025204405183,-1.7066397666931152,25.420515060424805,-38.23109817504883,0.9294388890266418,-0.9684550166130066,-0.08121204376220703,988.1152954101562,0,13.0,1,1
0.08,0.059584557999999996,-0.12160776599999999,9.791953,0.000394148170016706,0.0005958612309768796,0.0002923980646301061,-1.638540267944336,25.58934593200684,-37.78956604003906,0.9427069425582886,-0.9769691228866576,-0.08093452453613281,988.0897216796876,0,13.0,1,1
0.12,0.054546714,-0.12875135,9.791929,-0.00040231226012110716,0.0005954576190561056,-0.00010600994573906064,-1.5747327804565432,25.96560478210449,-38.51427459716797,0.936771035194397,-0.9665448665618896,-0.09960174560546876,988.079345703125,0,13.0,1,1
0.16,0.042339206,-0.13827811,9.799007000000001,0.00039912213105708366,0.0011276857694610953,0.00029452980379574,-2.1376028060913086,25.543745040893555,-38.17190551757813,0.9497469067573548,-0.9510257244110109,-0.11347579956054688,988.1070556640624,0,13.0,1,1
0.2,0.044471085,-0.11920549,9.780046,-0.00013102265074849131,0.001127281808294356,-0.00023703608894720674,-1.803081512451172,26.06765556335449,-38.1771240234375,0.9437836408615112,-0.9783625602722168,-0.08948802947998047,988.1094360351562,0,13.0,1,1
0.24,0.05377263,-0.14541532,9.777655000000001,0.0004040962085127831,0.0003279305528849364,0.00029666145564988256,-1.7693314552307131,25.51994132995605,-38.3812255859375,0.93828547000885,-0.9580991864204408,-0.07029151916503906,988.08935546875,0,13.0,1,1
0.28,0.058294415,-0.121576175,9.777632,-0.0002592065138742328,-0.0003382628783583641,0.0005640431772917509,-2.0293664932250977,25.802892684936523,-37.818824768066406,0.9228033423423768,-0.9902847409248352,-0.0747232437133789,988.1342163085938,0,13.0,1,1
0.32,0.043697,-0.14778592,9.791811000000001,0.0006753859343007207,0.0008597549749538302,-0.00050015450688079,-1.973849296569824,26.43415260314941,-37.556373596191406,0.9409234523773192,-0.946163296699524,-0.10284042358398438,988.1468505859376,0,13.0,1,1
0.36,0.04582885,-0.14062972,9.789421,0.0004115570336580277,0.00045987719204276795,0.0009656486799940467,-2.1636066436767583,26.20474052429199,-39.05339813232422,0.9444993138313292,-0.949273645877838,-0.10721492767333984,988.1064453125,0,13.0,1,1
0.4,0.06707993,-0.13824011,9.782295,0.00028088619001209736,0.000459473580121994,-9.85489459708333e-05,-2.166787624359131,26.095876693725586,-38.19971084594727,0.9147131443023682,-0.9482176899909972,-0.08326148986816406,988.1139526367188,0,13.0,1,1
0.44,0.064432025,-0.14538367,9.789373,-0.0001161006512120366,0.00032591191120445734,0.0007014645962044598,-2.214396953582764,26.104116439819336,-38.42380905151367,0.9090986251831056,-0.9517145156860352,-0.08298301696777344,988.1213989257812,0,13.0,1,1
0.48,0.054614365,-0.12392779,9.784614999999999,-0.00011361390352249146,-0.0007397553417831659,3.674064646475017e-05,-2.0512399673461914,25.73025321960449,-38.65802764892578,0.9272959232330322,-0.984024465084076,-0.08272075653076172,988.1111450195312,0,13.0,1,1
0.52,0.06152606,-0.1382211,9.791692999999999,-0.00024428474716842175,0.0009908941574394703,0.00030412242631427944,-2.058551788330078,26.35502815246582,-37.84663009643555,0.9163047075271606,-0.9447904229164124,-0.09187030792236328,988.12353515625,0,13.0,1,1
0.56,0.046928644000000005,-0.13583155,9.779834,-0.00024179765023291108,0.00019154278561472893,-0.00022744358284398916,-2.2294788360595703,26.19530296325684,-38.34983825683594,0.9390767812728882,-0.9576027393341064,-0.09627342224121094,988.1160888671876,0,13.0,1,1
0.6,0.05145037,-0.114375666,9.784544,-0.00010615296196192504,-7.517688209190966e-05,-9.32197435759008e-05,-2.122520446777344,25.45255470275879,-38.24587631225586,0.9236435294151306,-0.9657260179519652,-0.0722818374633789,988.0908203125,0,13.0,1,1
0.64,0.0508036,-0.14540108,9.789438,2.9491959139704704e-05,0.0005902091506868602,-9.215384488925338e-05,-2.0056958198547363,26.08883476257324,-38.455078125,0.9204040765762328,-0.9404306411743164,-0.08633041381835938,988.1259155273438,0,13.0,1,1
0.68,0.04823494,-0.12871374,9.784688000000001,0.00013031158596277237,0.0006060820305719973,-0.00022038409952074292,-2.185211658477783,25.55198097229004,-38.39599990844727,0.9275686740875244,-0.9526516199111938,-0.07633686065673828,988.1306762695312,0,13.0,1,1
0.72,0.052836,-0.119176224,9.782305000000001,0.00013031158596277237,0.0006060820305719973,-0.00022038409952074292,-2.185211658477783,25.55198097229004,-38.39599990844727,0.9175424575805664,-0.9613215327262878,-0.08091163635253906,988.1306762695312,0,13.0,1,1
0.76,0.05982697,-0.12632169,9.779921,-0.0004029364790767431,0.0007393400883302093,0.00031198345823213463,-2.1593160629272456,25.99732780456543,-37.88716125488281,0.9018793106079102,-0.9645068645477296,-0.08530139923095703,988.1358032226562,0,13.0,1,1
0.8,0.0548684,-0.13585041,9.784639,0.00013141799718141556,-0.00019304524175822732,0.00044587982119992375,-2.0270032882690434,26.068212509155273,-37.372806549072266,0.9192500114440918,-0.943827211856842,-0.08017826080322266,988.1204223632812,0,13.0,1,1
0.84,0.04990983,-0.14061256,9.789356,-0.00013317493721842766,0.0006056227721273898,-0.000618645455688238,-2.375627040863037,26.00525093078613,-37.46936798095703,0.9177758693695068,-0.9280253648757936,-0.08929729461669922,988.1128540039062,0,13.0,1,1
0.88,0.052120984,-0.13822491,9.777503999999999,0.0005343375960364939,0.0007385008502751589,4.788269870914519e-05,-1.7087049484252932,25.78732872009277,-38.25224304199219,0.9066946506500244,-0.94059818983078,-0.0652475357055664,988.14306640625,0,13.0,1,1
0.92,0.054332137,-0.13345395,9.786957000000001,0.000670941430144012,0.001137415412813425,0.0005819912767037749,-2.110727310180664,26.358850479125977,-37.83881378173828,0.9136478900909424,-0.9333069920539856,-0.07886028289794922,988.1250610351562,0,13.0,1,1
0.96,0.061323105999999995,-0.13344957,9.784573,0.000670941430144012,0.001137415412813425,0.0005819912767037749,-2.110727310180664,26.358850479125977,-37.83881378173828,0.903412938117981,-0.922946274280548,-0.07394981384277344,988.1250610351562,0,13.0,1,1
1.0,0.05397463,-0.12629534,9.782189,-0.00012628338299691674,0.0004713459638878703,0.0007158875232562423,-1.5621519088745115,25.5031795501709,-38.33518981933594,0.9019036293029784,-0.94499272108078,-0.07356834411621094,988.12255859375,0,13.0,1,1
1.04,0.051405966,-0.13344081,9.789274,0.0004080713260918856,0.00033790839370340114,-0.0003486376372165978,-1.966400146484375,25.91529655456543,-39.066856384277344,0.9095354676246644,-0.9432995319366456,-0.07789039611816406,988.1047973632812,0,13.0,1,1
1.08,0.056007028,-0.1310531,9.78689,0.000411517103202641,0.0007368229562416673,-0.000746634672395885,-2.039883136749268,25.898496627807614,-37.97676467895508,0.8986905813217163,-0.941311240196228,-0.082244873046875,988.1471557617188,0,13.0,1,1
1.12,0.041488886,-0.13343208,9.777407,0.0004132399335503578,-0.00032872037263587117,-8.010654710233212e-05,-2.102031707763672,25.62963676452637,-38.02843856811523,0.9209556579589844,-0.9440930485725404,-0.07709789276123047,988.11669921875,0,13.0,1,1
1.16,0.046089947,-0.13581099,9.791594,0.0004149627638980746,0.00033678964246064425,-7.93682411313057e-05,-1.9684953689575195,25.06985282897949,-38.01626586914063,0.9048165678977966,-0.9281164407730104,-0.09090423583984376,988.11669921875,0,13.0,1,1
1.2,0.03874147,-0.13818987,9.786842,-0.00011594605166465044,0.0007359838346019387,5.452812183648348e-05,-1.8778114318847656,26.26121711730957,-38.40788650512695,0.907584309577942,-0.9121410250663756,-0.08575439453125,988.126708984375,0,13.0,1,1
1.24,0.048122317000000005,-0.14295204,9.777357,-0.0009131708648055793,0.0010020199697464702,0.00032158236717805266,-1.947134017944336,26.72304344177246,-38.34724044799805,0.9014868736267091,-0.9204263687133788,-0.07598686218261719,988.134033203125,0,13.0,1,1
1.28,0.047943532000000004,-0.12864794,9.772606,-0.0007911057327874005,0.00019017746672034266,-9.779888205230236e-05,-2.0670032501220703,26.083818435668945,-37.98342895507813,0.899806559085846,-0.9283475279808044,-0.06614208221435547,988.1365356445312,0,13.0,1,1
1.32,0.04298508,-0.13102688,9.777325,9.564624633640053e-06,0.00018989783711731437,0.00016925539239309728,-1.808489799499512,25.79939079284668,-38.468528747558594,0.9028102159500122,-0.9313589334487916,-0.07994651794433594,988.1564331054688,0,13.0,1,1
1.36,0.05236584,-0.13340576,9.798613000000001,1.1287687812000513e-05,-0.0004761715536005795,0.0009689414291642605,-1.7065019607543943,25.526426315307614,-38.93017578125,0.8918118476867676,-0.9153209328651428,-0.1032562255859375,988.1514282226562,0,13.0,1,1
1.4,0.052187145,-0.12148495,9.784393,-0.0002533055958338082,0.00018933846149593592,-0.0004950575530529021,-1.6353597640991209,25.69821739196777,-38.64325714111328,0.8900635242462158,-0.9272952675819396,-0.07439231872558594,988.1412353515624,0,13.0,1,1
1.44,0.056788146,-0.12863041,9.779641999999999,0.0006805231678299607,-0.0004767309292219579,-0.00022800330771133306,-1.8115334510803225,25.796445846557614,-38.31391906738281,0.8742836117744446,-0.9299620389938354,-0.0550527572631836,988.1261596679688,0,13.0,1,1
1.48,0.051829636,-0.1310093,9.774891,0.00041593000059947366,5.562114529311656e-05,-0.0004935808246955277,-1.6494626998901367,26.159162521362305,-38.74503707885742,0.8868900537490845,-0.9233506917953492,-0.06885433197021484,988.10595703125,0,13.0,1,1
1.52,0.056430697,-0.13100491,9.789078,-0.0003812946961261332,-0.0002109744818881154,-0.0004928424023091793,-1.3171987533569336,25.31141471862793,-38.82361602783203,0.8758198022842407,-0.9168046712875366,-0.07795143127441406,988.1183471679688,0,13.0,1,1
1.56,0.053862035,-0.12861724,9.7914295,0.0005525337182916701,0.0004545357078313828,0.0011057911906391382,-1.8342256546020508,25.880266189575195,-37.853416442871094,0.8879425525665283,-0.9099045991897584,-0.09167766571044922,988.13330078125,0,13.0,1,1
1.6,0.04469061,-0.13815986,9.78673,-0.00024469109484925866,0.0011200455483049154,0.0005738978506997228,-2.2501063346862797,25.91231346130371,-37.86819458007813,0.8906532526016235,-0.8984292149543762,-0.06282806396484375,988.1484985351562,0,13.0,1,1
1.64,0.049892782999999996,-0.12863715,9.796238,-0.0002456795773468912,0.0009870482608675957,-0.0004917894257232547,-2.2761096954345703,26.57330894470215,-38.74969100952149,0.8876579999923706,-0.924803912639618,-0.08142566680908203,988.12548828125,0,13.0,1,1
1.68,0.042589903,-0.12863387,9.777288,0.0003940642345696688,-0.00031017576111480594,-0.00034555053571239114,-1.8522138595581052,26.07442283630371,-38.32391357421875,0.8855800628662109,-0.9086509346961976,-0.06679916381835938,988.1356201171876,0,13.0,1,1
1.72,0.052016318,-0.13578044,9.800948,-0.0002704419894143939,0.0004885636153630912,-0.0008776323520578443,-2.0567855834960938,25.35607719421387,-38.25035858154297,0.8741261959075928,-0.901744544506073,-0.09950637817382812,988.1226806640624,0,13.0,1,1
1.76,0.05188316,-0.12624402,9.7891,0.0003966313088312745,0.0006215130561031401,-0.0003444504109211266,-2.0065374374389653,25.824987411499023,-38.97840118408203,0.8673815727233887,-0.9186996221542358,-0.08013153076171875,988.1731567382812,0,13.0,1,1
1.8,0.049360096,-0.1381572,9.803291,-0.00026787503156811,-0.00031080085318535566,0.0009876791154965758,-1.9683575630187988,25.17577171325684,-38.71533966064453,0.8703237771987915,-0.8928681015968323,-0.08445262908935547,988.1577758789062,0,13.0,1,1
1.84,0.054006726,-0.13815393,9.786708,0.00039919849950820213,0.0010205702856183052,-7.703428855165839e-05,-2.1075458526611333,26.46771049499512,-38.6925048828125,0.8633960485458374,-0.9002518653869629,-0.060322761535644524,988.1278686523438,0,13.0,1,1
1.88,0.0538736,-0.13100083,9.767759,-0.00013215001672506332,-0.0011101651471108198,0.0003229895664844662,-2.1432542800903316,26.27590751647949,-38.13688659667969,0.8758829236030579,-0.9028979539871216,-0.055164337158203125,988.1527099609376,0,13.0,1,1
1.92,0.04657072,-0.14053066,9.798519,0.000401765457354486,0.000753837579395622,-0.0004754079855047166,-2.1937704086303706,26.38711357116699,-38.90545654296875,0.8593922257423401,-0.8721292018890381,-0.1020498275756836,988.1627807617188,0,13.0,1,1
1.96,0.05838704,-0.13814409,9.767733999999999,0.000401765457354486,0.000753837579395622,-0.0004754079855047166,-1.8877849578857424,25.9885311126709,-38.467376708984375,0.8622615337371826,-0.8890410661697388,-0.049538612365722656,988.1627807617188,0,13.0,1,1
2.0,0.05108416,-0.13099106,9.793761,-0.00012958282604813576,0.0006204713718034327,5.777383921667935e-05,-1.8055830001831052,25.69642448425293,-37.9240608215332,0.8698050975799559,-0.8920177817344666,-0.0633392333984375,988.1423950195312,0,13.0,1,1
2.04,0.04617119,-0.14528741,9.779546,-0.0006609311094507575,-0.0011107902973890305,-0.0002079918631352484,-1.9634933471679688,25.81232643127441,-38.52238464355469,0.8676711320877075,-0.880192756652832,-0.07707595825195312,988.1270141601562,0,13.0,1,1
2.08,0.041258246,-0.12860124,9.770064999999999,-0.0005264895735308528,0.00022058066679164765,0.00032518990337848663,-1.9229202270507808,26.64069175720215,-38.885047912597656,0.8659451007843018,-0.8781031966209412,-0.0482635498046875,988.1220092773438,0,13.0,1,1
2.12,0.048294752999999996,-0.13336448,9.779521,0.00027374154888093466,0.00035353045677766204,-0.00020689173834398392,-2.0939855575561523,26.37505149841309,-38.68917083740234,0.8683253526687622,-0.885475754737854,-0.09039783477783203,988.1421508789062,0,13.0,1,1
2.16,0.040991902000000004,-0.14051105,9.786611,-0.0001244486775249243,0.0002201640163548291,0.000459448026958853,-2.2553749084472656,25.74995994567871,-38.858680725097656,0.8663563728332521,-0.873647153377533,-0.07101249694824219,988.1647338867188,0,13.0,1,1
2.2,0.055198132999999996,-0.13097467,9.784231,-0.00012316531501710415,0.0002199556329287589,0.000726314028725028,-2.1015958786010738,26.36768913269043,-38.302650451660156,0.8404039144515991,-0.8807274103164673,-0.06107234954833984,988.1371459960938,0,13.0,1,1
2.24,0.045505345,-0.14050452,9.796055,0.00027759221848100424,0.0004860630142502487,-7.208361057564615e-05,-2.212875366210937,26.1055965423584,-38.50111389160156,0.8432601690292358,-0.8640266060829163,-0.07008838653564453,988.1669921875,0,13.0,1,1
2.28,0.059711605,-0.13811798,9.784206,0.00027887546457350254,-0.0008457246003672482,0.0007274141535162926,-2.254098415374756,26.75185966491699,-38.609561920166016,0.8360882401466371,-0.880837619304657,-0.06014060974121094,988.1392822265624,0,13.0,1,1
2.32,0.052408755,-0.1381147,9.798397,0.0008127910550683737,-0.0001801432226784527,6.217448390088974e-05,-2.1175189018249507,26.19502830505371,-38.75199508666992,0.8434944152832031,-0.8644328117370605,-0.0881052017211914,988.1317749023438,0,13.0,1,1
2.36,0.042715967,-0.14526129999999998,9.793652,-0.0002511891070753336,0.00021912221563979983,0.0004621983971446753,-2.2881479263305664,26.667444229125977,-38.83032989501953,0.8509188294410706,-0.8477489352226257,-0.08763885498046875,988.154052734375,0,13.0,1,1
2.4,0.040192902,-0.14049144,9.779436,-0.0002486221492290497,-0.0007134001352824272,0.0005964564625173807,-1.570465087890625,25.33788871765137,-39.17106246948242,0.8535394668579102,-0.8694031238555908,-0.05878543853759765,988.1239624023438,0,13.0,1,1
2.44,0.054399132999999995,-0.13333838,9.781791,0.00028529320843517786,0.00035165512235835195,0.0004638486134354025,-1.6058759689331057,25.77821159362793,-38.190574645996094,0.8321039080619812,-0.8670278787612915,-0.06777381896972656,988.1388549804688,0,13.0,1,1
2.48,0.054265975999999994,-0.13571836,9.777044,-0.00024605519138276577,0.00021828868193551898,0.00019808282377198336,-2.2008371353149414,26.011457443237305,-38.42047882080078,0.8300073146820068,-0.8599002957344055,-0.05784702301025391,988.1087036132812,0,13.0,1,1
2.52,0.056522697000000004,-0.13809843,9.786501,0.0004210183396935463,-0.0001813933486118913,0.000464948796434328,-1.840176105499268,25.98029136657715,-38.24327850341797,0.813518762588501,-0.8621307611465454,-0.07630538940429688,988.1210327148438,0,13.0,1,1
2.56,0.061169355999999994,-0.1357118,9.781754,0.00042230158578604465,-0.0005810756701976062,0.00033234091824851936,-2.0299100875854488,26.17118263244629,-37.917274475097656,0.8165569901466371,-0.8502659201622009,-0.06641578674316406,988.1287231445312,0,13.0,1,1
2.6,0.05902519999999999,-0.123801455,9.767572999999999,-0.0001090464647859335,-0.00044812602573074406,-0.0001997408107854426,-2.0783605575561523,25.91557884216309,-38.664695739746094,0.8189036846160889,-0.8715846538543701,-0.042311668395996094,988.1636962890624,0,13.0,1,1
2.64,0.05890715,-0.13333167,9.795969,-0.0003856222610920668,-0.0005651890533044933,-0.00019252655329182744,-2.205265045166016,26.11295890808105,-38.88764190673828,0.8167580366134644,-0.8548423647880554,-0.065521240234375,988.1283569335938,0,13.0,1,1
2.68,0.044449717,-0.13571204,9.774653,0.0008126016473397613,-3.2525218557566404e-05,0.0004731784865725785,-2.5612001419067383,26.67476463317871,-38.17280960083008,0.8138734102249146,-0.8508786559104919,-0.055359840393066406,988.1207275390624,0,13.0,1,1
2.72,0.049111485,-0.1380925,9.769909,0.0004142653197050095,-0.0010979734361171722,0.0002073501527775079,-2.007761001586914,26.45564842224121,-38.47622299194336,0.8271180987358093,-0.8494305610656738,-0.06930828094482422,988.1156005859376,0,13.0,1,1
2.76,0.04660356,-0.13093968,9.779367,0.000553310732357204,2.7691363357007507e-05,5.601067095994949e-05,-2.275268077850342,26.83715629577637,-38.22637176513672,0.8247651457786559,-0.8328560590744019,-0.05937862396240234,988.1233520507812,0,13.0,1,1
2.8,0.036925912000000005,-0.13570339999999997,9.784089999999999,-0.00024449953343719244,0.0008264543721452355,0.0003228140703868121,-1.8606643676757808,25.80321311950684,-38.46071243286133,0.8316659331321716,-0.8443927764892578,-0.054106712341308594,988.1282348632812,0,13.0,1,1
2.84,0.04158771,-0.12855066,9.788815,0.0006887438939884305,0.0001604800345376134,-0.0002093301445711404,-2.178825855255127,26.19000816345215,-38.28034973144531,0.8104573488235474,-0.8560509681701659,-0.058369636535644524,988.1332397460938,0,13.0,1,1
2.88,0.0438596,-0.12616445,9.784068,-0.00024222431238740683,-0.0005054944194853307,0.00045694710570387537,-1.6707706451416016,26.138540267944336,-37.66276931762695,0.8129138946533203,-0.8442835807800293,-0.057918548583984375,988.1432495117188,0,13.0,1,1
2.92,0.043741554,-0.13092817,9.776957000000001,-0.0002410865854471922,-0.0003725211136043072,-0.000208355049835518,-2.172738075256348,26.195905685424805,-38.58956909179688,0.8056678771972656,-0.8369351029396057,-0.06688976287841797,988.1178588867188,0,13.0,1,1
2.96,0.055573045999999994,-0.12615867,9.784046,-0.00023994897492229936,-0.00023954792413860562,0.00045792222954332834,-1.677019119262695,25.606428146362305,-38.47749710083008,0.7989099621772766,-0.8439499139785767,-0.04750537872314453,988.074951171875,0,13.0,1,1
3.0,0.045895398,-0.13807221,9.795872,-0.00023881136439740655,-0.000506048381794244,-0.0003405378956813365,-2.3919553756713867,26.306795120239254,-38.71624755859375,0.8062617182731628,-0.8271586298942566,-0.06598091125488281,988.112548828125,0,13.0,1,1
3.04,0.03382784,-0.13330267,9.779291,-0.0003708318108692765,-0.0003730751341208816,-7.373446715064347e-05,-1.867593765258789,25.53347587585449,-38.67481231689453,0.8182452917098999,-0.8343946933746338,-0.05132198333740234,988.1226196289062,0,13.0,1,1
3.08,0.045659363,-0.13568313,9.781647999999999,0.00016293756198138,0.0005588456988334656,5.991099169477821e-05,-2.2249131202697754,26.19972801208496,-38.58175277709961,0.820520281791687,-0.8224787712097168,-0.05558204650878906,988.130126953125,0,13.0,1,1
3.12,0.04076153,-0.13568021,9.774534,-0.00050171441398561,-0.00024028657935559752,-0.001138022867962718,-2.0162115097045903,26.184438705444336,-38.61301803588867,0.8133713603019714,-0.810515284538269,-0.059847831726074226,988.1251220703124,0,13.0,1,1
3.16,0.047813177000000005,-0.1356773,9.781626,-0.00023426127154380083,-0.000373629154637456,-0.0006049036746844648,-1.3674159049987793,26.05476188659668,-39.16731262207031,0.7969152927398682,-0.8170515894889832,-0.054615020751953125,988.11474609375,0,13.0,1,1
3.2,0.045305282,-0.14997412,9.798185,-0.00023426127154380083,-0.000373629154637456,-0.0006049036746844648,-1.9799604415893557,26.00796318054199,-39.07018280029297,0.7944839000701904,-0.8052089214324951,-0.068359375,988.11474609375,0,13.0,1,1
3.24,0.054746866,-0.13090493,9.786339,0.0005658240988850594,0.00015881785657256842,-0.00033810033346526325,-1.5977230072021484,25.41728782653809,-38.47864532470703,0.7823851108551025,-0.8217965364456177,-0.06314277648925781,988.1174926757812,0,13.0,1,1
3.28,0.047459155,-0.13805194,9.774491000000001,-0.0006314599886536597,-0.0005071564228273928,-0.00020445484551601112,-2.061756134033203,25.82586479187012,-38.81597137451172,0.780267596244812,-0.8093439936637878,-0.04845142364501953,988.1248779296876,0,13.0,1,1
3.32,0.0449512,-0.13328247,9.774481,0.00043494126293808216,-0.00010786723578348756,0.0011276120785623787,-2.245945453643799,26.39093589782715,-38.89763641357422,0.7923376560211182,-0.801656186580658,-0.05742073059082031,988.1273803710938,0,13.0,1,1
3.36,0.049613,-0.13327958,9.781572,0.0008355523459613322,-0.0006406836910173298,0.0004623098648153245,-2.16762924194336,25.83202934265137,-38.72303009033203,0.7804408073425293,-0.7992677688598633,-0.047499656677246094,988.1121826171876,0,13.0,1,1
3.4,0.044715196,-0.14280982,9.791029,-9.541551116853951e-05,-0.00024139450397342446,-0.0002029923198278993,-2.1937704086303706,26.38711357116699,-38.90545654296875,0.7922521829605103,-0.786931037902832,-0.04699134826660156,988.1222534179688,0,13.0,1,1
3.44,0.04220727,-0.13804032,9.779182,-9.427801705896854e-05,-0.00024157913867384195,-0.0006019786233082414,-2.161540985107422,25.837926864624023,-39.03225326538086,0.775875449180603,-0.803383469581604,-0.05128097534179688,988.1246337890624,0,13.0,1,1
3.48,0.054038763,-0.13088761,9.776803999999998,0.0008401026716455817,2.4367356672883034e-05,-0.00033468761830590665,-1.987569808959961,26.000593185424805,-38.68365859985352,0.762451171875,-0.8037094473838806,-0.03155708312988281,988.1370239257812,0,13.0,1,1
3.52,0.046751022,-0.12373488,9.779161,0.0008401026716455817,2.4367356672883034e-05,-0.00033468761830590665,-1.987569808959961,26.000593185424805,-38.68365859985352,0.7708151936531067,-0.8120917081832886,-0.059742927551269524,988.1370239257812,0,13.0,1,1
3.56,0.04238686,-0.14042802,9.788668,0.0004417662275955081,-0.0001089752186089754,-0.00020104224677197638,-2.0437679290771484,25.631704330444336,-38.34547424316406,0.773273766040802,-0.7904627919197083,-0.04507827758789063,988.1142578125,0,13.0,1,1
3.6,0.045224845,-0.13567246,9.779241,0.00031088339164853096,-0.0003756604855880141,0.0004657225508708507,-2.391848087310791,25.20045280456543,-38.34358978271485,0.7794593572616577,-0.7925304174423218,-0.03524208068847656,988.1219482421876,0,13.0,1,1
3.64,0.049929857,-0.14043717,9.783968,0.00015098287258297205,0.00019052508287131784,0.00021668476983904839,-1.8520760536193848,26.18034172058105,-39.02299118041992,0.7667608261108398,-0.7757249474525452,-0.03946208953857422,988.1292724609376,0,13.0,1,1
3.68,0.05224496,-0.13090219,9.79343,-0.00011461239773780107,0.0012556713772937653,-0.00018248002743348482,-2.1532273292541504,26.00322151184082,-38.196380615234375,0.7497325539588928,-0.7775840759277344,-0.057888031005859375,988.1066284179688,0,13.0,1,1
3.72,0.040220648,-0.12375058,9.774486999999999,0.0008182140300050378,0.00045660685282200575,-0.00018217117758467796,-2.0928997993469243,25.638471603393555,-38.492271423339844,0.7612538933753967,-0.7887900471687317,-0.047881126403808594,988.1165161132812,0,13.0,1,1
3.76,0.04492569,-0.13566507,9.772111,0.0004194610519334674,0.00032333191484212875,0.0002176115813199431,-2.2164621353149414,26.47093772888184,-38.44495391845703,0.7730255722999573,-0.7715440988540649,-0.03790855407714844,988.1215209960938,0,13.0,1,1
3.8,0.05202061,-0.12613018,9.76737,0.0006864977767691016,-0.0003425748436711729,-0.0007141850073821843,-2.5916624069213867,26.22500419616699,-38.4497299194336,0.7465453147888184,-0.7923861145973206,-0.02319812774658203,988.1114501953124,0,13.0,1,1
3.84,0.04716599,-0.13327815,9.783934,0.00042090273927897215,0.0003230978036299348,-0.0007138761575333773,-2.300323009490967,26.655656814575195,-38.211891174316406,0.7474303245544434,-0.7741512656211853,-0.055632591247558594,988.114013671875,0,13.0,1,1
3.88,0.051871,-0.14042617,9.769724,-0.00037732406053692097,5.666504148393869e-05,-4.7777488362044096e-05,-2.0699095726013184,26.18678855895996,-38.52789306640625,0.7460785508155823,-0.7539091110229492,-0.045937538146972656,988.0938110351562,0,13.0,1,1
3.92,0.054186106,-0.14519085,9.78392,-0.00037660333327949047,0.00032286380883306265,-0.00031378440326079726,-1.4046468734741209,25.86147880554199,-38.53439331054688,0.7338578701019287,-0.7558305859565735,-0.04544258117675781,988.1162719726562,0,13.0,1,1
3.96,0.05172145400000001,-0.13327266,9.779179,0.0004230651538819074,5.643093027174473e-05,-0.0003134755534119904,-2.0638208389282227,26.19268226623535,-38.83712005615234,0.7406103610992432,-0.7672358155250549,-0.03546428680419922,988.123779296875,0,13.0,1,1
4.0,0.05164665,-0.13088755,9.786274,0.00029062817338854074,0.0007221036357805133,0.00021946520428173244,-2.0834693908691406,26.27944755554199,-38.531227111816406,0.7431334257125854,-0.7641830444335938,-0.044455528259277344,988.111083984375,0,13.0,1,1
4.04,0.04918194,-0.13803555,9.760227,0.0010902966605499387,-0.0008759087068028747,-0.000446015561465174,-2.2440185546875,25.91820335388184,-38.17741394042969,0.7358595132827759,-0.7568207383155823,-0.025064468383789062,988.1287231445312,0,13.0,1,1
4.08,0.04432735,-0.13803373,9.769689999999999,-0.0007731936639174818,-7.707806071266532e-05,0.0006195568712428213,-1.6836500167846682,25.96883201599121,-38.26673126220703,0.7427555322647095,-0.7445847988128662,-0.0340576171875,988.11865234375,0,13.0,1,1
4.12,0.053812175999999996,-0.13088204,9.78862,0.00015963276382535696,0.0003222788218408823,0.0004867078678216785,-1.8432188034057615,25.97734642028809,-38.08866882324219,0.7350733280181885,-0.751410186290741,-0.061970710754394524,988.1135864257812,0,13.0,1,1
4.16,0.041787893,-0.14041333,9.781511,-0.0006385940359905362,0.0011211094679310918,-0.00044508889550343167,-1.9079756736755369,26.44359016418457,-38.25994110107422,0.7371225953102112,-0.7344153523445129,-0.05202579498291016,988.1084594726562,0,13.0,1,1
4.2,0.04171312,-0.12372853,9.779137,0.0004273902159184218,-0.0014090085169300435,8.785183308646083e-05,-2.0343379974365234,26.27268028259277,-38.384437561035156,0.7349503040313721,-0.7602555155754089,-0.03265094757080078,988.1033935546876,0,13.0,1,1
4.24,0.05597776,-0.13087653,9.781498,-0.0001045208191499114,-0.001009651692584157,-4.499714123085141e-05,-1.8647947311401367,26.53684425354004,-38.50300598144531,0.7137322425842285,-0.7479931116104126,-0.04169273376464844,988.1135864257812,0,13.0,1,1
4.28,0.048733264000000005,-0.13564123,9.772022,-4.198605893179774e-05,-0.000987671548500657,-0.00039655569707974786,-1.832427978515625,26.09357261657715,-39.328880310058594,0.7211475968360901,-0.7452074885368347,-0.041259765625,988.1211547851562,0,13.0,1,1
4.32,0.05104837,-0.12133981,9.779117999999999,9.189260890707374e-05,7.747503696009517e-05,-0.0003962467308156192,-1.7405509948730469,25.44201469421387,-39.15094757080078,0.7182061076164246,-0.7421103119850159,-0.03600025177001953,988.1334838867188,0,13.0,1,1
4.36,0.053363502,-0.12848772,9.786211999999999,0.0007584030390717089,-0.0005884317215532063,0.0010687995236366987,-1.9785757064819336,25.90351676940918,-38.44841003417969,0.7111221551895142,-0.7438803911209106,-0.04027366638183594,988.1309204101562,0,13.0,1,1
4.4,0.043729067,-0.14278562,9.774367999999999,0.0004928080015815794,-0.00032223283778876066,-0.00012931303353980184,-2.16458511352539,25.83497810363769,-38.87764358520508,0.7227477431297302,-0.7268179059028625,-0.02086162567138672,988.1133422851562,0,13.0,1,1
4.44,0.055603832,-0.1237175,9.786197999999999,0.00022721296409145,-5.6034012231975794e-05,-0.00026216200785711413,-2.0762953758239746,25.548757553100586,-38.64354705810547,0.7104613780975342,-0.7429149746894836,-0.039310455322265625,988.0958862304688,0,13.0,1,1
4.48,0.048359334000000004,-0.14754851,9.769621,0.00022721296409145,-5.6034012231975794e-05,-0.00026216200785711413,-2.0988492965698238,25.73849678039551,-38.88212966918945,0.7029646635055542,-0.716357946395874,-0.03884410858154297,988.0958862304688,0,13.0,1,1
4.52,0.055454254,-0.1499299,9.786184,9.477563435211779e-05,0.0007427966338582338,-0.00026185315800830716,-2.1868410110473637,26.6568546295166,-38.69135284423828,0.7052282094955444,-0.6940822601318359,-0.047820091247558594,988.1156616210938,0,13.0,1,1
4.56,0.038983285,-0.12848679999999998,9.769638,0.0006281282403506339,-0.00018942600581794974,-0.0006610180134885013,-2.482447624206543,26.853918075561523,-38.27240753173828,0.7123928070068359,-0.7244611978530884,-0.01895332336425781,988.108154296875,0,13.0,1,1
4.6,0.053600907,-0.12611033,9.762561999999999,0.0006288490840233862,-0.00018954294500872493,0.00013823845074512062,-2.3577680587768555,26.497129440307614,-39.194557189941406,0.6997700929641724,-0.7359864711761475,-0.009108543395996094,988.1055908203124,0,13.0,1,1
4.64,0.055942625,-0.14040883,9.774393,0.00022771226940676567,-0.000988220563158393,-0.00039510609349235887,-1.809031963348389,26.16768455505371,-38.566978454589844,0.6874788999557495,-0.7095155715942383,-0.01812839508056641,988.0932006835938,0,13.0,1,1
4.68,0.058284342,-0.13802435,9.762552000000001,0.00021671660942956805,9.09294467419386e-05,0.000278235151199624,-1.9136810302734373,25.54318809509277,-38.976219177246094,0.6992104053497314,-0.7164470553398132,-0.02716255187988281,988.1207275390624,0,13.0,1,1
4.72,0.046286642999999995,-0.13563989,9.790955,-0.0005817663040943444,0.0002240119501948357,0.00027843427960760886,-1.9926786422729488,26.36446189880371,-38.550193786621094,0.6874128580093384,-0.703917384147644,-0.059864044189453125,988.1030883789062,0,13.0,1,1
4.76,0.05101818,-0.13563870000000003,9.764911999999999,-4.867004463449121e-05,-0.0007081690127961338,-0.0005203142063692212,-1.9088172912597656,26.17973899841309,-38.78326034545898,0.6897372007369995,-0.7104436159133911,-0.021533966064453125,988.113037109375,0,13.0,1,1
4.8,0.04858011,-0.14278735,9.774376,0.0006175842718221247,-0.0008414023905061184,-0.00025379922590218484,-1.9377574920654297,25.7314510345459,-39.13749313354492,0.701582133769989,-0.6932691335678101,-0.02108955383300781,988.110595703125,0,13.0,1,1
4.84,0.046141982000000005,-0.13563634,9.772003,0.000618048885371536,-0.0009746357100084424,0.00014587369514629242,-1.826477527618408,25.99355125427246,-38.93902587890625,0.6847257614135742,-0.7002434730529785,-0.02067089080810547,988.0904541015624,0,13.0,1,1
4.88,0.055653392999999995,-0.13801844,9.769632000000001,-0.00044628529576584697,-0.0012411025818437338,-0.00012004395830444993,-2.1705350875854488,25.93500328063965,-39.26750183105469,0.6761907935142517,-0.7008728384971619,-0.015286445617675781,988.1203002929688,0,13.0,1,1
4.92,0.050825387,-0.13801725,9.771995,-4.634697688743472e-05,9.040150325745344e-05,1.3313052477315068e-05,-2.542531013488769,26.21823310852051,-38.30294036865234,0.6697657108306885,-0.6898536086082458,-0.019766807556152344,988.1354370117188,0,13.0,1,1
4.96,0.04838729,-0.12609966,9.790928,0.00048674939898774033,0.0008892735932022332,-0.0005191195523366332,-2.2148332595825195,25.366064071655273,-38.14960479736328,0.6660517454147339,-0.6949740648269653,-0.05697727203369141,988.1253662109376,0,13.0,1,1
5.0,0.043559283,-0.121331915,9.769619,0.00022089813137426967,-0.0008418549550697207,-0.00025260457186959684,-1.8803129196166992,25.889982223510746,-38.154823303222656,0.6838994026184082,-0.7030963301658629,-0.02835369110107422,988.1329345703124,0,13.0,1,1
5.04,0.053070694,-0.13801368,9.76488,-0.0003112691338174045,-0.0007087723934091628,0.00028022634796798235,-1.9111795425415041,25.9144229888916,-39.22927856445313,0.6623197793960571,-0.6909343004226685,-0.018471717834472656,988.1153564453124,0,13.0,1,1
5.08,0.05780229,-0.13801248,9.769608999999999,-4.4488522689789534e-05,0.00022325781174004083,0.0006798992399126291,-2.109365463256836,25.83410453796387,-39.04006958007813,0.6689428091049194,-0.6788238883018494,-0.032233238220214844,988.1077270507812,0,13.0,1,1
5.12,0.048194468,-0.13801129,9.779075,8.913403144106269e-05,0.0004894981393590571,-0.000252007128437981,-1.989091873168945,25.999120712280273,-38.606353759765625,0.6760610342025757,-0.6756483316421509,-0.02704429626464844,988.1279296875,0,13.0,1,1
5.16,0.052926093,-0.12371044,9.764867,0.0004890724667347968,-0.0005758408224210143,0.0002808236749842763,-2.1220850944519043,26.19061088562012,-38.52008056640625,0.6639275550842285,-0.6822211742401123,-0.012396812438964844,988.0875244140624,0,13.0,1,1
5.2,0.052877873,-0.13800894,9.774331,0.0004895370802842081,-0.00110854790546,0.00028102280339226127,-2.0737943649291988,25.91999626159668,-38.89661026000977,0.6567634344100952,-0.6749740242958069,-0.02621173858642578,988.1177978515624,0,13.0,1,1
5.24,0.050439745,-0.14039104,9.774326,-0.0008415777119807898,-0.00044283375609666115,1.4906050637364386e-05,-2.279451847076416,25.93823051452637,-39.01995086669922,0.6590468883514404,-0.667458176612854,-0.02105808258056641,988.1327514648438,0,13.0,1,1
5.28,0.05517137,-0.13562329,9.7743225,-0.00017532339552417395,8.972256910055877e-05,0.00014826311962679029,-1.97607421875,26.27475166320801,-38.70146942138672,0.6466908454895021,-0.659798264503479,-0.030076980590820312,988.1251831054688,0,13.0,1,1
5.32,0.05512315,-0.13085555,9.774319,-0.00017485866555944085,8.964724838733673e-05,-0.0002510116610210389,-2.2395591735839844,27.028966903686523,-38.78199005126953,0.6440772414207458,-0.6668385863304138,-0.015472412109375,988.122802734375,0,13.0,1,1
5.36,0.04551536,-0.13085435,9.781416,-0.0008401837549172343,-4.3586129322648055e-05,0.0005481351399794222,-2.2981204986572266,26.394758224487305,-38.88982009887695,0.6541092395782471,-0.6627800464630127,-0.03375434875488281,988.0975341796876,0,13.0,1,1
5.4,0.038297415,-0.14276959,9.762473,0.0002255443832837045,0.0007552861934527755,-0.0010495609603822233,-2.390975952148437,26.676557540893555,-38.892005920410156,0.6575055718421936,-0.6518961787223816,-0.005133628845214844,988.1151123046876,0,13.0,1,1
5.44,0.050198734,-0.130852,9.76957,-4.030688432976604e-05,-0.0008426845888607204,0.00041537548531778157,-2.5574750900268555,26.41533851623535,-38.92804718017578,0.650240421295166,-0.6732691526412964,-0.018950462341308597,988.1123657226562,0,13.0,1,1
5.48,0.047760606,-0.14515050000000002,9.776667999999999,-0.0005724740331061183,0.00022250355686992407,1.6100791981443766e-05,-2.181051254272461,26.030607223510746,-39.42544555664063,0.6416773796081543,-0.649951696395874,-0.02305889129638672,988.0947265625,0,13.0,1,1
5.52,0.059661955,-0.12846632,9.783764999999999,9.378028335049748e-05,-0.0004433616413734853,-0.0005163317546248437,-2.1356449127197266,26.28326988220215,-38.523414611816406,0.6403860449790955,-0.6583537459373474,-0.04180908203125,988.1024169921876,0,13.0,1,1
5.56,0.047799587000000004,-0.13561837,9.781406,-0.0007047027465887368,-0.00017712125554680824,-0.0005161328008398414,-2.421139717102051,26.858930587768555,-38.744056701660156,0.651760995388031,-0.6508457064628601,-0.012987136840820312,988.12255859375,0,13.0,1,1
5.6,0.057316303,-0.12846746,9.779034,-0.00044227845501154656,0.0010276013053953648,2.0576262613758445e-05,-2.6717991828918457,26.15029716491699,-38.971900939941406,0.6154047250747681,-0.6623013615608215,-0.01728057861328125,988.1326293945312,0,13.0,1,1
5.64,0.050103784000000005,-0.13799952,9.757725,-0.0003091846592724324,0.0006281377281993628,-0.000778398709371686,-2.394455909729004,25.93556022644043,-38.46318817138672,0.6315985918045044,-0.6504335403442383,-0.007411956787109375,988.12255859375,0,13.0,1,1
5.68,0.042891234,-0.1260821,9.779026,-0.0007082456722855567,9.543891064822675e-05,-0.00024559008306823665,-2.1976556777954097,26.12032127380371,-39.274169921875,0.6387079954147339,-0.6527113914489746,-0.02597332000732422,988.1174926757812,0,13.0,1,1
5.72,0.0404585,-0.13323088,9.776655,-4.2043160647153854e-05,-0.00017094402574002745,-0.0002454131899867207,-2.1281723976135254,26.18471717834473,-38.21086120605469,0.6455168724060059,-0.6449607610702515,-0.016068458557128906,988.0999145507812,0,13.0,1,1
5.76,0.049975276,-0.12607996,9.745878,-4.2043160647153854e-05,-0.00017094402574002745,-0.0002454131899867207,-2.1655635833740234,25.4652156829834,-38.70188903808594,0.6235305070877075,-0.6423184871673584,-0.0014505386352539062,988.0999145507812,0,13.0,1,1
5.8,0.054712236,-0.12846224,9.7671795,0.0002246855292469263,0.00022846285719424486,0.00028739555273205036,-2.446738243103028,27.04572105407715,-38.828025817871094,0.6114802360534668,-0.6493793725967407,-0.0010766983032226562,988.1072387695312,0,13.0,1,1
5.84,0.049889624,-0.1260779,9.779011,-0.0009729258599691092,0.00014614243991672993,0.00010040818597190082,-2.60769271850586,27.15868949890137,-39.27173614501953,0.6182183027267456,-0.6464081406593323,-0.029047012329101562,988.1072387695312,0,13.0,1,1
5.88,0.04984677,-0.12369354,9.776639999999999,9.275058982893825e-05,1.2917560525238514e-05,0.0005000589299015701,-1.9672408103942869,25.65145301818848,-39.59017181396485,0.6204290390014648,-0.6387839317321777,-0.02390575408935547,988.1276245117188,0,13.0,1,1
5.92,0.054583757999999996,-0.14037545,9.774269,0.00035947927972301835,-0.00012030743528157473,-3.2395822927355766e-05,-2.210672378540039,25.844690322875977,-39.179046630859375,0.6173995733261108,-0.6168844103813171,-0.02347087860107422,988.1376953125,0,13.0,1,1
5.96,0.052151024000000004,-0.1308413,9.790834,9.357632370665671e-05,0.00041225733002647763,0.0008998865960165857,-2.331626892089844,25.942049026489254,-39.01213836669922,0.6004776358604431,-0.628336489200592,-0.02306747436523437,988.1146850585938,0,13.0,1,1
6.0,0.054498076,-0.13560681,9.774261,-3.9168691728264093e-05,0.00041219027480110526,-0.0006978316232562065,-1.989933013916016,25.73527336120605,-39.129676818847656,0.6075974702835083,-0.6208385229110718,-0.013215065002441406,988.1099853515624,0,13.0,1,1
6.04,0.04250574,-0.14037229,9.769524,0.00022755988175049424,0.0001458073384128511,0.0005007666768506169,-2.339779853820801,26.3029727935791,-38.72406005859375,0.6098639965057373,-0.6089189648628235,-0.017589569091796875,988.122314453125,0,13.0,1,1
6.08,0.04963261,-0.13322143,9.788456,-0.0003046589554287493,-0.0005200494197197257,-0.0004311618977226317,-2.0065374374389653,25.824987411499023,-38.97840118408203,0.6072264909744263,-0.6251137256622314,-0.0313873291015625,988.116943359375,0,13.0,1,1
6.12,0.047199845,-0.13560365,9.769514,-3.7930149119347334e-05,-0.0003869585343636573,0.0006342785200104117,-1.8983011245727541,26.084138870239254,-38.62532043457031,0.6047425270080566,-0.608294665813446,-0.0073490142822265625,988.1348266601562,0,13.0,1,1
6.16,0.051936805,-0.13321932,9.778978,-0.00030342029640451074,-0.000520250468980521,0.0005014744820073247,-2.5223402976989746,25.76318168640137,-38.5103759765625,0.5976762771606445,-0.6150193810462952,-0.02591228485107422,988.1096801757812,0,13.0,1,1
6.2,0.054283887,-0.13321824,9.776608,0.00036278233164921403,-0.0005203175242058934,0.0005016514332965016,-2.1287150382995605,26.55300712585449,-38.30931091308594,0.5810035467147827,-0.6170247793197632,-0.006605148315429688,988.1273193359376,0,13.0,1,1
6.24,0.04946124599999999,-0.13560052,9.778971,9.687914280220865e-05,-0.0005203845794312656,0.0003686704440042377,-2.0270261764526367,25.64790916442871,-39.19583129882813,0.5881897211074829,-0.6002213358879089,-0.025186538696289062,988.1045532226562,0,13.0,1,1
6.28,0.039858818,-0.14274926,9.774233,-0.000568497518543154,-0.000653609458822757,0.0005020053358748555,-2.1219468116760254,26.296525955200195,-39.21915817260742,0.6094780564308167,-0.593081533908844,-0.02482891082763672,988.112060546875,0,13.0,1,1
6.32,0.056545258,-0.13798167,9.778964,-0.0005680845933966339,-0.00025420275051146746,-0.0004299232386983931,-2.0668654441833496,26.189733505249023,-38.6825065612793,0.5781553983688354,-0.5950747728347778,-0.014971733093261719,988.1220703125,0,13.0,1,1
6.36,0.04694283,-0.13798065,9.767124,0.0003644336829893291,-0.00012111192336305976,-0.00016343046445399523,-1.908273696899414,25.811452865600586,-38.68480682373047,0.5903568267822266,-0.583104133605957,0.009029388427734377,988.1195678710938,0,13.0,1,1
6.4,0.05167982,-0.13321303,9.762385,-0.0008335748570971191,-0.000653810566291213,0.00036937824916094536,-2.053304672241211,26.09707450866699,-38.679176330566406,0.568617045879364,-0.609176516532898,0.014130592346191406,988.1143188476562,0,13.0,1,1
6.44,0.042077363,-0.1308287,9.771851,-0.0001673722290433943,0.0005445439019240439,-2.9918563086539507e-05,-2.2684993743896484,26.580678939819336,-39.13621520996094,0.5943662524223328,-0.5874767303466797,-0.0044155120849609375,988.1044311523438,0,13.0,1,1
6.48,0.053984045999999994,-0.12844433,9.774214,-3.3801596146076924e-05,0.00014500308316200972,0.0003697321517392993,-2.276790142059326,26.8356876373291,-38.14906311035156,0.5772666931152344,-0.5850004553794861,-0.03245258331298828,988.0969848632812,0,13.0,1,1
6.52,0.061608434000000004,-0.12130569,9.771889,-0.0008323363144882022,0.00027809402672573924,0.0002367511624470353,-2.105480670928955,26.10089683532715,-38.67135620117188,0.5601229667663574,-0.6013825535774231,-0.017864227294921875,988.116943359375,0,13.0,1,1
6.56,0.050143868,-0.13323398,9.776667,-0.00016613357001915574,0.00041118456283584237,0.00010377017315477133,-2.0216197967529297,25.916173934936523,-38.90442657470703,0.5615918636322021,-0.5891417860984802,-0.008136749267578125,988.1145629882812,0,13.0,1,1
6.6,0.050141335,-0.14515032,9.769566000000001,-0.0003132836427539587,-0.0009099111775867641,0.0010377636644989252,-2.319588661193848,25.84791374206543,-38.93149948120117,0.5592213869094849,-0.577243983745575,-0.01254558563232422,988.116943359375,0,13.0,1,1
6.64,0.045358956,-0.14753349,9.764831,-0.0007127331336960196,0.0001553483889438212,0.00010566852870397271,-1.7372093200683594,26.07709312438965,-38.88068389892578,0.5755289793014526,-0.5605291724205017,0.006747245788574219,988.1318969726562,0,13.0,1,1
6.68,0.054916024,-0.12370063,9.762463,-0.000712708686478436,-0.00011097150854766368,-0.0002937947865575552,-1.9864530563354488,26.47627067565918,-39.558494567871094,0.558658242225647,-0.5913251638412476,-0.002373695373535156,988.12451171875,0,13.0,1,1
6.72,0.06686303,-0.13561697,9.781400999999999,-0.00018005224410444498,0.00015534047270193696,-0.0004269422497600317,-2.0216188430786133,25.916173934936523,-38.90442657470703,0.5415661931037903,-0.5840316414833069,-0.00675201416015625,988.0791625976562,0,13.0,1,1
6.76,0.050131172,-0.13085039,9.767197,-0.0005795016186311841,0.0008211262174881995,0.0005051738116890191,-1.835609436035156,25.98471260070801,-38.475196838378906,0.5582627654075623,-0.5769758820533752,0.02197360992431641,988.1395263671876,0,13.0,1,1
6.8,0.057298332,-0.13323362,9.769565,-0.0008457931689918041,0.0001553325564600527,-0.000160605413839221,-1.8025388717651367,25.69936561584473,-38.07867050170898,0.5413146615028381,-0.5697796940803528,-0.00609588623046875,988.1192626953124,0,13.0,1,1
6.84,0.050126076,-0.13085027,9.776665,-0.00017997890245169398,-0.00037730328040197486,0.0002388789434917271,-2.0542840957641597,25.72730827331543,-38.50341796875,0.5576246976852417,-0.5719571113586426,-0.010468482971191406,988.1170654296876,0,13.0,1,1
6.88,0.05490333,-0.12846686,9.769564,8.63614259287715e-05,0.000954272283706814,0.00010573145118542017,-1.8506917953491209,26.07589530944824,-38.401222229003906,0.5358083248138428,-0.5643571019172668,-0.024301528930664062,988.1119384765624,0,13.0,1,1
6.92,0.0477311,-0.1356167,9.771931,0.00048585969489067793,0.00042163644684478635,0.0006383737782016398,-1.5614709854125977,25.24080848693848,-38.935813903808594,0.5428066253662109,-0.5663055777549744,0.00446319580078125,988.1345825195312,0,13.0,1,1
6.96,0.05489829,-0.14038314,9.771931,0.00035272620152682066,-0.001043104799464345,-0.000693195266649127,-1.6670455932617188,25.879114151000977,-38.418006896972656,0.5355152487754822,-0.5540862679481506,-0.004660606384277344,988.1270141601562,0,13.0,1,1
7.0,0.045336127000000004,-0.14038314,9.764828,0.00035272620152682066,-0.001043104799464345,-0.000693195266649127,-1.5723700523376465,26.23092460632324,-38.068260192871094,0.5425586104393005,-0.5516276955604553,0.005136489868164063,988.1270141601562,0,13.0,1,1
7.04,0.045333624,-0.13323317,9.769563,-4.6723056584596634e-05,0.0004216285306029022,0.0002389208530075848,-2.1361875534057617,26.65155601501465,-38.621864318847656,0.5353481769561768,-0.5634540319442749,0.0007238388061523438,988.0941772460938,0,13.0,1,1
7.08,0.04772097,-0.13084991,9.764828,-0.0001798565499484539,-0.00024416518863290554,0.0007715631509199739,-2.0278444290161133,25.80436515808105,-37.89612579345703,0.5279029607772827,-0.5560011863708496,-0.0036602020263671884,988.1091918945312,0,13.0,1,1
7.12,0.035768926,-0.13799961,9.786133,0.00021964160259813068,0.000288462673779577,0.0003720998065546155,-2.141732692718506,26.27737617492676,-38.21419143676758,0.5540207624435425,-0.5342721343040466,-0.008052825927734375,988.1369018554688,0,13.0,1,1
7.16,0.047715843,-0.13561635,9.774296000000001,-0.00031296571251004934,2.2142718080431226e-05,0.00023895231424830849,-1.4647302627563477,25.22579765319824,-38.56492233276367,0.5277514457702637,-0.5508258938789368,0.0017337799072265625,988.1295166015624,0,13.0,1,1
7.2,0.04532343,-0.12131657,9.77903,-0.0005792570300400258,-0.0007768088253214955,-0.000826300703920424,-1.6338376998901367,25.699689865112305,-38.720558166503906,0.539350152015686,-0.5483765602111816,-0.002666473388671875,988.099365234375,0,13.0,1,1
7.24,0.057270407999999995,-0.12846632,9.764828,0.00035287300124764437,0.000155292684212327,-2.734258305281401e-05,-2.0095810890197754,25.82204246520996,-38.82378768920898,0.5177857875823975,-0.5556088089942932,0.007106781005859375,988.0943603515624,0,13.0,1,1
7.28,0.057267874,-0.12369971,9.767195,-0.00044605019502341747,-0.00024418500834144646,-2.7332105673849586e-05,-1.891669750213623,25.721738815307614,-38.83609008789063,0.5103583931922913,-0.5432296991348267,-0.016211509704589844,988.12451171875,0,13.0,1,1
7.32,0.045315802,-0.13084949999999998,9.793234,2.3007974959909923e-05,0.0009889595676213503,0.0002070149639621377,-2.0728158950805664,26.289758682250977,-39.072364807128906,0.5319140553474426,-0.5500707030296326,-0.011155128479003906,988.1068725585938,0,13.0,1,1
7.36,0.0453133,-0.12369959,9.783764,-0.00011012528557330371,-0.00034262362169101834,0.0008728151442483068,-2.013168334960937,26.187387466430664,-38.76763153076172,0.5251194238662721,-0.5476553440093994,-0.015604019165039062,988.1143188476562,0,13.0,1,1
7.4,0.045310736,-0.14038248,9.76956,0.00015621492639183998,-0.0016742071602493525,0.00034019388840533793,-1.8166418075561523,26.160314559936523,-38.18045425415039,0.5221962332725525,-0.5403594374656677,0.008411407470703125,988.1370239257812,0,13.0,1,1
7.44,0.054867834000000004,-0.12608276,9.767192999999999,2.3105996660888195e-05,0.0007226280285976827,0.00073968869401142,-1.8811540603637693,25.626134872436523,-38.67814636230469,0.5101884603500366,-0.5378344655036926,-0.000743865966796875,988.1318969726562,0,13.0,1,1
7.48,0.04291576,-0.14991547,9.760091000000001,2.313044387847185e-05,0.0007226239540614188,-0.0005918802926316857,-1.814577579498291,25.793500900268555,-38.15930938720703,0.5218232274055481,-0.5016374588012695,-0.0003948211669921875,988.1243286132812,0,13.0,1,1
7.52,0.05948499,-0.13561189999999998,9.767178,0.00028947077225893736,-0.0006089593516662718,-0.00032555384677834814,-1.8711810111999512,25.89881706237793,-38.61865234375,0.5003471970558167,-0.527539074420929,0.009415626525878906,988.1093139648438,0,13.0,1,1
7.56,0.052306414,-0.14276148,9.760076,0.00042341055814176803,0.0007224931032396853,-0.00019206080469302836,-2.084991455078125,26.27797508239746,-38.45392608642578,0.5121762156486511,-0.515502393245697,0.01919746398925781,988.1444702148438,0,13.0,1,1
7.6,0.047517717,-0.14037798,9.767176,0.0001573340268805623,5.848199361935257e-05,7.553221075795591e-05,-1.7768025398254397,25.61849021911621,-38.69377899169922,0.5048978924751282,-0.5129713416099548,0.024244308471679688,988.1192626953124,0,13.0,1,1
7.64,0.057068467000000005,-0.14752759,9.769542999999999,0.0004237355897203088,5.846802378073335e-05,-5.7589117204770446e-05,-1.64837646484375,25.42258262634277,-38.54813766479492,0.4977090954780578,-0.5009787082672119,0.01034259796142578,988.1243286132812,0,13.0,1,1
7.68,0.04272014,-0.13084443,9.776644000000001,0.0001575051574036479,-7.470371201634407e-05,0.000741395284421742,-1.9330310821533203,26.2620906829834,-38.245460510253906,0.5193303227424622,-0.5129691958427429,-0.02251434326171875,988.1217651367188,0,13.0,1,1
7.72,0.047491074,-0.14037742,9.781378,-0.0006413570372387768,-0.0002078755642287433,7.564225234091282e-05,-2.026590347290039,26.38596153259277,-39.47003936767578,0.5072267055511475,-0.4960660338401794,0.0014743804931640625,988.134521484375,0,13.0,1,1
7.76,0.0498721,-0.1356106,9.764806,0.0004239921690896154,0.0004579001688398421,-0.0005901109543628992,-2.328285217285156,26.577131271362305,-38.74187469482422,0.5035535097122192,-0.5015539526939392,0.006681442260742188,988.1041870117188,0,13.0,1,1
7.8,0.03552383,-0.1308438,9.76954,0.0005572357913479209,-7.474544690921903e-05,-0.00045691622653976083,-1.9052305221557615,25.81439781188965,-38.83942031860352,0.5025506019592285,-0.5098451375961304,0.011554718017578123,988.1014404296876,0,13.0,1,1
7.84,0.042684615,-0.13799341,9.760069999999999,2.468924503773451e-05,-0.0003410752397030592,-0.0008563532610423862,-1.9965639114379885,26.09767341613769,-38.918907165527344,0.4955053627490997,-0.4978923797607422,0.0118408203125,988.0990600585938,0,13.0,1,1
7.88,0.05701518,-0.13560988,9.762436,-0.0005078567191958426,0.000191542727407068,0.00020894684712402525,-1.6407666206359863,25.42994499206543,-38.934661865234375,0.4783301651477814,-0.509864866733551,0.007414817810058594,988.1119384765624,0,13.0,1,1
7.92,0.052226484000000004,-0.14037628,9.771904,2.486060839146376e-05,-7.478712359443307e-05,-0.00032364827347919345,-1.7091097831726074,26.261537551879886,-39.04977416992188,0.4904190003871918,-0.4884461164474487,-0.0017766952514648438,988.1192626953124,0,13.0,1,1
7.96,0.04504788,-0.13560952,9.7577,-0.0003745275316759944,-0.00034111688728444284,0.0006084940396249294,-1.8873486518859863,26.72658348083496,-38.74158477783203,0.4833597838878632,-0.4909437894821167,0.022169113159179688,988.1343994140624,0,13.0,1,1
8.0,0.04264912,-0.14752568,9.788473,0.00015818967949599028,-0.0004742887103930116,0.0003422148001845926,-1.572530746459961,25.7047061920166,-39.19220733642578,0.4908007383346558,-0.4977458119392395,-0.015415191650390625,988.0965576171876,0,13.0,1,1
8.04,0.05458975,-0.13560905,9.755331,0.0008240649476647378,0.0003246451378799975,-0.00045669608516618615,-1.8155250549316408,26.63599967956543,-39.05529022216797,0.4692105054855346,-0.4907180070877075,0.008538246154785156,988.1143188476562,0,13.0,1,1
8.08,0.04024148,-0.13084225,9.757698,-0.00010795507114380598,0.0003246311680413782,-0.00019034364959225056,-1.8141412734985352,26.531553268432614,-38.43351364135742,0.485920786857605,-0.4930064082145691,0.02776527404785156,988.1469116210938,0,13.0,1,1
8.12,0.049792199999999995,-0.12845875,9.776634,-0.000773659092374146,-0.0004743303870782256,0.00034232489997521043,-2.084991455078125,26.27797508239746,-38.45392608642578,0.4644965827465058,-0.4906107783317566,0.004370689392089844,988.0966796875,0,13.0,1,1
8.16,0.04978335,-0.13560833,9.783735,0.0001585320569574833,-0.00034118629992008215,0.0003423614543862641,-1.9047942161560056,26.55245018005371,-39.11362838745117,0.4767563343048096,-0.4881138205528259,-9.250640869140624e-05,988.104248046875,0,13.0,1,1
8.2,0.054554284,-0.14275806,9.760063,-0.00010769849177449942,-0.00047435815213248123,-0.0008560233400203288,-2.3052945137023926,27.12544822692871,-38.777503967285156,0.4747223854064941,-0.4664281010627746,0.019121170043945312,988.1093139648438,0,13.0,1,1
8.24,0.042595863,-0.13084142,9.76243,-0.00010769849177449942,-0.00047435815213248123,-0.0008560233400203288,-2.0953693389892583,26.4794979095459,-39.310943603515625,0.4726203083992005,-0.4831372499465942,0.014646530151367188,988.1093139648438,0,13.0,1,1
8.28,0.059316307,-0.13799103,9.774264,0.0012239665957167745,-0.0006075300043448807,0.0006087507354095577,-2.1464586257934566,25.746736526489254,-39.106224060058594,0.4604516625404358,-0.4711641073226929,0.005469322204589844,988.09912109375,0,13.0,1,1
8.32,0.049747825,-0.14037408,9.781364,2.563081216067076e-05,-0.00020806997781619432,-0.00045647617662325496,-2.1947488784790044,26.01735496520996,-38.72969818115234,0.4577467441558838,-0.4689072966575623,0.0010194778442382812,988.0992431640624,0,13.0,1,1
8.36,0.059298515,-0.13560726,9.783731,-0.00010744167957454921,0.0009903374593704939,-0.0003232815652154386,-1.8440604209899905,25.7134952545166,-38.61198425292969,0.4647667407989502,-0.4668140411376953,0.0012836456298828125,988.1167602539062,0,13.0,1,1
8.4,0.06645936,-0.12130736,9.7813635,-0.0006399879930540919,0.0005908498424105346,7.622901466675103e-05,-2.1415948867797847,26.38329124450684,-38.91326904296875,0.4290883541107178,-0.4836716651916504,-0.003195762634277344,988.1141967773438,0,13.0,1,1
8.44,0.05211109,-0.12845708,9.7718935,-0.0006399023113772272,0.0005908359889872372,-0.0004563661641441285,-2.1440963745117188,26.012060165405273,-38.66020965576172,0.4510730504989624,-0.476495087146759,-0.012415885925292969,988.1065063476562,0,13.0,1,1
8.48,0.047322392000000005,-0.1332234,9.776627000000001,-0.00010718486737459898,-0.0003412836231291294,-0.00032317149452865124,-2.376031875610352,26.47945213317871,-38.26689910888672,0.4536641538143158,-0.4599553346633911,0.006773948669433594,988.134521484375,0,13.0,1,1
8.52,0.034595907,-0.14750399,9.774189,-0.0003734154161065817,-0.0007407712982967496,0.00047581279068253934,-1.6585946083068848,26.15032768249512,-38.281211853027344,0.46666312217712397,-0.4528473615646362,0.021300315856933597,988.1142578125,0,13.0,1,1
8.56,0.04172635,-0.14273642,9.759982,2.614420372992754e-05,-0.00020815344760194418,-0.0009888878557831051,-1.7607421875,25.897069931030273,-38.94350814819336,0.4643317461013794,-0.4455609917640686,0.02631378173828125,988.1142578125,0,13.0,1,1
8.6,0.051246643,-0.1403522,9.769447,0.00042986118933185935,-6.87168212607503e-05,-0.0005830923328176142,-1.6425333023071291,26.42889976501465,-38.53093719482422,0.4428293704986572,-0.4573726654052734,0.017122268676757812,988.1141967773438,0,13.0,1,1
8.64,0.041647732,-0.14273454,9.771811,0.0001648219185881317,0.0004637077217921615,-4.991350579075515e-05,-2.0556683540344243,25.83175468444824,-39.12519073486328,0.45035263895988464,-0.4456246495246887,0.003162384033203125,988.1115112304688,0,13.0,1,1
8.68,0.053557932,-0.14750011,9.778909,0.0006978323799557984,6.417243275791408e-05,-0.0001829091052059084,-1.9640359878540041,26.18061637878418,-38.62083435058594,0.4387864172458649,-0.43857979774475103,-0.006061553955078125,988.1014404296876,0,13.0,1,1
8.72,0.041569114,-0.13081624,9.76707,0.0002991163055412472,-0.0002022664702963084,-0.0009815319208428264,-2.1248836517333984,25.187238693237305,-38.691890716552734,0.4415692090988159,-0.4649738073348999,0.017847061157226562,988.1014404296876,0,13.0,1,1
8.76,0.041529834,-0.1379651,9.7718,-0.0008989264606498182,-0.001001275610178709,-0.00018242202349938447,-1.9157462120056152,25.910001754760746,-38.99736785888672,0.447847068309784,-0.4477584958076477,-0.010211944580078123,988.1117553710938,0,13.0,1,1
8.8,0.04866022,-0.13558088,9.767063,-0.0006657704361714423,0.0002515104715712368,-0.0007647997117601335,-1.7452244758605957,26.54393577575684,-39.29168701171875,0.4326190650463104,-0.4610183835029602,0.013568878173828123,988.1068725585938,0,13.0,1,1
8.84,0.06057048,-0.14034642,9.762323,0.00026671407977119094,-0.0004143406986258924,-0.0006314794882200657,-1.8786535263061523,25.997373580932614,-38.93120574951172,0.4257350862026215,-0.4347732067108154,0.009088516235351562,988.0990600585938,0,13.0,1,1
8.88,0.050971567999999995,-0.14034544,9.769423,-0.00026553875068202615,0.0002513874787837267,0.0008334203157573937,-1.9128398895263672,25.80703163146973,-38.45289611816406,0.4320772588253021,-0.4359513521194458,0.0189361572265625,988.1091918945312,0,13.0,1,1
8.92,0.043762565,-0.14272775,9.769419000000001,0.0008001033565960824,-0.0004144637496210634,-0.0004979968653060496,-2.273501396179199,25.83820152282715,-38.63009643554688,0.44533225893974304,-0.4346566796302795,0.014332771301269531,988.1268310546876,0,13.0,1,1
8.96,0.06045255,-0.13557698,9.77415,0.0005341661744751036,-0.0016129466239362955,3.4797267289832234e-05,-1.7068843841552734,26.420942306518555,-37.90467834472656,0.4197924137115479,-0.4418143033981323,0.01929283142089844,988.1217041015624,0,13.0,1,1
9.0,0.05085361,-0.14034258,9.774146,-0.00013124459655955434,-1.5112862456589936e-05,3.4959637559950345e-05,-1.8801746368408203,25.995893478393555,-38.85390090942383,0.4272453188896179,-0.4257490634918213,-0.004167556762695313,988.1369018554688,0,13.0,1,1
9.04,0.05081433,-0.11889209,9.774142,-0.0002640237216837704,-0.0002814902109093964,0.0004345958004705608,-1.7351436614990234,25.71027183532715,-38.85953903198242,0.4205537736415863,-0.4471275806427002,-0.003926277160644531,988.1016235351562,0,13.0,1,1
9.08,0.043605328,-0.1403407,9.771771000000001,0.0008016186184249817,0.00011792202712967993,0.00016844228957779708,-1.8143019676208496,26.005334854125977,-39.557464599609375,0.4234733581542969,-0.4163070321083069,0.005767822265625,988.1192016601562,0,13.0,1,1
9.12,0.048345804000000006,-0.13318987,9.757565,-0.0002632660907693207,-0.00014845532132312655,3.544671926647425e-05,-1.9021863937377932,25.81734275817871,-38.99403381347656,0.4161299765110016,-0.4281404614448547,0.024976730346679688,988.0762939453124,0,13.0,1,1
9.16,0.048306525,-0.12842228,9.759929,3.4286058507859707e-06,0.0006504308548755944,3.560897312127054e-05,-2.0040359497070312,26.19622611999512,-39.23146057128906,0.4139770269393921,-0.4310040473937988,0.03466320037841797,988.1016845703124,0,13.0,1,1
9.2,0.053047000000000004,-0.13795443,9.767027,-0.00026250857627019286,0.0005172114470042288,0.00016892931307666004,-1.874086856842041,26.00179100036621,-39.163124084472656,0.4112800359725952,-0.4289567470550537,0.0159759521484375,988.1016845703124,0,13.0,1,1
9.24,0.053007722,-0.14033677,9.771757000000001,-0.000395287701394409,0.0009166236850433053,0.00056856544688344,-1.924579620361328,26.533300399780273,-38.10866165161133,0.4091646671295166,-0.4127936363220215,-0.0027484893798828125,988.0814819335938,0,13.0,1,1
9.28,0.052968442000000004,-0.14033581,9.783589,-0.0009275406482629477,0.0010497202165424824,-0.0003633777960203588,-2.0462379455566406,26.47273063659668,-39.164154052734375,0.3971885144710541,-0.4105044603347778,-0.011967658996582031,988.1115112304688,0,13.0,1,1
9.32,0.060098857,-0.13318504,9.7717495,0.0009370494517497717,0.0003838689881376922,0.000968364009167999,-2.0779242515563965,26.65363121032715,-38.93889617919922,0.4046770036220551,-0.4273359179496765,0.016668319702148438,988.08642578125,0,13.0,1,1
9.36,0.036160500000000005,-0.1308008,9.783583,-0.0006604671361856163,-0.0002819822111632675,-0.00022989517310634253,-1.745798110961914,25.69996452331543,-38.31840133666992,0.42141631245613104,-0.42058783769607533,0.002692222595214844,988.1091918945312,0,13.0,1,1
9.4,0.0480707,-0.13079984,9.764642,5.701498594135046e-06,0.0010495358146727083,0.0008355307509191334,-2.0865135192871094,26.27650260925293,-38.37662124633789,0.4093912541866303,-0.432794988155365,0.021867752075195312,988.09912109375,0,13.0,1,1
9.44,0.052811205,-0.13794874,9.77174,-0.00012707762653008103,0.0011826322879642248,3.674547770060599e-05,-1.965015411376953,25.810853958129886,-38.4450798034668,0.39273273944854736,-0.4019511938095093,0.007902145385742188,988.091552734375,0,13.0,1,1
9.48,0.048449516,-0.13795896,9.778879,0.000139616837259382,0.00025046506198123103,0.00017006570124067366,-2.0357222557067867,26.377126693725586,-39.00621032714844,0.4005790948867798,-0.4044327139854431,-0.0013532638549804688,988.0965576171876,0,13.0,1,1
9.52,0.04889515,-0.13558657,9.767083999999999,0.00013780820881947875,-0.0008145047468133272,0.0003024484612978995,-1.97096586227417,25.91087913513184,-38.834938049316406,0.397557258605957,-0.4023209810256958,0.03191852569580078,988.1141357421876,0,13.0,1,1
9.56,0.041722924,-0.14035316,9.778919,0.00013780820881947875,-0.0008145047468133272,0.0003024484612978995,-1.7637863159179688,25.89411735534668,-38.78889465332031,0.4099083840847016,-0.4095705151557921,0.013197898864746094,988.1141357421876,0,13.0,1,1
9.6,0.058449685999999994,-0.14035301,9.774185000000001,0.0005285395891405642,-0.00014015508349984882,3.7334655644372106e-05,-2.1136331558227544,26.46182060241699,-38.38328552246094,0.3840058445930481,-0.3980844020843506,0.003928184509277344,988.091552734375,0,13.0,1,1
9.64,0.046497643,-0.13558646,9.767083,0.00012909021461382508,-0.00040647486457601184,-0.0003621287760324776,-2.0433320999145512,26.3697566986084,-38.61968231201172,0.3915094435214996,-0.4011407494544983,0.01831817626953125,988.106689453125,0,13.0,1,1
9.68,0.05605474,-0.13081978,9.778919,-0.000669832865241915,0.0002593109384179116,-0.0003621182404458523,-2.1551551818847656,26.47595024108887,-38.916603088378906,0.38484126329422,-0.3989712595939636,0.004319190979003906,988.1014404296876,0,13.0,1,1
9.72,0.048882484000000004,-0.14273612,9.776552,-0.00013717677211388946,-0.000805956544354558,0.00043683988042175764,-1.652505874633789,26.15621757507324,-38.590431213378906,0.3921703100204468,-0.387166440486908,0.009276390075683594,988.0940551757812,0,13.0,1,1
9.76,0.046490014,-0.13796951,9.755247,-0.00027031026547774667,0.0011914086062461138,0.0005700083565898241,-1.8520765304565432,26.18034172058105,-39.02299499511719,0.38539576530456543,-0.4041067361831665,0.0378875732421875,988.1267700195312,0,13.0,1,1
9.8,0.051267266,-0.13796945,9.774183,0.001061293529346585,0.0003924568882212043,-0.00022892880951985717,-1.7691926956176758,25.62585258483887,-39.08030700683594,0.3786070644855499,-0.38765329122543335,0.019156455993652344,988.1141967773438,0,13.0,1,1
9.84,0.04409504,-0.13558610000000001,9.767082,-3.945373464375734e-06,-0.001205442356877029,0.0005700292531400919,-1.960992813110352,26.18356513977051,-38.77544403076172,0.3863236606121063,-0.3904788494110107,0.009873390197753906,988.096435546875,0,13.0,1,1
9.88,0.053652108,-0.14035262,9.776551,-0.00013707898324355483,0.0003924490883946419,3.740796819329262e-05,-1.970965385437012,25.91087913513184,-38.834938049316406,0.3747362494468689,-0.378822922706604,0.010076522827148438,988.1268310546876,0,13.0,1,1
9.92,0.06798899,-0.14273582,9.759979,0.0001292614615522325,-7.028866093605757e-06,-0.0006283711991272867,-2.0466737747192383,25.73467445373535,-38.88994598388672,0.3586899042129517,-0.3816335201263428,0.03392887115478516,988.1192016601562,0,13.0,1,1
9.96,0.05364704,-0.13558592,9.781284,-0.0004033215227536857,0.00012612115824595096,-0.00022887642262503505,-1.941344738006592,26.09679985046387,-39.08133316040039,0.3619596660137177,-0.3987215757369995,0.010427474975585938,988.1115112304688,0,13.0,1,1
10.0,0.06081423,-0.13081928,9.774183,0.0003956506843678653,-0.0005396724445745349,-9.57080046646297e-05,-1.7125902175903318,25.52053642272949,-38.62095642089844,0.369404673576355,-0.3775848746299744,0.005894660949707031,988.0814819335938,0,13.0,1,1
10.04,0.063201606,-0.12128611,9.769447999999999,0.0005288330721668898,0.0001261132420040667,0.00017061835387721658,-2.160699844360352,26.10176658630371,-38.50893020629883,0.35776668787002563,-0.3895597457885742,0.006107330322265625,988.0965576171876,0,13.0,1,1
10.08,0.058419257,-0.13558574,9.762346,0.00026254152180626994,0.0009250569855794313,-0.00036200293106958265,-1.9680595397949217,25.80790901184082,-38.29047393798828,0.3556414544582367,-0.3922975063323975,0.02997875213623047,988.0839233398438,0,13.0,1,1
10.12,0.05602681599999999,-0.15226854,9.781283,-0.001069013262167573,0.00012610526755452156,-0.000628308451268822,-2.1456174850463867,26.01058387756348,-38.58290481567383,0.36341431736946106,-0.3619360327720642,0.006475448608398438,988.1192626953124,0,13.0,1,1
10.16,0.05841419,-0.1284358,9.769447,0.00026259053265675897,-0.0005396883352659644,-0.0006282978574745357,-2.2735018730163574,25.83820152282715,-38.63009643554688,0.3512242138385773,-0.3687111735343933,0.001996040344238281,988.106689453125,0,13.0,1,1
10.2,0.05602175,-0.13081895,9.771814,-0.000403174723032862,-0.0004065343819092959,0.0004369761445559561,-1.975095272064209,26.644514083862305,-38.87722778320313,0.3597515225410461,-0.38229960203170776,0.011545181274414062,988.0865478515624,0,13.0,1,1
10.24,0.070358634,-0.12605239999999998,9.778915,-0.0006694661569781601,-0.0005396962515078485,0.00017067076987586915,-1.8449020385742188,25.44965171813965,-39.13531112670898,0.3391289710998535,-0.3900319337844849,0.0117034912109375,988.0990600585938,0,13.0,1,1
10.28,0.04884696,-0.13558538,9.776548,-0.0010689154732972383,-0.0002733843866735697,0.00030383915873244405,-2.1932268142700195,26.01882743835449,-38.8070068359375,0.3612834215164185,-0.36921572685241705,0.007132530212402344,988.0941772460938,0,13.0,1,1
10.32,0.06557372,-0.13320209,9.774181,-9.447475895285605e-05,9.879510616883637e-05,-0.0007902168435975909,-1.7206048965454102,25.98737907409668,-39.03196334838867,0.34961313009262085,-0.3672959804534912,0.012054443359375,988.1041259765624,0,13.0,1,1
10.36,0.056011557999999996,-0.13558526,9.774181,-0.0006270820740610361,9.879120625555517e-05,-0.0005238904268480837,-2.4767956733703613,26.12175178527832,-38.30742263793945,0.3623878657817841,-0.3608947992324829,0.012203216552734377,988.1093139648438,0,13.0,1,1
10.4,0.058398962,-0.13320197,9.759977000000001,3.8732076063752174e-05,-0.0010996342170983553,-0.00012440606951713562,-2.2199416160583496,25.729936599731445,-38.01613998413086,0.3465820848941803,-0.3684479594230652,0.012366294860839844,988.0966796875,0,13.0,1,1
10.44,0.051226735,-0.13320188,9.7765465,-0.000227559357881546,-0.0001675325911492109,-0.000390711531508714,-1.8621864318847656,25.801740646362305,-38.38340759277344,0.34921717643737793,-0.3568875193595886,0.00308990478515625,988.1116943359376,0,13.0,1,1
10.48,0.051128924000000006,-0.12843294,9.771804,0.00017193902749568224,0.0007645690347999334,8.772796718403697e-06,-2.058849811553955,25.72289085388184,-38.2715072631836,0.34265345335006714,-0.3742797374725342,0.01746368408203125,988.091552734375,0,13.0,1,1
10.52,0.04634279,-0.14511572,9.776538,-0.0007595713250339031,0.0007644721772521733,-0.0006567616946995258,-2.205265045166016,26.11295890808105,-38.88764190673828,0.3500556349754333,-0.3485409617424011,0.02711772918701172,988.0940551757812,0,13.0,1,1
10.56,0.06067586,-0.12843265,9.750498,-9.338487870991229e-05,0.0003649340942502022,-0.00012395984958857298,-2.0137104988098145,26.55567741394043,-38.86608123779297,0.33386561274528503,-0.3705478310585022,0.04622364044189453,988.11669921875,0,13.0,1,1
10.6,0.058279604000000006,-0.13796557,9.769435000000001,-9.332364425063132e-05,-0.0007003393839113414,-0.0007897234754636884,-1.8678383827209477,26.533899307250977,-38.348392486572266,0.3273807466030121,-0.35467004776000977,0.017966270446777344,988.1041870117188,0,13.0,1,1
10.64,0.04393384,-0.14273198,9.771802000000001,-0.0004927364643663168,0.0008975460659712553,0.0004087242705281824,-1.7993574142456057,25.80822944641113,-38.93235778808594,0.3446817994117737,-0.3386318683624268,0.008657455444335938,988.106689453125,0,13.0,1,1
10.68,0.058266938,-0.14511512,9.786003,-0.00022635946515947583,9.858841076493265e-05,-0.00012388138566166162,-1.9443883895874023,26.093847274780273,-38.92672348022461,0.33278152346611023,-0.341433048248291,0.004116058349609375,988.1117553710938,0,13.0,1,1
10.72,0.060650498,-0.13558184,9.767066,0.00017317547462880614,0.0004980523372069001,0.00040877662831917405,-2.121105670928955,26.56036949157715,-38.695838928222656,0.3357442319393158,-0.34441351890563965,0.013747215270996094,988.1115112304688,0,13.0,1,1
10.76,0.053474485999999995,-0.12843181,9.767064999999999,-0.0002262373454868793,0.0006312004989013076,9.328941814601421e-06,-1.7643294334411619,26.26241111755371,-38.88734817504883,0.33884018659591675,-0.35696113109588623,0.009164810180664062,988.104248046875,0,13.0,1,1
10.8,0.046298385,-0.14511462,9.755228,-0.0002262373454868793,0.0006312004989013076,9.328941814601421e-06,-1.720743179321289,25.8814640045166,-38.3328857421875,0.332165390253067,-0.3264274597167969,0.03300952911376953,988.104248046875,0,13.0,1,1
10.84,0.055851668,-0.12604822,9.759962,0.0003064556512981653,-0.000167757214512676,-0.0002569607459008693,-2.19887924194336,26.750986099243164,-38.77198791503906,0.3253554105758667,-0.3528794050216675,0.028461456298828125,988.1393432617188,0,13.0,1,1
10.88,0.051065505,-0.14988084,9.778899000000001,0.0007059904746711254,0.0003648647107183933,-0.0005232504336163403,-2.0372438430786133,26.37565422058105,-38.92890167236328,0.3380755186080933,-0.3225255012512207,0.01914215087890625,988.1091918945312,0,13.0,1,1
10.92,0.043889463,-0.13796435,9.759962,-0.0004923697561025621,0.0003648548154160381,0.0005420392844825983,-1.7719392776489258,26.25504493713379,-38.500823974609375,0.3409997522830963,-0.3445819616317749,0.02877044677734375,988.1345825195312,0,13.0,1,1
10.96,0.06778216,-0.14511408,9.764696,0.00017348129767924547,-0.00016778698773123324,-0.0002568820491433144,-2.0792016983032227,25.65173149108887,-39.18801498413086,0.3102112114429474,-0.3284456133842468,0.028942108154296875,988.0940551757812,0,13.0,1,1
11.0,0.046266675,-0.12604763,9.755225999999999,-0.00035908934660255914,0.0002316769678145647,-0.0002568558556959033,-2.202221393585205,26.11590385437012,-39.04225158691406,0.3230949938297272,-0.3408282995223999,0.043292999267578125,988.091552734375,0,13.0,1,1
11.04,0.046260357,-0.14511366,9.757592,0.00030676135793328285,0.0004979829536750913,-0.0006563036004081367,-1.6627779006958008,25.251394271850586,-39.074790954589844,0.3260814249515533,-0.3337247967720032,0.029273033142089844,988.1117553710938,0,13.0,1,1
11.08,0.041474164,-0.1355805,9.781263000000001,0.0008394543547183275,-0.0008336064056493343,-0.000523119349963963,-2.3158411979675293,26.008790969848636,-37.86370849609375,0.3337302207946777,-0.3223571181297302,0.015231132507324219,988.1318969726562,0,13.0,1,1
11.12,0.039077938,-0.14273013,9.769426,0.0011058312375098467,0.0006311209872364997,-0.0006562512135133147,-2.322090148925781,25.47668266296387,-38.67843627929688,0.3317800462245941,-0.3249924778938293,0.03908061981201172,988.1143188476562,0,13.0,1,1
11.16,0.046241343,-0.13558014,9.769426,0.00030694471206516033,-3.467861097306013e-05,-0.0005230669630691409,-2.057190418243408,25.83028221130371,-39.047889709472656,0.3206022381782532,-0.33745312690734863,0.02502536773681641,988.0967407226562,0,13.0,1,1
11.2,0.04145518,-0.12366359,9.762324000000001,0.0007064796518534423,0.0008974170777946711,-0.0009225147077813745,-1.9594707489013672,26.185041427612305,-38.85275268554688,0.3280526399612427,-0.3259133100509644,0.03940391540527344,988.0842895507812,0,13.0,1,1
11.24,0.051008463,-0.14272965,9.778894000000001,0.00017397012561559674,0.0008973971707746387,-0.0002566726179793477,-2.1305360794067383,25.91940116882324,-38.65687561035156,0.31187912821769714,-0.3241302967071533,0.011150360107421877,988.1219482421876,0,13.0,1,1
11.28,0.051002085,-0.14034618,9.771792999999999,0.00017403112724423409,0.00023159751435741782,-0.0006561202462762594,-1.8415594100952148,26.08473777770996,-38.86505126953125,0.3102675378322601,-0.30809903144836426,0.01129150390625,988.1016235351562,0,13.0,1,1
11.32,0.050995767000000004,-0.1379628,9.769424,-0.0004916973412036897,-0.000700517906807363,0.00014285373617894948,-1.8379735946655276,25.719392776489254,-38.92121124267578,0.3075356185436249,-0.3200764060020447,0.020972251892089844,988.0967407226562,0,13.0,1,1
11.36,0.041429818,-0.13796262,9.759953999999999,-0.0002253202255815268,0.001030525309033692,9.721959941089153e-06,-1.9860477447509768,26.002065658569336,-38.760963439941406,0.3204925358295441,-0.3185158967971802,0.030565261840820312,988.0916137695312,0,13.0,1,1
11.4,0.039033532,-0.142729,9.759953999999999,-0.0003584171645343304,-0.0008336957544088364,0.00014290609396994114,-2.1075453758239746,26.46771049499512,-38.6925048828125,0.3197714686393738,-0.30838191509246826,0.02115154266357422,988.104248046875,0,13.0,1,1
11.44,0.046509862,-0.14035334,9.774187,-0.00022519810590893033,-0.00016791600501164794,9.774346835911274e-06,-2.307550430297852,25.75378227233887,-38.85086441040039,0.3132611215114593,-0.3113903403282165,0.011827468872070312,988.0789794921876,0,13.0,1,1
11.48,0.06117487,-0.13797803,9.767114,-0.000491452869027853,0.0004978638608008623,-0.000922305043786764,-2.1169757843017583,25.826738357543945,-38.653541564941406,0.2964713275432587,-0.31443190574646,0.035587310791015625,988.1016235351562,0,13.0,1,1
11.52,0.046854525999999994,-0.14036168,9.78842,0.00016883952775970101,0.0004965136758983135,6.04183878749609e-06,-2.1497478485107417,26.744218826293945,-38.62519454956055,0.3031818270683289,-0.29764169454574585,-0.01154327392578125,988.1270141601562,0,13.0,1,1
11.56,0.05882305,-0.14274545,9.774219500000001,0.00016865605721250176,0.0003633855376392603,5.963171133771539e-06,-2.254534721374512,26.01380729675293,-38.335357666015625,0.2881038188934326,-0.3062465190887451,0.012195587158203123,988.1041259765624,0,13.0,1,1
11.6,0.04928246,-0.12606294,9.771854,-0.00036415905924513936,-0.001101322122849524,-0.0011925369035452606,-2.0747728347778316,25.55023002624512,-38.72085571289063,0.2963622808456421,-0.3237208127975464,0.012311935424804688,988.1318359375,0,13.0,1,1
11.64,0.046911537999999996,-0.13797982,9.778957,0.0008340791682712734,0.0006297610234469175,0.0006715956842526793,-2.4073352813720703,25.76584434509277,-39.06714630126953,0.2991872727870941,-0.29319775104522705,0.0124664306640625,988.0966796875,0,13.0,1,1
11.68,0.056490183,-0.1379803,9.776591999999999,0.0001681061112321913,0.0006297907093539834,-0.0005269043613225222,-2.0056958198547363,26.08883476257324,-38.455078125,0.2976122200489044,-0.3103904724121094,0.02680683135986328,988.12451171875,0,13.0,1,1
11.72,0.046949625,-0.13083093,9.776593,0.00043423875467851763,-0.00016912724822759628,-0.0001275090326089412,-2.0263223648071294,25.805837631225586,-37.97343444824219,0.305519163608551,-0.30393290519714355,0.0174713134765625,988.096923828125,0,13.0,1,1
11.76,0.061308056,-0.13321467,9.760024000000001,0.0003008973435498774,-3.5939505323767655e-05,0.00013872826821170747,-1.9730300903320312,26.277700424194336,-38.85608291625977,0.2753011882305145,-0.302305281162262,0.03179931640625,988.1270141601562,0,13.0,1,1
11.8,0.058937162,-0.14274828,9.767128,0.00056702975416556,-0.001500647165812552,-0.0006602980429306626,-1.7758240699768066,25.98825645446777,-38.869537353515625,0.2933609485626221,-0.3005039095878601,0.022446632385253903,988.0940551757812,0,13.0,1,1
11.84,0.051786482,-0.1379822,9.776598,-0.00055122678168118,-0.00017108774045482278,0.00025343330344185233,-1.8685731887817385,25.16370964050293,-38.49905395507813,0.291816771030426,-0.30405235290527344,0.013081550598144531,988.1320190429688,0,13.0,1,1
11.88,0.051805496,-0.1332161,9.783702,-0.0004182521952316165,0.00036157376598566765,0.000785986485425383,-1.979118824005127,26.27180290222168,-38.54685974121094,0.2853115797042847,-0.2974433898925781,0.017955780029296875,988.1016845703124,0,13.0,1,1
11.92,0.049434602,-0.13321657,9.745828999999999,0.00024735426995903254,-0.00043734407518059015,0.00012011826038360596,-2.567150115966797,26.77479362487793,-38.56266403198242,0.2889505624771118,-0.305273711681366,0.05594348907470703,988.1220092773438,0,13.0,1,1
11.96,0.061403185,-0.14751671,9.769503,-1.9145081751048565e-05,-0.0003041563322767616,-0.0005457500228658319,-2.55609130859375,26.310895919799805,-38.30627059936523,0.27323740720748896,-0.2944796681404114,0.03237152099609375,988.1117553710938,0,13.0,1,1
12.0,0.051862597,-0.13321753,9.760035,0.00038014526944607496,0.0002285052323713899,-0.0002795127802528441,-2.1370286941528316,26.38771247863769,-39.14518737792969,0.27640804648399353,-0.2972297668457031,0.027777671813964844,988.09912109375,0,13.0,1,1
12.04,0.056661427,-0.133218,9.7695055,-1.951190643012524e-05,-0.0008367285481654108,-0.0002795914188027382,-1.811532974243164,25.796445846557614,-38.31391906738281,0.2844544947147369,-0.2815884351730347,0.018418312072753903,988.132080078125,0,13.0,1,1
12.08,0.051900625,-0.1284519,9.771875,-0.0002860110253095627,-0.00030406698351725936,-0.0005459857638925314,-2.227414131164551,25.82848930358887,-38.32869338989258,0.2831753194332123,-0.3037580847740173,0.032733917236328125,988.0917358398438,0,13.0,1,1
12.12,0.054309547,-0.1451353,9.764774000000001,-0.0002860110253095627,-0.00030406698351725936,-0.0005459857638925314,-2.2658910751342773,25.84556770324707,-39.01662063598633,0.2770381271839142,-0.27849406003952026,0.04230976104736328,988.0917358398438,0,13.0,1,1
12.16,0.049548805,-0.13798587,9.760042,-0.0005525101441890001,-0.0005703531205654143,-0.00134501198772341,-2.0556683540344243,25.83175468444824,-39.12519073486328,0.2804079651832581,-0.2772490382194519,0.018735885620117188,988.0892944335938,0,13.0,1,1
12.2,0.051957697000000004,-0.1427529,9.764778999999999,0.0002462540287524462,-0.00030400752439163625,0.0007854363648220898,-2.0382232666015625,26.00588798522949,-38.75314712524414,0.2687658965587616,-0.28067833185195923,0.03306293487548828,988.121826171875,0,13.0,1,1
12.24,0.05436662,-0.13560353,9.769514,-0.0010855088476091623,0.0006281277164816856,-0.00014674779959023002,-2.1811895370483403,25.924692153930664,-38.72636795043945,0.2623159885406494,-0.2790326476097107,0.037921905517578125,988.1295776367188,0,13.0,1,1
12.28,0.04721594,-0.14037056,9.77425,0.00024588743690401316,0.0008944732835516334,0.00011948961764574052,-1.9294443130493164,25.89674949645996,-38.30161666870117,0.28943681716918945,-0.28219401836395264,0.023838043212890625,988.11181640625,0,13.0,1,1
12.32,0.042455195999999994,-0.13560449,9.760049,-0.0005532435607165098,-0.0004370762617327273,0.00038572688936255867,-1.5747327804565432,25.96560478210449,-38.51427459716797,0.2740901112556457,-0.27578645944595337,0.03340625762939453,988.1141967773438,0,13.0,1,1
12.36,0.056813598,-0.13322167,9.764785,0.0010442849015817046,-3.7542777135968215e-05,-0.00028022000333294267,-2.2466259002685547,26.65331077575684,-38.29701232910156,0.2668715119361877,-0.2687898874282837,0.03831195831298828,988.1069946289062,0,13.0,1,1
12.4,0.052052796,-0.140372,9.76242,0.0010442849015817046,-3.7542777135968215e-05,-0.00028022000333294267,-2.2466259002685547,26.65331077575684,-38.29701232910156,0.2661876082420349,-0.2731638550758362,0.028881072998046875,988.1069946289062,0,13.0,1,1
12.44,0.053968817,-0.13082726,9.771844999999999,-0.0009532675612717867,-3.751309122890234e-05,-0.0005466144066303967,-2.274587631225586,26.57478141784668,-38.826995849609375,0.2600054144859314,-0.27622711658477783,0.02899646759033203,988.1321411132812,0,13.0,1,1
12.48,0.046295702,-0.14034803,9.767064999999999,-0.0008202928584069014,-0.0005701150512322782,0.0006517284200526774,-2.475274085998535,26.12322807312012,-38.384727478027344,0.2687655389308929,-0.27467966079711914,0.033944129943847656,988.1069946289062,0,13.0,1,1
12.52,0.048665285,-0.13796426,9.762329,-0.0006778337992727758,0.0004936385666951537,0.0005225567147135736,-2.20029354095459,25.64316749572754,-38.32202911376953,0.2721389532089233,-0.2736910581588745,0.03876876831054688,988.096923828125,0,13.0,1,1
12.56,0.041475296,-0.12843062,9.776529,0.00025446759536862373,-0.000438498769653961,-0.0002763071097433567,-1.8866991996765137,25.25195121765137,-38.27047729492188,0.2853845953941345,-0.2816186547279358,0.02467060089111328,988.0941772460938,0,13.0,1,1
12.6,0.058184325999999995,-0.12843008,9.778894000000001,-0.00041112652979791164,9.410118218511344e-05,0.0009221981745213269,-1.6371793746948242,25.06460380554199,-38.990821838378906,0.25054919719696045,-0.275565505027771,0.010567665100097656,988.1270141601562,0,13.0,1,1
12.64,0.04621449,-0.13319619,9.757587,-0.00014461507089436054,-0.0005717202438972889,0.0003896503476426005,-1.6375627517700195,25.9591121673584,-37.96532440185547,0.2634839415550232,-0.2691999673843384,0.03908729553222656,988.1019287109376,0,13.0,1,1
12.68,0.05336392,-0.14511211,9.762321,-0.000943367020227015,-0.00030543614411726594,-0.00014289753744378686,-1.718080997467041,26.778921127319336,-37.461997985839844,0.2521650195121765,-0.2535654902458191,0.034465789794921875,988.096923828125,0,13.0,1,1
12.72,0.043783993,-0.13557850000000002,9.774155,0.000921039842069149,0.0010261115385219457,0.0001235022209584713,-1.7122917175292969,26.152677536010746,-38.19608688354492,0.2604264318943024,-0.2663216590881348,0.02510547637939453,988.1271362304688,0,13.0,1,1
12.76,0.05093339,-0.12366159,9.748114,0.00038860365748405457,-0.0005718155880458652,0.00025674398057162756,-1.5237808227539062,26.592443466186523,-38.01991271972656,0.24492913484573364,-0.2792329788208008,0.04413795471191406,988.1170654296876,0,13.0,1,1
12.8,0.038963586,-0.13796075,9.776519,-0.0008096221135929228,-0.0011044790735468268,-0.00027580390451475983,-1.8938722610473635,25.98263740539551,-38.15815734863281,0.2772906422615051,-0.2589253783226013,0.011084556579589844,988.1145629882812,0,13.0,1,1
12.84,0.043723047,-0.13319369,9.767047999999999,-0.0005431104218587278,-0.00017240527085959909,0.0003900697047356516,-2.099231719970703,26.63300895690918,-37.85662841796875,0.26610466837883,-0.2669102549552917,0.02540493011474609,988.1246337890624,0,13.0,1,1
12.88,0.050872505,-0.14272632,9.764679,0.0001228750916197896,0.0006265105912461878,0.0003901536110788584,-2.06504487991333,26.823347091674805,-38.334938049316406,0.2500411868095398,-0.2558534145355225,0.03025531768798828,988.116943359375,0,13.0,1,1
12.92,0.046072364000000005,-0.13795932,9.767044,0.0007888604886829853,0.00022700510453432798,0.00025707948952913284,-1.9918370246887207,26.62830924987793,-38.02687072753906,0.2535086870193481,-0.2591229677200317,0.04456329345703125,988.129638671875,0,13.0,1,1
12.96,0.048441947,-0.13795878,9.781245,0.0002564244205132127,-3.934267442673445e-05,-0.00014231051318347454,-1.7302799224853516,26.34683036804199,-38.66658020019531,0.2420649528503418,-0.2422276884317398,0.02105712890625,988.1121826171876,0,13.0,1,1
13.0,0.04842168,-0.1308084,9.764673,0.0009224098175764084,-0.00017253233818337319,0.00012408924521878362,-1.6821279525756836,25.970304489135746,-38.344032287597656,0.2510529160499573,-0.2604502439498901,0.02584362030029297,988.116943359375,0,13.0,1,1
13.04,0.048401356,-0.14034106,9.759936999999999,0.00012365775182843208,-0.0004388800007291138,0.00012417323887348175,-1.6761775016784668,25.870275497436523,-37.95417785644531,0.2500285506248474,-0.2541682720184326,0.030672073364257806,988.1069946289062,0,13.0,1,1
13.08,0.055550754,-0.13319070000000002,9.7765045,0.000656485091894865,-0.00043891178211197257,0.00012425705790519714,-1.834767818450928,26.24855613708496,-37.95187377929688,0.24404001235961914,-0.25264137983322144,0.035506248474121094,988.1345825195312,0,13.0,1,1
13.12,0.038801163,-0.1403401,9.7623005,0.00039036502130329614,-3.9469741750508554e-05,-0.000674606766551733,-1.792428970336914,26.077970504760746,-38.71825408935547,0.2665824294090271,-0.2417399138212204,0.03560447692871094,988.1347045898438,0,13.0,1,1
13.16,0.043560624000000006,-0.13080643,9.762299,0.000390560831874609,-0.0009716070489957928,-8.733128197491169e-06,-2.0478982925415044,26.365339279174805,-38.38777160644531,0.2463530600070953,-0.2544400095939636,0.03570365905761719,988.1295776367188,0,13.0,1,1
13.2,0.050710082000000004,-0.13795574,9.757563000000001,-8.717295713722706e-06,-0.0004390070971567184,-8.649309165775776e-06,-2.1923856735229488,26.28267478942871,-38.2836799621582,0.2406100332736969,-0.2434899061918259,0.031055450439453125,988.1220703125,0,13.0,1,1
13.24,0.04590994,-0.13080545,9.769397999999999,-0.0006743113044649363,-0.001104828552342951,0.0002577505074441433,-1.9821624755859373,26.268857955932614,-38.392250061035156,0.24428194761276245,-0.2568318843841553,0.02639389038085937,988.1398315429688,0,13.0,1,1
13.28,0.05066943,-0.13080494,9.778864,-0.0008072734344750643,-3.9596809074282646e-05,0.00012467638589441774,-1.9443883895874023,26.093854904174805,-38.926719665527344,0.2428131699562073,-0.25090116262435913,0.031219482421875,988.1167602539062,0,13.0,1,1
13.32,0.053039044,-0.13795431,9.752823,-0.0008072734344750643,-3.9596809074282646e-05,0.00012467638589441774,-2.0267276763916016,26.28004646301269,-38.770957946777344,0.22674307227134705,-0.24966900050640106,0.040790557861328125,988.1167602539062,0,13.0,1,1
13.36,0.045849025,-0.13557051,9.774125999999999,-0.0004076040349900722,0.000759319169446826,-0.0005410293815657496,-1.7899274826049805,26.449201583862305,-38.97132110595703,0.2443186640739441,-0.2482161968946457,0.01722240447998047,988.0994262695312,0,13.0,1,1
13.4,0.05777821,-0.13795324,9.771757000000001,0.0001630959450267255,0.0008088552858680488,-0.00043881422607228165,-1.8627300262451167,26.170026779174805,-38.48185729980469,0.2192175984382629,-0.2374170273542404,0.03624725341796875,988.132080078125,0,13.0,1,1
13.44,0.047120363,-0.15228464,9.767139,3.013369860127568e-05,0.0004093495663255453,0.00022705941228196025,-1.8302021026611328,26.252973556518555,-38.18378829956055,0.2359422147274017,-0.2171581834554672,0.02673912048339844,988.1347045898438,0,13.0,1,1
13.48,0.047152042000000005,-0.1427523,9.767142999999999,-0.0006354603101499379,-0.0006559456815011799,0.00022714323131367564,-1.9882502555847168,26.26296806335449,-38.0830307006836,0.2437529563903809,-0.2303925007581711,0.041029930114746094,988.12939453125,0,13.0,1,1
13.52,0.054353476,-0.13560326,9.764778999999999,-0.0001123688998632133,0.0005393844330683352,0.000485529046272859,-1.772918701171875,25.88528251647949,-38.32506561279297,0.22807049751281736,-0.2336387783288956,0.03638839721679688,988.1093139648438,0,13.0,1,1
13.56,0.04721546,-0.13560398,9.767149,0.00015210785204544663,0.00014020915841683745,8.526700548827648e-05,-2.088876724243164,26.01118278503418,-38.82263565063477,0.2407619059085846,-0.25603097677230835,0.017548561096191406,988.132080078125,0,13.0,1,1
13.6,0.04724717,-0.12845494,9.771887,1.8644437659531832e-05,0.0005397325148805977,8.51360964588821e-05,-2.1988787651062007,26.750986099243164,-38.77198791503906,0.22985756397247314,-0.2355955690145493,0.02237033843994141,988.1321411132812,0,13.0,1,1
13.64,0.056838482999999995,-0.12130593,9.774256,0.00041781278559938073,0.0004066242836415768,-0.0003144688089378178,-1.9687399864196775,26.07028770446777,-37.689842224121094,0.2190096080303192,-0.2484031766653061,0.012991905212402344,988.1345825195312,0,13.0,1,1
13.68,0.044920682999999996,-0.14275618,9.767158,0.000151191430632025,0.0008061476983129977,-0.000447757774963975,-1.491008758544922,25.674962997436523,-38.04826354980469,0.22749727964401245,-0.22775064408779144,0.04148387908935547,988.1143188476562,0,13.0,1,1
13.72,0.04973215,-0.14037372,9.769527,0.0008166756597347558,-0.0003922242322005332,0.00048421701649203897,-1.911020278930664,26.44064140319824,-38.10533142089844,0.2213029265403748,-0.22169940173625946,0.04630279541015625,988.1019287109376,0,13.0,1,1
13.76,0.044984043,-0.13560791,9.769531,-0.000249199743848294,0.0001405067159794271,0.00021763917175121603,-1.9389815330505369,26.36211585998535,-38.63531494140625,0.2345235049724579,-0.2253068834543228,0.02270126342773437,988.1044311523438,0,13.0,1,1
13.8,0.05935517,-0.12607558,9.771901,1.6810663510113955e-05,7.398426532745361e-06,-4.8807647544890635e-05,-1.5135636329650881,25.86470603942871,-38.28684616088867,0.2140510380268097,-0.2431476563215256,0.022779464721679688,988.1044311523438,0,13.0,1,1
13.84,0.06894648,-0.13322617,9.764803,-0.00038296863203868264,-0.0005251837428659201,0.00035053529427386815,-1.799196720123291,26.33444786071777,-37.80841064453125,0.2033504843711853,-0.21800796687603,0.032324790954589844,988.1094360351562,0,13.0,1,1
13.88,0.05702868,-0.14276008,9.767172,-0.00025011616526171565,0.0006732871988788247,8.40884167701006e-05,-2.0645017623901367,26.45505332946777,-38.23649215698242,0.21638578176498413,-0.22645126283168796,0.04660224914550781,988.0867919921876,0,13.0,1,1
13.92,0.054670483,-0.13084449,9.781378,-0.00011726369848474859,-0.0007914004381746054,0.00021711539011448622,-1.9043893814086916,26.07824516296387,-38.31610107421875,0.2153753638267517,-0.22512932121753693,0.01826763153076172,988.1521606445312,0,13.0,1,1
13.96,0.052312255,-0.14037834,9.767178,0.0002819046494551003,-0.00025871902471408253,-4.933140007779002e-05,-1.8362903594970703,26.24708366394043,-37.87456512451172,0.2094440460205078,-0.21925149857997892,0.03253936767578125,988.0994262695312,0,13.0,1,1
14.0,0.064293504,-0.13561262,9.7813835,-0.00038419052725657815,7.646449375897646e-06,-0.0007152521284297109,-1.7999010086059568,26.1765193939209,-39.03081130981445,0.1987329125404358,-0.2131716459989548,0.004209518432617188,988.1194458007812,0,13.0,1,1
14.04,0.061935305999999996,-0.13084675,9.771918,0.00014813576126471162,0.00014085404109209776,0.00034988051629625266,-1.7253084182739258,25.877042770385746,-38.10096740722656,0.20166590809822085,-0.2255933433771133,0.01852512359619141,988.1270141601562,0,13.0,1,1
14.08,0.061966985,-0.1403807,9.760085,0.00014783028746023774,0.0001409035176038742,-4.9724301788955934e-05,-2.1356449127197266,26.28326988220215,-38.523414611816406,0.2011677622795105,-0.22008179128170013,0.04697132110595703,988.0892944335938,0,13.0,1,1
14.12,0.050049185999999996,-0.12846507,9.771924,-0.00011879106750711799,7.795228157192469e-06,-4.9855210818350315e-05,-2.244561195373535,26.2864933013916,-38.27586364746094,0.2044583261013031,-0.2237421423196793,0.03757953643798828,988.129638671875,0,13.0,1,1
14.16,0.06681019,-0.13084914,9.767192999999999,1.4061399269849064e-05,0.00040731870103627443,-0.00018314406042918566,-1.8583016395568848,26.068532943725586,-38.01469421386719,0.1890013813972473,-0.2323531359434128,0.01870059967041016,988.1145629882812,0,13.0,1,1
14.2,0.06445202,-0.13323320000000002,9.779032,-0.0007851925329305233,-0.00025842140894383187,-0.0004495908506214618,-1.5296249389648438,25.58612632751465,-38.03711700439453,0.1973588466644287,-0.21701408922672272,0.018766403198242188,988.099365234375,0,13.0,1,1
14.24,0.062093794,-0.14515038,9.779034,0.00014660746091976762,0.00014110206393525004,-5.024811252951622e-05,-1.7258515357971191,26.24533271789551,-38.19942092895508,0.2009423077106476,-0.2010057419538498,0.01885604858398437,988.1220703125,0,13.0,1,1
14.28,0.07407498,-0.12608494,9.7743025,0.0006789337494410574,0.0012064152397215364,8.277891902253032e-05,-2.0560503005981445,26.726266860961914,-38.099693298339844,0.18498221039772034,-0.2331316918134689,0.02840900421142578,988.147216796875,0,13.0,1,1
14.32,0.057377397999999996,-0.1332355,9.76247,-0.0002534773084335029,0.0009401488350704312,-0.00031682586995884776,-2.0624370574951167,26.088239669799805,-38.21534729003906,0.2026773691177368,-0.22269307076931,0.03320789337158203,988.1167602539062,0,13.0,1,1
14.36,0.0550192,-0.12608649,9.771942,-0.00012062484165653586,-0.00012506506755016744,-0.000583272660151124,-1.9625144004821775,26.18208885192871,-38.69813919067383,0.20185863971710205,-0.21657444536685946,0.01907062530517578,988.1145629882812,0,13.0,1,1
14.4,0.066495836,-0.14037456,9.771898,0.0006780173280276357,-0.00012501547462306917,-0.00031708774622529745,-1.9283580780029297,25.16016960144043,-38.10471725463867,0.18650928139686584,-0.21027325093746185,0.02388286590576172,988.12451171875,0,13.0,1,1
14.44,0.051653147,-0.13559563,9.757648,0.0005469670868478714,0.0004072741139680147,-0.0003161844797432422,-1.8851766586303709,25.2534236907959,-38.3477783203125,0.2148957848548889,-0.20423786342144007,0.052458763122558594,988.1117553710938,0,13.0,1,1
14.48,0.07315338,-0.123679,9.778953,0.0009531409596093,-0.0007904120720922947,-0.00044496188638731837,-1.5256013870239258,25.958837509155273,-38.36748504638672,0.1900046169757843,-0.21706025302410129,0.02886676788330078,988.1398315429688,0,13.0,1,1
14.52,0.061195016,-0.13797845,9.762382,0.00028743670554831624,0.0005411534220911561,-0.00044492533197626466,-2.2254562377929688,26.56801414489746,-38.68020629882813,0.1937740743160248,-0.2063299268484116,0.04313850402832031,988.1295166015624,0,13.0,1,1
14.56,0.05640632,-0.13321166,9.760014,-0.00024502369342371816,0.00027480971766635776,-0.00017853605095297098,-2.2059459686279297,26.375333786010746,-38.28701400756836,0.19661280512809756,-0.19525273144245148,0.03850841522216797,988.104248046875,0,13.0,1,1
14.6,0.061177254,-0.13797803,9.77895,-0.00024502369342371816,0.00027480971766635776,-0.00017853605095297098,-2.2059459686279297,26.375333786010746,-38.28701400756836,0.19619929790496826,-0.19969864189624786,0.01959419250488281,988.104248046875,0,13.0,1,1
14.64,0.044439047999999995,-0.13797785,9.767114,-0.00024502369342371816,0.00027480971766635776,-0.00017853605095297098,-2.0299091339111333,26.17118263244629,-37.917274475097656,0.20014047622680664,-0.1989857703447342,0.038578033447265625,988.104248046875,0,13.0,1,1
14.68,0.049209952,-0.13559435,9.757645,-0.0014433595351874828,-0.00039099378045648336,-0.00017849932191893458,-1.8642520904541016,26.168554306030273,-38.4045524597168,0.1991732269525528,-0.2027135044336319,0.043374061584472656,988.12451171875,0,13.0,1,1
14.72,0.046811162999999996,-0.14036067,9.767112,-0.000644326617475599,-0.0007904815138317645,-0.0009774102363735435,-1.929986953735352,26.26503562927246,-38.40007019042969,0.1978076845407486,-0.19709168374538424,0.038704872131347656,988.1041259765624,0,13.0,1,1
14.76,0.05875182,-0.13321058,9.774212,-0.000377839372958988,0.00080738594988361,-0.00017838925123214722,-1.9686021804809568,26.176198959350586,-38.388919830322266,0.18656547367572784,-0.2096772938966751,0.04354190826416016,988.0890502929688,0,13.0,1,1
14.8,0.05874294,-0.1379769,9.764744,-0.000377839372958988,0.00080738594988361,-0.00017838925123214722,-1.9686021804809568,26.176198959350586,-38.388919830322266,0.17644622921943665,-0.19945235550403595,0.03884601593017578,988.0890502929688,0,13.0,1,1
14.84,0.05634415,-0.13559346,9.788414,-0.0001114379265345633,8.424394764006138e-06,0.00022112121223472061,-2.0123271942138667,26.451234817504886,-38.24430847167969,0.19957022368907928,-0.1839726120233536,0.005765914916992188,988.1217651367188,0,13.0,1,1
14.88,0.061115086,-0.12844343,9.769476,0.0005723828799091281,-0.000256317260209471,-0.00023302860790863639,-1.8672962188720703,26.16560935974121,-38.24994659423828,0.17014124989509585,-0.2068874090909958,0.04369163513183594,988.1119384765624,0,13.0,1,1
14.92,0.05632639,-0.1260599,9.762373,-0.0003596370224840939,-0.0011884367559105158,0.00029963970882818103,-2.0404257774353027,26.26679039001465,-38.07521438598633,0.17823855578899386,-0.21529750525951385,0.034297943115234375,988.12939453125,0,13.0,1,1
14.96,0.058707416,-0.13320951,9.762373,0.0001730803051032126,0.00027628656243905425,0.0004328343784436584,-1.770853042602539,25.518465042114254,-38.30392456054688,0.18155142664909366,-0.20447690784931186,0.0343780517578125,988.1167602539062,0,13.0,1,1
15.0,0.05391872,-0.14274241,9.767106,4.000781336799264e-05,0.0014746941160410645,3.339722752571106e-05,-1.7881383895874023,25.870553970336914,-37.55201721191406,0.18489065766334534,-0.18920980393886566,0.029712677001953125,988.0966796875,0,13.0,1,1
15.04,0.05151996,-0.14274217,9.774206,0.00017333688447251916,0.000675718707498163,-9.96874296106398e-05,-2.202902317047119,26.378278732299805,-38.441627502441406,0.18402226269245148,-0.19248773157596588,0.02505111694335937,988.1369018554688,0,13.0,1,1
15.08,0.06346059,-0.14750858,9.771839,0.0004397384473122656,0.00014307320816442368,3.3507298212498426e-05,-1.772481918334961,26.623334884643555,-38.59927368164063,0.1686345934867859,-0.1820945292711258,0.020371437072753903,988.1217041015624,0,13.0,1,1
15.12,0.041942567,-0.1332087,9.760002,-0.00022596557391807442,9.901297744363546e-06,3.354385262355209e-05,-1.8140344619750977,25.42521095275879,-38.06085968017578,0.19160985946655276,-0.1955001801252365,0.048831939697265625,988.096435546875,0,13.0,1,1
15.16,0.05866301,-0.14274155,9.767103,-9.272195165976882e-05,0.00040936114965006715,0.0006993702845647931,-2.0890140533447266,25.90526390075684,-38.1235580444336,0.18534067273139954,-0.1706996113061905,0.020493507385253903,988.0940551757812,0,13.0,1,1
15.2,0.06582388,-0.13559152,9.767102000000001,4.052120493724942e-05,0.00014303141506388783,0.00016677525127306583,-2.070452213287353,26.55507850646973,-38.62635040283203,0.16529321670532227,-0.1791805773973465,0.034755706787109375,988.1393432617188,0,13.0,1,1
15.24,0.05864528,-0.13797455,9.778936999999999,-0.000225708878133446,9.859621059149504e-06,0.0005662857438437642,-2.298694133758545,25.5507869720459,-37.91653823852539,0.17850226163864136,-0.1827109009027481,0.03955841064453125,988.1017456054688,0,13.0,1,1
15.28,0.05385655,-0.13320775,9.7671,0.0009727981523610653,0.0006756353541277349,-0.0002326252870261669,-1.8547143936157229,25.70319175720215,-38.07085418701172,0.17266599833965302,-0.19085384905338287,0.03962993621826172,988.134521484375,0,13.0,1,1
15.32,0.04189819,-0.14274062,9.762364999999999,0.0013723575975745914,-0.000389641965739429,0.00016688526375219226,-1.9775972366333008,26.27327537536621,-38.624168395996094,0.1860361099243164,-0.1799641102552414,0.0444326400756836,988.1393432617188,0,13.0,1,1
15.36,0.049059032999999995,-0.14035724,9.771833,-9.229412535205483e-05,9.81794437393546e-06,0.0005663958145305513,-1.9996080398559568,26.09472465515137,-38.76429748535156,0.16607345640659332,-0.1788603812456131,0.03028583526611328,988.1217041015624,0,13.0,1,1
15.4,0.050900638,-0.12842728,9.793088000000001,-9.220867650583386e-05,0.0005424358532764019,0.0005664323689416051,-2.1627645492553706,26.46858787536621,-38.53007888793945,0.17460426688194275,-0.1874222308397293,0.01146697998046875,988.096435546875,0,13.0,1,1
15.44,0.05087021,-0.13319315,9.778882000000001,4.24971804022789e-05,0.0006812938372604549,-0.00035883497912436724,-1.84832763671875,26.34121513366699,-37.9552001953125,0.16871647536754608,-0.18169806897640228,0.02573108673095703,988.1041870117188,0,13.0,1,1
15.48,0.060399354,-0.12604262,9.752839999999999,0.00017784931696951392,0.00014830572763457894,-0.0004910525167360902,-2.0985512733459477,26.37063407897949,-38.45725631713867,0.173163041472435,-0.1851952522993088,0.049454689025878906,988.1166381835938,0,13.0,1,1
15.52,0.05319923,-0.13319160000000002,9.76704,0.0004444586811587215,-0.0009170054108835756,0.0007074946770444512,-1.781912326812744,25.982362747192386,-38.56031799316406,0.18163031339645386,-0.1793186515569687,0.04951953887939453,988.1090087890624,0,13.0,1,1
15.56,0.050778866,-0.13557418,9.776506,0.0003115942236036062,0.0002813683240674436,-0.000490801059640944,-2.0775189399719243,26.17941856384277,-38.14137268066406,0.16644348204135895,-0.18758524954319,0.01644134521484375,988.0890502929688,0,13.0,1,1
15.6,0.05791813,-0.13080691,9.776504,0.0007113614119589329,-0.0005176268750801681,0.0008409040747210382,-2.0653438568115234,26.191205978393555,-38.75981140136719,0.17968925833702087,-0.16745881736278534,0.03070831298828125,988.1138916015624,0,13.0,1,1
15.64,0.0483281,-0.13795592,9.774134,-0.0003536087460815906,0.0006807469180785121,0.00044155601062811917,-2.1447763442993164,26.27443122863769,-38.05958557128906,0.17449258267879486,-0.1809559315443039,0.021277427673339844,988.1290893554688,0,13.0,1,1
15.68,0.060247182999999996,-0.1379552,9.759928,-0.00022015732247382402,-0.0010503538651391864,0.00017536582890897992,-2.166244506835937,25.72759056091309,-38.101261138916016,0.15919041633605954,-0.1750587373971939,0.05447864532470703,988.116455078125,0,13.0,1,1
15.72,0.05543691,-0.13318793,9.764660000000001,0.00031276780646294355,-0.00025145395193248987,4.233373329043389e-05,-1.6320171356201172,26.333295822143555,-38.37299346923828,0.1632949411869049,-0.18844036757946012,0.04505729675292969,988.0938720703124,0,13.0,1,1
15.76,0.062576175,-0.1427203,9.774125999999999,-0.0006190442945808173,-0.0009172912104986607,-0.0002238564193248749,-1.908954620361328,26.073827743530273,-38.08418273925781,0.1435878872871399,-0.16847924888134005,0.011961936950683594,988.1162719726562,0,13.0,1,1
15.8,0.06015581,-0.12841983,9.767021000000002,0.00031335465610027313,-0.00011839118087664248,0.00044205901212990284,-1.9414820671081543,25.990880966186523,-38.38225555419922,0.16179382801055908,-0.18665580451488492,0.0404205322265625,988.1363525390624,0,13.0,1,1
15.84,0.057735503,-0.14748533,9.76465,-0.0003521416801959276,-0.0005179126746952534,-0.0002236049622297287,-1.6905789375305176,25.6990909576416,-38.48082733154297,0.15637870132923126,-0.15209545195102692,0.05467891693115234,988.1187133789062,0,13.0,1,1
15.88,0.05292523,-0.14033479999999998,9.769382,-0.0003521416801959276,-0.0005179126746952534,-0.0002236049622297287,-2.081106185913086,26.544767379760746,-38.08521270751953,0.16995620727539062,-0.16550327837467196,0.035788536071777344,988.1187133789062,0,13.0,1,1
15.92,0.05528471,-0.13556741,9.778849000000001,0.00044709944631904364,-0.00011848652502521873,-0.00022347911726683373,-1.8250937461853027,25.88910484313965,-38.31725311279297,0.16873888671398166,-0.16920866072177887,0.02164936065673828,988.1214599609376,0,13.0,1,1
15.96,0.052864373,-0.13795002,9.776478,0.00031423498876392836,-0.0003848499909508973,0.00030927831539884215,-1.5423431396484375,25.9426326751709,-37.517127990722656,0.1628846973180771,-0.1636480838060379,0.0169677734375,988.1362915039062,0,13.0,1,1
16.0,0.040884376,-0.14271583,9.776475999999999,0.00018137029837816956,0.0012129975948482752,-0.0002232276601716876,-1.1859722137451172,26.118879318237305,-38.50616455078125,0.17163071036338806,-0.1577947586774826,0.021757125854492188,988.0609130859376,0,13.0,1,1
16.04,0.052803457000000005,-0.12603213,9.781207,0.00018166378140449524,-0.00011862936662510036,0.00030952980159781873,-1.8416976928710935,25.978818893432614,-38.16597366333008,0.15188533067703247,-0.16627754271030426,0.021806716918945312,988.1214599609376,0,13.0,1,1
16.08,0.06233263,-0.12364806,9.774103,4.879920743405819e-05,-0.0007844666833989322,-0.00035613414365798235,-2.1220846176147456,26.19061088562012,-38.52008056640625,0.14163640141487122,-0.18898572027683255,0.03606224060058594,988.0761108398438,0,13.0,1,1
16.12,0.05752241599999999,-0.1403303,9.785936,0.000182250514626503,-0.0003850405337288976,-0.00035600841511040926,-2.1049375534057617,25.732606887817386,-38.57290649414063,0.1504572480916977,-0.15966583788394928,0.012432098388671877,988.0734252929688,0,13.0,1,1
16.16,0.050322235,-0.12841316,9.77173,0.0005820177029818296,1.4385674148797989e-05,-0.0004890406271442771,-1.6746549606323242,25.87174797058105,-38.03147888183594,0.15883147716522214,-0.1679946631193161,0.03617000579833984,988.1213989257812,0,13.0,1,1
16.2,0.06463122,-0.1331789,9.783564,-0.0004829522222280502,0.00041381182381883264,4.3716980144381516e-05,-2.0302076339721684,25.539045333862305,-38.34214401245117,0.15816231071949005,-0.1622702330350876,0.012544631958007812,988.1389770507812,0,13.0,1,1
16.24,0.05982095,-0.13794477,9.769357000000001,4.997290670871735e-05,1.4290504623204471e-05,0.00017700059106573462,-1.6951446533203125,25.694669723510746,-38.24891662597656,0.15302133560180664,-0.16133372485637665,0.0504608154296875,988.1085815429688,0,13.0,1,1
16.28,0.05023092,-0.13556077,9.778824,0.0004497402114793658,-0.0007847048109397293,0.00017712637782096863,-1.7521305084228516,26.69450187683105,-37.682762145996094,0.1614748239517212,-0.15582729876041412,0.02683734893798828,988.1011962890624,0,13.0,1,1
16.32,0.06453991,-0.13079341,9.776453,0.00045032694470137363,0.0006799371330998838,-0.0006215698085725307,-1.8904237747192385,25.51138114929199,-37.515235900878906,0.14625512063503265,-0.16919191181659698,0.02215290069580078,988.0985107421876,0,13.0,1,1
16.36,0.058059394,-0.13557692,9.759947,-0.00022583745885640385,-0.0006563913193531334,0.0003673501196317375,-1.7517480850219729,25.79998588562012,-38.70825958251953,0.14849497377872467,-0.15350423753261566,0.05049705505371094,988.108642578125,0,13.0,1,1
16.4,0.06357211,-0.13321159999999999,9.769482,-0.00022554397583007807,0.0004088245332241058,0.0006337917293421924,-1.869659423828125,25.90028953552246,-38.695960998535156,0.14801956713199615,-0.1527063399553299,0.036324501037597656,988.0936279296876,0,13.0,1,1
16.44,0.05643034,-0.14274539,9.776587,-0.0002380955265834928,-0.0009234450408257543,0.0007586815627291799,-1.4923934936523438,25.779409408569336,-38.67003631591797,0.14743155241012573,-0.14751805365085602,0.022144317626953125,988.11083984375,0,13.0,1,1
16.48,0.056458235,-0.13797952,9.771854,2.795143518596888e-05,0.0005413361359387636,-4.038139013573527e-05,-2.032815933227539,26.274152755737305,-38.46173858642578,0.1561436951160431,-0.15633516013622284,0.03638458251953125,988.1058349609376,0,13.0,1,1
16.52,0.058876097,-0.14036353,9.760021,-0.0005049494793638587,-0.0006570417317561804,0.0006252930033951997,-1.9575433731079104,25.71230125427246,-38.13253021240234,0.14583973586559296,-0.15092863142490387,0.05061912536621094,988.13623046875,0,13.0,1,1
16.56,0.07324344,-0.12129797,9.771858,-0.00010574457701295614,0.0004082655068486929,0.00022570384317077696,-2.0949640274047847,26.005285263061523,-38.51341247558594,0.13064461946487427,-0.16902916133403778,0.03172588348388672,988.09814453125,0,13.0,1,1
16.6,0.04459253,-0.1427481,9.769495,2.7144094929099083e-05,0.0006746250437572597,0.00035874638706445694,-2.1742601394653316,26.194433212280273,-38.51226043701172,0.15360219776630402,-0.1395041197538376,0.03650188446044922,988.143798828125,0,13.0,1,1
16.64,0.056569934,-0.13321568,9.76713,2.687494270503521e-05,8.878996595740317e-06,-0.00030715850880369544,-1.7266931533813477,25.981489181518555,-38.722740173339844,0.1431492567062378,-0.1481793075799942,0.03180980682373047,988.0578002929688,0,13.0,1,1
16.68,0.049428165,-0.1332164,9.771866000000001,0.00029292190447449684,-0.000257393199717626,0.0002253578277304769,-1.8922133445739744,26.090028762817386,-38.93453979492188,0.14230601489543915,-0.16145072877407074,0.04605770111083984,988.1209106445312,0,13.0,1,1
16.72,0.054235875999999995,-0.14036696,9.767136,0.00015949481166899204,0.0002752823056653142,9.208457777276635e-05,-1.98009729385376,25.902040481567386,-38.37110900878906,0.14596916735172272,-0.15065239369869232,0.04611396789550781,988.0907592773438,0,13.0,1,1
16.76,0.0638234,-0.13083448,9.7718725,0.0010913311270996928,-0.0002573058009147644,0.0004914430901408195,-1.7087049484252932,25.78732872009277,-38.25225067138672,0.1120661199092865,-0.14977560937404633,0.027207374572753903,988.1007690429688,0,13.0,1,1
16.8,0.047122000000000004,-0.13083513,9.762405000000001,0.00042527250479906803,-0.000789893907494843,0.0004913277225568892,-1.7864785194396973,25.977941513061523,-38.32839965820313,0.16374719142913818,-0.1487993746995926,0.031986236572265625,988.1211547851562,0,13.0,1,1
16.84,0.059099436,-0.14036895,9.771877,-0.0005071022314950824,0.00014225533232092857,0.0006243703537620604,-1.608781814575195,25.881181716918945,-38.73504257202149,0.13887427747249606,-0.1527874618768692,0.036757469177246094,988.0906982421876,0,13.0,1,1
16.88,0.05912733,-0.14036967,9.762410000000001,-0.0002410555025562644,-0.0005234905984252691,-0.00044100842205807567,-2.011646270751953,26.188859939575195,-38.84493255615234,0.14796768128871918,-0.14267869293689728,0.050986289978027344,988.1109619140624,0,13.0,1,1
16.92,0.05198556,-0.13322057,9.776617,2.4991459213197228e-05,-0.000390289060305804,-0.0001748078502714634,-1.794929027557373,25.70673179626465,-38.46519470214844,0.1470053493976593,-0.14207763969898224,0.03681564331054688,988.1083374023438,0,13.0,1,1
16.96,0.056793302000000004,-0.14513756,9.767151,-0.0007742253364995122,0.00040870218072086567,-0.0001749232760630548,-2.017190933227539,25.81467628479004,-38.43726348876953,0.1463703215122223,-0.13669075071811676,0.027373313903808597,988.1056518554688,0,13.0,1,1
17.0,0.06399095,-0.13560511,9.781357,2.4453154765069485e-05,-0.0007896754541434348,0.00022443526540882885,-2.340460777282715,26.56534767150879,-38.123435974121094,0.1266987919807434,-0.13597093522548676,0.0131988525390625,988.0906982421876,0,13.0,1,1
17.04,0.05923903,-0.13798912,9.778992,-0.00037528970278799534,0.00040878972504287964,0.0004906358080916107,-2.397064208984375,26.67066764831543,-38.58278274536133,0.13550953567028046,-0.14935563504695892,0.02744007110595703,988.1007690429688,0,13.0,1,1
17.08,0.061656833,-0.12845673,9.762424000000001,-0.00037555873859673733,-0.0005232722614891827,0.0004905204987153411,-1.853735446929932,26.072954177856445,-38.24661254882813,0.13922375440597534,-0.14880932867527008,0.04167652130126953,988.057861328125,0,13.0,1,1
17.12,0.05690497,-0.12369080000000002,9.762426,-0.00010951189324259758,0.0006751929176971316,-0.00030854245414957404,-2.0359978675842285,26.165292739868164,-37.608055114746094,0.12929385900497434,-0.1576669067144394,0.04170036315917969,988.1256713867188,0,13.0,1,1
17.16,0.059322774,-0.12845804,9.781366,-0.0007755708647891879,-0.0005231847753748298,-0.0007081316434778272,-2.131078720092773,26.287687301635746,-38.75532913208008,0.12838785350322726,-0.14722876250743866,0.022803306579589844,988.09033203125,0,13.0,1,1
17.2,0.054570913,-0.13084202,9.779002,-0.0007755708647891879,-0.0005231847753748298,-0.0007081316434778272,-2.023279190063477,25.80878257751465,-38.12804412841797,0.13719312846660614,-0.14632682502269745,0.02757549285888672,988.09033203125,0,13.0,1,1
17.24,0.06654829,-0.13560928,9.769536,-0.00011005019769072531,0.0004089644644409418,0.0002238586021121592,-2.2506489753723145,26.28059959411621,-37.966644287109375,0.11732128262519835,-0.1359395533800125,0.027609825134277344,988.0979614257812,0,13.0,1,1
17.28,0.061796486,-0.12846015,9.767172,0.00042231252882629633,-0.0006562554626725613,0.00035690126242116094,-2.3745098114013667,26.48092460632324,-38.344200134277344,0.13099157810211182,-0.1544734388589859,0.04183769226074219,988.1056518554688,0,13.0,1,1
17.32,0.06421429,-0.121310905,9.757705,-0.000510062207467854,0.00014273589476943016,0.0004899438936263323,-1.4600038528442385,25.756437301635746,-37.672889709472656,0.1256290078163147,-0.1539556235074997,0.046596527099609375,988.08544921875,0,13.0,1,1
17.36,0.05946237,-0.12369491,9.774278,-0.0005103311268612742,-0.00038985218270681804,-4.2803294491022825e-05,-1.9775967597961424,26.27327537536621,-38.624168395996094,0.12997108697891235,-0.14342035353183746,0.02295684814453125,988.1105346679688,0,13.0,1,1
17.4,0.06666002,-0.14514513,9.776648,-0.00011112657375633715,-0.0006561244372278452,0.0002233973355032504,-2.0920581817626958,25.90231895446777,-37.96894836425781,0.11957187950611115,-0.1280948668718338,0.02773284912109375,988.095458984375,0,13.0,1,1
17.44,0.054738402,-0.14514585,9.762447,0.00028807809576392174,0.0002760249190032482,0.0004895979072898626,-2.1903209686279297,25.91585350036621,-38.26253509521485,0.13338062167167666,-0.1323753148317337,0.060894966125488274,988.1004638671876,0,13.0,1,1
17.48,0.04998654,-0.14276321,9.767183000000001,0.0001546512357890606,-0.0007891949499025941,-0.0008420968079008162,-2.0106668472290044,26.55862236022949,-39.02069091796875,0.15140189230442047,-0.13175512850284574,0.041993141174316406,988.1104125976562,0,13.0,1,1
17.52,0.06435385,-0.13084747,9.762450999999999,0.0001541130477562547,-0.0002564758760854602,-0.0003096957225352525,-1.9233565330505369,25.90263938903809,-38.61083984375,0.12211176753044127,-0.14997707307338715,0.03255558013916016,988.12060546875,0,13.0,1,1
17.56,0.057212055,-0.13323148,9.769556,-0.00011247186921536921,-0.0003895900445058942,0.0004891366697847843,-2.325676918029785,25.842023849487305,-38.62228012084961,0.11217130720615387,-0.1303316205739975,0.027840614318847656,988.0525512695312,0,13.0,1,1
17.6,0.06440967,-0.13323219,9.769558,-0.0002458988456055522,-0.0006558623281307517,-0.0007094001048244536,-1.9719443321228027,25.54111671447754,-38.6591796875,0.12127357721328735,-0.13419272005558014,0.027872085571289062,988.0826416015624,0,13.0,1,1
17.64,0.054877996,-0.12608303,9.769561,2.014799974858761e-05,-0.00025634482153691346,0.00022259014076553285,-2.0351791381835938,26.00883674621582,-38.90776062011719,0.12071214616298676,-0.14282257854938507,0.027904510498046875,988.1206665039062,0,13.0,1,1
17.68,0.06446549,-0.14038332,9.779033,0.0005525104934349656,-0.0003894590772688389,-0.00017699907766655087,-2.1510248184204097,25.7423152923584,-38.87431335449219,0.12497901916503905,-0.1325061172246933,0.027932167053222656,988.0978393554688,0,13.0,1,1
17.72,0.06210354,-0.14038403,9.764832,0.00015276763588190081,-0.0005225733621045947,0.0004886753158643842,-2.0059938430786133,25.456701278686523,-38.87994766235352,0.11955422163009645,-0.13173092901706696,0.04216575622558594,988.0626220703124,0,13.0,1,1
17.76,0.050181925,-0.1356182,9.779036999999999,-0.00038013316225260496,-0.00025621376698836684,8.908618474379182e-05,-2.1470022201538086,26.11503028869629,-39.20467758178711,0.12376786768436432,-0.13089977204799652,0.027993202209472656,988.0726318359376,0,13.0,1,1
17.8,0.06215936,-0.12370248,9.776672,0.0008180191507562995,-0.0013214335776865482,-0.0003105028881691396,-1.815961837768555,25.89794731140137,-38.78108215332031,0.11853332817554475,-0.14404676854610446,0.023294448852539062,988.0726318359376,0,13.0,1,1
17.84,0.05501756,-0.12846972,9.779043,-0.0006469871150329709,0.0005428212461993097,-0.0001774603151716292,-2.1940679550170903,25.754980087280273,-39.33032989501953,0.12733198702335358,-0.13414426147937775,0.032784461975097656,988.1053466796876,0,13.0,1,1
17.88,0.055045485,-0.1332369,9.771944,0.0003571089473553002,-0.0007377848378382622,-0.00013612111797556278,-1.809330463409424,25.53554344177246,-38.99185180664063,0.12232573330402376,-0.1334465593099594,0.04227352142333984,988.12939453125,0,13.0,1,1
17.92,0.057949007000000004,-0.14510734,9.771771000000001,-0.00017579196719452741,-0.0010040570050477982,0.000130079424707219,-2.1292581558227544,26.921297073364254,-38.40776062011719,0.1330254226922989,-0.12321536242961885,0.018805503845214844,988.1287841796876,0,13.0,1,1
17.96,0.057927847000000005,-0.12604053,9.7741375,-0.00029986625304445624,-6.675953045487404e-05,0.00027203586068935687,-1.7719392776489258,26.25504493713379,-38.500823974609375,0.13195642828941345,-0.12763117253780365,0.018837928771972656,988.1234741210938,0,13.0,1,1
18.0,0.057906717,-0.14748956,9.764667,0.0001065829419530928,0.0015300032682716846,-0.00025760644348338246,-1.7765054702758791,26.250627517700195,-38.26890563964844,0.1168571710586548,-0.10764993727207184,0.03781509399414063,988.0853881835938,0,13.0,1,1
18.04,0.05549568,-0.14272247,9.752829,-0.0002926871529780329,-6.79250224493444e-05,-0.0006569930701516569,-2.0367016792297363,26.007360458374023,-38.83045196533203,0.12126298248767853,-0.12612773478031158,0.04730892181396485,988.0802612304688,0,13.0,1,1
18.08,0.05308464,-0.12842228,9.762296000000001,-0.0001593256019987166,-0.0008669057278893888,8.88406066223979e-06,-1.7748451232910156,26.358015060424805,-39.04529571533203,0.1302134245634079,-0.1302555650472641,0.04733943939208984,988.11279296875,0,13.0,1,1
18.12,0.060233235,-0.12127195,9.785966,-0.00015912199160084128,0.0004646406159736216,-0.0005236605065874755,-2.084311008453369,26.01560401916504,-39.05455017089844,0.1149848699569702,-0.1343979686498642,2.956390380859375e-05,988.0674438476562,0,13.0,1,1
18.16,0.057822198,-0.12842119999999999,9.769394,-0.0005583920865319669,-0.0002011822070926428,-0.0005235730786807835,-1.8505535125732424,26.181814193725586,-39.10029602050781,0.11463776230812073,-0.1195775419473648,0.02372455596923828,988.0824584960938,0,13.0,1,1
18.2,0.06258085,-0.14748697,9.764657000000001,-0.00029187259497120976,-0.0006006890907883643,0.00014230384840629995,-1.965015411376953,25.810853958129886,-38.44507598876953,0.12333574891090393,-0.1093958169221878,0.0379629135131836,988.0698852539062,0,13.0,1,1
18.24,0.06733954,-0.14510320000000002,9.771757000000001,-0.00029166898457333446,0.0007308571948669852,0.0002755490713752806,-1.9203128814697263,25.90558433532715,-38.76544570922852,0.10849334299564363,-0.11379946768283845,0.02851581573486328,988.0874633789062,0,13.0,1,1
18.28,0.052978992,-0.1331862,9.774122,-0.0005577811389230192,-0.000733913155272603,0.0006751102628186345,-1.9223771095275881,26.27240562438965,-38.78659057617188,0.11777058243751524,-0.1320844739675522,0.03801155090332031,988.0874633789062,0,13.0,1,1
18.32,0.05534774,-0.13556902,9.778853999999999,0.0001082122907973826,0.0004644751898013056,0.00027572366525419056,-1.8159613609313965,25.89794731140137,-38.78108215332031,0.12629644572734833,-0.12182833254337312,0.004911422729492188,988.0646362304688,0,13.0,1,1
18.36,0.060106397,-0.13318522,9.769384,0.0005078899557702243,0.00033128424547612667,-0.0007894525188021362,-2.1349639892578125,26.02089500427246,-39.12403869628906,0.12054148316383362,-0.11164580285549164,0.028618812561035163,988.079833984375,0,13.0,1,1
18.4,0.052915573,-0.13318469,9.7646475,-0.0002908540773205459,0.0009970408864319324,9.582436177879574e-06,-1.573211669921875,25.967077255249023,-38.59157943725586,0.11968293786048888,-0.1204708069562912,0.028655052185058594,988.09228515625,0,13.0,1,1
18.44,0.052894443,-0.13556747,9.793053,-0.0002908540773205459,0.0009970408864319324,9.582436177879574e-06,-1.5354371070861816,25.79206657409668,-39.12605285644531,0.11868052184581755,-0.1196884661912918,0.014492034912109375,988.09228515625,0,13.0,1,1
18.48,0.062432945,-0.123650506,9.757541999999999,0.0007748169009573758,0.0011301327031105757,0.0009418625850230458,-2.4691858291625977,26.12911796569824,-38.693946838378906,0.11307792365550995,-0.13318251073360446,0.05240631103515625,988.0545654296876,0,13.0,1,1
18.52,0.050462245999999995,-0.12841655,9.776478,0.0007748169009573758,0.0011301327031105757,0.0009418625850230458,-2.5372848510742188,25.96027946472168,-39.13548278808594,0.12194237112998962,-0.12284450232982635,0.014566421508789062,988.0545654296876,0,13.0,1,1
18.56,0.062390625,-0.13794924,9.757538,-0.00042340072104707366,0.00019799399888142943,9.844312444329262e-06,-2.2244768142700195,26.937780380249023,-38.85595703125,0.10216327011585236,-0.11726750433444975,0.05721092224121094,988.0996704101562,0,13.0,1,1
18.6,0.05041998599999999,-0.13556536,9.774106,0.00037575053283944726,0.0004642768180929125,-0.0005227000801824033,-1.8952569961547847,26.087087631225586,-38.779930114746094,0.1157512217760086,-0.11652590334415434,0.04304027557373047,988.0996704101562,0,13.0,1,1
18.64,0.055178642,-0.13318159,9.767002,0.00024279631907120347,0.0004642437561415137,-0.0003894548863172531,-2.2247753143310547,26.30564308166504,-39.28083038330078,0.11480781435966493,-0.11114765703678132,0.0430755615234375,988.0646362304688,0,13.0,1,1
18.68,0.064717144,-0.13318105,9.774102000000001,0.00037615810288116336,0.00019789481302723289,0.00014326421660371122,-2.333692073822021,26.30886650085449,-39.03328323364258,0.09993037581443788,-0.1250113993883133,0.03836441040039063,988.069580078125,0,13.0,1,1
18.72,0.04796666,-0.14509691,9.757530000000001,-0.00042258581379428506,0.00033101969165727496,-0.00012296444037929175,-1.999309062957764,26.726865768432614,-38.33942794799805,0.11375252902507782,-0.1002773493528366,0.03839778900146485,988.069580078125,0,13.0,1,1
