Timestamp,Ax,Ay,Az,Gx,Gy,Gz,Mx,My,Mz,LiAx,LiAy,LiAz,P,Value,Type,GroupType,Activities
0.0,0.061233252,-0.13936593,9.7634,-0.0015542469918727875,-0.0005411015590652823,-0.0007012633141130209,1.274637222290039,21.072458267211914,-37.71703338623047,-0.7811082601547241,-0.12530092895030975,0.030511856079101562,987.9663696289062,0,13.0,1,1
0.04,0.07071176,-0.13936393,9.768127,-0.0015542469918727875,-0.0005411015590652823,-0.0007012633141130209,-11.335532188415527,24.80625343322754,-38.91773986816406,-0.7890151739120483,-0.1296619325876236,-0.00249481201171875,987.9663696289062,0,13.0,1,1
0.08,0.077800274,-0.1369787,9.79416,0.0006143611972220242,-8.8764019892551e-05,0.00039487445610575383,-11.078679084777832,24.414438247680664,-38.62644958496094,-0.7969341278076172,-0.13376320898532867,-0.011824607849121094,987.8861694335938,0,13.0,1,1
0.12,0.07054937,-0.13697667,9.777582,0.000348827859852463,0.00017742486670613292,0.0007946835830807687,-11.852420806884766,25.481019973754886,-38.64661407470703,-0.7764846086502075,-0.13341577351093292,0.01669025421142578,987.9241333007812,0,13.0,1,1
0.16,0.072858095,-0.14889105,9.768105499999999,0.00034961017081514,0.0007099296199157834,-0.00027024472365155816,-11.765653610229492,25.19332695007324,-38.33521270751953,-0.7887153625488281,-0.1137416809797287,0.007395744323730469,987.9164428710938,0,13.0,1,1
0.2,0.082336545,-0.14173926,9.784668,0.0006167084793560207,0.00031032873084768653,-0.0002699093311093748,-11.49966812133789,24.81035041809082,-38.50776290893555,-0.7974621057510376,-0.1330108493566513,0.01218414306640625,987.9238891601562,0,13.0,1,1
0.24,0.06313616,-0.13220413,9.78466,-0.0007140886154957117,0.0004433596623130144,-0.0008022057008929551,-11.493281364440918,25.448381423950195,-38.3921127319336,-0.7814466953277588,-0.13728760182857513,-0.020819664001464844,987.93603515625,0,13.0,1,1
0.28,0.06305498,-0.14411856,9.772818,0.0011509049218147993,-0.0006220308132469653,-0.0004023966612294316,-11.739076614379885,25.376298904418945,-38.427001953125,-0.7751132249832153,-0.12718991935253146,0.012452125549316406,987.9083251953124,0,13.0,1,1
0.32,0.06775361,-0.15364964,9.770442999999998,0.0002195815904997289,0.0017746851081028578,-0.0005352192674763501,-11.092781066894533,24.875383377075195,-38.72823333740234,-0.7691306471824646,-0.12187521159648895,0.007821083068847656,987.9408569335938,0,13.0,1,1
0.36,0.074842125,-0.14411451,9.763333,0.0010193116031587124,-8.965311280917375e-05,-0.0008011998725123702,-11.319311141967773,25.611047744750977,-38.04351425170898,-0.7769031524658203,-0.13570834696292874,0.02690410614013672,987.938232421875,0,13.0,1,1
0.4,0.060421586,-0.1441126,9.775163000000001,0.0006206200341694058,0.0004428516258485615,-0.0009340225369669496,-11.55763339996338,25.44041633605957,-37.76585388183594,-0.7754204273223877,-0.12563078105449674,0.003354072570800781,987.9353637695312,0,13.0,1,1
0.44,0.065404534,-0.14650081,9.789384,-4.4387124944478273e-05,0.0003095667343586684,0.00013157635112293065,-11.262325286865234,24.61121940612793,-38.60967254638672,-0.7690746188163757,-0.11612017452716827,-0.029671669006347656,987.9353637695312,0,13.0,1,1
0.48,0.063234895,-0.13458987,9.775201,-0.0003112807753495872,0.0007091343286447227,-1.8291757442057133e-06,-11.509343147277832,25.16980171203613,-38.14237976074219,-0.7632806301116943,-0.13950686156749725,0.003543853759765625,987.9175415039062,0,13.0,1,1
0.52,0.06317654,-0.13220514,9.782297,0.00021225615637376904,4.824112693313509e-05,-0.0001323471078649163,-11.381619453430176,24.81596565246582,-39.219139099121094,-0.766471266746521,-0.13900817930698395,-0.0010614395141601562,987.914794921875,0,13.0,1,1
0.56,0.058338404,-0.13220371,9.77519,0.0008786082617007196,0.0001813077979022637,0.0007999995141290128,-11.341757774353027,24.694440841674805,-37.90943908691406,-0.7550041675567627,-0.13839583098888394,0.013296127319335938,987.9244384765624,0,13.0,1,1
0.6,0.065449715,-0.14173542,9.765717,0.00034653901821002364,0.00018121647008229047,1.292908564209938e-06,-11.474207878112793,24.517641067504886,-37.72471618652344,-0.7628858685493469,-0.13351450860500336,0.003951072692871094,987.9345703125,0,13.0,1,1
0.64,0.0773409,-0.15126707,9.77518,-5.237251752987504e-05,0.0008469148306176066,-0.00026478199288249016,-11.554153442382812,26.18141746520996,-38.194671630859375,-0.7754052877426147,-0.1138857752084732,-0.00537109375,987.9445190429688,0,13.0,1,1
0.68,0.07250273,-0.14411585,9.768072,0.0011466115247458222,-0.0011505455477163196,-0.0002645408967509866,-11.170011520385742,24.697710037231445,-38.70594024658203,-0.763956606388092,-0.1179765611886978,0.013719558715820312,987.934326171875,0,13.0,1,1
0.72,0.07005447,-0.12981476,9.758598,8.191046072170138e-05,0.0005804164102301003,2.0160805433988567e-06,-11.060797691345217,25.326623916625977,-38.52861785888672,-0.7672951817512512,-0.13661055266857147,0.03277397155761719,987.9344482421876,0,13.0,1,1
0.76,0.05804661,-0.14887954,9.76096,0.0003487887443043292,0.0015124306082725525,-0.000663532642647624,-10.997562408447266,24.85890388488769,-38.28003692626953,-0.751837432384491,-0.1220552772283554,0.02812671661376953,987.9641723632812,0,13.0,1,1
0.8,0.060378194,-0.13934489,9.777525,0.0007488249684683979,0.001645497279241681,-0.0006632916629314423,-11.454421997070312,24.53679084777832,-38.729679107666016,-0.7406483292579651,-0.1314227432012558,-0.00016021728515625,987.9362182617188,0,13.0,1,1
0.84,0.067489535,-0.14887656,9.782253,-4.956027260050178e-05,0.001112774247303605,2.739136107265949e-06,-11.283601760864258,25.80285835266113,-38.5991325378418,-0.7531000375747681,-0.11150075495243073,-0.014204978942871094,987.938720703125,0,13.0,1,1
0.88,0.060261487999999995,-0.1369588,9.7751465,0.0008831077138893306,-8.573854574933648e-05,0.0010682437568902972,-11.491621971130373,25.55577278137207,-39.168495178222656,-0.7467448115348816,-0.12999261915683746,0.000125885009765625,987.9436645507812,0,13.0,1,1
0.92,0.072152615,-0.14649044,9.772776,0.0004841962945647538,0.0008462757105007768,3.2212119549512863e-06,-11.736032485961914,25.37924385070801,-38.58161163330078,-0.7498704195022583,-0.10554291307926178,0.02393054962158203,987.92333984375,0,13.0,1,1
0.96,0.06492457,-0.13933922,9.770402,0.0004841962945647538,0.0008462757105007768,3.2212119549512863e-06,-11.62779712677002,25.63839912414551,-38.22853088378906,-0.7478659152984619,-0.13394160568714142,0.014609336853027344,987.92333984375,0,13.0,1,1
1.0,0.06008643,-0.1369545,9.765663,0.0008842325187288225,-8.59211286297068e-05,-0.0005291695706546307,-11.561380386352539,25.27953910827637,-38.833641052246094,-0.7460260391235352,-0.11909829080104828,0.03369140625,987.94091796875,0,13.0,1,1
1.04,0.062417984,-0.14648618,9.7751255,8.584727765992284e-05,4.71454841317609e-05,0.0002700191107578576,-11.236833572387695,25.530771255493164,-38.898353576660156,-0.7534914016723633,-0.1091536432504654,0.014911651611328125,987.9431762695312,0,13.0,1,1
1.08,0.059969722999999996,-0.14886804,9.777489,0.0004858835018239915,0.0004465280217118561,-0.0003955294960178435,-11.381321907043455,25.44809913635254,-38.79426574707031,-0.7424030900001526,-0.12291736900806427,0.005563735961914063,987.9683837890624,0,13.0,1,1
1.12,0.05991131,-0.14171679999999998,9.77985,0.00016541802324354649,-6.781512638553977e-05,-0.00087860191706568,-11.536761283874512,24.72298622131348,-38.573917388916016,-0.7399592995643616,-0.1135603040456772,0.01046466827392578,987.9428100585938,0,13.0,1,1
1.16,0.07180253,-0.14171536,9.779844,-0.0007661250419914722,-0.00020106433657929299,0.0005863764090463519,-11.95788860321045,25.012983322143555,-37.75614929199219,-0.742585301399231,-0.12758107483386993,0.020090103149414062,987.95263671875,0,13.0,1,1
1.2,0.06696439,-0.12979753,9.7727375,-0.00023293087724596265,-0.0006006294861435889,-0.00047864613588899374,-11.484149932861328,25.457216262817386,-38.85594177246094,-0.7351553440093994,-0.1273944228887558,-0.003394126892089844,987.9298095703124,0,13.0,1,1
1.24,0.07646561,-0.13456269,9.770365,-9.921030141413212e-05,-0.0006007208721712233,-0.0003452469827607274,-11.52830982208252,24.99419593811035,-38.4371223449707,-0.7523845434188843,-0.1271248608827591,0.01094818115234375,987.94482421875,0,13.0,1,1
1.28,0.062067866,-0.13217796,9.784563,-0.0003649638965725899,-0.0008671279065310955,0.0005870995810255407,-11.658802032470705,25.55692481994629,-38.603912353515625,-0.7310719490051271,-0.12194247543811798,-0.0078277587890625,987.957763671875,0,13.0,1,1
1.32,0.06439942,-0.13932641,9.770354,-0.00023124355357140303,0.0009969919919967651,0.0004541826492641121,-11.073271751403807,24.68270301818848,-38.335044860839844,-0.7289766669273376,-0.11243616044521333,0.006519317626953125,987.949951171875,0,13.0,1,1
1.36,0.06912085400000001,-0.14409144,9.7679825,-9.7523326985538e-05,-0.0004678367695305497,-0.00021136604482308033,-11.247488021850586,25.520463943481445,-38.35721969604492,-0.7316446304321289,-0.12180645763874055,0.02087116241455078,987.9319458007812,0,13.0,1,1
1.4,0.0595029,-0.13694014,9.779813,-0.000895908335223794,-0.0014000337105244398,0.00032150678453035647,-11.252894401550293,25.2521915435791,-38.64862823486328,-0.715510368347168,-0.1215122491121292,0.01153278350830078,987.9244995117188,0,13.0,1,1
1.44,0.07343334,-0.14408003,9.767939,0.0001704801106825471,0.0008634687983430923,0.00032198891858570283,-11.419095993041992,25.623109817504886,-38.25979614257813,-0.7273609638214111,-0.11180074512958528,0.002246856689453125,987.9241333007812,0,13.0,1,1
1.48,0.08292058,-0.14407827,9.777401,-0.0003688173601403832,-0.00045988376950845117,-0.0006015012040734291,-11.494803428649902,25.4469051361084,-38.31480407714844,-0.7486658096313477,-0.11607764661312105,0.002436637878417969,987.9317016601562,0,13.0,1,1
1.52,0.07567859,-0.13692664,9.786863,0.00016574712935835126,-0.0008596713887527585,-0.0004675147356465459,-11.69230842590332,25.104211807250977,-38.72622299194336,-0.7318605780601501,-0.13022758066654205,0.0073413848876953125,987.9436645507812,0,13.0,1,1
1.56,0.07321632,-0.14407466,9.770287,-0.0003661871887743473,-0.0003271528403274715,6.541586481034756e-05,-11.45771026611328,25.53427314758301,-38.24864959716797,-0.7245056629180908,-0.12986324727535248,0.016992568969726562,987.94873046875,0,13.0,1,1
1.6,0.077923775,-0.13692309,9.77028,0.00016714190132915974,-0.0005935818771831691,-6.744335405528545e-05,-11.409558296203613,25.15773963928223,-37.92609786987305,-0.7272759079933167,-0.11037106812000276,0.02187442779541016,987.9461669921876,0,13.0,1,1
1.64,0.07068172,-0.1393046,9.777374,0.0007004707586020231,7.209467003121972e-05,0.0004654873337130993,-11.582550048828125,25.36483192443848,-38.45044708251953,-0.7201097011566162,-0.11458997428417204,-0.0016231536865234375,987.9511108398438,0,13.0,1,1
1.68,0.07777911400000001,-0.14406936,9.779736,0.00016853609122335908,-0.00019433445413596928,-0.00033316167537122965,-11.51996612548828,26.37175178527832,-38.67298126220703,-0.7226448059082031,-0.11414311826229095,0.003273963928222656,987.9481811523438,0,13.0,1,1
1.72,0.06336734,-0.13930102,9.767892999999999,-0.00036339834332466125,-0.0005939214606769383,-0.0007323365425691009,-11.278087615966795,24.96477699279785,-37.93506622314453,-0.70113205909729,-0.1140650063753128,0.031841278076171875,987.9561157226562,0,13.0,1,1
1.76,0.06329498,-0.13929923,9.782089,-9.638501796871425e-05,-0.0005940346163697541,0.0003332257329020649,-11.67668342590332,24.64473533630371,-38.701744079589844,-0.7032658457756042,-0.11827124655246735,0.013093948364257812,987.9303588867188,0,13.0,1,1
1.8,0.06322268,-0.14168073,9.779716,0.0003037858987227082,-0.0008604637114331126,0.0008661564206704497,-11.470590591430664,25.36455726623535,-38.85260772705078,-0.7057459354400635,-0.1179126650094986,-0.0009479522705078123,987.9227294921876,0,13.0,1,1
1.84,0.06554022400000001,-0.1464455,9.765506,-9.499071165919304e-05,-0.00019478716421872375,-0.0009977560257539153,-11.460617065429688,25.637243270874023,-38.79311752319336,-0.7081677913665771,-0.10348360240459442,0.008679389953613281,987.947998046875,0,13.0,1,1
1.88,0.075027525,-0.14406045,9.786804,-0.0004937674384564161,0.00047088926658034325,0.00046728021698072547,-11.432272911071776,24.82126045227051,-39.28862762451172,-0.706173300743103,-0.1124332994222641,0.004091262817382813,987.9448852539062,0,13.0,1,1
1.92,0.063005626,-0.13214226,9.760757,-9.35961725190282e-05,-0.00019501353381201625,-6.505276542156935e-05,-11.391730308532715,24.437360763549805,-38.579551696777344,-0.6942223310470581,-0.1216978281736374,0.032662391662597656,987.9600219726562,0,13.0,1,1
1.96,0.06771314,-0.15359004,9.77022,4.025909584015608e-05,0.00020434707403182983,6.840401329100132e-05,-11.692009925842285,25.73635292053223,-38.301353454589844,-0.7017646431922913,-0.1026725023984909,0.018589019775390625,987.9371337890624,0,13.0,1,1
2.0,0.06764078,-0.14643843,9.782049,-0.0002253596903756261,0.00020423386013135314,0.000335018674377352,-11.339118957519533,25.171594619750977,-38.861576080322266,-0.6996231079101562,-0.10224305093288423,-0.004932403564453125,987.9395751953124,0,13.0,1,1
2.04,0.06995833,-0.13452028,9.784410000000001,4.165328573435545e-05,-0.00032851108699105685,-6.415625102818011e-05,-11.937261581420898,25.295976638793945,-38.23779296875,-0.6921790838241577,-0.12080816924571992,-0.009481430053710938,987.9468994140624,0,13.0,1,1
2.08,0.07227588,-0.14643492,9.786769999999999,-9.080709423869847e-05,-0.00019546638941392305,-0.0001970153534784913,-11.292350769042967,24.899511337280273,-39.16079711914063,-0.6947429180145264,-0.10627888143062593,-0.004597663879394531,987.9389038085938,0,13.0,1,1
2.12,0.062643915,-0.15119965,9.774929,4.3048174120485776e-05,0.0004702100995928049,0.00033591515966691077,-11.437381744384766,25.18512916564941,-39.15516662597656,-0.6831815838813782,-0.0963975042104721,0.028680801391601562,987.9287109375,0,13.0,1,1
2.16,0.05779177,-0.1488146,9.770187,-0.00022257049567997456,-0.0007283245213329793,0.0004693720547948033,-11.621027946472168,25.381914138793945,-39.13838195800781,-0.670901894569397,-0.10086186230182648,0.014659881591796875,987.9465942382812,0,13.0,1,1
2.2,0.06966895,-0.12736334,9.77018,4.444259684532881e-05,-0.00032896385528147215,-0.0007287508342415093,-11.136367797851562,25.25633430480957,-39.28269958496094,-0.6828597187995911,-0.1245141476392746,0.014817237854003906,987.9338989257812,0,13.0,1,1
2.24,0.07437640400000001,-0.13689466,9.779641999999999,-0.0004874918377026916,-6.276112981140614e-05,0.00020365382079035044,-11.672905921936035,26.01786994934082,-38.70569229125977,-0.6946195363998413,-0.11936603486537932,0.005523681640625,987.9490966796876,0,13.0,1,1
2.28,0.06952423,-0.15119256,9.777268,-0.00022047862876206642,-0.000462348194560036,0.000869742245413363,-11.486650466918945,25.085981369018555,-38.602882385253906,-0.6812920570373535,-0.09023873507976532,0.0152435302734375,987.9462890625,0,13.0,1,1
2.32,0.07184183599999999,-0.15119077,9.770161,-0.00022047862876206642,-0.000462348194560036,0.000869742245413363,-11.486650466918945,25.085981369018555,-38.602882385253906,-0.6799193024635315,-0.1044938713312149,0.03426933288574219,987.9462890625,0,13.0,1,1
2.36,0.06937957,-0.14642246,9.791458,0.00017969252075999975,-0.0007287773187272251,-0.00019522244110703466,-11.325559616088867,25.07893943786621,-38.858245849609375,-0.677390456199646,-0.1089894324541092,0.0012941360473632812,987.9486694335938,0,13.0,1,1
2.4,0.067075014,-0.1559576,9.784366,-0.0007517158519476652,-0.0008620484150014818,7.139227818697691e-05,-11.606082916259766,25.1848087310791,-38.51327133178711,-0.6793088912963867,-0.09921480715274812,-0.003255844116210937,987.9357299804688,0,13.0,1,1
2.44,0.06000024,-0.13689379999999998,9.770171000000001,-8.52290540933609e-05,-0.0005958456895314157,0.00033800705568864936,-11.722472190856935,25.286584854125977,-38.57827758789063,-0.6629493236541748,-0.12259669601917267,0.01107501983642578,987.9457397460938,0,13.0,1,1
2.48,0.07428008,-0.14880867,9.7748995,0.0004477221518754959,-0.0005958974943496287,-0.0008602775633335114,-11.161561012268066,24.96891975402832,-38.56913757324219,-0.6655466556549072,-0.0935235470533371,0.030160903930664062,987.9354248046876,0,13.0,1,1
2.52,0.07422048,-0.13450752,9.784363,-0.0004915463505312799,-5.816342309117317e-05,0.00047455789172090585,-11.267433166503904,24.9750919342041,-38.47620391845703,-0.6678242683410645,-0.11672602593898773,0.020864486694335938,987.9201049804688,0,13.0,1,1
2.56,0.06938112,-0.13688941,9.770155,-9.092385880649091e-05,-0.0007241395651362836,0.00020873430185019967,-11.665731430053713,25.28718376159668,-38.81800842285156,-0.6691688299179077,-0.11621598899364473,0.025821685791015625,987.9529418945312,0,13.0,1,1
2.6,0.06215179,-0.1440378,9.772516,-9.092385880649091e-05,-0.0007241395651362836,0.00020873430185019967,-11.665731430053713,25.28718376159668,-38.81800842285156,-0.658282458782196,-0.11141623556613922,0.00696563720703125,987.9529418945312,0,13.0,1,1
2.64,0.07882151,-0.14641954,9.784347,0.0004059813800267875,0.0003216764889657497,-0.0002647200017236173,-11.763994216918945,25.300722122192386,-39.111595153808594,-0.665819525718689,-0.10179637372493744,-0.002376556396484375,987.9151000976562,0,13.0,1,1
2.68,0.06442255,-0.14641811,9.772505,-0.00012607598910108211,-0.00034420654992572963,1.842097844928503e-06,-11.444012641906738,25.54752540588379,-38.94438934326172,-0.6544117927551271,-0.10128869116306304,0.01668834686279297,987.9351196289062,0,13.0,1,1
2.72,0.06675282,-0.14879997,9.767764999999999,-0.0010576071217656138,0.0013867535162717106,-0.0007968593272380531,-11.074655532836914,24.787145614624023,-38.95681762695313,-0.6519032716751099,-0.10093943774700163,0.026317596435546875,987.945068359375,0,13.0,1,1
2.76,0.06908315400000001,-0.13449876,9.760658,0.00040770432678982615,0.0007208704482764006,-0.00013082352234050632,-11.334010124206545,24.80772590637207,-38.99504089355469,-0.6595075726509094,-0.11957411468029022,0.02644634246826172,987.929443359375,0,13.0,1,1
2.8,0.07141346,-0.14403047,9.767755000000001,0.0004088531131856144,0.00045436818618327385,-0.0003966469666920602,-11.276565551757812,24.966249465942386,-38.01237106323242,-0.6523160934448242,-0.10477887094020844,0.012400627136230469,987.9295043945312,0,13.0,1,1
2.84,0.07613367,-0.14641227,9.777218,-0.00012320425594225526,-0.00021151477994862944,0.0006688624853268267,-11.005716323852539,25.21982765197754,-37.991966247558594,-0.6691824197769165,-0.09482155740261078,-0.00165557861328125,987.9572143554688,0,13.0,1,1
2.88,0.06412461400000001,-0.13926093,9.779579,-0.0003889459767378866,-0.00021160804317332804,-0.0006624708767049015,-11.203059196472168,25.40335273742676,-37.27943420410156,-0.6384122371673584,-0.10868322849273683,0.003214836120605469,987.9566040039062,0,13.0,1,1
2.92,0.0712347,-0.14402606,9.770105000000001,0.0009432078222744168,0.00045408861478790635,3.5651028156280518e-06,-11.563039779663086,25.17215156555176,-38.05725860595703,-0.6403961777687073,-0.09845276176929474,0.02707099914550781,987.9491577148438,0,13.0,1,1
2.96,0.061615527,-0.13210823,9.762999,0.0006774663343094289,-0.000744426273740828,0.0005364429671317339,-11.465619087219238,24.8947696685791,-38.28699493408203,-0.6330224871635437,-0.11736561357975005,0.027228355407714844,987.918701171875,0,13.0,1,1
3.0,0.059166044,-0.15355618,9.772461,-0.0010530126746743915,0.00018758606165647507,0.00013721536379307508,-11.780055046081545,25.02214241027832,-38.86186981201172,-0.6354913711547852,-0.1076236367225647,0.008434295654296875,987.9691772460938,0,13.0,1,1
3.04,0.07105595,-0.14163835,9.765353999999999,-0.00038664875319227576,-7.882300997152925e-05,0.0009364091092720627,-11.798723220825195,25.478670120239254,-38.73173522949219,-0.6379629373550415,-0.08818598091602325,0.008579254150390625,987.964111328125,0,13.0,1,1
3.08,0.0781661,-0.13925366,9.789021,0.0005460312240757048,0.0007200314430519937,0.0004040234780404717,-11.41094207763672,25.26218605041504,-38.5478744506836,-0.6357200145721436,-0.1207771897315979,0.008730888366699219,987.9461669921876,0,13.0,1,1
3.12,0.06854689,-0.14640202,9.772446,0.00014713191194459796,0.0004536223132163286,0.00013795372797176242,-11.234768867492676,25.163949966430664,-38.87720489501953,-0.6383265256881714,-0.09689563512802124,0.023061752319335938,987.9205932617188,0,13.0,1,1
3.16,0.06609738,-0.13686742,9.767705,0.00014770583948120475,0.0004535291809588671,0.0005376737099140881,-11.785707473754885,25.754304885864254,-38.82685470581055,-0.6262238025665283,-0.12480399012565613,0.02322673797607422,987.9639282226562,0,13.0,1,1
3.2,0.06125799,-0.14639916,9.770067,0.0002814382896758616,-0.0006118277087807655,-0.0006605015951208769,-11.828642845153807,24.66061973571777,-38.91020965576172,-0.6140198707580566,-0.09575080871582033,0.02339076995849609,987.930908203125,0,13.0,1,1
3.24,0.0755378,-0.13209791,9.777163,0.00028201279928907747,-0.0016771845985203981,5.534267984330653e-06,-11.195908546447754,24.25236320495605,-39.21477508544922,-0.6256943941116333,-0.10007356107234956,0.004618644714355469,987.9658813476562,0,13.0,1,1
3.28,0.06830853,-0.15592928,9.770056,-0.0003832028596661985,0.000719565199688077,0.0005384120158851147,-11.492057800292967,24.817716598510746,-38.894287109375,-0.6185463666915894,-0.08066006004810332,0.01896572113037109,987.9583129882812,0,13.0,1,1
3.32,0.06585905,-0.13924489999999998,9.791356,0.0004163191770203412,-7.947563426569104e-05,0.0008049741736613214,-11.556134223937988,25.02158546447754,-39.66618347167969,-0.616249680519104,-0.1184736043214798,0.028573036193847656,987.930419921875,0,13.0,1,1
3.36,0.025171101,-0.14877649,9.770045,-0.0005152118974365294,0.00031990499701350933,-0.00012688542483374476,-11.606082916259766,25.1848087310791,-38.513275146484375,-0.6323515176773071,-0.08508029580116272,0.02401161193847656,987.9152221679688,0,13.0,1,1
3.4,0.082469225,-0.12970884,9.784243,-0.00171305937692523,-0.0019438732415437696,6.5187341533601276e-06,-11.623529434204102,25.01067543029785,-38.88531875610352,-0.6294119358062744,-0.13283205032348633,0.014706611633300781,987.9303588867188,0,13.0,1,1
3.44,0.08479953,-0.16069002,9.767667,-0.00038090551970526576,-0.002210282487794757,6.764836143702269e-06,-11.741875648498535,24.37292671203613,-38.59880828857422,-0.635964035987854,-0.07058776915073395,0.01961612701416016,987.9404296875,0,13.0,1,1
3.48,0.051281333,-0.122556075,9.784231,-0.0007798049482516943,-0.0007456382736563683,0.00014016893692314625,-11.69825839996338,25.204233169555664,-39.11608123779297,-0.5895524621009827,-0.11334045231342316,0.010341644287109377,987.9404296875,0,13.0,1,1
3.52,0.077510655,-0.14400412,9.767656,-0.0005129149067215621,-0.0016778371063992381,0.001338836504146457,-11.83831787109375,25.02007102966309,-38.544830322265625,-0.5918816328048706,-0.08938570320606233,0.02468395233154297,987.9298706054688,0,13.0,1,1
3.56,0.08701065,-0.14876921,9.765284,-0.0007786566275171937,-0.001278456533327699,-0.0002588127390481532,-12.110254287719727,25.50307655334473,-38.76214599609375,-0.6177969574928284,-0.0849219262599945,0.024829864501953125,987.9398803710938,0,13.0,1,1
3.6,0.06066215,-0.14638449,9.774747,-0.0011775561142712831,-0.0007459180196747184,-0.0001254086964763701,-11.691191673278807,25.57988929748535,-39.60105895996094,-0.58632493019104,-0.09426939487457277,0.02025318145751953,987.9576416015624,0,13.0,1,1
3.64,0.0773319,-0.14876626,9.77474,-0.0011775561142712831,-0.0007459180196747184,-0.0001254086964763701,-11.790571212768555,25.11774635314941,-39.01980972290039,-0.6024971008300781,-0.08913439512252808,0.025159835815429688,987.9576416015624,0,13.0,1,1
3.68,0.07249254,-0.13684846,9.788938499999999,-0.0010438237804919481,-0.0006128532695583999,0.0001411534030921757,-11.64043140411377,24.46825218200684,-39.15890884399414,-0.5950725078582764,-0.11233337223529816,0.01111602783203125,987.93212890625,0,13.0,1,1
3.72,0.084382445,-0.1535299,9.779465,0.0006878035492263733,-0.00034663057886064047,-0.0005243901978246868,-11.670595169067385,24.6506290435791,-39.010963439941406,-0.606583833694458,-0.08829915523529053,0.02547740936279297,987.9270629882812,0,13.0,1,1
3.76,0.07476324,-0.15829499,9.777092,-0.00024315336486324668,-0.0015452385414391756,-0.0003907401696778834,-11.987234115600586,25.03890419006348,-38.90790557861328,-0.5879471302032471,-0.07374526560306549,0.01624584197998047,987.9370727539062,0,13.0,1,1
3.8,0.060364245999999996,-0.15591033,9.74868,-0.00024315336486324668,-0.0015452385414391756,-0.0003907401696778834,-11.987234115600586,25.03890419006348,-38.90790557861328,-0.5626269578933716,-0.06408248841762543,0.0352630615234375,987.9370727539062,0,13.0,1,1
3.84,0.09376332,-0.13922589,9.7723465,-0.0003757367958314717,-0.0002137523115379736,8.979986887425183e-06,-12.093107223510742,25.04506874084473,-38.81497192382813,-0.6077914237976074,-0.10212475061416626,0.011734962463378906,987.9295043945312,0,13.0,1,1
3.88,0.06502488,-0.14160769,9.765239999999999,-0.0002420050441287458,-0.000347003573551774,-0.0003902477328665554,-12.29998779296875,25.6939640045166,-38.43614196777344,-0.571582019329071,-0.09229545295238496,0.030824661254882806,987.9240112304688,0,13.0,1,1
3.92,0.07213503,-0.15590592,9.774704,-0.0005077462992630899,-0.0011460443492978813,-0.0005231596878729762,-11.791252136230467,25.3801212310791,-38.41918563842773,-0.5789527893066406,-0.09187765419483183,0.03095245361328125,987.9266357421876,0,13.0,1,1
3.96,0.07685524,-0.14398806,9.765228,2.545973984524608e-05,-0.00021403198479674762,0.00027603417402133346,-11.677769660949707,25.38131904602051,-38.89865112304688,-0.5810920000076294,-0.0962935835123062,0.026366233825683597,987.9465942382812,0,13.0,1,1
4.0,0.079185516,-0.13922001,9.76759,0.00015976623399183154,-0.0004805343342013657,-0.0006555790896527469,-11.637929916381836,24.839494705200195,-39.41197204589844,-0.5730271935462952,-0.09555009007453917,0.02655792236328125,987.9589233398438,0,13.0,1,1
4.04,0.07673609,-0.15828477,9.777054,0.00015976623399183154,-0.0004805343342013657,-0.0006555790896527469,-11.637929916381836,24.839494705200195,-39.41197204589844,-0.5861362814903259,-0.07637478411197662,0.021889686584472656,987.9589233398438,0,13.0,1,1
4.08,0.057557255,-0.14398368,9.758111,2.7182686608284712e-05,0.000717794056981802,0.0009425622411072254,-12.072480201721193,25.328065872192386,-39.29661560058594,-0.5504590272903442,-0.09969192743301393,0.03148746490478516,987.906005859375,0,13.0,1,1
4.12,0.07661688,-0.15351529999999997,9.762839999999999,0.0004734084941446781,0.0011285038199275732,-1.238583354279399e-05,-11.971609115600586,24.579423904418945,-38.88343048095703,-0.5675050616264343,-0.07549718022346498,0.03633880615234375,987.950927734375,0,13.0,1,1
4.16,0.06221789,-0.13683094,9.769936,0.0008734568255022168,0.0007289367495104669,-0.0006779294344596566,-11.907938957214355,24.84976005554199,-38.9090576171875,-0.565445601940155,-0.09853732585906982,0.022260665893554688,987.9309692382812,0,13.0,1,1
4.2,0.076497704,-0.13921271,9.777033,0.00100718904286623,0.0007288434426300228,0.00025442236801609397,-11.837637901306152,24.757699966430664,-39.14546203613281,-0.5676974058151245,-0.09775727987289427,0.0034732818603515625,987.9258422851562,0,13.0,1,1
4.24,0.069268405,-0.15589412,9.788863000000001,0.0003419735003262758,-0.0008691449766047299,0.000121510645840317,-12.123676300048828,25.7016544342041,-39.46455383300781,-0.5462982654571533,-0.07824552059173584,0.0035991668701171875,987.948486328125,0,13.0,1,1
4.28,0.07398867599999999,-0.15112619,9.769919,0.00034254789352416987,0.0011281309416517615,0.00025491457199677825,-12.311346054077148,25.525724411010746,-39.11740112304688,-0.5583207011222839,-0.09198883175849916,0.02740478515625,987.96337890625,0,13.0,1,1
4.32,0.061979532000000004,-0.15112476,9.769914,7.680640555918217e-05,-7.038379408186303e-05,0.00012200284982100126,-12.233572006225586,25.335115432739254,-39.04125213623047,-0.555905818939209,-0.07723528146743774,0.02753925323486328,987.930419921875,0,13.0,1,1
4.36,0.069565296,-0.12253557,9.77232,0.001275802031159401,-7.047705730656162e-05,-1.0909046977758408e-05,-11.605701446533205,24.29030036926269,-39.53877258300781,-0.5537129640579224,-0.12403026223182677,0.008733749389648438,987.9406127929688,0,13.0,1,1
4.4,0.0723857,-0.14399572,9.769992,0.00034312764182686806,0.00072856288170442,0.0005214790580794215,-11.994163513183596,24.7691593170166,-39.12200927734375,-0.5571088790893555,-0.09486041963100432,0.022979736328125,987.9356689453124,0,13.0,1,1
4.44,0.06995559,-0.14637794,9.77709,0.0012655672617256641,0.000745776982512325,-0.00014380895299836993,-12.223896980285645,24.97566032409668,-39.40663146972656,-0.5503835678100586,-0.08447402715682982,0.02309703826904297,987.9635009765624,0,13.0,1,1
4.48,0.069915354,-0.15829332,9.779453,0.00046700699022039766,0.0003462403255980462,-0.0001436428865417838,-11.529013633728027,24.83626747131348,-39.659523010253906,-0.5480703711509705,-0.07916998863220215,0.01849079132080078,987.9378662109376,0,13.0,1,1
4.52,0.077044874,-0.15114255,9.7865505,0.00020107877207919955,0.0008788090199232101,-0.0008092664065770805,-11.593769073486328,25.30250740051269,-39.83079147338867,-0.5510563254356384,-0.07413196563720703,0.00911712646484375,987.932861328125,0,13.0,1,1
4.56,0.07461476,-0.14637499,9.760508,-6.484932964667678e-05,0.0006124302162788807,0.0003893211833201349,-11.215961456298828,24.81334114074707,-39.7064208984375,-0.5486190319061279,-0.09282173216342926,0.03291797637939453,987.93505859375,0,13.0,1,1
4.6,0.07218462,-0.1368409,9.777075,0.00046816997928544884,0.0015444728778675199,0.0002563293382991105,-11.646082878112793,25.20041847229004,-39.12389755249024,-0.5459035634994507,-0.092132106423378,0.03306865692138672,987.9404907226562,0,13.0,1,1
4.64,0.06736457,-0.13445665,9.777071000000001,-6.407412001863122e-05,0.0010117782512679696,-9.820389095693828e-06,-11.523606300354006,25.10453224182129,-39.36811447143555,-0.5398909449577332,-0.0967571586370468,0.01892852783203125,987.9655151367188,0,13.0,1,1
4.68,0.072104156,-0.12968908,9.765231,-0.0001968446304090321,0.00047908353735692805,-0.00040912808617576957,-11.761248588562012,24.671525955200195,-39.691078186035156,-0.5426251888275146,-0.10092371702194214,0.03798103332519531,987.9220581054688,0,13.0,1,1
4.72,0.07684374,-0.13922118,9.777063,0.0011351222638040779,0.0011448103468865154,-0.0001426461967639625,-11.406238555908205,25.37251853942871,-39.47886657714844,-0.5456686019897461,-0.104836568236351,0.028615951538085938,987.9248657226562,0,13.0,1,1
4.76,0.06963384,-0.14875336,9.762857,0.0006028785719536245,0.0012779053067788482,0.00039015180664137006,-11.416349411010742,24.99391746520996,-38.83927917480469,-0.5433406829833984,-0.0947357714176178,0.024005889892578125,987.9574584960938,0,13.0,1,1
4.8,0.06720376,-0.15351889999999999,9.772322,0.0007364241755567491,-5.3737028792966164e-05,0.0007897917530499399,-11.99082088470459,25.40424156188965,-38.85174560546875,-0.5364341139793396,-0.07041618227958679,0.01938629150390625,987.9574584960938,0,13.0,1,1
4.84,0.059993804000000005,-0.13206841,9.772317999999999,0.0002045673900283873,0.0011445586569607258,0.00039065018063411117,-11.92592716217041,25.04391670227051,-39.379554748535156,-0.5237373113632202,-0.09823836386203766,0.03375816345214844,987.927001953125,0,13.0,1,1
4.88,0.08146274,-0.14875038,9.777049,0.0002045673900283873,0.0011445586569607258,0.00039065018063411117,-11.92592716217041,25.04391670227051,-39.379554748535156,-0.5369285345077515,-0.05973683297634125,0.024352073669433597,987.927001953125,0,13.0,1,1
4.92,0.06469315,-0.14159955,9.767576,0.0012702185194939375,0.0010113377356901763,-0.0004081314546056092,-11.674182891845705,25.01597023010254,-38.95480346679688,-0.5161426663398743,-0.09223274886608124,0.02445220947265625,987.9471435546876,0,13.0,1,1
4.96,0.07421255,-0.15113164,9.777042,0.0010042903013527393,0.0015439066337421534,-0.0002748072729445994,-11.489557266235352,25.18895149230957,-39.14734649658203,-0.5331617593765259,-0.06778737902641296,0.01983070373535156,987.9323120117188,0,13.0,1,1
5.0,0.07417232,-0.1487474,9.786507,0.0010042903013527393,0.0015439066337421534,-0.0002748072729445994,-11.284197807312012,24.538583755493164,-39.448875427246094,-0.5312821865081787,-0.07227833569049835,0.015192985534667969,987.9323120117188,0,13.0,1,1
5.04,0.07174224,-0.1487465,9.777034,-6.0585385654121644e-05,0.0008780539501458406,0.00012483267346397042,-11.057072639465332,25.06719398498535,-39.283851623535156,-0.5198074579238892,-0.07618924975395203,0.010567665100097656,987.9520263671876,0,13.0,1,1
5.08,0.071702,-0.15112866,9.777031,0.001005065627396107,0.0014106227317824962,0.000790788559243083,-11.51211166381836,25.37868690490723,-39.385929107666016,-0.5273635387420654,-0.07572817802429199,0.034343719482421875,987.9345703125,0,13.0,1,1
5.12,0.06449211,-0.14636119,9.774658,0.0003396635293029249,0.0008779281051829457,-0.0008069405448623003,-11.656737327575685,25.19010353088379,-38.582763671875,-0.5108127593994141,-0.07501310110092163,0.029729843139648438,987.9220581054688,0,13.0,1,1
5.16,0.07640141,-0.14397694,9.772289,0.0004732091329060495,0.0008778651244938374,-7.826893124729395e-06,-11.296916961669922,24.89509010314941,-38.92888259887695,-0.5278432965278625,-0.0886450856924057,0.02510547637939453,987.9367065429688,0,13.0,1,1
5.2,0.06680155,-0.14635916,9.7746525,0.0012725447304546833,0.0007446443196386099,-0.000673450471367687,-11.405153274536133,24.63593864440918,-39.28196716308594,-0.5066232681274414,-0.07372428476810455,0.02048206329345703,987.9395751953124,0,13.0,1,1
5.24,0.078710824,-0.14159162,9.772282,0.0008734582806937398,0.0002119495766237378,0.00012566341320052743,-11.752935409545898,24.836824417114254,-38.855201721191406,-0.5191966295242311,-0.06881524622440338,0.02530193328857422,987.9291381835938,0,13.0,1,1
5.28,0.064331174,-0.15350707,9.767544000000001,-5.825987318530679e-05,0.000877676357049495,-0.0001404864597134292,-11.652033805847168,25.30043983459473,-39.513755798339844,-0.502471923828125,-0.06794700026512146,0.015961647033691406,987.9168701171876,0,13.0,1,1
5.32,0.057121277000000005,-0.16065584,9.772274000000001,-0.0001910300343297422,0.0012770872563123705,0.0001259956043213606,-11.5061616897583,25.27866554260254,-38.996070861816406,-0.4863947331905365,-0.06751468777656555,0.02552032470703125,987.9594116210938,0,13.0,1,1
5.36,0.065413594,-0.14638378,9.774744,0.001407253323122859,0.0006112346309237182,-0.0004064699751324952,-11.75195598602295,25.20658302307129,-39.03096008300781,-0.5141105651855469,-0.0765337198972702,0.016053199768066406,987.9494018554688,0,13.0,1,1
5.4,0.053470433,-0.13685085,9.753439,0.00020921922987326982,0.0007443296490237117,0.00012632791185751555,-11.386483192443848,24.179407119750977,-39.41209411621094,-0.4837797284126282,-0.08552345633506775,0.0398101806640625,987.9163818359376,0,13.0,1,1
5.44,0.06542629,-0.14638413,9.770010000000001,-6.783771095797421e-05,0.0010123890824615958,-1.1433439794927835e-05,-11.38107681274414,24.44767189025879,-39.120689392089844,-0.4916001856327057,-0.08507232367992401,0.02569293975830078,987.9417114257812,0,13.0,1,1
5.48,0.058262885,-0.14161773,9.76291,-0.00020105665316805243,0.0022108207922428846,-1.1459516827017067e-05,-11.743803024291992,24.845659255981445,-39.31903839111328,-0.4949183166027069,-0.08001172542572021,0.04470062255859375,987.8960571289062,0,13.0,1,1
5.52,0.067828864,-0.15115096,9.755809,0.00019835593411698935,0.0012787248706445098,-1.1485768482089046e-05,-11.739917755126953,25.11245155334473,-38.95032119750977,-0.4975857436656952,-0.07006371021270752,0.04480266571044922,987.9390258789062,0,13.0,1,1
5.56,0.053495765,-0.141618,9.770012,0.00033145287306979304,-0.0004523183743003756,-0.00014466984430328012,-12.07163906097412,25.5919132232666,-38.773292541503906,-0.4798341691493988,-0.08375956118106842,0.030760765075683594,987.9390869140624,0,13.0,1,1
5.6,0.06545162,-0.14638470000000003,9.786583,0.00019823381444439287,0.00021348122390918436,-0.000544169859495014,-11.84078884124756,25.861093521118164,-39.36350631713867,-0.4828659892082214,-0.059877142310142524,0.007164955139160156,987.9264526367188,0,13.0,1,1
5.64,0.058288245999999995,-0.13685174,9.781849000000001,-0.0006947651272639633,-0.002550541190430522,0.0004148675943724811,-11.296916961669922,24.89509010314941,-38.92888641357422,-0.4703777432441712,-0.07884418964385986,0.01676177978515625,987.9390869140624,0,13.0,1,1
5.68,0.06307441,-0.13685192,9.777117,-0.0006948261288926005,-0.0014852678868919609,-0.0005172641831450164,-11.59640884399414,24.82535743713379,-38.87865447998047,-0.4821951985359192,-0.0788550078868866,0.02160167694091797,987.9340209960938,0,13.0,1,1
5.72,0.06786054400000001,-0.1368521,9.767649,-0.0009612032445147632,-0.0009526261710561813,-0.00025097449542954564,-11.054709434509276,25.3325138092041,-38.83783721923828,-0.4795311689376831,-0.07865582406520844,0.02645397186279297,987.918701171875,0,13.0,1,1
5.76,0.06308707599999999,-0.13446893,9.760548,0.00037031515967100864,-0.0006863003363832831,0.0001484732492826879,-11.452899932861328,24.53826332092285,-38.806983947753906,-0.4766984283924103,-0.08779920637607573,0.04078388214111328,987.9390258789062,0,13.0,1,1
5.8,0.06309342400000001,-0.1463855,9.777118,-0.0009613253641873598,-0.0014852380845695734,-0.00011786894174292684,-11.55140781402588,25.55222511291504,-38.77415466308594,-0.4693889915943146,-0.06888164579868318,0.02668285369873047,987.9491577148438,0,13.0,1,1
5.84,0.06309977,-0.13208599999999998,9.765282000000001,-0.0006950706010684371,-0.0008194384863600135,-0.0005173688405193387,-11.613555908203125,25.28336524963379,-38.825828552246094,-0.46219256520271296,-0.07337227463722229,0.031524658203125,987.9390869140624,0,13.0,1,1
5.88,0.06071621,-0.13923599,9.760548,-0.00042881572153419256,-0.0006862705340608954,0.00014839455252513292,-11.634044647216795,25.106279373168945,-39.04325866699219,-0.449971616268158,-0.08751469850540161,0.04584026336669922,987.9417114257812,0,13.0,1,1
5.92,0.065502346,-0.15353577,9.767650999999999,-0.0005620348965749145,-0.0012188924010843039,0.00028152641607448464,-11.47697639465332,24.726526260375977,-38.96825408935547,-0.4713071286678314,-0.06343856453895569,0.02701377868652344,987.9266967773438,0,13.0,1,1
5.96,0.0774582,-0.14400287,9.762917,-0.0005620958982035519,-0.0002867769217118621,-0.0003842895966954529,-11.939624786376953,25.030656814575195,-38.68380737304688,-0.4787408709526062,-0.07304145395755768,0.03183269500732422,987.9364624023438,0,13.0,1,1
6.0,0.06551501,-0.13685317,9.772387,-0.0005621570162475108,0.00011270679533481599,-0.00011799979256466032,-12.210474967956545,24.777082443237305,-38.70421981811523,-0.462019145488739,-0.09173369407653807,0.012999534606933594,987.9417114257812,0,13.0,1,1
6.04,0.06313145,-0.1559195,9.760551,-0.0001627443125471473,-0.0002867571311071515,-0.00011802604421973227,-11.595429420471193,25.19512367248535,-39.05440902709961,-0.4599323570728302,-0.06289063394069673,0.05569839477539063,987.9315185546876,0,13.0,1,1
6.08,0.05835801400000001,-0.15591975,9.7652855,-0.0004291211953386664,0.00011272664414718747,1.5105761121958496e-05,-11.647903442382812,24.566804885864254,-39.47146606445313,-0.4671364724636078,-0.06768584251403809,0.027385711669921875,987.9617919921876,0,13.0,1,1
6.12,0.07987344,-0.13685365,9.7794895,-0.00016286654863506556,0.00011273659765720369,0.00041455338941887016,-11.247105598449707,24.62594795227051,-39.382713317871094,-0.4694373607635498,-0.08633235096931458,0.03222846984863281,987.9465942382812,0,13.0,1,1
6.16,0.075100005,-0.1416203,9.772388000000001,-0.0002960854908451438,-0.0017514647915959358,-0.00025126250693574553,-11.371103286743164,24.72036170959473,-39.061195373535156,-0.4621103703975678,-0.07207302749156952,0.01812458038330078,987.9338989257812,0,13.0,1,1
6.2,0.07032651,-0.12732078,9.765286999999999,-0.0010950942523777485,-0.000419875344960019,0.00014818517956882715,-11.675704956054688,25.01449775695801,-38.87750244140625,-0.4595282673835754,-0.09106996655464172,0.03243064880371094,987.9591064453124,0,13.0,1,1
6.24,0.055993438,-0.14877047,9.76292,-0.0005625236080959438,-0.0010856551816686988,0.00014815892791375518,-11.378032684326172,24.45062065124512,-39.275299072265625,-0.4478720128536224,-0.06243281066417694,0.037247657775878906,987.92138671875,0,13.0,1,1
6.28,0.07033919999999999,-0.14400406,9.77239,-0.0014946901937946675,-0.0001535396440885961,0.0008139224955812098,-11.796659469604492,25.11185646057129,-38.710594177246094,-0.440732479095459,-0.07670965790748596,0.02787017822265625,987.9339599609376,0,13.0,1,1
6.32,0.072220385,-0.14399160000000003,9.786547,-0.00016317202243953943,-2.037180820479989e-05,1.4948600437492132e-05,-11.816307067871096,25.198625564575195,-38.404701232910156,-0.4525017440319061,-0.07193629443645477,0.01376628875732422,987.9213256835938,0,13.0,1,1
6.36,0.064510524,-0.13444526,9.77466,-0.00016317202243953943,-2.037180820479989e-05,1.4948600437492132e-05,-11.737011909484865,25.009485244750977,-38.40585708618164,-0.4393244683742523,-0.08637198805809021,0.018693923950195312,987.9213256835938,0,13.0,1,1
6.4,0.05252552,-0.15112732,9.774658,-0.0010953386081382632,-0.001751414965838194,1.4922523405402899e-05,-11.770380020141602,24.66269111633301,-39.22724914550781,-0.4129888117313385,-0.052571043372154236,0.018797874450683597,987.9163208007812,0,13.0,1,1
6.44,0.07877892,-0.14159332,9.774654,-0.0006932359538041055,-0.0013533493038266895,-0.000644381158053875,-11.950982093811035,24.8624210357666,-39.36507415771485,-0.4582049250602722,-0.06663873791694641,0.0236358642578125,987.9288940429688,0,13.0,1,1
6.48,0.05484438,-0.14397578,9.76755,0.00023921177489683032,-0.0002881414256989956,-0.00037791859358549123,-12.077887535095215,25.05980110168457,-39.58802032470703,-0.4221396744251251,-0.07584831118583679,0.02374267578125,987.9111938476562,0,13.0,1,1
6.52,0.07392806,-0.15827452,9.760446,-0.0002930774935521185,-0.0014866184210404756,0.0002880179672501981,-12.33890151977539,24.97299385070801,-38.84986114501953,-0.44833478331565857,-0.056556418538093574,0.05698394775390625,987.9491577148438,0,13.0,1,1
6.56,0.07628244,-0.13682415,9.765177,-0.00015957705909386277,-0.0006877264240756631,0.0004213225038256496,-12.263193130493164,25.14919471740723,-38.79484939575195,-0.4409118592739105,-0.07547399401664734,0.03341484069824219,987.9415893554688,0,13.0,1,1
6.6,0.066687316,-0.13444005,9.779377,-0.00029239285504445434,-0.0004214660730212927,-0.0005106362514197826,-12.14405918121338,24.41823005676269,-39.309329986572266,-0.43385979533195496,-0.07531577348709106,0.005098342895507813,987.956787109375,0,13.0,1,1
6.64,0.073821545,-0.13920571,9.78174,-0.0002920503611676395,-0.0016199431847780945,0.00028845807537436485,-11.837095260620115,24.389406204223636,-39.0470085144043,-0.43105003237724304,-0.07059922814369203,0.03360748291015625,987.92138671875,0,13.0,1,1
6.68,0.06422639,-0.14635469,9.777002,-0.0012238137423992155,-0.0006878931890241803,0.0008212365792132914,-11.634481430053713,24.368227005004886,-38.76905059814453,-0.4141163229942322,-0.07061780989170073,0.028969764709472656,987.9387817382812,0,13.0,1,1
6.72,0.076140344,-0.13920392,9.7722645,-0.0005576816038228571,-0.0016200542449951172,-0.0005101959686726332,-11.579805374145508,24.73564338684082,-39.029930114746094,-0.4306086003780365,-0.07976701855659485,0.02907562255859375,987.9288940429688,0,13.0,1,1
6.76,0.06415534,-0.1463529,9.77463,-0.0009568129316903652,-0.0008211622480303049,-0.00011057558003813027,-11.701601028442385,24.569154739379886,-39.38634490966797,-0.4092830717563629,-0.06531009078025818,0.01968955993652344,987.9439697265624,0,13.0,1,1
6.8,0.061729908,-0.15111859,9.776993,-0.0005566544714383781,-0.0006881154258735478,0.00028919169562868774,-11.946554183959961,24.76091957092285,-38.897911071777344,-0.4064600467681885,-0.05569814145565033,0.019794464111328125,987.918701171875,0,13.0,1,1
6.84,0.07603383,-0.14158462,9.774623,-0.0008226277423091233,-0.000954486895352602,-0.00024329329608008263,-12.11123275756836,25.133310317993164,-38.586387634277344,-0.4281413853168488,-0.07943259179592133,0.024610519409179688,987.9188232421876,0,13.0,1,1
6.88,0.07360839999999999,-0.13443388,9.769884,-0.0006891277735121548,-0.001354016363620758,0.00015632726717740295,-12.348575592041016,25.33243751525879,-38.48448181152344,-0.41563525795936573,-0.06995585560798645,0.04365348815917969,987.9163208007812,0,13.0,1,1
6.92,0.07118294,-0.14634944,9.784084,-0.0009551010443829,-0.0013540718937292695,-0.0005093158688396214,-12.17544651031494,25.231264114379886,-38.65921020507813,-0.4133230745792389,-0.07005675137042999,0.015325546264648438,987.9847412109376,0,13.0,1,1
6.96,0.07353735,-0.13681544,9.769878,-0.0013542324304580688,-0.0009546536603011193,-0.00010969507275149226,-11.842065811157227,24.859193801879886,-39.61262130737305,-0.425391286611557,-0.08458027243614198,0.024870872497558597,987.9390258789062,0,13.0,1,1
7.0,0.07111192,-0.15111421,9.767508,-0.0009544165222905576,0.00011055427603423597,-0.000509022269397974,-12.040250778198242,24.77887535095215,-39.42341232299805,-0.4125208258628845,-0.07034353911876677,0.034455299377441406,987.9365844726562,0,13.0,1,1
7.04,0.08302587,-0.13204716,9.769872,-0.0012203897349536419,-0.0008216068963520229,0.00029007214470766485,-12.154276847839355,25.14596748352051,-39.04240036010742,-0.4207702577114105,-0.08908876776695251,0.02977275848388672,987.9314575195312,0,13.0,1,1
7.08,0.063871145,-0.14872922,9.769869,-2.1626183297485113e-05,-0.0008216624264605342,-0.00024241278879344463,-11.937965393066404,25.13804817199707,-39.4601936340332,-0.3948184847831726,-0.06027194857597351,0.03458404541015625,987.9418334960938,0,13.0,1,1
7.12,0.071005344,-0.1320454,9.769865,0.00037819024873897433,0.0006430193898268044,0.0004235235683154315,-11.605701446533205,24.29030036926269,-39.53877258300781,-0.4027610719203949,-0.0932101309299469,0.02991485595703125,987.9111328125,0,13.0,1,1
7.16,0.07096982,-0.15349405,9.767495,-0.0002460255636833608,0.0013462579809129238,-0.0006084388587623835,-11.489855766296387,24.55681037902832,-39.57221984863281,-0.3965972661972046,-0.06417357921600343,0.025238037109375,987.9291381835938,0,13.0,1,1
7.2,0.070934296,-0.160643,9.772226,0.0006864223978482188,0.0009467286872677504,-0.00034197629429399967,-11.883862495422365,24.6614933013916,-38.74778366088867,-0.4042716920375824,-0.06349997222423552,0.039521217346191406,987.9288940429688,0,13.0,1,1
7.24,0.08045837,-0.13919260000000003,9.7627535,0.0005536068347282708,0.0005471992189995943,0.00019080226775258782,-11.662443161010742,24.289705276489254,-39.29904174804688,-0.4121587872505188,-0.06762674450874329,0.034859657287597656,987.91650390625,0,13.0,1,1
7.28,0.07564306,-0.13204195,9.760384,0.0012197389733046293,0.001079775276593864,-7.536681368947029e-05,-11.700759887695312,24.8330020904541,-38.86302185058594,-0.3961624801158905,-0.08100219070911407,0.04913902282714844,987.931396484375,0,13.0,1,1
7.32,0.08099013599999999,-0.14158894,9.765169,0.0012200812343508005,0.001878667389973998,-7.522001396864654e-05,-11.769103050231935,25.66459083557129,-38.97813034057617,-0.3948810994625092,-0.07573123276233673,0.0491943359375,987.9317016601562,0,13.0,1,1
7.36,0.07203406,-0.15352012,9.769959,-0.0001154699712060392,0.000814048747997731,0.0004557094653137028,-11.755542755126953,25.57192802429199,-38.97480010986328,-0.3895522356033325,-0.056126847863197334,0.02074623107910156,987.9291381835938,0,13.0,1,1
7.4,0.07204676,-0.14160408,9.779428999999999,0.0010757842101156714,0.001481001963838935,-0.00021315203048288822,-11.898807525634766,24.858598709106445,-39.37289047241211,-0.37874794006347656,-0.07000656425952911,0.025528907775878903,987.9367065429688,0,13.0,1,1
7.44,0.069669545,-0.14160444,9.767594,-0.0001227601314894855,0.0009483901085332037,-0.00034636270720511675,-12.027371406555176,24.94858741760254,-38.81945037841797,-0.3914178013801575,-0.05994640290737153,0.02559375762939453,987.9166870117188,0,13.0,1,1
7.48,0.06729233,-0.15828757,9.760494,0.0009423812734894453,0.0008152520167641343,0.00031937472522258764,-11.900328636169435,24.857126235961914,-39.29558563232422,-0.3849850594997406,-0.054533109068870544,0.05880069732666016,987.95458984375,0,13.0,1,1
7.52,0.08642417,-0.14875482,9.753392999999999,0.0005427852156572044,0.0013479035114869475,5.300645716488362e-05,-11.787962913513185,24.38263893127441,-38.90021514892578,-0.4077018201351166,-0.05444200336933136,0.054106712341308594,987.9266967773438,0,13.0,1,1
7.56,0.06970757,-0.14160533,9.777067,-0.0002562845475040376,0.0025463448837399483,-0.00047967769205570216,-11.264007568359375,24.08352470397949,-39.65631103515625,-0.3872511088848114,-0.06815074384212494,0.02575397491455078,987.9520263671876,0,13.0,1,1
7.6,0.084059656,-0.15352194,9.769966,0.0006756988004781307,0.0013479432091116905,-0.0004797301953658462,-11.723750114440918,24.28468513488769,-38.827396392822266,-0.3955590426921845,-0.05333608388900757,0.0258026123046875,987.9113159179688,0,13.0,1,1
7.64,0.07212281,-0.14160599,9.762866,0.0006755765643902122,0.0008153313538059592,0.0005854811752215028,-11.764430046081545,24.56266212463379,-38.83738708496094,-0.3749199807643889,-0.06712391972541809,0.0447998046875,987.91943359375,0,13.0,1,1
7.68,0.07691532400000001,-0.14637281,9.762867,0.0008086123852990568,0.0010816669091582296,-0.0007461505010724068,-11.84579086303711,25.11861991882324,-38.857383728027344,-0.3827974498271942,-0.06188394129276276,0.044861793518066406,987.9291381835938,0,13.0,1,1
7.72,0.08409774,-0.14875637,9.777071000000001,0.0008086123852990568,0.0010816669091582296,-0.0007461505010724068,-12.10210132598877,25.14214515686035,-39.05021667480469,-0.3999272882938385,-0.05233737826347351,0.025986671447753903,987.9291381835938,0,13.0,1,1
7.76,0.08411044,-0.13922365,9.774706,-0.0006562474300153552,0.0008153711096383631,5.274452269077301e-05,-11.766058921813965,25.66753578186035,-39.13274383544922,-0.3834387063980103,-0.06177464127540589,0.0071163177490234375,987.9189453125,0,13.0,1,1
7.8,0.07934332,-0.1463737,9.760503,-0.0003900542506016791,-0.0005161884473636746,-8.046592120081186e-05,-11.39311408996582,24.541810989379886,-39.20132446289063,-0.3767116367816925,-0.05646853148937225,0.054531097412109375,987.9595947265624,0,13.0,1,1
7.84,0.06979635,-0.124924555,9.769974000000001,-0.00025701842969283456,-0.0002498528046999127,-0.0006131499540060759,-11.307975769042967,25.35898780822754,-39.18527603149414,-0.3656677305698395,-0.0894017368555069,0.03564739227294922,987.9520263671876,0,13.0,1,1
7.88,0.08414847,-0.13922451,9.777076,0.0008081228588707745,-0.0001166749862022698,0.00018574524438008663,-11.372625350952148,24.718889236450195,-38.98389053344727,-0.383336752653122,-0.06976896524429321,0.030968666076660163,987.9015502929688,0,13.0,1,1
7.92,0.07699144,-0.16067429,9.784180000000001,0.0005416847416199744,0.0016143980901688335,-0.0002137809060513973,-11.981146812438965,25.0447940826416,-39.21712875366211,-0.3675675690174103,-0.036102846264839165,0.012079238891601562,987.9317016601562,0,13.0,1,1
7.96,0.065054595,-0.14637502,9.774712,-0.0001242270809598267,0.0010817861184477806,-0.0006133072311058639,-11.690105438232422,24.84330940246582,-39.40415954589844,-0.3569274842739105,-0.05478870868682861,0.031057357788085938,987.9520263671876,0,13.0,1,1
8.0,0.07940674,-0.15590842,9.774713,0.00014196656411513686,0.0017475956119596956,-8.072773925960064e-05,-11.715703964233398,25.03010368347168,-39.488128662109375,-0.3743207454681397,-0.03986126184463501,0.0216522216796875,987.9166870117188,0,13.0,1,1
8.04,0.067469895,-0.15114214,9.7699795,0.0004081603256054223,0.0013481416972354054,0.0007181675173342228,-11.87193202972412,25.67370796203613,-39.03980255126953,-0.3635173738002777,-0.048705339431762695,0.03590679168701172,987.9061889648438,0,13.0,1,1
8.08,0.074652314,-0.13922612,9.779449000000001,0.001206985441967845,0.0008155298419296741,-8.083251304924488e-05,-12.086583137512207,25.78901481628418,-39.398399353027344,-0.37211155891418457,-0.0624963790178299,0.02647686004638672,987.9569702148438,0,13.0,1,1
8.12,0.07466501,-0.14160962,9.760513000000001,0.0009405471500940619,0.0022802869789302353,-0.0002140430733561516,-11.433794975280762,24.819787979125977,-39.21132278442383,-0.3712399005889893,-0.06191617250442505,0.04071617126464844,987.9447631835938,0,13.0,1,1
8.16,0.074677646,-0.15114309,9.777084,0.0005408288561739029,0.002147168852388859,-0.0006136216688901186,-11.554749488830565,24.917146682739254,-39.044410705566406,-0.36057373881340027,-0.04734945297241211,0.017083168029785156,987.9323120117188,0,13.0,1,1
8.2,0.06513074,-0.1487601,9.774718,-0.0003913988475687802,0.002147188642993569,0.00018527358770370483,-11.491079330444336,25.18747901916504,-39.07004165649414,-0.33100321888923645,-0.03763526678085327,0.026580810546875,987.9168701171876,0,13.0,1,1
8.24,0.06036359,-0.15114368,9.774719000000001,0.00040742655983194714,0.0013482607901096346,5.206337664276362e-05,-11.268817901611328,25.07953453063965,-39.09797668457031,-0.3489482700824737,-0.06081882119178773,0.03136253356933594,987.9395751953124,0,13.0,1,1
8.28,0.06993592,-0.14637746,9.769987,0.0009399362024851144,0.0026798599865287547,-0.0003474628319963813,-11.294852256774902,24.52827262878418,-38.9077377319336,-0.37671282887458796,-0.06976638734340668,0.04086780548095703,987.9371337890624,0,13.0,1,1
8.32,0.07651174,-0.13444649,9.769932,0.0009398139663971961,0.002413563895970583,-8.119927952066064e-05,-11.566245079040527,24.64298439025879,-39.02659606933594,-0.3465240299701691,-0.08799311518669127,0.031497955322265625,987.9697265625,0,13.0,1,1
8.36,0.054991215,-0.15112920000000002,9.75336,0.000944571802392602,0.0013523976085707545,5.470105679705739e-05,-11.829729080200195,25.397199630737305,-39.10711288452149,-0.34511852264404297,-0.025531888008117683,0.05522346496582031,987.9501342773438,0,13.0,1,1
8.4,0.050199985999999995,-0.12491281,9.760462,0.0004134717164561153,0.0008195169502869247,0.0003216734330635518,-11.634044647216795,25.106279373168945,-39.04325866699219,-0.358081728219986,-0.07746708393096924,0.04106903076171875,987.9345703125,0,13.0,1,1
8.44,0.07647747,-0.14397879,9.746255999999999,0.0006798976100981237,0.000420025346102193,0.0007211944321170449,-11.165010452270508,25.44018363952637,-39.212059020996094,-0.3609497249126434,-0.06288221478462219,0.0648040771484375,987.9498901367188,0,13.0,1,1
8.48,0.05734682,-0.11299588,9.739155,-0.0007847296074032785,-0.00144420366268605,0.00018860993441194296,-11.014464378356934,24.31648063659668,-38.55363464355469,-0.35760247707366943,-0.07253417372703552,0.07436561584472656,987.9295654296876,0,13.0,1,1
8.52,0.06450513,-0.17257752,9.795964999999999,-0.0014504091814160347,-0.005572117865085603,-0.00034397479612380266,-11.561136245727539,24.279115676879886,-39.160064697265625,-0.3297313749790192,-0.029901072382926937,0.012926101684570312,987.9348754882812,0,13.0,1,1
8.56,0.0692735,-0.13206156,9.767559,-0.0007845094660297036,-0.003841082565486431,-0.0011428751749917865,-11.720407485961914,24.91977119445801,-38.55713653564453,-0.3317749798297882,-0.06310221552848816,0.027208328247070312,987.9476318359376,0,13.0,1,1
8.6,0.07643181,-0.16066058,9.781761,-0.00011860963422805071,-0.0014442572137340903,-0.0002107224427163601,-11.508662223815918,24.907426834106445,-38.74300765991211,-0.3377197682857513,-0.04404690861701965,0.03204536437988281,987.9476928710938,0,13.0,1,1
8.64,0.08597994,-0.15827705,9.762821,-0.0007842892082408072,-0.0017105910228565335,-0.0011427808785811069,-11.709455490112305,25.56221580505371,-38.67339324951172,-0.3553438782691956,-0.06781356036663055,0.04629039764404297,987.9071044921876,0,13.0,1,1
8.68,0.07640892,-0.15112697,9.762821,-0.0002515474334359169,-0.001710608834400773,-0.0007432597922161223,-11.901009559631348,25.11949348449707,-38.69496154785156,-0.34369465708732605,-0.020123422145843502,0.04161262512207031,987.96533203125,0,13.0,1,1
8.72,0.08117735400000001,-0.1439768,9.786491,1.4878693036735058e-05,-0.0003790474438574165,5.5734999477863305e-05,-11.770081520080565,25.29482460021973,-38.80237579345703,-0.3274962902069092,-0.05316092073917389,0.013264656066894531,987.93994140625,0,13.0,1,1
8.76,0.085945725,-0.13444342,9.779389,0.0002813047030940652,-0.00024590737302787597,-0.0007431654958054423,-10.938618659973145,24.59860420227051,-39.19770050048828,-0.3590638637542725,-0.0667169839143753,0.02753448486328125,987.9325561523438,0,13.0,1,1
8.8,0.071594894,-0.14635958,9.767552,0.0009472043020650744,0.0005530224298126996,0.00032214526436291635,-11.702823638916016,25.199819564819336,-38.88416290283203,-0.3337738215923309,-0.04246363043785095,0.04178333282470703,987.9629516601562,0,13.0,1,1
8.84,0.076363266,-0.15589233,9.762816,-0.0002511070342734456,0.0010856363223865626,-0.00021043932065367701,-11.695756912231445,25.57547187805176,-39.36914443969727,-0.32784518599510193,-0.04230919480323792,0.03708457946777344,987.9223022460938,0,13.0,1,1
8.88,0.07635182,-0.15112554,9.7675495,0.0002816348569467664,0.0012187764514237642,-0.000343550113029778,-11.99995231628418,25.395402908325195,-38.38792037963867,-0.3455172181129456,-0.042104557156562805,0.03239154815673828,987.9456176757812,0,13.0,1,1
8.92,0.06917071,-0.15589179,9.743876,0.00028174498584121466,0.0004198109090793878,-0.00034350284840911627,-11.890356063842773,25.12980842590332,-39.2360954284668,-0.32008618116378784,-0.03241175413131714,0.05137348175048828,987.93505859375,0,13.0,1,1
8.96,0.07871887,-0.1415918,9.769915,-0.0006502504693344235,0.0005529509508050978,0.00032233403180725867,-11.65727996826172,25.55839729309082,-38.68121337890625,-0.33267468214035034,-0.04176488518714905,0.03722095489501953,987.942626953125,0,13.0,1,1
9.0,0.07392767,-0.15112473,9.772282,-0.00011750857811421155,-0.0002460145915392786,-7.709267083555459e-05,-11.705867767333984,25.19687080383301,-38.72955322265625,-0.3161420822143555,-0.046287313103675835,0.032547950744628906,987.9356079101562,0,13.0,1,1
9.04,0.09303546,-0.14635788,9.762812,1.575949136167765e-05,-0.0006455063121393322,-0.00047651922795921575,-11.674182891845705,25.01597023010254,-38.95480346679688,-0.3333772420883179,-0.04601126909255981,0.04207038879394531,987.9603881835938,0,13.0,1,1
9.08,0.07390481,-0.13682444,9.753341,1.575949136167765e-05,-0.0006455063121393322,-0.00047651922795921575,-11.55042839050293,25.921987533569336,-38.94990539550781,-0.3123911321163177,-0.05526217818260193,0.05159473419189453,987.9603881835938,0,13.0,1,1
9.12,0.06672370400000001,-0.14635734,9.769911,0.00028218550141900783,-0.0007786821224726738,-0.0004764719633385539,-11.4711332321167,25.73284721374512,-38.95105743408203,-0.3108507990837097,-0.0453367680311203,0.04217243194580078,987.9531860351562,0,13.0,1,1
9.16,0.08583146,-0.14874028,9.758074,1.597951631993055e-05,0.000819195294752717,0.00032252277014777064,-10.908156394958496,25.04836463928223,-38.9207763671875,-0.3328722417354584,-0.04481400549411774,0.023293495178222656,987.9406127929688,0,13.0,1,1
9.2,0.078650355,-0.14635675,9.762808,0.0004155634669587016,2.0229768779245205e-05,0.00032256988924928015,-11.211533546447754,24.711843490600586,-39.2392578125,-0.3260912895202637,-0.04906365275382996,0.05649471282958984,987.942626953125,0,13.0,1,1
9.24,0.08102882,-0.14397325,9.786478,0.0009483054745942353,-0.0010450516128912568,-0.0004763305187225342,-11.603880882263185,24.92391395568848,-39.19120788574219,-0.3191994428634644,-0.048970386385917664,0.01867389678955078,987.932861328125,0,13.0,1,1
9.28,0.08342314,-0.15588968,9.779377,0.00041578372474759817,-0.0007787536014802754,0.000722138152923435,-11.293192863464355,24.63566398620605,-39.684120178222656,-0.31267279386520386,-0.044166907668113715,0.04712390899658203,987.9557495117188,0,13.0,1,1
9.32,0.090598166,-0.15350656,9.750971,-0.0007825276115909219,-0.0009119294700212776,5.639565642923117e-05,-11.634344100952148,24.47414588928223,-39.46813201904297,-0.32995909452438354,-0.020353600382804867,0.03769874572753906,987.9404296875,0,13.0,1,1
9.36,0.07385868,-0.14158995,9.781744,-0.0006492976099252701,0.00015332239854615184,0.0007222162093967199,-11.84481143951416,25.48838233947754,-39.03314208984375,-0.2905640006065369,-0.05314929783344269,0.0330047607421875,987.9404907226562,0,13.0,1,1
9.4,0.08340818,-0.16303904,9.753336000000001,0.0004161277902312577,0.0006889136275276543,0.00032324300264008343,-11.539231300354006,25.56401252746582,-39.39259338378906,-0.33230048418045044,-0.03380750119686127,0.03777503967285156,987.9329223632812,0,13.0,1,1
9.44,0.07622832,-0.14873917,9.762804,1.67516409419477e-05,2.310811214556452e-05,0.0003232849121559412,-12.014897346496582,25.59250831604004,-39.01302337646485,-0.32143959403038025,-0.047973111271858215,0.05201339721679688,987.9658813476562,0,13.0,1,1
9.48,0.090557575,-0.14397241,9.777006,-0.00011621060548350215,0.0008220239542424679,-0.00034242100082337856,-11.784919738769533,24.38558387756348,-39.05482482910156,-0.33462339639663696,-0.04309150576591492,0.01890277862548828,987.9431762695312,0,13.0,1,1
9.52,0.09054741,-0.15112199,9.774639,-0.00024927075719460845,0.0010883240029215813,-0.0002092210343107581,-11.543254852294922,25.191301345825195,-39.06222534179688,-0.3184937536716461,-0.047751277685165405,0.033150672912597656,987.9329223632812,0,13.0,1,1
9.56,0.09053725,-0.16542138,9.767536,-0.0005154888494871557,-0.00011011338938260452,-7.602118421345948e-05,-11.764972686767578,24.93095588684082,-38.93584060668945,-0.32695263624191284,-0.0189560204744339,0.04264926910400391,987.9180297851562,0,13.0,1,1
9.6,0.07618773,-0.13682185,9.760433,-0.00024907494662329555,0.0016209239838644864,0.0005898104282096027,-11.622007369995115,25.012147903442386,-38.962623596191406,-0.306451678276062,-0.05202697217464447,0.033219337463378906,987.9354248046876,0,13.0,1,1
9.64,0.078567475,-0.14873798,9.760433,0.0008162862504832448,0.0010882763890549538,0.001388799981214106,-11.85394287109375,25.47954750061035,-38.569313049316406,-0.30525800585746765,-0.032764628529548645,0.061657905578613274,987.9180297851562,0,13.0,1,1
9.68,0.08333713,-0.15350433,9.767533,-0.0006483531906269491,0.000821944500785321,-7.58954556658864e-05,-11.997314453125,25.872560501098636,-39.34005737304688,-0.3136865794658661,-0.041835516691207886,0.03328704833984375,987.9356689453124,0,13.0,1,1
9.72,0.06420776,-0.13682114,9.760431,0.0012159557081758974,0.001487718429416418,-0.0007416433654725553,-11.871931076049805,25.67370796203613,-39.03980255126953,-0.2939735054969788,-0.06059597432613373,0.04277610778808594,987.9635009765624,0,13.0,1,1
9.76,0.09765625,-0.15588711,9.7935705,0.00028394808759912854,0.0012213867157697678,0.0011226099450141194,-11.849782943725586,25.95817375183105,-39.5987548828125,-0.3260640501976013,-0.04107666015625,-0.004526138305664063,987.9357299804688,0,13.0,1,1
9.8,0.06896728,-0.14397039,9.769897,0.0013493092264980078,0.002552950289100409,0.0005900200339965522,-11.203083038330078,24.98305320739746,-39.10245895385742,-0.3067156672477722,-0.044786781072616584,0.042842864990234375,987.9205932617188,0,13.0,1,1
9.84,0.073736936,-0.1392036,9.7675295,0.0010830913670361042,0.0030855657532811165,0.0008563778828829527,-11.74502658843994,25.476327896118164,-38.816856384277344,-0.2869299948215485,-0.04892459511756897,0.0476064682006836,987.9534912109376,0,13.0,1,1
9.88,0.061777234,-0.14635320000000002,9.767529,0.0012163470964878798,0.0017539707478135824,0.0003237879718653857,-12.169358253479006,25.23715400695801,-38.96842956542969,-0.290477454662323,-0.04348298907279968,0.03344440460205078,987.9639282226562,0,13.0,1,1
9.92,0.08327627,-0.1487362,9.760425999999999,0.0016159187071025374,0.0005555333336815238,0.00019067199900746346,-11.502138137817385,25.6513729095459,-39.326438903808594,-0.3038989305496216,-0.028517171740531918,0.042946815490722656,987.950927734375,0,13.0,1,1
9.96,0.088045895,-0.14873599,9.76516,0.0008170687942765652,0.0014876230852678418,0.00019071390852332118,-11.712797164916992,24.927133560180664,-38.94365692138672,-0.3120162189006805,-0.0372854620218277,0.04299449920654297,987.9534912109376,0,13.0,1,1
10.0,0.07847613,-0.15588553,9.75569,0.0010834825225174427,0.000688659492880106,0.0011228614021092653,-11.484448432922365,24.825082778930664,-39.28081512451172,-0.29183030128479004,-0.02751901745796204,0.05249214172363281,987.9461669921876,0,13.0,1,1
10.04,0.06890637,-0.14635222,9.753322,1.831672852858901e-05,0.001354433363303542,0.00019079772755503652,-11.83831787109375,25.02007102966309,-38.544830322265625,-0.3044336438179016,-0.027405694127082825,0.05253410339355469,987.9487915039062,0,13.0,1,1
10.08,0.08562553,-0.14873524,9.765157,-0.0003810591879300773,-0.0003766357258427888,0.0003239976067561656,-11.309796333312988,24.72537422180176,-39.53284454345703,-0.29786837100982666,-0.0510115921497345,0.043109893798828125,987.9537963867188,0,13.0,1,1
10.12,0.052156746,-0.14635174,9.767522999999999,0.0005511441850103439,-0.00024349363229703158,0.00019088154658675196,-11.46632194519043,24.73684120178223,-39.50939178466797,-0.2727935314178467,-0.02693033218383789,0.019468307495117188,987.931396484375,0,13.0,1,1
10.16,0.07126582,-0.15111805,9.762788,-0.0001145476126112044,0.001221227808855474,0.000324081425787881,-11.845247268676758,24.75032997131348,-38.758934020996094,-0.26701486110687256,-0.03607217967510224,0.052639007568359375,987.93603515625,0,13.0,1,1
10.2,0.0760355,-0.14873440000000002,9.772256,0.0002850238815881312,2.2790502043790184e-05,-0.00034166639670729637,-11.76192855834961,24.933900833129886,-39.0904541015625,-0.2985365688800812,-0.02616915106773376,0.03375053405761719,987.946533203125,0,13.0,1,1
10.24,0.07124552,-0.13920109,9.765153,0.00028512178687378764,-0.00024354130437131968,0.00019100727513432505,-11.354499816894533,24.63064765930176,-39.21247482299805,-0.2734243869781494,-0.04519592225551605,0.047982215881347656,987.9491577148438,0,13.0,1,1
10.28,0.07919699,-0.15351994,9.769958500000001,-0.00024741218658164144,-0.00011039926175726578,0.00019104924285784364,-11.846471786499025,25.380998611450195,-38.25675582885742,-0.2818518280982971,-0.02111348509788513,0.029018402099609375,987.9213256835938,0,13.0,1,1
10.32,0.048149854000000006,-0.13445427,9.765226,0.0001467245165258646,0.0004167543083894998,-7.847050437703729e-05,-11.82736587524414,25.66251945495605,-38.66109848022461,-0.2666739225387573,-0.03984901309013367,0.03377342224121094,987.9338989257812,0,13.0,1,1
10.36,0.08640987,-0.15590431,9.765228,1.0568182915449142e-05,0.0013493465958163142,0.0007191921467892827,-11.545074462890625,24.55768775939941,-39.4097900390625,-0.28942808508872986,-0.02077651023864746,0.04326534271240234,987.9417724609376,0,13.0,1,1
10.4,0.06970212,-0.15590484,9.772333,1.0568182915449142e-05,0.0013493465958163142,0.0007191921467892827,-11.848154067993164,24.85330390930176,-39.30340576171875,-0.27426970005035395,-0.034722909331321716,0.03381824493408203,987.9417724609376,0,13.0,1,1
10.44,0.045824647,-0.13683917,9.772335,-0.0006554293213412166,0.001482538296841085,0.00018647132674232125,-11.925384521484375,24.67563056945801,-39.281105041503906,-0.2545920014381409,-0.04846620559692383,0.03383922576904297,987.92626953125,0,13.0,1,1
10.48,0.08647454,-0.16782229,9.772336,0.000675942050293088,0.0014825721736997366,5.322427023202181e-05,-11.92592716217041,25.04391670227051,-39.379554748535156,-0.30114901065826416,-0.01457151770591736,0.03860855102539063,987.9164428710938,0,13.0,1,1
10.52,0.06976676,-0.14160673,9.767603,0.0014746818924322724,0.0013494479935616255,0.00018629309488460424,-11.86141586303711,25.57810020446777,-38.8818588256836,-0.2762518525123596,-0.03329719603061676,0.024430274963378903,987.9288940429688,0,13.0,1,1
10.56,0.05305904,-0.122541085,9.75577,0.0005423685070127249,0.0009500078158453107,-0.000213269900996238,-11.578390121459961,25.843461990356445,-39.47989273071289,-0.2515038847923279,-0.06144216656684876,0.06233024597167969,987.9515991210938,0,13.0,1,1
10.6,0.067420036,-0.14875759,9.772341,0.00014268688391894102,0.0013495153980329633,5.295703886076808e-05,-11.680675506591795,25.484285354614254,-39.443115234375,-0.2744651734828949,-0.023041129112243645,0.033946990966796875,987.89892578125,0,13.0,1,1
10.64,0.06027183,-0.13207527,9.772344,0.0004087949637323618,0.0014827072154730556,-0.0007460796623490751,-11.873591423034668,25.56631278991699,-38.26342010498047,-0.2543953657150269,-0.04653185606002808,0.02450180053710937,987.954833984375,0,13.0,1,1
10.68,0.08180255,-0.14637543,9.762876499999999,0.0006749029271304607,0.0008169509819708765,-0.0002135370159521699,-11.435317039489744,24.81831169128418,-39.13401794433594,-0.2815130949020386,-0.03623174130916596,0.03874969482421875,987.9417724609376,0,13.0,1,1
10.72,0.0746544,-0.14399274,9.758144,0.0010741689475253224,0.000284353067399934,-0.0007462576613761486,-11.551162719726562,24.55179786682129,-39.10057067871094,-0.2802383899688721,-0.04085424542427063,0.04351043701171875,987.9244384765624,0,13.0,1,1
10.76,0.077065885,-0.15114303,9.77235,8.697505109012127e-06,0.00028438676963560283,-0.0002137150731869042,-11.649127006530762,25.19746971130371,-38.96928405761719,-0.27890437841415405,-0.031097307801246643,0.03880405426025391,987.9468994140624,0,13.0,1,1
10.8,0.057968200000000004,-0.14161046,9.779453,0.00014164776075631383,0.00015126256039366126,0.00018566957442089918,-11.917475700378418,25.315126419067386,-39.242759704589844,-0.2534143328666687,-0.040391728281974786,0.019901275634765625,987.9144287109376,0,13.0,1,1
10.84,0.08427864,-0.1511441,9.75815,0.0010733375092968345,0.0001513300376245752,0.0005849653389304876,-11.383386611938475,25.81492042541504,-38.81541442871094,-0.28084349632263184,-0.035055696964263916,0.05780982971191406,987.9520263671876,0,13.0,1,1
10.88,0.079520464,-0.15829445,9.758152,0.0006736558862030506,0.001083469484001398,0.00031856034183874726,-11.716384887695312,25.29247856140137,-38.88749694824219,-0.27957504987716675,-0.020386278629302982,0.03890228271484375,987.9473266601562,0,13.0,1,1
10.92,0.07237232,-0.14161207,9.765255999999999,0.0002739742631092668,-0.0001149184099631384,-0.000613634183537215,-11.347570419311525,24.9003849029541,-38.99837493896485,-0.2639907896518707,-0.03459152579307556,0.03419208526611328,987.9498291015624,0,13.0,1,1
10.96,0.06522417,-0.14876245,9.758156,-0.00025886541698127985,0.0008172209491021931,0.000451540108770132,-11.146341323852539,24.983652114868164,-39.342193603515625,-0.243637353181839,-0.02963341772556305,0.05315589904785156,987.911865234375,0,13.0,1,1
11.0,0.07241541,-0.15352948,9.769995,0.0006730324821546674,-0.0009137985762208699,-8.118065306916833e-05,-11.974217414855955,25.31452751159668,-39.003028869628906,-0.26103529334068304,-0.02450959384441376,0.038990020751953125,987.9473266601562,0,13.0,1,1
11.04,0.06048748,-0.15352999,9.762894000000001,7.034861482679843e-06,0.00015149870887398717,-0.0003475855919532478,-11.67874813079834,25.011552810668945,-38.72289276123047,-0.2454090714454651,-0.01940935850143433,0.04848766326904297,987.9448852539062,0,13.0,1,1
11.08,0.072458565,-0.1439975,9.76763,0.0010720905847847464,0.0008173221140168607,0.0007175888167694211,-11.767038345336914,25.29777336120605,-38.95698547363281,-0.2542688846588135,-0.03792096674442291,0.03904151916503906,987.927001953125,0,13.0,1,1
11.12,0.07248014,-0.15353103,9.77,0.0009387248428538444,1.840832192101516e-05,-0.00048092176439240575,-11.313520431518555,24.984804153442386,-38.77760314941406,-0.2573979496955872,-0.032672539353370667,0.02960968017578125,987.9498291015624,0,13.0,1,1
11.16,0.07967144,-0.14638181,9.774736,0.0001395692816004157,-0.0011799794156104324,0.00018477888079360127,-11.404854774475098,25.268075942993164,-38.857093811035156,-0.2506875991821289,-0.022933736443519592,0.034381866455078125,987.9423828125,0,13.0,1,1
11.2,0.07730302,-0.1535321,9.772371000000001,-0.00012695440091192722,-0.0010467877145856619,-8.162599988281727e-05,-11.523063659667967,24.736238479614254,-39.26966094970703,-0.2585153579711914,-0.01785355806350708,0.029682159423828125,987.9347534179688,0,13.0,1,1
11.24,0.08661878,-0.15114291,9.762880000000001,0.0012044170871376991,-0.0001146484719356522,5.1442824769765145e-05,-11.6023588180542,24.92538642883301,-39.26850891113281,-0.266676664352417,-0.022380724549293518,0.043913841247558594,987.9297485351562,0,13.0,1,1
11.28,0.079189,-0.14636995,9.765224,0.0005384195828810334,0.000817490799818188,0.00045082755968905996,-11.945277214050293,25.76281929016113,-38.64879608154297,-0.2555062472820282,-0.022258654236793518,0.04871845245361328,987.9322509765624,0,13.0,1,1
11.32,0.08157894,-0.14160337,9.7652235,0.00014394614845514297,1.7731512343743813e-05,-0.0006122930790297687,-12.444337844848633,25.717214584350586,-39.0311279296875,-0.24950292706489566,-0.02157416939735413,0.04401779174804688,987.9400634765624,0,13.0,1,1
11.36,0.06723952,-0.13683684,9.767591,0.0008097358513623476,0.0010829952079802752,5.3496623877435916e-05,-11.678312301635742,25.749608993530273,-38.99709701538086,-0.2436589449644089,-0.035330548882484436,0.04878044128417969,987.9501342773438,0,13.0,1,1
11.4,0.07679912400000001,-0.15828635,9.7628565,-0.0001223697327077389,0.0008166792104020715,-0.00021281937370076776,-11.49966812133789,24.81035041809082,-38.50775909423828,-0.24752990901470184,-0.025726541876792908,0.03933048248291016,987.9398803710938,0,13.0,1,1
11.44,0.07679912400000001,-0.14636995,9.774693,0.0005434199701994659,0.0006835212698206307,-0.00047913513844832783,-11.899892807006836,25.595178604125977,-39.56978988647461,-0.2417210042476654,-0.030336439609527588,0.04408550262451172,987.9374389648438,0,13.0,1,1
11.48,0.09113854,-0.13922013,9.779427,0.0006765779107809068,0.0014824690297245981,0.0007192862103693187,-11.740460395812988,25.48074150085449,-39.04877471923828,-0.25513917207717896,-0.030183479189872738,0.02516651153564453,987.9424438476562,0,13.0,1,1
11.52,0.06723952,-0.14636995,9.7604885,-0.00038868561387062073,0.0012161530321463945,-0.0003459771978668868,-11.550321578979492,24.81564521789551,-38.57725524902344,-0.2394087463617325,-0.030043408274650574,0.05360031127929688,987.9323120117188,0,13.0,1,1
11.56,0.086358726,-0.14875324,9.7628565,-0.00025552767328917986,-0.0014470056630671024,-0.0004791352548636496,-11.61094856262207,24.548250198364254,-38.70623016357422,-0.2568104267120361,-0.015686392784118652,0.03942680358886719,987.9201049804688,0,13.0,1,1
11.6,0.088748634,-0.14636995,9.7604885,-0.00025552767328917986,1.7731541447574273e-05,-0.0003459773142822087,-12.077183723449707,25.217729568481445,-38.365623474121094,-0.2603946924209595,-0.03467215597629547,0.05365180969238281,987.9330444335938,0,13.0,1,1
11.64,0.086358726,-0.15351976,9.779427,-0.00038868561387062073,-0.0003817422839347273,-0.00021281925728544598,-11.964542388916016,24.955080032348636,-39.36840438842773,-0.2587316632270813,-0.02068594098091125,0.02053356170654297,987.9679565429688,0,13.0,1,1
11.68,0.09591836,-0.15351976,9.7604885,-0.0004170021857134998,1.4790944987908004e-05,-0.0010956281330436466,-11.859350204467773,25.21128273010254,-38.8607177734375,-0.2614247798919678,-0.01120901107788086,0.058444023132324226,987.9253540039062,0,13.0,1,1
11.72,0.08396882,-0.15351976,9.77706,-0.0004170021857134998,1.4790944987908004e-05,-0.0010956281330436466,-11.859350204467773,25.21128273010254,-38.8607177734375,-0.2465666383504868,-0.01588478684425354,0.030046463012695312,987.9253540039062,0,13.0,1,1
11.76,0.07918903,-0.16543616,9.7604885,-0.0004170021857134998,1.4790944987908004e-05,-0.0010956281330436466,-11.807718276977539,25.57575416564941,-38.96698760986328,-0.2504137754440308,-0.011075645685195923,0.03953170776367188,987.9253540039062,0,13.0,1,1
11.8,0.07201934,-0.14398669,9.77706,0.00024878751719370484,0.0008137384429574013,0.00036910915514454246,-11.730242729187012,24.75300025939941,-39.31570053100586,-0.2349018901586533,-0.030263751745224,0.03481388092041016,987.95263671875,0,13.0,1,1
11.84,0.086358726,-0.15828632,9.7628565,-0.0005501601262949407,0.0008137385593727231,0.0005022670957259834,-11.826142311096193,25.0318546295166,-39.163272857666016,-0.24337276816368106,-0.021077409386634827,0.03482532501220703,987.9424438476562,0,13.0,1,1
11.88,0.07679912400000001,-0.13445355,9.75102,-0.0008164760074578227,0.0005474226782098414,-0.00029668054776266217,-12.012832641601562,25.225690841674805,-38.99187850952149,-0.24176180362701416,-0.03008359670639038,0.04906463623046875,987.9479370117188,0,13.0,1,1
11.92,0.09113854,-0.14160343,9.781794,-0.0002838442451320589,-0.0006509989034384488,-0.00029668054776266217,-11.742961883544922,25.109506607055664,-38.795711517333984,-0.2355004996061325,-0.03431032598018646,0.02542686462402344,987.9456176757812,0,13.0,1,1
11.96,0.09113854,-0.14636995,9.781794,0.0010477351024746897,0.00014794882736168802,0.0006354250363074242,-11.967586517333984,24.95213508605957,-39.21379852294922,-0.25299960374832153,-0.02944299578666687,0.02071857452392578,987.9404296875,0,13.0,1,1
12.0,0.06723952,-0.14875324,9.7652235,-0.0002838442451320589,-0.0009173147846013306,0.00010279327398166059,-11.803045272827148,24.47382926940918,-38.82624053955078,-0.2279776930809021,-0.024709239602088928,0.039673805236816406,987.95068359375,0,13.0,1,1
12.04,0.09113854,-0.15590306,9.769958500000001,0.0006482613389380276,0.0001479487691540271,0.00023595121456310156,-11.60053825378418,25.558992385864254,-38.92094421386719,-0.23651123046875,-0.034037575125694275,0.030223846435546875,987.9481811523438,0,13.0,1,1
12.08,0.08157891,-0.14398669,9.765224,-0.0006833180668763816,0.0005474226782098414,-3.036466659978032e-05,-11.029409408569336,24.513582229614254,-39.1787338256836,-0.23580996692180636,-0.024603411555290226,0.03496742248535156,987.9481811523438,0,13.0,1,1
12.12,0.07679912400000001,-0.14636995,9.769958500000001,0.00024878751719370484,0.0006805806187912822,0.00023595121456310156,-11.431431770324707,25.08510780334473,-38.76530456542969,-0.22075556218624115,-0.020070761442184448,0.03497505187988281,987.9481811523438,0,13.0,1,1
12.16,0.08157891,-0.14636995,9.774693,-0.0004170021857134998,0.0013463703216984868,-0.0002966804313473404,-12.290313720703125,25.33451271057129,-38.801517486572266,-0.2338550388813019,-0.015179187059402466,0.044465065002441406,987.940673828125,0,13.0,1,1
12.2,0.088748634,-0.16305287,9.7604885,0.00038194545777514577,-0.0009173147846013306,0.00010279327398166059,-12.08769989013672,25.313337326049805,-38.52356719970703,-0.23242369294166565,-0.010023847222328186,0.03975963592529297,987.92041015625,0,13.0,1,1
12.24,0.08403227,-0.15113802,9.758127,0.00011562957661226392,0.0002811067679431289,0.00036910921335220337,-11.673639297485352,24.64768028259277,-38.856353759765625,-0.2311815768480301,-0.02428506314754486,0.03977870941162109,987.9635009765624,0,13.0,1,1
12.28,0.0840995,-0.15113969,9.765236,-1.798250013962388e-05,0.0013464438961818814,0.00023575668456032872,-11.744781494140625,24.47589683532715,-39.14328002929688,-0.23549291491508484,-0.0292433500289917,0.04450607299804688,987.9483032226562,0,13.0,1,1
12.32,0.06976515,-0.14875655,9.762869,-0.000817720720078796,0.00041446668910793966,0.000501733913552016,-11.722770690917967,24.654451370239254,-39.003150939941406,-0.215216800570488,-0.019730716943740845,0.03505516052246094,987.95849609375,0,13.0,1,1
12.36,0.07932985,-0.1463734,9.777073,-0.000285137735772878,0.0010802642209455369,0.00036855501821264635,-11.727879524230955,25.018320083618164,-38.86968231201172,-0.22394557297229767,-0.029109641909599308,0.03506946563720703,987.94091796875,0,13.0,1,1
12.4,0.07455516,-0.15352334,9.769971,-0.00041834457078948617,0.0005476404912769794,0.0005016920622438191,-11.742961883544922,25.10951042175293,-38.79571533203125,-0.218267634510994,-0.024484381079673767,0.025610923767089844,987.946044921875,0,13.0,1,1
12.44,0.06978041,-0.13922383,9.765238,-0.00015207770047709346,0.0012134381104260685,-0.000829908240120858,-11.294713973999025,24.634187698364254,-39.60681533813477,-0.222576767206192,-0.02908875048160553,0.04929161071777344,987.9432983398438,0,13.0,1,1
12.48,0.07456529,-0.1606734,9.769972000000001,0.000247347226832062,0.0021455518435686827,0.00010217621456831695,-11.352434158325195,24.263826370239254,-39.19132995605469,-0.21224860846996307,-0.009790629148483276,0.025634765625,987.9711303710938,0,13.0,1,1
12.52,0.088909775,-0.1487572,9.751036000000001,0.0003804563893936575,0.0016129278810694814,0.0009011029032990336,-11.881361961364744,25.03273200988769,-39.00084686279297,-0.22658273577690125,-0.018970191478729248,0.044577598571777344,987.9510498046876,0,13.0,1,1
12.56,0.0674057,-0.15352388,9.753403,0.001046197023242712,0.002278725616633892,0.0005016081850044428,-11.50645923614502,24.646528244018555,-39.42094039916992,-0.2165202647447586,-0.032688021659851074,0.06353282928466797,987.9459228515624,0,13.0,1,1
12.6,0.07936030599999999,-0.14637415,9.772341,0.0009129902464337648,0.0016129439463838935,0.0007679031114093959,-11.209033012390137,25.08307838439941,-39.49231719970703,-0.21098068356513974,-0.03702960908412933,0.03987884521484375,987.9383544921876,0,13.0,1,1
12.64,0.07936537,-0.14875756,9.760506,-1.916411565616727e-05,0.0005476881051436067,0.0005015662754885851,-11.61591911315918,25.01804542541504,-39.27184295654297,-0.2335511893033981,-0.003891527652740479,0.04462814331054688,987.9412841796876,0,13.0,1,1
12.68,0.07698056,-0.13684131,9.755772,-0.00015237095067277548,-0.0007838833262212574,0.000368387351045385,-12.014652252197266,24.59208106994629,-39.33944320678711,-0.21312245726585388,-0.04180330038070679,0.04938411712646485,987.9765014648438,0,13.0,1,1
12.72,0.08415532,-0.15352435,9.755772,-0.00015242007793858647,-0.0002512436476536095,-0.0001642653369344771,-11.794456481933596,24.85095405578613,-39.38852310180664,-0.2167581468820572,-0.013315334916114807,0.03992938995361328,987.9031982421876,0,13.0,1,1
12.76,0.08416039,-0.15352444,9.765242,-0.0008182585588656366,0.0005477118538692594,0.00010202958947047591,-12.215445518493652,25.24686622619629,-39.26983642578125,-0.21533156931400302,-0.018348947167396545,0.04941272735595703,987.92333984375,0,13.0,1,1
12.8,0.09133518,-0.16544096,9.753405,-0.001084623159840703,-0.0007838596357032658,0.0005014825146645309,-11.944052696228027,25.132158279418945,-39.150970458984375,-0.247701495885849,-0.013503342866897585,0.04942893981933594,987.9158935546876,0,13.0,1,1
12.84,0.07461095,-0.1344585,9.767610000000001,-0.0004188825259916485,0.0008140435675159098,0.000634619384072721,-11.619942665100098,24.64533424377441,-38.94147491455078,-0.2130952626466751,-0.032860875129699714,0.05890846252441406,987.9234619140624,0,13.0,1,1
12.88,0.086565495,-0.14160843,9.758141,-0.00041893153684213763,-0.0006506857462227345,0.001034072251059115,-11.89850902557373,25.490732192993164,-38.948020935058594,-0.2117987275123596,-0.028010040521621704,0.03525543212890625,987.9234619140624,0,13.0,1,1
12.92,0.09613022,-0.15352495,9.772345,-0.00028582237428054214,0.0006809014594182372,-0.000430686108302325,-11.735895156860352,25.48516273498535,-39.28069305419922,-0.22499904036521912,-0.02331152558326721,0.04000282287597656,987.93115234375,0,13.0,1,1
12.96,0.08657569,-0.15352513,9.769978,-0.0009516608552075921,-0.0007838278543204068,0.0007677145185880362,-11.677088737487793,25.11894416809082,-39.49927520751953,-0.22337736189365387,-0.009171009063720705,0.035286903381347656,987.9285888671876,0,13.0,1,1
13.0,0.074631244,-0.1463754,9.762876499999999,0.00011350464774295689,0.0002814515901263803,0.00010188284795731306,-11.33248805999756,24.8091983795166,-39.07234573364258,-0.19799600541591644,-0.018498197197914124,0.035309791564941406,987.93115234375,0,13.0,1,1
13.04,0.08419591,-0.15114208,9.762876499999999,0.00011350464774295689,0.0002814515901263803,0.00010188284795731306,-11.33248805999756,24.8091983795166,-39.07234573364258,-0.2163578569889069,-0.00894591212272644,0.035320281982421875,987.93115234375,0,13.0,1,1
13.08,0.08420098,-0.13684256,9.78655,-0.0005523339495994152,1.5143683413043618e-05,0.00036817774525843566,-11.426865577697756,25.08952522277832,-38.99721908569336,-0.20603643357753754,-0.03772632777690888,0.02112293243408203,987.94384765625,0,13.0,1,1
13.12,0.07703635,-0.14875902,9.765245,-0.0005523339495994152,1.5143683413043618e-05,0.00036817774525843566,-11.936580657958984,25.033605575561523,-38.838417053222656,-0.2010648399591446,-0.018629983067512512,0.0305938720703125,987.94384765625,0,13.0,1,1
13.16,0.079431355,-0.15829225,9.765245,-0.0008186986087821424,0.0016130468575283885,0.0009007885819301008,-11.472952842712402,25.0992374420166,-39.29862594604492,-0.20007647573947904,-0.009050309658050535,0.05901336669921875,987.9338989257812,0,13.0,1,1
13.2,0.08421621,-0.14875926,9.784183500000001,0.0002465160214342177,0.0020125287119299173,0.0002349779824726284,-11.74100399017334,25.849035263061523,-39.14722442626953,-0.2130918800830841,-0.027873843908309937,0.03536224365234375,987.948974609375,0,13.0,1,1
13.24,0.08903298,-0.15352671,9.784187,2.642173785716295e-05,-0.0006418533157557249,0.0001677736290730536,-11.731466293334961,25.3836612701416,-38.81352233886719,-0.21748608350753784,-0.017965421080589294,0.02590179443359375,987.9390258789062,0,13.0,1,1
13.28,0.06514037,-0.12969412,9.774719000000001,0.00015953066758811474,0.00029026030097156763,-0.0006311950273811817,-12.045061111450195,25.774885177612305,-38.86507415771485,-0.1845388114452362,-0.04088355600833893,0.02117633819580078,987.9593505859376,0,13.0,1,1
13.32,0.0699265,-0.14399396,9.79129,0.0013576747151091695,0.003352937987074256,0.0005671075196005403,-12.173786163330078,25.33864784240723,-39.43559265136719,-0.1802096664905548,-0.011603385210037231,0.006978034973144531,987.9463500976562,0,13.0,1,1
13.36,0.062763155,-0.14161082,9.765251,0.001623854273930192,0.0040187500417232505,-0.000631372444331646,-11.891878128051758,25.12833595275879,-39.158790588378906,-0.20911753177642825,-0.02497027814388275,0.02592945098876953,987.9339599609376,0,13.0,1,1
13.4,0.09144831,-0.1511441,9.760517,0.001890108804218471,0.00335297011770308,-0.0004982406971976161,-11.315884590148926,24.719484329223636,-39.22362518310547,-0.247648760676384,-0.023858249187469482,-0.011931419372558594,987.9619140625,0,13.0,1,1
13.44,0.05082631,-0.15352757,9.777088000000001,0.002289521507918835,0.004018769599497318,3.436492988839745e-05,-11.145255088806152,24.247072219848636,-39.14529037475586,-0.19466125965118408,-0.02323228120803833,0.0212249755859375,987.9514770507812,0,13.0,1,1
13.48,0.08190137,-0.12969489999999997,9.765253,0.002555776387453079,0.0024208843242377047,3.433867823332548e-05,-11.457327842712402,24.639760971069336,-39.274147033691406,-0.20789018273353574,-0.03260420262813568,0.02597618103027344,987.9415893554688,0,13.0,1,1
13.52,0.08429760000000001,-0.15352787,9.769988,2.5653396733105186e-05,2.406112616881728e-05,3.428629133850336e-05,-11.43683910369873,24.81683921813965,-39.05671310424805,-0.21650901436805725,-0.003760784864425659,0.03545951843261719,987.9465942382812,0,13.0,1,1
13.56,0.06996453,-0.1368451,9.758153,0.00042506598401814705,0.00042354501783847814,3.426021430641413e-05,-11.299280166625975,24.629770278930664,-39.374900817871094,-0.18682312965393064,-0.03674285113811493,0.05441665649414063,987.94677734375,0,13.0,1,1
13.6,0.06519106,-0.1463783,9.767622,0.0004250049823895097,-0.00024223478976637125,0.00030054978560656315,-11.390070915222168,24.54475212097168,-39.355934143066406,-0.18534713983535767,-0.00789344310760498,0.04970359802246094,987.9440307617188,0,13.0,1,1
13.64,0.06519741,-0.14637847,9.765255,0.0008244176860898732,-0.001706962240859866,-0.0003652659943327308,-11.595429420471193,25.19512367248535,-39.05440902709961,-0.17452964186668396,-0.0315442830324173,0.026048660278320312,987.9369506835938,0,13.0,1,1
13.68,0.06520373,-0.15114523,9.765257,0.00015856686513870957,2.410094020888209e-05,-0.0004984502447769046,-11.51406955718994,24.639162063598636,-39.03441619873047,-0.19252952933311465,-0.002911567687988281,0.04026699066162109,987.9264526367188,0,13.0,1,1
13.72,0.062820196,-0.13684566,9.769991000000001,-0.0006404417799785732,-0.00010904716327786447,-0.00023216044064611202,-11.154494285583496,25.34457588195801,-39.054115295410156,-0.1867564618587494,-0.03128993511199951,0.04028129577636719,987.9544067382812,0,13.0,1,1
13.76,0.060436606,-0.14637889,9.753422,2.5286688469350335e-05,0.0004235946107655764,0.0004336030106060207,-11.424938201904295,24.61679267883301,-38.277000427246094,-0.17147403955459595,-0.02631339430809021,0.05923366546630859,987.951904296875,0,13.0,1,1
13.8,0.081952065,-0.15591218,9.760523,0.0008241733303293586,-0.00010902731446549295,0.0005667348159477116,-11.160038948059082,24.97039222717285,-38.646446228027344,-0.18864363431930545,-0.006911307573318482,0.040322303771972656,987.9520874023438,0,13.0,1,1
13.84,0.07000893,-0.13684614,9.758157,0.00029148044995963573,-0.001041123061440885,0.00030039274133741856,-11.620622634887695,24.90770530700684,-38.34085083007813,-0.17864415049552915,-0.0258224606513977,0.04979896545410156,987.9520263671876,0,13.0,1,1
13.88,0.065235436,-0.12969644,9.767626,0.00042457727249711747,0.00042362441308796406,3.4050666727125645e-05,-11.59945297241211,24.82241249084473,-38.72404479980469,-0.17297375202178955,-0.03970727324485779,0.040348052978515625,987.9520263671876,0,13.0,1,1
13.92,0.07241154,-0.15114613,9.765260000000001,0.00042451627086848015,-0.000508471333887428,0.00030034038354642684,-11.174440383911133,24.799203872680664,-39.173099517822266,-0.18587669730186465,-0.010824993252754213,0.04036712646484375,987.95458984375,0,13.0,1,1
13.96,0.07002801,-0.1416132,9.767628,0.00042445480357855564,0.00015732832252979279,-0.0003654755419120193,-11.325858116149902,24.44680213928223,-39.283111572265625,-0.18036192655563354,-0.029707178473472595,0.05458259582519531,987.9323120117188,0,13.0,1,1
14.0,0.07720402,-0.14876314,9.75816,-0.0002413963666185737,-0.0005084514268673956,3.397191176190972e-05,-11.217185020446776,25.444002151489254,-39.20424270629883,-0.1793166995048523,-0.010667756199836731,0.04985809326171875,987.9393310546876,0,13.0,1,1
14.04,0.07004064,-0.12493051599999999,9.760527,0.0005574900424107909,-0.00010896770982071756,-0.0006318440428003669,-11.070770263671877,25.05393409729004,-38.58810806274414,-0.18776042759418488,-0.043696120381355286,0.04987525939941406,987.962158203125,0,13.0,1,1
14.08,0.07004699,-0.13446383,9.777097999999999,0.0004242711002007127,0.00015735800843685865,-0.0006318701198324561,-11.068567276000977,24.79303550720215,-39.26603698730469,-0.17719689011573792,-0.024298399686813358,0.007282257080078125,987.959716796875,0,13.0,1,1
14.12,0.062883645,-0.14876364,9.774731,-0.00010842178016901016,0.00015736802015453577,0.00016705121379345655,-11.665432929992676,25.919321060180664,-38.39313888549805,-0.1810375452041626,-0.014625579118728638,0.03570079803466797,987.9345092773438,0,13.0,1,1
14.16,0.072449565,-0.14876379,9.755794999999999,-0.0003747987793758512,0.00015737791545689106,-0.001031396328471601,-11.918700218200685,25.94579124450684,-38.74058532714844,-0.18010303378105166,-0.02415229380130768,0.059382438659667976,987.9500732421876,0,13.0,1,1
14.2,0.06762892,-0.13446312,9.765259,0.000557245803065598,0.0004237036919221282,-0.00023247499484568837,-11.327080726623535,25.07746315002441,-38.78093719482422,-0.17435427010059354,-0.024014130234718326,0.04045772552490234,987.9320068359376,0,13.0,1,1
14.24,0.06519532,-0.14161189,9.760521,0.00029098184313625097,-0.00024209450930356982,-0.0004987685242667794,-11.61064910888672,25.18039131164551,-38.28135681152344,-0.1587965190410614,-0.019152402877807617,0.04994773864746094,987.9297485351562,0,13.0,1,1
14.28,0.07475746,-0.13922866,9.76999,-0.000906687811948359,-0.00130747992079705,-0.00023213063832372427,-11.970332145690918,25.58132362365723,-38.634315490722656,-0.1767202913761139,-0.023672252893447883,0.026291847229003903,987.9323120117188,0,13.0,1,1
14.32,0.08431959,-0.15352839999999998,9.765255999999999,0.0005580248543992639,0.000689893146045506,-9.898300049826504e-05,-10.913265228271484,25.41223335266113,-38.78731155395508,-0.19014972448349,0.0002337247133255005,0.04523944854736328,987.91455078125,0,13.0,1,1
14.36,0.062813014,-0.1439953,9.772358,0.0005580005235970019,0.0001572653418406844,-9.899353608489035e-05,-11.391294479370115,25.17541694641113,-38.853759765625,-0.17016106843948364,-0.02785806357860565,0.035788536071777344,987.9348754882812,0,13.0,1,1
14.4,0.06281555,-0.15114523,9.774725,0.00042481825221329933,-0.000641678343527019,-0.0004984778352081777,-11.625051498413086,25.00920295715332,-38.808013916015625,-0.15464003384113312,-0.008844554424285889,0.04053306579589844,987.9323120117188,0,13.0,1,1
14.44,0.07476759,-0.1368456,9.77946,0.00042481825221329933,-0.000641678343527019,-0.0004984778352081777,-11.273926734924315,25.443403244018555,-38.96450805664063,-0.16814972460269928,-0.02784012258052826,0.016870498657226562,987.9323120117188,0,13.0,1,1
14.48,0.058040857,-0.14399548,9.758155,-0.0002409961307421326,-0.0001090426230803132,-0.000498488312587142,-11.603720664978027,25.45012855529785,-38.06725311279297,-0.1622655689716339,-0.008943691849708555,0.04055023193359375,987.9398803710938,0,13.0,1,1
14.52,0.07477265599999999,-0.15114541,9.779459,-0.00037417828571051365,0.0005567511543631554,3.413297235965729e-05,-11.829974174499512,26.39762687683105,-38.78069305419922,-0.16119834780693054,0.000885009765625,0.02162933349609375,987.9119873046876,0,13.0,1,1
14.56,0.067605495,-0.14876218,9.758156,-0.0002410447923466563,-0.0011742982314899564,-0.0002321932697668672,-11.486651420593262,25.085981369018555,-38.60287857055664,-0.14557865262031555,-0.0039099156856536865,0.0689840316772461,987.9500732421876,0,13.0,1,1
14.6,0.072387874,-0.14399566,9.779461,0.00029156228993088007,-0.0005085045122541487,-9.904586477205156e-05,-11.296619415283205,25.52722358703613,-38.50401306152344,-0.16311322152614596,-0.0276983380317688,0.02639007568359375,987.9348754882812,0,13.0,1,1
14.64,0.055661023,-0.14637907,9.767625,2.5222310796380043e-05,-0.0010411323746666312,3.410154022276401e-05,-11.768559455871582,25.296297073364254,-38.87968063354492,-0.15255534648895264,-0.008790090680122375,0.035866737365722656,987.927490234375,0,13.0,1,1
14.68,0.055663645,-0.13446273,9.777094,-0.0006405921885743737,-0.0009079703595489264,-0.00023222476011142135,-11.54477596282959,25.189828872680664,-38.98492050170898,-0.1420479714870453,-0.03710739314556122,0.031145095825195312,987.924560546875,0,13.0,1,1
14.72,0.060445964000000005,-0.14876248,9.769993,0.00015833100769668818,-0.0007748085190542043,-0.0007648670580238104,-11.537847518920898,25.45956611633301,-38.77082061767578,-0.15542562305927274,-0.02263607084751129,0.04535865783691406,987.9297485351562,0,13.0,1,1
14.76,0.0700081,-0.13922937,9.767626,0.00015830679330974817,2.414314076304436e-05,-0.00023224577307701108,-10.930167198181152,24.869813919067386,-39.06090545654297,-0.16401523351669312,-0.017435073852539062,0.04064083099365234,987.9198608398438,0,13.0,1,1
14.8,0.067620754,-0.13446297,9.755789,0.0005577559350058436,-0.0002421688404865563,-0.0006317300722002982,-11.429367065429688,24.71828651428223,-38.7441635131836,-0.15804174542427066,-0.03610940277576447,0.05486202239990234,987.9398803710938,0,13.0,1,1
14.84,0.06762326,-0.1487626,9.762891999999999,0.0002914157230407,-0.00024216482415795326,-0.0012975302524864676,-11.562902450561525,25.27806282043457,-38.7563362121582,-0.15696746110916138,-0.016677632927894592,0.04067325592041016,987.9221801757812,0,13.0,1,1
14.88,0.06523591,-0.13922961,9.767627000000001,0.00042452465277165164,-0.0005084727890789509,-0.00036544568138197054,-11.552791595458984,25.65667152404785,-39.39592742919922,-0.14631348848342896,-0.011905044317245485,0.04068183898925781,987.940185546875,0,13.0,1,1
14.92,0.06284857,-0.14876272,9.760525,0.0002913424978032708,-0.0011742585338652134,0.0005666494835168122,-11.466567039489744,25.737268447875977,-39.18297576904297,-0.149714857339859,-0.006708577275276184,0.0501699447631836,987.945068359375,0,13.0,1,1
14.96,0.07241064,-0.1463796,9.767626,0.00015815987717360258,-0.0010410966351628306,-0.0006317824590951204,-11.30300521850586,24.88920021057129,-38.61966323852539,-0.15832561254501346,-0.011444777250289915,0.05491447448730469,987.9475708007812,0,13.0,1,1
15.0,0.072413206,-0.13684649999999998,9.760525,-0.00024133850820362568,2.4170905817300078e-05,0.0001671546488068998,-11.13538932800293,25.62609672546387,-39.458457946777344,-0.15280425548553467,-0.020970836281776428,0.04545021057128906,987.9172973632812,0,13.0,1,1
15.04,0.06763595,-0.14876299,9.762893,0.0001581110991537571,0.0004236487438902259,0.0006997759337536992,-10.909135818481444,24.67860221862793,-38.74502182006836,-0.14728474617004395,-0.011432453989982605,0.03598785400390625,987.9100952148438,0,13.0,1,1
15.08,0.06524855,-0.14399649,9.765261,0.00029124447610229254,0.0004236525855958462,0.0003002916637342423,-10.92918872833252,25.23957633972168,-39.23666000366211,-0.14635314047336578,-0.02044375240802765,0.031269073486328125,987.9326171875,0,13.0,1,1
15.12,0.060471295999999994,-0.13208015,9.765261,0.00015806208830326796,-0.0006416068645194173,0.00030028115725144744,-11.615621566772461,25.65017890930176,-38.84697341918945,-0.14051075279712674,-0.024997606873512268,0.05495452880859375,987.9176025390624,0,13.0,1,1
15.16,0.07242334,-0.13923003,9.760527,0.000291195698082447,-0.0007747609051875769,-0.0010313085513189435,-11.77464771270752,25.29040718078613,-38.57046508789063,-0.1583399921655655,-0.02460773289203644,0.050235748291015625,987.917724609375,0,13.0,1,1
15.2,0.057738304000000004,-0.15352120000000002,9.762862,0.0008238028967753053,0.0001573486952111125,3.394432133063674e-05,-11.523307800292967,25.73666572570801,-38.94324493408203,-0.14299136400222778,-0.0007523298263549805,0.03606891632080078,987.9376220703124,0,13.0,1,1
15.24,0.08401579,-0.13207142,9.758125999999999,0.00042597856372594833,-0.000641866703517735,-0.0004979805089533329,-11.120445251464844,25.42899513244629,-38.833351135253906,-0.16589666903018951,-0.033987879753112786,0.04554939270019531,987.9227905273438,0,13.0,1,1
15.28,0.07205486,-0.1511374,9.772329,0.00016141275409609082,-0.0007753088138997555,3.5401317290961736e-05,-11.60676383972168,25.44718360900879,-37.91264343261719,-0.1505800485610962,-0.000559881329536438,0.02188587188720703,987.930419921875,0,13.0,1,1
15.32,0.07204348,-0.14398728,9.769960000000001,-0.0002379509387537837,-0.00037585280369967217,-0.0004971834132447839,-11.343141555786133,24.79888343811035,-38.531211853027344,-0.15895964205265045,-0.01952272653579712,0.05503940582275391,987.927490234375,0,13.0,1,1
15.36,0.06486231,-0.14398696,9.772327,-0.0005041568074375392,0.00015676114708185196,0.00030181152396835387,-11.574832916259766,24.26585578918457,-38.464317321777344,-0.13917435705661774,-0.029041856527328488,0.05031108856201172,987.9351196289062,0,13.0,1,1
15.4,0.06485093,-0.14160348,9.758122,0.0004280589055269957,0.00028990115970373154,3.554282011464238e-05,-11.175801277160645,25.32395362854004,-37.97184753417969,-0.13844060897827148,-0.014480635523796082,0.04558658599853516,987.9202880859376,0,13.0,1,1
15.44,0.074399084,-0.13921984,9.774692,-0.00023762078490108246,-0.0001095905900001526,-9.756803046911956e-05,-11.053868293762207,25.59636116027832,-38.31451416015625,-0.1474570631980896,-0.014642193913459778,0.021918296813964844,987.9273071289062,0,13.0,1,1
15.48,0.07199776,-0.15113597,9.772324000000001,0.00042827904690057034,0.00028986530378460884,-9.75207658484578e-05,-11.130960464477539,25.524599075317386,-38.99128723144531,-0.1466238796710968,-0.018909230828285217,0.03613567352294922,987.9025268554688,0,13.0,1,1
15.52,0.064816654,-0.15351902,9.777057000000001,0.00029523111879825587,-0.00010962621308863164,-9.74736176431179e-05,-11.629616737365724,25.00478553771973,-38.57609558105469,-0.12642870843410492,-0.009566590189933777,0.03140735626220703,987.9151000976562,0,13.0,1,1
15.56,0.06480521,-0.14636885,9.779423,-0.00010413257405161858,-0.0011749076656997206,0.00030204738141037524,-11.29898166656494,25.261903762817386,-38.95003128051758,-0.14425329864025116,-0.014177635312080385,0.021951675415039062,987.9354248046876,0,13.0,1,1
15.6,0.0576241,-0.14875187,9.760484,0.0006949250819161534,-0.0001096620108000934,3.577867755666375e-05,-11.313222885131836,25.6169376373291,-38.35273742675781,-0.11986937373876573,-0.004600301384925842,0.059832572937011726,987.9354248046876,0,13.0,1,1
15.64,0.062392473,-0.13683520000000002,9.774687,-0.0005033863708376883,2.3477943614125252e-05,-9.733217302709818e-05,-11.18052864074707,24.79331398010254,-38.86387634277344,-0.1284208595752716,-0.028410390019416813,0.02196502685546875,987.93798828125,0,13.0,1,1
15.68,0.07194066,-0.14398469,9.769950999999999,-0.0011690659448504448,-0.00010969775030389428,-0.00023044290719553828,-11.366238594055176,25.35691261291504,-38.86824035644531,-0.1372169852256775,-0.005045264959335327,0.04563522338867188,987.9202880859376,0,13.0,1,1
15.72,0.05758983,-0.15590085,9.774685,-0.0009026400512084364,-0.0005091894418001175,3.592018038034439e-05,-10.903154373168944,25.790834426879886,-39.42689514160156,-0.11726217716932295,-0.005094856023788452,0.03143787384033203,987.917724609375,0,13.0,1,1
15.76,0.057578444000000006,-0.14636749999999998,9.765215,-0.0009026400512084364,-0.0005091894418001175,3.592018038034439e-05,-11.491621971130373,25.55577278137207,-39.168495178222656,-0.12622135877609253,-0.01456338167190552,0.04564762115478516,987.917724609375,0,13.0,1,1
15.8,0.074296355,-0.15113373,9.760479,0.0003320183604955673,8.032622281461954e-05,0.00045757845509797335,-11.350614547729492,24.89743995666504,-38.84376525878906,-0.13518574833869934,-0.009665533900260924,0.04092121124267578,987.9202880859376,0,13.0,1,1
15.84,0.062335372,-0.13683383,9.769947,-6.734533235430716e-05,8.030835306271909e-05,-0.00034132192377001047,-11.559858322143555,25.281015396118164,-38.91094970703125,-0.1345253437757492,-0.014566302299499512,0.045658111572265625,987.9125366210938,0,13.0,1,1
15.88,0.064713895,-0.14636661,9.765211,-0.0003335513174533844,0.0008792381267994642,0.000723988632671535,-11.54782009124756,25.186880111694336,-38.83030700683594,-0.1243496835231781,-0.00956234335899353,0.04566669464111328,987.9273071289062,0,13.0,1,1
15.92,0.06470245,-0.14874963,9.772312,0.00019919045735150576,-5.28853852301836e-05,0.0001914040767587721,-11.316427230834961,25.087778091430664,-39.32207489013672,-0.13333576917648315,-0.009524449706077577,0.04093837738037109,987.9278564453124,0,13.0,1,1
15.96,0.05991125,-0.1487494,9.772310000000001,-0.00020017311908304689,0.00021341262618079784,0.0003246092237532139,-11.5574951171875,25.546335220336914,-38.46493148803711,-0.1181723326444626,-0.00923733413219452,0.04094982147216797,987.9247436523438,0,13.0,1,1
16.0,0.074239254,-0.13444938,9.767575,0.000732042477466166,0.0007460265187546611,0.0004578143125399947,-11.581028938293455,25.36631202697754,-38.52775573730469,-0.14662867784500122,-0.018508896231651303,0.04568958282470703,987.945068359375,0,13.0,1,1
16.04,0.055108607000000004,-0.14398225,9.772308,6.636278703808784e-05,0.00034653488546609884,-0.0002079283003695309,-11.930194854736328,25.671632766723636,-38.72277069091797,-0.11266566812992095,-0.008903488516807556,0.03622627258300781,987.9406127929688,0,13.0,1,1
16.08,0.05987698,-0.1392154,9.760471,0.0005991046782582997,0.001012306660413742,-0.0002078810939565301,-11.634725570678713,25.368661880493164,-38.44263458251953,-0.1167917251586914,-0.018257573246955868,0.05990695953369141,987.93798828125,0,13.0,1,1
16.12,0.069425166,-0.15351476,9.762838,0.00019974075257778168,-0.0005856064381077887,-7.467600516974926e-05,-11.51833724975586,25.266881942749023,-38.37763214111328,-0.13953182101249695,0.0006674826145172119,0.04570865631103516,987.9202880859376,0,13.0,1,1
16.16,0.064946055,-0.14875560000000002,9.7676,-0.0004659389378502965,0.00021332339383661747,-7.462879875674844e-05,-11.122403144836426,24.68947029113769,-38.481842041015625,-0.12468095123767853,-0.013122498989105223,0.03625297546386719,987.9406127929688,0,13.0,1,1
16.2,0.05809608,-0.13684703,9.774731,0.0007327027851715684,8.012959733605385e-05,0.0003249393485020846,-11.49176025390625,25.44985389709473,-38.46941375732422,-0.11965682357549667,-0.017790690064430237,0.036202430725097656,987.9227905273438,0,13.0,1,1
16.24,0.05811006,-0.14399727,9.772364999999999,6.089964881539345e-05,-0.000717841787263751,0.0008549939375370741,-11.311158180236815,25.25012397766113,-38.33158874511719,-0.12333425879478455,-0.007936805486679077,0.03147697448730469,987.9227905273438,0,13.0,1,1
16.28,0.060513914,-0.13923104,9.769999,0.0005933967186138034,-0.00031834610854275525,-7.716927211731672e-05,-11.617142677307127,25.64870643615723,-38.76966857910156,-0.1227252557873726,-0.02680326998233795,0.026749610900878903,987.9354248046876,0,13.0,1,1
16.32,0.07008749,-0.14876445,9.791305,0.0007264203159138559,-0.0001851663109846413,0.00032224683673121035,-11.307433128356935,24.99069404602051,-39.08682632446289,-0.12189307808876038,-0.015961721539497375,0.01257038116455078,987.93798828125,0,13.0,1,1
16.36,0.06771147,-0.15591462,9.777103,0.0012589171528816225,-0.0008509341860190034,-0.0008762322831898928,-11.151044845581056,24.87331581115723,-38.41119766235352,-0.1354680359363556,-0.012156382203102112,0.03623008728027344,987.9862060546876,0,13.0,1,1
16.4,0.06772545,-0.12969892,9.765267999999999,-0.0015375338261947036,0.00021435110829770565,-0.00021050020586699247,-11.083489418029783,25.41044044494629,-38.068115234375,-0.12952369451522827,-0.026285946369171143,0.03623867034912109,987.9780883789062,0,13.0,1,1
16.44,0.06773943,-0.14876552,9.753433,0.00045970105566084396,-0.00031825879705138505,-0.0002105578314512968,-11.22797679901123,25.327775955200195,-37.964027404785156,-0.1338527947664261,-0.007000431418418884,0.05044746398925781,987.8948364257812,0,13.0,1,1
16.48,0.06058368,-0.13208286,9.784208,0.002456935355439782,-0.0009840267011895776,-0.00021061551524326203,-11.696576118469238,25.73193168640137,-38.06943893432617,-0.12802034616470334,-0.02473822236061096,0.02680015563964844,987.9197387695312,0,13.0,1,1
16.52,0.07254714,-0.15591599,9.770006,-0.0004726735642179847,0.00021441653370857241,0.0001888007391244173,-11.506842613220215,25.54104042053223,-38.39544296264648,-0.11805060505867004,0.00725226104259491,0.05992031097412109,988.0059814453124,0,13.0,1,1
16.56,0.058221697999999995,-0.13685013,9.767641000000001,-0.0023370194248855114,0.00021443853620439768,-0.0002107307082042098,-11.50005054473877,25.70486259460449,-37.48226165771485,-0.10828299820423126,-0.02156221866607666,0.04571342468261719,987.9937744140624,0,13.0,1,1
16.6,0.055845677999999996,-0.1440003,9.774742,-0.0003397847758606076,0.0016791976522654295,0.00032184339943341916,-11.65048885345459,25.72221946716309,-37.76803207397461,-0.09351031482219696,-0.002367764711380005,0.0267791748046875,987.841552734375,0,13.0,1,1
16.64,0.07019907,-0.14161737,9.774745,0.0004590285243466497,-5.18338056281209e-05,-0.0006103198975324631,-11.143816947937012,25.775190353393555,-37.77222442626953,-0.12646545469760895,-0.016435086727142334,0.03151798248291016,987.9119873046876,0,13.0,1,1
16.68,0.06065339,-0.14638425,9.774746,0.00019257806707173583,0.00034766190219670534,0.00018857017857953903,-11.452303886413574,25.80253791809082,-37.95724105834961,-0.11195163428783417,-0.006722778081893921,0.045723915100097656,987.9049682617188,0,13.0,1,1
16.72,0.072616875,-0.15591766,9.762911,5.928578320890665e-05,0.0010134732583537698,-7.780332816764712e-05,-11.280152320861815,25.33159446716309,-37.956214904785156,-0.12094969302415848,-0.0018452703952789309,0.05046176910400391,987.907470703125,0,13.0,1,1
16.76,0.06546113,-0.13923515,9.774749,5.915120709687472e-05,0.0007471794961020349,-0.00021101895254105332,-11.53105640411377,25.623388290405273,-37.85763931274414,-0.12067106366157533,-0.02105109393596649,0.03625679016113281,987.9049682617188,0,13.0,1,1
16.8,0.067865014,-0.14161877,9.755811999999999,0.0004584904527291656,0.00034772721119225025,0.0007210290641523898,-11.268795013427734,25.499834060668945,-37.27494812011719,-0.11545460671186447,-0.010957345366477966,0.05046939849853516,987.92529296875,0,13.0,1,1
16.84,0.053539574000000006,-0.14876889,9.772385,0.000990987871773541,0.0007472231518477201,-0.0003442921442911029,-11.23476791381836,25.16395378112793,-38.87721252441406,-0.11006968468427658,-0.01102079451084137,0.022064208984375,987.917724609375,0,13.0,1,1
16.88,0.058333277999999995,-0.14400269,9.770017999999999,-0.0008733578724786639,-5.170272197574377e-05,0.00032143996213562787,-11.224932670593262,25.330720901489254,-38.11863708496094,-0.10476922988891603,-0.010753542184829712,0.036273956298828125,987.9249877929688,1,1.0,2,2
16.92,0.060737133,-0.12970339,9.76055,0.0011238768929615617,0.0007472666911780834,-7.80915142968297e-05,-11.199335098266602,25.143930435180664,-38.03466796875,-0.11421816796064375,-0.024826988577842712,0.05521392822265625,987.9024658203124,1,1.0,2,2
16.96,0.055971265,-0.14162011,9.772388000000001,-0.00034099514596164227,0.0007472884608432652,0.0009871143847703934,-10.980660438537598,25.40132713317871,-38.00644302368164,-0.09929941594600676,-0.034329265356063836,0.031543731689453125,987.9354248046876,1,1.0,2,2
17.0,0.06315496599999999,-0.13685389,9.770021,0.00019150227308273315,-0.0004511111183091998,0.00018810911569744349,-11.04889678955078,25.12657356262207,-37.74889755249024,-0.12221993505954742,-0.019818007946014404,0.02681732177734375,987.9323120117188,1,1.0,2,2
17.04,0.058389097,-0.13447095,9.760553999999999,0.00019136792980134487,-0.0003179313207510859,5.489354953169823e-05,-11.423118591308596,25.250402450561523,-37.92943572998047,-0.10745291411876677,-0.014893174171447754,0.04575729370117188,987.9323120117188,1,1.0,2,2
17.08,0.060792953,-0.14638771,9.765289,5.8075180277228355e-05,0.0006141960620880128,0.0008537835674360393,-11.357084274291992,25.78605842590332,-37.50904083251953,-0.10251237452030182,-0.010061517357826231,0.04575824737548828,987.9373779296876,1,1.0,2,2
17.12,0.06080687,-0.13923822,9.770025,-7.521698717027903e-05,0.0003479020670056343,0.00045425209100358183,-11.733967781066895,25.01242637634277,-38.560462951660156,-0.11614646017551422,-0.00978568196296692,0.02682781219482422,987.9398803710938,1,1.0,2,2
17.16,0.06311563,-0.136853,9.765284,-7.521698717027903e-05,0.0003479020670056343,0.00045425209100358183,-11.474613189697266,24.99184608459473,-38.52224349975586,-0.1055789664387703,-0.01940248906612396,0.04103279113769531,987.9398803710938,1,1.0,2,2
17.2,0.13472581,-0.22264881,9.788947,0.0005904380232095717,-0.00031786580802872777,5.472061457112432e-05,-11.302706718444824,25.52133369445801,-38.19479370117188,-0.10877175629138948,-0.02437159419059753,0.02684879302978516,987.9476318359376,1,1.0,2,2
17.24,-0.13293687,-0.42284435,9.862331,-0.0008737529860809445,-0.0005842703394591807,-0.001143466797657311,-11.3421630859375,25.168649673461914,-38.70696640014648,0.1258835345506668,0.042419880628585815,-0.001836776733398437,987.9172973632812,1,1.0,2,2
17.28,0.42869633,-0.3823288,10.828152000000001,-0.004457068163901568,-0.0021442309953272343,-0.12487100809812544,-11.350751876831055,24.79152107238769,-38.14468383789063,-0.13311782479286194,0.27652692794799805,-0.6993865966796875,987.9323120117188,1,1.0,2,2
17.32,0.58165646,-0.5420086,9.14507,-0.12057086825370787,-0.05341002717614174,-0.3974453508853912,-12.109413146972654,25.766923904418945,-38.23882293701172,-0.7205628156661987,0.8508225679397583,2.559620857238769,987.8486328125,1,1.0,2,2
17.36,-0.46033442,-0.22026612,10.020936,-0.3048615157604217,0.1798827052116394,-0.17240844666957855,-11.733370780944824,26.276700973510746,-37.71072387695313,1.0122640132904053,-1.3198301792144775,-0.7179059982299805,987.83837890625,1,1.0,2,2
17.4,0.6868248,-1.1020794,9.7132,-0.8742449879646301,-0.20640850067138672,0.22733165323734286,-12.048327445983887,27.19266700744629,-36.56101989746094,-0.7847517728805542,-0.1121751070022583,0.2549629211425781,987.8329467773438,1,1.0,2,2
17.44,-0.73038065,-1.7121987,9.597208,-1.1287097930908203,-0.004940506536513567,-0.13871954381465912,-11.65410614013672,29.246774673461914,-35.510215759277344,0.6157678365707397,-0.1951079368591309,-0.13094329833984375,987.8281860351562,1,1.0,2,2
17.48,-0.0014542341,-2.1793213,9.594841,-1.0545408725738523,0.07082636654376984,-0.4039701819419861,-12.415106773376465,30.377153396606445,-34.227340698242195,0.01958253048360348,0.02622652053833008,0.4241533279418945,987.894287109375,1,1.0,2,2
17.52,-0.12094298,-2.2269871,9.7155695,-1.1771793365478516,0.08853638172149657,-0.3801349699497223,-12.73767375946045,31.285757064819336,-32.691116333007805,-0.12334433943033217,-0.2986319065093994,-0.3279695510864258,987.9476318359376,1,1.0,2,2
17.56,-0.4411835,-2.2126875,9.786586,-0.848013162612915,0.4263581037521362,-0.2776033878326416,-12.491419792175293,32.516189575195305,-31.10740852355957,0.2430780827999115,-0.924625277519226,-0.7692098617553711,987.9498901367188,1,1.0,2,2
17.6,-0.09225151,-3.8952823,6.3683467,-0.7069989442825317,0.870306670665741,-0.640192449092865,-12.455007553100586,32.865928649902344,-30.440622329711914,-0.5602189898490906,0.8097364902496338,2.625172615051269,987.954833984375,1,1.0,2,2
17.64,-0.3407949,-3.5282576,9.729774,-0.9251116514205932,0.07162532955408096,-0.5617625117301941,-13.702733039855955,34.48870849609375,-29.03457069396973,0.6499753594398499,-0.5326497554779053,2.047046184539795,988.0028076171876,1,1.0,2,2
17.68,1.1720194,-3.7332196000000004,9.57354,-0.5353584885597229,-1.154226779937744,-0.6656256914138794,-16.187339782714847,35.111587524414055,-27.84132575988769,-1.1793304681777954,-0.15000057220458984,-1.2330789566040041,987.9729614257812,1,1.0,2,2
17.72,-0.025315166,-4.1479106,8.195828,-0.9874297380447388,0.6613819003105164,-0.6302056908607483,-15.913042068481445,34.893905639648445,-27.17799568176269,-0.11145393550395966,-0.02007150650024414,0.6825847625732422,987.9598999023438,1,1.0,2,2
17.76,0.10852569,-4.426754,8.588785000000001,-0.985698699951172,-0.005739366170018911,0.006289215758442879,-16.17527961730957,35.43775939941406,-25.93766212463379,-0.06384102255105972,0.07291841506958008,0.4234495162963867,987.9369506835938,1,1.0,2,2
17.8,0.14677048,-4.5125519999999995,8.910725,-0.4464091360569,0.03620539605617523,-0.07626873254776001,-16.012611389160153,37.06475067138672,-25.5190372467041,-0.2537350058555603,-0.00928497314453125,-0.21513843536376956,987.9569091796876,1,1.0,2,2
17.84,0.09658885,-4.722281,8.875216499999999,-0.5139203071594238,0.005046446807682514,-0.006493999157100916,-16.30129051208496,37.53155517578125,-24.8859920501709,-0.1105383038520813,-0.07012128829956055,-0.3505411148071289,987.9495239257812,1,1.0,2,2
17.88,0.110934615,-5.0559400000000005,8.387573,-0.8260425329208374,-0.0030761780217289925,0.009484928101301192,-16.67298698425293,38.44691467285156,-23.49655914306641,-0.09666011482477188,-0.09379816055297853,-0.14094066619873047,987.9541625976562,1,1.0,2,2
17.92,0.27823412,-5.594561,7.670312400000001,-1.0996822118759155,-0.0062719592824578285,0.014544904232025146,-16.041454315185547,39.08963012695313,-21.475923538208008,-0.2058374285697937,-0.013802528381347656,0.3706421852111816,987.946533203125,1,1.0,2,2
17.96,-0.008547783,-5.6017113,8.044331,-1.0023438930511477,-0.062331445515155785,0.09270858764648438,-15.948681831359865,40.33448028564453,-20.02337455749512,-0.20009218156337735,-0.13031244277954102,0.11305522918701172,987.9364624023438,1,1.0,2,2
18.0,0.0846647,-5.952053500000001,7.346007000000001,-0.8148574233055115,-0.18563568592071533,0.2638165056705475,-15.332529067993164,40.43623352050781,-18.353635787963867,-0.11116241663694383,-0.08541011810302734,0.1710810661315918,987.956787109375,1,1.0,2,2
18.04,-0.13519992,-5.170338,8.387575,-0.8773086667060852,-0.1235840767621994,0.1720706820487976,-15.566667556762695,41.16453552246094,-17.282390594482422,0.16919514536857605,-0.6981654167175293,-0.4448604583740233,987.9846801757812,1,1.0,2,2
18.08,0.099016786,-6.092667,7.312867599999999,-0.2827584147453308,0.29546400904655457,-0.04044942930340767,-14.677323341369627,41.36489868164063,-16.96925163269043,-0.29443880915641785,-0.6299467086791992,0.006537914276123047,988.0531616210938,1,1.0,2,2
18.12,-0.40763608,-6.2523465,7.577995,0.6706523895263672,1.0829598903656006,-0.3891901075839996,-15.009503364562988,40.685997009277344,-18.34104347229004,-0.4012630879878998,1.1871333122253418,1.0271129608154297,988.0126953125,1,1.0,2,2
18.16,-1.033784,-4.8962617,9.235037,1.4492267370224,1.2648539543151855,-0.1050310879945755,-14.821857452392578,40.44161987304688,-20.51122093200684,0.00022274255752563482,-0.7611269950866699,-0.8708314895629883,987.9534912109376,1,1.0,2,2
18.2,-2.1785407,-5.8638725,8.411251,1.677858829498291,1.5299713611602783,0.03371946886181832,-13.07343292236328,38.55152893066406,-24.13434410095215,0.20198214054107666,1.0136165618896484,-0.7650737762451172,987.9844970703124,1,1.0,2,2
18.24,-1.8319986000000001,-3.0492209999999997,7.6916223,1.783053636550903,2.011070966720581,0.8642255067825317,-10.031278610229492,36.55559539794922,-27.41174507141113,-0.4077422618865967,1.7093956470489502,0.8725104331970215,987.9560546875,1,1.0,2,2
18.28,-2.8070722000000004,-2.8418758,9.334461,1.804891347885132,0.11956238746643065,1.5626387596130369,-7.542129039764403,35.51683807373047,-30.65993309020996,0.35083675384521484,-1.8153326511383057,-0.6300573348999023,987.9357299804688,1,1.0,2,2
18.32,-2.5967689999999997,-3.6164412000000006,9.25871,0.19328081607818606,-0.04075976461172104,-0.10423225164413452,-7.247661590576173,34.423789978027344,-32.027069091796875,0.6948370933532715,0.8288841247558594,0.0645599365234375,987.9715576171876,1,1.0,2,2
18.36,-1.8774178,-2.7227116000000002,9.871814,0.6352319717407227,-1.1295922994613647,0.21747733652591705,-8.32801628112793,33.412429809570305,-32.263320922851555,0.08673763275146484,-0.5553038120269775,-0.8116369247436523,987.996826171875,1,1.0,2,2
18.4,-2.548975,-3.3947964,12.141962,0.4071326553821564,-0.7431678771972656,0.2972390055656433,-9.457611083984377,33.514175415039055,-33.01901626586914,0.7269048690795898,0.4497406482696533,-1.9675655364990237,987.9965209960938,1,1.0,2,2
18.44,-2.580038,-2.9157572,10.9181185,0.4071326553821564,-0.7431678771972656,0.2972390055656433,-9.451958656311037,32.782012939453125,-33.054031372070305,0.4887808561325073,-0.17745280265808105,-2.795109748840332,987.9965209960938,1,1.0,2,2
18.48,-2.964807,-2.67028,9.916792,0.03562193363904953,-0.04968136548995972,0.12573158740997314,-8.681910514831543,33.187118530273445,-33.350364685058594,0.9215054512023926,0.2417242527008057,-1.4476766586303709,988.00927734375,1,1.0,2,2
18.52,-2.5585183999999996,-3.0110886000000003,10.0517235,0.3706472814083099,0.7352847456932068,0.2702079117298126,-7.615328788757324,32.132354736328125,-34.99268341064453,0.5458139181137085,0.4951586723327637,0.15925884246826172,988.0221557617188,1,1.0,2,2
18.56,-3.2229058999999998,-3.8476195,11.145371,0.7124636769294739,-0.03862924128770828,0.2322578877210617,-7.69758415222168,30.791902542114254,-36.28729248046875,1.249426007270813,1.622490406036377,-2.717471122741699,987.95068359375,1,1.0,2,2
18.6,-3.7415092000000003,-3.2232008,9.362867,0.45733296871185297,-0.3873698711395264,0.247171550989151,-7.941719055175781,30.827211380004886,-37.09857177734375,1.5081915855407717,1.162426471710205,0.5525274276733398,987.9278564453124,1,1.0,2,2
18.64,-3.325661,-4.0883307,11.116966,0.3617255389690399,0.2746914029121399,0.4007026255130768,-6.669182777404785,30.3863582611084,-38.19268035888672,1.509984254837036,2.1171998977661133,-1.7994508743286133,988.0115356445312,1,1.0,2,2
18.68,-2.4485613999999996,-2.5177507,9.997278999999999,0.3036686182022095,-0.09655292332172394,0.6225437521934509,-5.927829265594482,29.34274482727051,-39.16966247558594,0.8347599506378174,1.450835943222046,-0.6978282928466797,987.8998413085938,1,1.0,2,2
18.72,-1.8391311999999997,-1.4309758,8.816046,0.8409608602523804,-0.8483627438545227,1.0835365056991575,-5.016688346862793,27.56286811828613,-40.59163665771485,0.2735323905944824,1.1184306144714355,-0.33737659454345703,987.9049072265624,1,1.0,2,2
18.76,-1.6479337,-1.6025722,10.115641,1.250554442405701,-0.6467615962028503,1.4356061220169067,-4.078427314758302,25.59767341613769,-42.0069465637207,0.5899089574813843,0.5486415624618529,1.819486141204834,987.9224853515624,1,1.0,2,2
