Timestamp,Ax,Ay,Az,Gx,Gy,Gz,Mx,My,Mz,LiAx,LiAy,LiAz,P,Value,Type,GroupType,Activities
0.0,0.07503712,-0.15574251,9.762259,0.0002376532065682113,0.001085583702661097,-4.4135667849332094e-05,-13.905345916748047,25.99967765808105,-39.95841979980469,-0.007100671529769898,-0.0018932372331619265,0.06147098541259765,988.0254516601562,0,13.0,1,1
0.04,0.07021039999999999,-0.13667520000000002,9.788292,0.0002376532065682113,0.001085583702661097,-4.4135667849332094e-05,-10.891436576843262,27.292898178100586,-38.34296417236328,1.0284032821655271,1.2353465557098389,-0.08028030395507812,988.0254516601562,0,13.0,1,1
0.08,0.07733321,-0.14144064,9.764616,0.0008951274212449789,-0.00015181401977315545,0.0006290978053584695,-10.997308731079102,27.29907035827637,-38.25003051757813,1.0310306549072266,1.2331900596618652,-0.08925437927246094,987.9795532226562,0,13.0,1,1
0.12,0.07967621,-0.14620598,9.771713,0.0003629481652751565,0.00024758634390309453,-0.00030281394720077515,-10.546698570251463,27.08907127380371,-38.6151123046875,1.019399881362915,1.2210274934768677,-0.10291862487792967,987.9776000976562,0,13.0,1,1
0.16,0.08440906,-0.14382155,9.7835455,9.708432480692863e-05,0.00038067094283178454,0.00023001164663583043,-10.80453109741211,27.11112403869629,-38.73064422607422,1.0074007511138916,1.2230943441390991,-0.1118001937866211,988.0076904296876,0,13.0,1,1
0.2,0.07958233,-0.148587,9.771706,-0.00030193699058145285,0.0013127028942108154,-0.0004355841665528714,-11.403216361999512,27.60379981994629,-38.20531463623047,1.0242819786071775,1.2302836179733276,-0.07813453674316406,988.042724609375,0,13.0,1,1
0.24,0.07714552,-0.15811892,9.771701,0.00036430475302040577,-0.00041842355858534575,9.724139817990364e-05,-11.175410270690918,27.87003517150879,-38.64091491699219,1.0171860456466677,1.2375553846359253,-0.07287788391113281,988.0684814453124,0,13.0,1,1
0.28,0.08187836400000001,-0.14858462,9.762228,0.0007642310811206697,0.0006467664497904481,-0.00016888062236830592,-10.60757064819336,27.822111129760746,-38.41767120361328,1.0101845264434814,1.2300044298171997,-0.07230949401855469,988.0405883789062,0,13.0,1,1
0.32,0.07453349,-0.13666399,9.788252,-3.42644052579999e-05,0.00024721928639337415,0.00023078700178302822,-10.327045440673828,27.71623039245605,-38.76264190673828,1.0177202224731443,1.2034555673599243,-0.11435699462890625,988.02783203125,0,13.0,1,1
0.36,0.07448143,-0.16049542,9.778777,-0.00016666483134031296,-0.00015237746993079782,-3.520422615110874e-05,-10.608953475952148,27.92655372619629,-39.039451599121094,1.0203225612640379,1.229328155517578,-0.09012794494628906,988.0071411132812,0,13.0,1,1
0.4,0.0768193,-0.13904472,9.781139,-0.0002031142357736826,-3.893935354426503e-05,0.00011142549919895828,-10.55319118499756,27.55738639831543,-39.103424072265625,1.0130858421325684,1.207619309425354,-0.08481788635253906,988.0249633789062,0,13.0,1,1
0.44,0.07437733,-0.14381005,9.771666,0.0003300192765891552,0.0008930847398005426,-0.00015467539196833968,-10.970051765441896,27.21966361999512,-38.94244384765625,1.006094455718994,1.2047672271728516,-0.0795125961303711,988.0220947265624,0,13.0,1,1
0.48,0.07432529,-0.14380874,9.785864,-0.0004684267332777381,-0.0004385760403238237,-2.1302548702806234e-05,-10.945133209228516,27.29524803161621,-38.25784301757813,1.0043628215789795,1.1972863674163818,-0.08848094940185547,987.99169921875,0,13.0,1,1
0.52,0.07188335,-0.14619069,9.76929,0.00019786460325121882,-0.0011044472921639679,-0.0006868771160952747,-10.630422592163086,27.37970542907715,-39.08112335205078,1.0021883249282837,1.1948027610778809,-0.08322429656982422,988.0071411132812,0,13.0,1,1
0.56,0.062271684,-0.1485727,9.774018,0.0008641560561954975,-3.9265083614736795e-05,0.00091123313177377,-10.937524795532227,27.30261039733887,-38.64437103271485,1.0139957666397097,1.2107551097869873,-0.0873260498046875,988.0217895507812,0,13.0,1,1
0.6,0.08133882,-0.15095468,9.788217999999999,-0.0008663956541568041,0.000626443128567189,-0.0005532892537303269,-10.83165168762207,27.296445846557614,-38.73731231689453,0.9926265478134156,1.1982455253601074,-0.09147834777832033,988.02197265625,0,13.0,1,1
0.64,0.06455749,-0.13903706,9.781111,-0.0007327361963689327,-0.0008383755921386182,-0.0009525481727905573,-10.743062973022461,27.64235877990723,-38.07833862304688,1.0097408294677734,1.185333013534546,-0.06721019744873047,988.0115356445312,0,13.0,1,1
0.68,0.08362466,-0.15095212,9.783474,-0.0009985504439100623,-0.0004389832029119134,0.00011293040006421506,-10.660181045532227,27.08787727355957,-38.135650634765625,0.9834716916084291,1.1918777227401731,-0.0902872085571289,988.0440063476562,0,13.0,1,1
0.72,0.07162315,-0.15810071,9.781101,-6.594310980290174e-05,0.0002267250674776733,0.0005126192700117826,-10.81809139251709,27.20378303527832,-38.733978271484375,0.9956902861595154,1.1985201835632324,-0.08026409149169922,988.0336303710938,0,13.0,1,1
0.76,0.07157108,-0.1414165,9.766893,0.0003345339791849256,-0.00043922750046476716,-1.9582570530474186e-05,-10.823200225830078,27.56765556335449,-38.60050964355469,0.9933500289916992,1.1814519166946411,-0.07969856262207031,987.9932250976562,0,13.0,1,1
0.8,0.07868877,-0.14856507,9.781092,-6.443820893764496e-05,-0.0005724668735638262,-0.0004188413149677217,-10.853364944458008,27.75002861022949,-38.45256042480469,0.9803407192230223,1.1864147186279297,-0.0740823745727539,988.0081787109376,0,13.0,1,1
0.84,0.07385689,-0.13664736,9.776353,-6.443820893764496e-05,-0.0005724668735638262,-0.0004188413149677217,-10.98537826538086,28.31127738952637,-38.54204559326172,0.9891247153282166,1.170722484588623,-0.0643758773803711,988.0081787109376,0,13.0,1,1
0.88,0.07619473,-0.14141263,9.826058999999999,-6.393669173121451e-05,-0.0012383379507809875,-0.0005517843528650701,-10.997714042663574,27.77327537536621,-39.04755401611328,0.9913405179977416,1.1772388219833374,-0.12531089782714844,988.008544921875,0,13.0,1,1
0.92,0.0665831,-0.14379464,9.762139999999999,0.0003360387636348605,-0.0001731558877509087,-1.8937629647552967e-05,-11.065515518188477,28.2365779876709,-39.06421661376953,0.9890846610069276,1.188690423965454,-0.08214473724365234,988.0361938476562,0,13.0,1,1
0.96,0.07848054,-0.15094323,9.783441,0.00020338245667517185,0.00022623647237196562,-0.00015188060933724046,-10.68618392944336,27.748876571655273,-39.01715087890625,0.9770293831825256,1.190487265586853,-0.10522174835205078,988.0009155273438,0,13.0,1,1
1.0,0.07125875,-0.13664229,9.766865,0.0003370422637090087,-0.0004396347212605178,0.0002478082024026662,-10.801051139831543,27.85212516784668,-39.159461975097656,0.9793704748153688,1.1589096784591677,-0.07149314880371094,988.0361328125,0,13.0,1,1
1.04,0.06881684,-0.13664098,9.778696,-0.00019508798141032457,-0.00017340021440759298,-0.0002846085117198527,-10.834694862365724,27.293493270874023,-38.58269500732422,0.9765121340751648,1.1508591175079346,-0.0897665023803711,988.0238037109376,0,13.0,1,1
1.08,0.080714285,-0.1580892,9.769222000000001,-0.000460902345366776,0.0007586238789372146,-0.0002843934926204384,-10.411341667175293,27.162900924682614,-38.25537109375,0.9645363688468932,1.1667650938034058,-0.07022666931152344,988.0238037109376,0,13.0,1,1
1.12,0.08066228,-0.14140506,9.771585,7.223116699606179e-05,-0.0005730369593948126,0.0005147691117599607,-10.655072212219238,26.7240047454834,-38.26911926269531,0.9673091769218444,1.149592041969299,-0.07916927337646484,988.031005859375,0,13.0,1,1
1.16,0.07822034,-0.15093683,9.788151,0.0008716804441064596,-0.0011057502124458554,0.00011551025090739131,-10.913310050964355,27.22026252746582,-39.18217468261719,0.9553877115249634,1.1513676643371582,-0.0833282470703125,988.0057373046876,0,13.0,1,1
1.2,0.085338,-0.14616902,9.773943,0.00020639225840568545,-0.00030688388505950565,0.0006483569741249084,-11.024834632873537,27.95859718322754,-39.0542221069336,0.947978973388672,1.1483131647109983,-0.06851768493652344,988.0335693359376,0,13.0,1,1
1.24,0.06855664,-0.14140119,9.77157,0.0004732098896056414,9.250844595953822e-05,-0.00041669158963486547,-11.12834358215332,28.230085372924805,-38.51526641845703,0.9647903442382812,1.1262813806533811,-0.044281959533691406,988.0282592773438,0,13.0,1,1
1.28,0.071490526,-0.14379779999999998,9.769254,0.0002073957584798336,-0.0007065206300467253,-0.00041647645412012935,-11.027174949645996,28.11357688903809,-37.677207946777344,0.9661935567855836,1.1516072750091553,-0.07671546936035156,988.005615234375,0,13.0,1,1
1.32,0.07446059599999999,-0.15096186,9.766939,0.00047421327326446766,0.001823398983106017,0.0011816337937489152,-10.721893310546877,27.55706596374512,-38.46153259277344,0.9716609716415404,1.148599624633789,-0.06673049926757812,988.02783203125,0,13.0,1,1
1.36,0.081626534,-0.15811156,9.759836,0.00046746118459850544,0.0004929155693389474,-0.00028599740471690893,-10.649090766906738,27.836240768432614,-38.95099639892578,0.940319299697876,1.1457258462905884,-0.06141853332519531,988.0130004882812,0,13.0,1,1
1.4,0.076842904,-0.14142860000000002,9.785876,0.0007295481627807021,-0.00017218769062310457,0.0001116641506087035,-10.135246276855467,27.15852165222168,-39.0675048828125,0.9374637603759766,1.1326636075973509,-0.07495880126953125,988.048095703125,0,13.0,1,1
1.44,0.07444918,-0.13904520000000004,9.77404,-0.0004688362823799253,9.41222533583641e-05,-0.00015463592717424035,-10.575883865356444,27.641202926635746,-38.642921447753906,0.9541032314300536,1.1244148015975952,-0.05540561676025391,988.020263671875,0,13.0,1,1
1.48,0.06966561,-0.14381166,9.762203,-0.0007034459849819541,-0.0005982173606753348,-0.0004979176446795464,-11.028857231140137,27.58588218688965,-38.723854064941406,0.9562600255012512,1.1208354234695437,-0.05950069427490234,988.0126953125,0,13.0,1,1
1.52,0.06488198,-0.13427846,9.759836,-0.0007034094305709004,-0.00033190741669386625,0.0004342036263551563,-11.243945121765137,26.9631404876709,-38.80824279785156,0.944055199623108,1.1174521446228027,-0.04941272735595703,988.0380249023438,0,13.0,1,1
1.56,0.07204789,-0.15572788,9.774038000000001,-0.00017074088100343943,6.756046786904335e-05,-0.00023157038958743212,-11.10097885131836,27.04433631896973,-38.83502197265625,0.941104531288147,1.132909655570984,-0.0771474838256836,987.9948120117188,0,13.0,1,1
1.6,0.06965417,-0.14857794,9.762202,-3.750971518456936e-05,-0.0004650832270272076,-0.0008973286021500826,-11.348838806152346,27.339075088500977,-38.89105987548828,0.9370357394218444,1.1232340335845947,-0.07149505615234375,988.0049438476562,0,13.0,1,1
1.64,0.07443017,-0.14619456,9.762202,-3.750971518456936e-05,-0.0004650832270272076,-0.0008973286021500826,-11.348838806152346,27.339075088500977,-38.89105987548828,0.930642306804657,1.1118892431259155,-0.042740821838378906,988.0049438476562,0,13.0,1,1
1.68,0.0696466,-0.15334432,9.769304,-0.00017063098493963483,0.00020070053869858384,-0.0006309971213340759,-10.946517944335938,27.39969062805176,-38.879615783691406,0.93739914894104,1.1133358478546145,-0.06579303741455078,988.01513671875,0,13.0,1,1
1.72,0.079202354,-0.14381109,9.766936,0.00022887962404638532,-0.0003319371899124235,0.00016796629643067718,-11.163778305053713,28.250112533569336,-39.35780334472656,0.9202556014060974,1.1051329374313354,-0.06516075134277344,988.0303344726562,0,13.0,1,1
1.76,0.07680869,-0.13189466,9.77167,-0.00017055764328688383,0.0006001625442877412,0.00016798198339529335,-11.174186706542967,27.239370346069336,-39.1430892944336,0.9221401214599608,1.0871913433074951,-0.07397079467773438,988.0301513671876,0,13.0,1,1
1.8,0.08875435599999999,-0.15572728,9.769302,-0.00030367891304194927,-0.0001987911236938089,-0.0006309498567134143,-10.957715034484863,27.757673263549805,-38.436927795410156,0.9096524119377136,1.1172143220901491,-0.04493331909179688,988.0049438476562,0,13.0,1,1
1.84,0.072021276,-0.15811042,9.776403,-3.728957381099463e-05,-0.0003319609386380762,-0.00023144471924752002,-10.760807037353516,26.836091995239254,-38.87525939941406,0.9198328852653505,1.1120589971542358,-0.0676727294921875,988.0176391601562,0,13.0,1,1
1.88,0.06962752,-0.15096058,9.771669000000001,0.00022906286176294086,-0.00019880902254953983,0.00030120284645818174,-11.129621505737305,27.228185653686523,-38.764381408691406,0.9215272665023804,1.0941486358642578,-0.057537078857421875,987.9948120117188,0,13.0,1,1
1.92,0.08157325,-0.14857720000000002,9.776402000000001,0.00022906286176294086,-0.00019880902254953983,0.00030120284645818174,-11.129621505737305,27.228185653686523,-38.764381408691406,0.9006680250167847,1.092274785041809,-0.06664562225341797,987.9948120117188,0,13.0,1,1
1.96,0.08634925,-0.13666071,9.7740345,-0.0007030059350654483,0.0012659223284572365,-0.0003645711112767458,-10.908445358276367,27.856821060180664,-38.989219665527344,0.8933534622192383,1.0745394229888916,-0.0660552978515625,988.0023803710938,0,13.0,1,1
2.0,0.08156562,-0.15572679999999997,9.776402000000001,-3.714312333613634e-05,-0.00033198477467522025,0.000700723787304014,-11.441694259643555,27.62087821960449,-38.89324188232422,0.9033709764480592,1.0883457660675049,-0.07457923889160156,988.0020751953124,0,13.0,1,1
2.04,0.07200226,-0.14857687,9.783503,-3.714312333613634e-05,-0.00033198477467522025,0.000700723787304014,-11.441694259643555,27.62087821960449,-38.89324188232422,0.9064391851425172,1.0770691633224487,-0.06476879119873047,988.0020751953124,0,13.0,1,1
2.08,0.06721863,-0.13189389,9.762198,-0.0011023330735042693,0.0009995826985687015,-9.819248225539924e-05,-10.928935050964355,27.67974281311035,-39.20664978027344,0.9080814123153688,1.0587722063064575,-0.04039859771728516,988.01220703125,0,13.0,1,1
2.12,0.07677442,-0.15572657,9.774033,-0.0003033489920198917,-6.568676326423883e-05,-0.00023133476497605443,-11.07646656036377,27.594125747680664,-38.94795227050781,0.9145605564117432,1.078868389129639,-0.06340312957763672,988.0274047851562,0,13.0,1,1
2.16,0.06482109400000001,-0.14619334,9.776401,-0.0003033489920198917,-6.568676326423883e-05,-0.00023133476497605443,-10.837059020996094,27.02817726135254,-39.028717041015625,0.901637852191925,1.0801223516464231,-0.04852962493896485,988.0274047851562,0,13.0,1,1
2.2,0.07198703,-0.1509598,9.776401,9.616196621209383e-05,0.0013990446459501982,0.00030131288804113865,-10.558055877685547,26.92083168029785,-39.29637908935547,0.9029667973518372,1.0623801946640017,-0.06679821014404297,988.0194702148438,0,13.0,1,1
2.24,0.09110242,-0.15572627,9.771666,9.619828779250385e-05,0.0006000910652801393,0.0003013285459019244,-10.375389099121094,26.354284286499023,-39.13741302490234,0.8664536476135254,1.072898268699646,-0.05193424224853516,987.9741821289062,0,13.0,1,1
2.28,0.057198822,-0.1342658,9.7645235,-0.00030323886312544346,0.0007332429522648454,-9.812950156629086e-05,-10.454385757446287,27.17556190490723,-38.711387634277344,0.9019757509231568,1.0356690883636477,-0.05121994018554688,988.0169067382812,0,13.0,1,1
2.32,0.07390657,-0.14856501,9.778725,-0.0007021497003734112,0.0004668356850743294,0.0005679014138877393,-10.807437896728516,27.214094161987305,-39.27510833740234,0.8747469186782837,1.0510873794555664,-0.05528163909912109,988.02978515625,0,13.0,1,1
2.36,0.071495116,-0.1414146,9.776356,-0.00030595174757763743,0.0008703029016032815,3.82463913410902e-05,-11.031220436096193,27.320566177368164,-39.16987609863281,0.8721082210540771,1.0473618507385254,-0.06414031982421875,988.0143432617188,0,13.0,1,1
2.4,0.07386345,-0.15571378,9.771619,-0.00017258612206205726,-0.0009939419105648994,-9.482260793447496e-05,-11.34731674194336,27.34054756164551,-38.968360900878906,0.8836045861244202,1.0482043027877808,-0.03035259246826172,988.0169067382812,0,13.0,1,1
2.44,0.0642823,-0.15332998,9.776352000000001,-0.0009713258477859199,-0.00019502805662341416,0.00017158236005343497,-10.890755653381348,27.0305233001709,-38.94359588623047,0.8932293057441711,1.0523927211761477,-0.04833221435546875,987.9940185546876,0,13.0,1,1
2.48,0.059480965,-0.14856286,9.76688,9.414536179974677e-05,7.125418051145971e-05,0.00043798726983368397,-10.933937072753906,26.93726921081543,-38.700531005859375,0.8914706707000732,1.0553594827651978,-0.05272865295410156,988.0119018554688,0,13.0,1,1
2.52,0.07140887,-0.15809543,9.778715,0.00022751087090000508,0.0010033261496573687,-0.0004940292565152049,-10.596809387207033,26.726076126098636,-38.58615112304688,0.8690750598907471,1.0373927354812622,-0.05207061767578125,988.0244750976562,0,13.0,1,1
2.56,0.06421763,-0.16047819,9.773978,0.00036087684566155076,0.0008701344486325978,-0.0002276242594234645,-10.822519302368164,27.305280685424805,-39.20114135742188,0.8707821369171143,1.057449460029602,-0.05615997314453125,988.0194702148438,0,13.0,1,1
2.6,0.068975896,-0.1533279,9.766875,-0.0005710210534743965,-0.00046147877583280206,-0.00036069331690669065,-10.59569263458252,27.201749801635746,-39.46098327636719,0.8726043701171875,1.0299187898635864,-0.031864166259765625,988.0369262695312,0,13.0,1,1
2.64,0.06417453,-0.14617749,9.776342,9.49763343669474e-05,-0.00019519662600941961,-0.0007600780809298158,-10.7640962600708,27.83357048034668,-38.39422607421875,0.8649141192436218,1.021418213844299,-0.04544639587402344,987.9965209960938,0,13.0,1,1
2.68,0.07132265,-0.15332682,9.762136,-0.00043744762660935516,-0.00019523032824508849,0.00017211661906912926,-10.87773895263672,27.3061580657959,-39.03871154785156,0.8478443622589111,1.036961793899536,-0.04012870788574219,987.9917602539062,0,13.0,1,1
2.72,0.06652135,-0.15094294,9.781073,0.0007611816399730742,-0.0008610538206994535,-0.0008930580224841832,-10.865700721740724,27.212018966674805,-38.95807647705078,0.8542762398719788,1.03333842754364,-0.07264328002929688,988.0369262695312,0,13.0,1,1
2.76,0.06410986,-0.13425954,9.769233999999999,9.559962200000882e-05,0.00020417603082023558,0.0005717684980481862,-10.608410835266113,27.558259963989254,-38.94099426269531,0.8654994964599609,1.0009694099426272,-0.03413105010986328,988.0015869140624,0,13.0,1,1
2.8,0.06647819,-0.14617534,9.764498,-0.0005699822795577347,-6.217358168214561e-05,0.0005718575557693839,-10.688685417175293,27.37763786315918,-38.76409149169922,0.8482689857482909,1.0117107629775999,-0.028802871704101562,988.0469970703124,0,13.0,1,1
2.84,0.06406677,-0.15094139,9.750292,0.000362330989446491,-0.00046168116386979813,-0.0004933170275762677,-11.025270462036133,27.22054100036621,-38.78001403808594,0.8500121831893921,1.0126336812973022,-0.023436546325683597,988.0194702148438,0,13.0,1,1
2.88,0.071214914,-0.14855759,9.785799,-0.0007027248502708973,-0.0001953990140464157,-0.00075954373460263,-10.555150032043457,26.81786155700684,-38.751914978027344,0.82773756980896,1.0090821981430054,-0.07490348815917969,988.0166015625,0,13.0,1,1
2.92,0.073583245,-0.14855705,9.762125,0.000362746708560735,0.0003371990460436791,-0.00035998097155243164,-10.840645790100098,27.39352226257324,-38.972557067871094,0.8243921995162964,1.0051316022872925,-0.03636360168457031,988.0267944335938,0,13.0,1,1
2.96,0.05922228,-0.14378996,9.773959,-0.00030283554224297404,0.0004703231679741293,0.0007053716108202933,-11.07701015472412,27.96241569519043,-39.04640197753906,0.8452478647232056,0.9777820110321044,-0.04523754119873047,988.0117797851562,0,13.0,1,1
3.0,0.07593006,-0.15093927,9.764486999999999,0.00041894533205777407,-4.2627216316759586e-05,9.768182644620538e-05,-10.83110809326172,26.928152084350586,-38.63885498046875,0.8324075937271118,0.997752845287323,-0.01618480682373047,987.9765014648438,0,13.0,1,1
3.04,0.07112869599999999,-0.14617218,9.764486,-0.0005129524506628512,0.0010226026643067598,0.0004972448805347085,-11.171578407287598,26.504262924194336,-39.02349090576172,0.8244704008102417,0.9797188639640808,-0.02503490447998047,988.0343627929688,0,13.0,1,1
3.08,0.075886905,-0.14855494,9.755015,0.00028620287775993347,-0.00044216850074008107,-3.529788227751851e-05,-11.164649963378906,26.774003982543945,-38.80939483642578,0.8168404102325441,0.980871856212616,-0.033924102783203125,988.0115966796876,0,13.0,1,1
3.12,0.06630579,-0.14378788,9.7644825,2.00947979465127e-05,-0.00057536008534953,-3.520894097164273e-05,-11.353404998779295,27.33465385437012,-38.65914916992188,0.8281598687171936,0.9868115186691284,-0.028600692749023438,988.0117797851562,0,13.0,1,1
3.16,0.0734539,-0.1485539,9.762114,0.0005529343616217375,9.039579890668392e-05,9.803811553865673e-05,-11.047718048095703,26.303937911987305,-38.64593505859375,0.8159803152084351,0.9780446290969848,-0.02801513671875,987.9937133789062,0,13.0,1,1
3.2,0.06865257,-0.15331994,9.764478,-0.0006452794186770916,-0.0011080593103542924,0.0014297065790742636,-10.729801177978516,26.91756248474121,-38.4998779296875,0.822409987449646,0.9837165474891664,-0.017925262451171875,987.9888916015624,0,13.0,1,1
3.24,0.066241115,-0.14855282,9.769211,-0.0003787557361647487,-0.00017598739941604435,-0.0009670473518781363,-11.126875877380373,26.5989933013916,-39.34386444091797,0.8190678954124451,0.9707539677619934,-0.0410003662109375,987.9942626953124,0,13.0,1,1
3.28,0.068609476,-0.1390192,9.766842,0.0002874494530260563,9.026098996400833e-05,0.00036471011117100716,-11.865620613098145,26.90750312805176,-38.24728393554688,0.8190229535102844,0.95072340965271,-0.02587127685546875,987.9992065429688,0,13.0,1,1
3.32,0.073367715,-0.15093501,9.76684,0.0002874494530260563,9.026098996400833e-05,0.00036471011117100716,-11.865620613098145,26.90750312805176,-38.24728393554688,0.8030507564544678,0.97263765335083,-0.02556133270263672,987.9992065429688,0,13.0,1,1
3.36,0.06139663,-0.14616795,9.776306,-0.0005112903891131282,0.0004897010512650013,-0.0004341484163887799,-11.38538932800293,26.88342094421387,-38.8587646484375,0.8190097808837891,0.9641759395599364,-0.02496433258056641,987.9887084960938,0,13.0,1,1
3.4,0.06376499,-0.14616747,9.757366000000001,2.15491745620966e-05,-4.296435508877039e-05,0.0004980461671948434,-10.991083145141602,27.41087913513184,-39.2583236694336,0.8068186640739441,0.9557884931564332,-0.010219573974609377,987.9992065429688,0,13.0,1,1
3.44,0.08764246,-0.14378364,9.783403,-0.0002443512203171849,-0.002573032863438129,-3.44074796885252e-05,-11.16464900970459,26.774003982543945,-38.80939483642578,0.7712022066116333,0.9422742128372192,-0.057037353515625,988.0166015625,0,13.0,1,1
3.48,0.061331958,-0.14139982,9.773933,-0.0002443512203171849,-0.002573032863438129,-3.44074796885252e-05,-11.148588180541992,27.052579879760746,-39.059120178222656,0.8114755749702454,0.9531852006912231,-0.032837867736816406,988.0166015625,0,13.0,1,1
3.52,0.07325989,-0.14616586,9.764462,0.0009542779298499227,-0.0007088553393259645,0.00023199743009172383,-11.502618789672852,26.721349716186523,-39.44709014892578,0.8033028841018677,0.9403748512268066,-0.032263755798339844,987.9993286132812,0,13.0,1,1
3.56,0.06606865,-0.14854856,9.769196,0.0013539596693590286,0.0006226901896297933,9.892851812765002e-05,-10.922304153442383,27.31734275817871,-39.41741943359375,0.7951263189315796,0.9510651230812072,-0.02219676971435547,987.9965209960938,0,13.0,1,1
3.6,0.061267315999999995,-0.14854802,9.776295,2.2587948478758332e-05,0.000888972426764667,-3.4140481147915125e-05,-11.294300079345705,27.60057640075684,-38.452857971191406,0.8065419197082521,0.9282258152961732,-0.03582954406738281,987.9863891601562,0,13.0,1,1
3.64,0.07558513,-0.14616431,9.76919,-0.00024352013133466246,-0.0008421145030297339,-0.0009661570074968039,-11.099456787109377,27.045812606811523,-38.912330627441406,0.7798137068748474,0.933885395526886,-0.02579498291015625,988.009033203125,0,13.0,1,1
3.68,0.0731737,-0.14854698,9.766821,-0.00011015438940376045,-0.00070899014826864,-0.00016712018987163899,-10.98803997039795,27.4138240814209,-39.412933349609375,0.7773609161376953,0.9255471229553224,-0.03475761413574219,987.9788208007812,0,13.0,1,1
3.72,0.07554203,-0.13901342,9.764452,0.0006890010554343463,-0.0016411296091973784,9.928474901244044e-05,-11.561126708984375,27.719709396362305,-38.80363464355469,0.7698464393615723,0.9219207167625428,-0.0342254638671875,987.976318359375,0,13.0,1,1
3.76,0.07074064,-0.13424625,9.783388,0.00015657697804272175,-0.0011085314908996224,-0.0003001000150106848,-11.434626579284668,27.99652671813965,-39.378211975097656,0.7623393535614014,0.903747260570526,-0.03840923309326172,987.9838256835938,0,13.0,1,1
3.8,0.08505851,-0.14616217,9.785753,-0.0006421627476811409,-0.0008422493701800704,-0.00043316889787092805,-11.479628562927244,27.269662857055664,-39.48271179199219,0.7597920894622803,0.914452850818634,-0.04736804962158203,987.9965209960938,0,13.0,1,1
3.84,0.07786727,-0.15331145,9.76918,0.00015699246432632208,-0.0016412307741120458,-0.00029992201598361135,-11.288211822509766,27.60646629333496,-38.76207733154297,0.7525895237922668,0.9153801202774048,-0.013710975646972656,987.996826171875,0,13.0,1,1
3.88,0.08740526400000001,-0.14377783,9.762077,-0.00024227343965321782,-0.0015081064775586126,-0.0005661488394252956,-11.069293022155762,26.863439559936523,-39.06027221679688,0.7548920512199402,0.9067173004150392,-0.022655487060546875,987.9918212890624,0,13.0,1,1
3.92,0.07065445,-0.13901074,9.7833805,-0.0001089076977223158,-0.001907614176161587,-0.00029974390054121614,-10.75167465209961,26.84493064880371,-39.339088439941406,0.7721028327941895,0.8982193470001221,-0.05060291290283203,987.981689453125,0,13.0,1,1
3.96,0.06585312,-0.15092658,9.764441,-0.0003750158939510584,-0.002972911112010479,-0.0006991286645643412,-10.865157127380373,26.843732833862305,-38.859619140625,0.7602300047874451,0.913284420967102,-0.031152725219726562,987.9942626953124,0,13.0,1,1
4.0,0.09451032,-0.13900967,9.771541000000001,-0.0005079660331830382,-0.0017745235236361625,-0.00016640778630971909,-10.976139068603516,27.21377372741699,-38.63322448730469,0.7383102178573608,0.8811172246932983,-0.0211639404296875,987.98388671875,0,13.0,1,1
4.04,0.08014941,-0.1533088,9.771538,0.0004243473522365093,-0.0009756096405908463,-0.00043263478437438607,-11.355224609375,26.70104789733887,-39.00670623779297,0.7450076937675476,0.8963693976402283,-0.03009033203125,987.9992065429688,0,13.0,1,1
4.08,0.08037394,-0.15093102,9.773926,-0.00024123466573655605,-0.0004430115805007517,0.0007658757967874408,-10.725778579711914,27.29027366638184,-38.83024597167969,0.7420516014099121,0.8975322246551514,-0.03433704376220703,988.0067749023438,0,13.0,1,1
4.12,0.07318812599999999,-0.13901426,9.769191000000001,0.0004174677305854857,-0.0008375612087547778,-3.0270603019744158e-05,-11.285604476928713,26.87135887145996,-38.642486572265625,0.7486596107482909,0.8844340443611145,-0.029079437255859375,988.0166015625,0,13.0,1,1
4.16,0.082731605,-0.15808006,9.771556,0.0006827772012911737,-0.00043792411452159286,0.00010245601879432796,-11.359354019165039,27.434682846069336,-39.04900360107422,0.7408771514892578,0.895064115524292,-0.014341354370117188,987.9688720703124,0,13.0,1,1
4.2,0.08032563,-0.15092985,9.757351,-0.00024917261907830834,0.00022784032626077535,-0.00016379315638914704,-11.095571517944336,27.312604904174805,-38.543617248535156,0.7186708450317383,0.8911892175674438,-0.0043182373046875,987.9736938476562,0,13.0,1,1
4.24,0.08986908,-0.15092944,9.769186,-0.00011585972970351577,-0.0007042904035188258,0.000102589197922498,-10.956491470336914,27.12700462341309,-38.939109802246094,0.7302078008651733,0.8731887340545654,-0.02274036407470703,987.9866943359376,0,13.0,1,1
4.28,0.06595397,-0.14854582,9.766817,1.7453625332564116e-05,-0.0003048417856916785,0.00010265590390190482,-10.818090438842773,27.20377922058105,-38.733978271484375,0.7463853359222412,0.8740680813789368,-0.026935577392578125,988.0020751953124,0,13.0,1,1
4.32,0.07549745,-0.15331192,9.773916999999999,-0.0003818647819571197,-0.0008374987519346178,0.0009016700205393137,-11.550067901611328,27.25581169128418,-38.5472412109375,0.7438107132911682,0.8798230886459351,-0.02643871307373047,987.9992065429688,0,13.0,1,1
4.36,0.07787126,-0.14616169,9.762079,-0.00011539383558556436,-0.001103839953429997,-0.0006961587932892144,-11.094890594482422,27.05023002624512,-39.14424133300781,0.721413791179657,0.8664260506629944,-0.016409873962402344,988.0120849609376,0,13.0,1,1
4.4,0.06829557,-0.14139481,9.762078,-0.0005147120100446045,0.0003608721890486777,-0.00016346044139936564,-11.355224609375,26.70104789733887,-39.0067138671875,0.7326448559761047,0.852730393409729,0.01729583740234375,987.9940185546876,0,13.0,1,1
4.44,0.08261877,-0.1485442,9.766811,-0.001047188648954034,-0.0003049426595680416,0.0005023957928642631,-11.177774429321287,27.604719161987305,-39.08692932128906,0.7156985998153687,0.8635979890823364,-0.02484607696533203,987.9940185546876,0,13.0,1,1
4.48,0.087382525,-0.14139397,9.75734,0.001083493698388338,-0.0012370734475553036,-0.0005628012004308404,-11.398651123046875,27.608217239379886,-38.43722534179688,0.7177863717079163,0.8552943468093872,-0.014896392822265625,988.0042114257812,0,13.0,1,1
4.52,0.08019668,-0.13901033,9.771543,0.0004083648673258722,-0.0007302535232156515,-1.5902623999863863e-05,-10.950403213500977,27.13289833068848,-39.248329162597656,0.7141642570495605,0.8372138738632202,-0.028528213500976562,988.0169067382812,0,13.0,1,1
4.56,0.068231076,-0.1413932,9.78101,-0.00039027206366881734,0.0002018016530200839,-0.00041524320840835566,-10.968528747558594,27.221139907836914,-39.01974487304688,0.7188642621040344,0.8313663601875305,-0.04664897918701172,988.0169067382812,0,13.0,1,1
4.6,0.07538468,-0.15330915,9.769173,-0.00039027206366881734,0.0002018016530200839,-0.00041524320840835566,-10.968528747558594,27.221139907836914,-39.01974487304688,0.7220441699028015,0.8438660502433777,-0.022716522216796875,988.0169067382812,0,13.0,1,1
4.64,0.07536852,-0.1413924,9.759702,-0.00012380111729726195,0.00033493441878817976,0.00038377090822905297,-11.309679985046387,27.05962562561035,-38.80375671386719,0.7091178894042969,0.8451333045959473,0.0014791488647460938,987.9715576171876,0,13.0,1,1
4.68,0.082522154,-0.16045819,9.783373,0.0005421438836492598,0.0006012250669300556,-0.00028195232152938843,-11.107908248901367,26.774599075317386,-39.04912567138672,0.7108203172683716,0.8465643525123596,-0.040645599365234375,987.9715576171876,0,13.0,1,1
4.72,0.099235356,-0.15807451,9.766801,0.0005422995309345424,-6.458983261836693e-05,-0.00028188561554998165,-11.399492263793945,27.344369888305664,-38.960548400878906,0.6690905690193176,0.8382120132446289,-0.006970405578613281,987.991943359375,0,13.0,1,1
4.76,0.08248991,-0.15569086,9.769166,-0.0009221273357979953,6.851761281723157e-05,0.0009166690288111569,-10.904858589172363,27.49147605895996,-39.04537963867188,0.6884512305259705,0.8370674252510071,-0.02513027191162109,988.0096435546876,0,13.0,1,1
4.8,0.082473814,-0.1461574,9.766798,1.013354631140828e-05,0.0010005980730056763,-0.0009474757825955749,-11.138072967529297,26.95696830749512,-38.90117645263672,0.6912764310836792,0.8257794380187988,-0.0011796951293945312,988.0196533203124,0,13.0,1,1
4.84,0.080067754,-0.13662384,9.771531,1.013354631140828e-05,0.0010005980730056763,-0.0009474757825955749,-11.183616638183594,26.5983943939209,-39.10413360595703,0.6783740520477295,0.798390805721283,-0.01486968994140625,988.0196533203124,0,13.0,1,1
4.88,0.08244157,-0.14615656,9.771529,0.0004097625496797264,0.0010005728108808398,0.0003841702709905803,-11.061140060424805,26.50251579284668,-39.34835052490234,0.6894181966781616,0.8235225677490234,-0.00963592529296875,988.0020751953124,0,13.0,1,1
4.92,0.07764566,-0.14615615,9.769160000000001,0.0005430761375464499,0.0006010737852193415,0.0005173948593437672,-11.348295211791992,26.97078514099121,-38.79261016845703,0.6858702898025513,0.8199082612991333,-0.02331066131591797,987.9996337890624,0,13.0,1,1
4.96,0.07045981,-0.15330558,9.759689999999999,1.0599324014037848e-05,0.0013999961083754895,0.0006506192730739713,-10.833035469055176,27.4008846282959,-39.35907745361328,0.6851145029067993,0.8144440054893494,-0.013036727905273438,988.0020751953124,0,13.0,1,1
5.0,0.06805384,-0.14615543,9.76679,0.00014391291188076138,0.0017994446679949763,-1.5103723853826526e-05,-11.263455390930176,27.15582847595215,-39.20143127441406,0.6913502216339111,0.8063422441482544,-0.01728534698486328,988.0022583007812,0,13.0,1,1
5.04,0.07764009,-0.15092255,9.762058,0.0002772260340861976,0.00046784020378254354,-0.00014819519128650427,-11.47063446044922,27.17258644104004,-39.247467041015625,0.6798502802848816,0.8000958561897278,-0.017035484313964844,988.0049438476562,0,13.0,1,1
5.08,0.07766938,-0.15330662,9.776264,0.0010763290338218212,0.002065710257738829,-0.0005476026562973857,-11.252939224243164,27.06022071838379,-39.04348754882813,0.6668377518653871,0.8110700249671936,-0.02602863311767578,987.9973754882812,0,13.0,1,1
5.12,0.08721626,-0.14615639,9.754959,0.0010705795139074326,0.000480801216326654,0.0007866841042414308,-11.295141220092773,27.336729049682614,-38.97618103027344,0.6584554314613342,0.8027162551879883,0.00762939453125,988.0224609375,0,13.0,1,1
5.16,0.094373286,-0.14615615,9.762058,5.336652975529432e-06,0.0016792190726846454,-1.2254691682755947e-05,-10.947497367858887,27.02992820739746,-38.70386505126953,0.6437470316886902,0.7968509793281555,-0.015260696411132812,988.004638671875,0,13.0,1,1
5.2,0.077631295,-0.14615585,9.759691,-0.0006603303481824696,0.0014128834009170532,0.00012095586862415075,-11.041736602783203,27.416173934936523,-39.32781219482422,0.6611034870147705,0.7905568480491638,-0.0008230209350585938,988.0049438476562,0,13.0,1,1
5.24,0.08478832,-0.13662241,9.77626,5.581474397331476e-06,0.0011465478455647824,-0.0005447815638035536,-11.388976097106935,27.248762130737305,-38.80260467529297,0.6576679348945618,0.7823148965835571,-0.005068778991699219,987.9949951171876,0,13.0,1,1
5.28,0.087165534,-0.14615525,9.7809925,0.0002720195916481316,0.0010133699979633093,0.00012106058420613408,-11.104022979736328,27.041391372680664,-38.68041229248047,0.6448497772216797,0.7783427834510803,-0.03770351409912109,988.0225219726562,0,13.0,1,1
5.32,0.08476296,-0.15092142,9.7691555,-0.0009262797539122405,0.0011465080315247178,0.0002542708825785667,-11.078968048095703,27.22289085388184,-38.69489288330078,0.6414875984191895,0.7843685746192932,-0.018286705017089844,988.0301513671876,0,13.0,1,1
5.36,0.07758057,-0.15568767,9.788093,0.00040542188799008727,0.0010133303003385663,0.00025432324036955833,-11.024429321289062,27.48438835144043,-38.256690979003906,0.6478326320648193,0.77620929479599,-0.022562026977539062,988.0003051757812,0,13.0,1,1
5.4,0.08234772,-0.14853753,9.759685000000001,6.0703023336827755e-06,0.000746994570363313,-0.0009440458379685881,-11.358811378479006,27.066389083862305,-38.95055389404297,0.6302105188369751,0.7677105665206909,0.011063575744628906,988.0377197265624,0,13.0,1,1
5.44,0.07755518,-0.15092053,9.757317,6.19242200627923e-06,0.0007469747215509415,-0.0004113618051633239,-11.338322639465332,27.243467330932614,-38.73311614990234,0.641399621963501,0.7738238573074341,0.0020465850830078125,988.0101318359376,0,13.0,1,1
5.48,0.087102085,-0.14377041,9.773886,6.3146580941975125e-06,0.00074695487273857,-0.000278151361271739,-11.177666664123537,26.49837303161621,-38.71427917480469,0.6190347671508789,0.755787193775177,-0.01168060302734375,987.9898681640624,0,13.0,1,1
5.52,0.08469951,-0.14853664,9.773883999999999,-0.00012672069715335965,0.0006137770251370965,-0.000411256798543036,-11.594633102416992,27.26699638366699,-38.92594909667969,0.6253733634948729,0.7615330219268799,-0.006470680236816406,988.0178833007812,0,13.0,1,1
5.56,0.096636355,-0.14138646,9.771516,-0.0009255459881387652,0.0007469151169061661,-0.0008106783498078585,-11.262614250183105,27.41967582702637,-38.67810821533203,0.6127626895904541,0.7530258893966675,0.003455162048339844,988.0099487304688,0,13.0,1,1
5.6,0.08467418,-0.15568579999999999,9.766781,-0.000392792106140405,0.0007468953263014555,0.0003877956769429147,-11.037308692932127,27.31467628479004,-38.86065673828125,0.6189185976982117,0.759041428565979,0.008656501770019531,987.9667358398438,0,13.0,1,1
5.64,0.07510185,-0.14138584,9.769146000000001,-0.0002595119294710457,0.0010131913004443052,-0.0002779416972771287,-11.329191207885742,27.252309799194336,-39.19694519042969,0.6204128265380859,0.7411207556724548,-0.014553070068359375,988.005126953125,0,13.0,1,1
5.68,0.087038696,-0.15330191,9.754942,6.9261877797544e-06,0.001146329450421035,-1.1573429219424725e-05,-11.175166130065918,26.86960792541504,-38.96733856201172,0.6076594591140747,0.7613856196403503,0.014303207397460938,988.005615234375,0,13.0,1,1
5.72,0.082246214,-0.14615179999999997,9.766777000000001,-0.0001261096331290901,0.0008799937204457821,-0.00081046880222857,-11.406719207763672,26.442495346069336,-39.599517822265625,0.6141566634178162,0.7438691854476929,0.005250930786132813,987.9902954101562,0,13.0,1,1
5.76,0.08462339999999999,-0.16045113,9.785713000000001,0.0008061181870289148,0.00021418418327812105,-0.00027778465300798416,-11.534305572509766,26.90225028991699,-39.221839904785156,0.6113278865814209,0.7451342940330505,-0.013271331787109377,988.04345703125,0,13.0,1,1
5.8,0.091780424,-0.15330102,9.771509,-0.00025902310153469443,8.100639388430864e-05,0.0002548996126279235,-11.466205596923828,27.071088790893555,-38.780311584472656,0.5989246964454651,0.7366759777069092,0.006092071533203125,988.0280151367188,0,13.0,1,1
5.84,0.072648525,-0.14615084,9.757305,-0.0005252162809483707,8.098650141619146e-05,0.00012179417535662651,-11.542594909667967,27.15725517272949,-38.23468780517578,0.6147865056991577,0.7378474473953247,-0.007664680480957031,987.9827880859376,0,13.0,1,1
5.88,0.08697528,-0.13661744,9.766772,0.0001406955416314304,0.0010130723239853976,-0.0008102590218186377,-11.234109878540039,27.12991142272949,-38.04967498779297,0.597095251083374,0.7202346920967102,0.0069732666015625,988.018310546875,0,13.0,1,1
5.92,0.07262316,-0.14376698,9.776241,0.00014081777771934867,0.0011462103575468066,-1.1258991435170174e-05,-10.982769966125488,27.576173782348636,-38.422447204589844,0.5988801717758179,0.7217926979064941,-0.006830215454101562,987.9904174804688,0,13.0,1,1
5.96,0.075000405,-0.14138336,9.778606,0.0005404138355515896,0.0006135587464086711,0.0002551092766225338,-10.9930419921875,26.67135429382324,-38.90681457519531,0.6006260514259338,0.7135021090507507,-0.001674652099609375,988.0330810546876,0,13.0,1,1
6.0,0.08215743,-0.15568270000000003,9.7762375,-0.00012525374768301845,0.00048038095701485867,-1.1154217645525932e-05,-11.012552261352539,26.86403465270996,-39.30000305175781,0.59316486120224,0.7194637060165405,-0.001277923583984375,988.0286254882812,0,13.0,1,1
6.04,0.08083713,-0.14617585,9.769233999999999,-0.0006917208665981889,-0.0004490504506975413,0.0009238177444785832,-11.115518569946287,26.76723289489746,-38.66259765625,0.5846602320671082,0.7207076549530029,-0.0009851455688476562,987.9881591796876,0,13.0,1,1
6.08,0.07608771,-0.14855982,9.769237,0.00010349566582590342,8.418707875534892e-05,0.00012327107833698392,-10.982525825500488,26.575746536254886,-38.748870849609375,0.5963613986968994,0.7075565457344055,-0.0006008148193359375,988.0209350585938,0,13.0,1,1
6.12,0.08806765,-0.14141078,9.7810755,-0.0006979878526180983,-0.0007149073644541204,0.00011674396228045225,-11.09793472290039,27.04728507995605,-38.98963165283203,0.5796818733215332,0.7132892012596129,-0.019164085388183597,988.0056762695312,0,13.0,1,1
6.16,0.09526777,-0.15332796,9.757406,0.0004998474614694715,-0.0005816542543470861,0.0009154401486739515,-11.344953536987305,27.60586357116699,-38.52234649658203,0.5722668170928955,0.700744092464447,0.02379322052001953,987.992919921875,0,13.0,1,1
6.2,0.08095881,-0.14856209,9.762144000000001,0.0004998474614694715,-0.0005816542543470861,0.0009154401486739515,-11.597677230834961,27.26405143737793,-38.771339416503906,0.5696434378623962,0.6972070932388306,0.019431114196777344,987.992919921875,0,13.0,1,1
6.24,0.07381958,-0.14617957,9.76688,-3.3078016713261604e-05,-0.00031529073021374643,-1.6791163943707943e-05,-11.383867263793945,26.8848934173584,-38.93606567382813,0.5810989737510681,0.6985189914703369,0.005612373352050781,987.9857788085938,0,13.0,1,1
6.28,0.085799485,-0.1461804,9.773985,-3.33710340783e-05,8.423079270869493e-05,-1.6916892491281033e-05,-11.262614250183105,27.4196720123291,-38.67810821533203,0.5641261339187622,0.6905567049980164,-0.00823974609375,988.0162353515624,0,13.0,1,1
6.32,0.06671071,-0.15094765,9.745581,9.94937727227807e-05,-0.0003151954733766616,-0.0004165162099525333,-11.04423713684082,27.04493522644043,-39.07475280761719,0.5791760683059692,0.6997793912887573,0.03965282440185547,988.0110473632812,0,13.0,1,1
6.36,0.09780985,-0.15333162,9.764522999999999,9.920017328113315e-05,-4.883197834715247e-05,0.0005154635291546583,-11.459277153015135,27.3408260345459,-38.56620788574219,0.5589617490768433,0.6788946986198425,0.011415481567382812,988.0162353515624,0,13.0,1,1
6.4,0.054822027999999995,-0.12711634,9.7668915,-0.0008331986609846354,-0.0013803639449179173,-0.0001504519023001194,-11.173345565795898,27.503217697143555,-38.61976623535156,0.5802819728851318,0.66114342212677,0.007039070129394531,988.0288696289062,0,13.0,1,1
6.44,0.10265052,-0.15094991,9.766895,0.0003649296704679728,-0.0005813685129396617,0.00011573830852285028,-11.07081413269043,26.86196708679199,-38.98297119140625,0.5493787527084351,0.6817737221717834,0.007355690002441406,988.0084838867188,0,13.0,1,1
6.48,0.09073144,-0.14618404,9.776366000000001,-3.4837634302675724e-05,-0.0012471105437725782,0.000248770578764379,-11.166171073913574,26.77252769470215,-38.73208618164063,0.5330010652542114,0.6784906983375549,-0.006539344787597656,988.01611328125,0,13.0,1,1
6.52,0.07642245,-0.1318851,9.759798,0.00023118499666452408,-0.0016465367516502738,-0.00028398691210895777,-11.55851936340332,26.984601974487305,-38.68403625488281,0.568770706653595,0.6606423258781433,0.02695178985595703,988.0263061523438,0,13.0,1,1
6.56,0.08840242,-0.14856885,9.783472999999999,-0.0009675296023488043,-0.0008475415525026619,0.00011536118108779192,-10.999672889709473,27.033750534057614,-38.696044921875,0.5477304458618164,0.6668659448623657,-0.005890846252441406,987.9987182617188,0,13.0,1,1
6.6,0.08604288,-0.1461863,9.752702000000001,-0.00016887555830180645,-0.002045915462076664,0.0003815513919107616,-10.984452247619627,27.04848289489746,-39.46910095214844,0.5501226186752319,0.6583799719810486,0.02286529541015625,988.0014038085938,0,13.0,1,1
6.64,0.102802694,-0.15572007,9.766909,-0.0009681163355708123,-0.0004479725030250848,0.00011510995682328941,-10.653955459594727,27.19968223571777,-39.143951416015625,0.5382401347160339,0.6692772507667542,0.004253387451171875,988.0165405273438,0,13.0,1,1
6.68,0.08132398,-0.13665475,9.7621765,-0.0001694618258625269,-0.001246872590854764,-0.0006839636480435729,-10.946954727172852,26.66164207458496,-38.60540771484375,0.5501035451889038,0.6518914699554443,0.02350902557373047,988.0419921875,0,13.0,1,1
6.72,0.07657462,-0.13903873,9.769281,0.00036287633702158933,-0.0007141932146623732,0.00038117438089102507,-11.115518569946287,26.76723289489746,-38.66259765625,0.5623893737792969,0.6437050104141235,0.009613037109375,988.0014038085938,0,13.0,1,1
6.76,0.08616465,-0.15810563,9.78112,-0.0007026803214102982,-0.0016462511848658323,0.0007805224740877748,-10.920919418334961,27.2128963470459,-38.79564666748047,0.5316982269287109,0.6639354228973389,-0.00428009033203125,988.0390014648438,0,13.0,1,1
6.8,0.093364775,-0.15333988,9.766919999999999,-0.0007029733387753367,-0.001513045746833086,0.0003809229528997093,-11.311202049255373,27.058149337768555,-38.72644805908203,0.5390658378601074,0.6462968587875366,0.019700050354003903,988.01416015625,0,13.0,1,1
6.84,0.10056489999999998,-0.14142425,9.769289,-0.000570109230466187,-0.001646155957132578,-0.0008176241535693407,-10.983749389648438,27.206411361694336,-38.24669647216797,0.5180202722549438,0.6335596442222595,0.010514259338378906,988.0090942382812,0,13.0,1,1
6.88,0.088645816,-0.17002429,9.766926,-3.7770485505461686e-05,-0.0021787399891763926,-0.0012172238202765586,-11.108450889587402,27.14289283752441,-39.14757537841797,0.5394792556762695,0.6731081008911133,0.00136566162109375,988.0369262695312,0,13.0,1,1
6.92,0.098235875,-0.1581086,9.781132000000001,0.00036141020245850086,0.0002181504969485104,0.00024738791398704047,-11.136114120483398,27.69650077819824,-39.25269317626953,0.5176575183868408,0.6509283781051636,-0.012513160705566406,988.036865234375,0,13.0,1,1
6.96,0.07197738,-0.14142649,9.7598295,9.480083826929332e-05,0.00021819805260747668,-0.00015221151988953352,-10.82512664794922,28.040388107299805,-39.32073211669922,0.5342916250228882,0.618949294090271,0.03515338897705078,988.0322265625,0,13.0,1,1
7.0,0.10501155,-0.14379938,9.773994,-0.0005712822312489152,-0.0007138599175959827,-0.00028549518901854753,-10.91399097442627,27.48263740539551,-38.58154296875,0.5082152485847473,0.6300595998764038,-0.0071659088134765625,988.0296630859376,0,13.0,1,1
7.04,0.08783013,-0.13425510000000002,9.755014,-3.8943486288189895e-05,-0.0011132860090583565,-1.9305036403238773e-05,-10.990242004394533,27.67472648620605,-38.735008239746094,0.5212412476539612,0.612436830997467,0.03582763671875,988.0269165039062,0,13.0,1,1
7.08,0.08782381,-0.15093789999999999,9.778687,-0.0005652420222759247,-0.0013806300703436134,0.0007823569467291236,-11.059319496154783,27.13612174987793,-39.00077819824219,0.5291387438774109,0.6425808072090149,-0.015985488891601562,988.0068359375,0,13.0,1,1
7.12,0.094987184,-0.15808763,9.762115,0.00010277354158461094,-0.0019136234186589718,-0.00041511061135679483,-11.032742500305176,27.319093704223636,-39.092567443847656,0.5225838422775269,0.6249960064888,0.02689647674560547,988.0194702148438,0,13.0,1,1
7.16,0.085421205,-0.15332089999999998,9.7668495,-0.0005629551596939564,-0.002446264959871769,-0.00014876853674650192,-11.067472457885742,27.49704551696777,-38.71270751953125,0.5205230712890625,0.6454219222068787,0.003516197204589844,988.0145874023438,0,13.0,1,1
7.2,0.10214421,-0.15093742,9.783419,-3.0262279324233532e-05,-0.000981537508778274,0.00011757353786379099,-11.025814056396484,27.58883476257324,-38.87846374511719,0.5039967298507689,0.6089536547660828,-0.005664825439453125,988.02978515625,0,13.0,1,1
7.24,0.08779845,-0.15093733,9.745543,-0.0004296749830245972,-0.0005820735823363067,-0.0009476639097556473,-10.920621871948242,27.84503746032715,-38.37077331542969,0.5107414722442627,0.6203899979591371,0.04199028015136719,988.017333984375,0,13.0,1,1
7.28,0.09974158,-0.14855386,9.773949,0.0007688074838370085,0.00035002216463908553,0.00038394180592149496,-11.048505783081056,27.67265510559082,-38.41796875,0.5036954879760742,0.6079122424125671,-0.00033855438232421875,988.0146484375,0,13.0,1,1
7.32,0.09973523,-0.15570353,9.771581,0.00036939489655196667,-0.0005820934311486782,0.00025080994237214327,-10.994670867919922,27.77622413635254,-39.20216369628906,0.5062557458877563,0.6237174272537231,0.018888473510742188,988.0177001953124,0,13.0,1,1
7.36,0.09733897400000001,-0.16761978,9.778682,-0.0004294912796467543,-0.001114735146984458,0.0006503101903945207,-10.983068466186523,26.94403648376465,-38.84732055664063,0.4994403421878815,0.6346986293792725,0.004965782165527344,988.0354614257812,0,13.0,1,1
7.4,0.087773025,-0.14140357,9.764479,-0.00029627187177538866,-0.00044895539758726965,-0.00014861125964671373,-10.687599182128906,26.64105796813965,-38.56718444824219,0.4969613254070282,0.6026890873908997,0.010010719299316406,988.0374145507812,0,13.0,1,1
7.44,0.10210609400000001,-0.14140339,9.773947,-0.000962000573053956,-0.00044896535109728575,0.000117730931378901,-11.11369800567627,27.40084648132324,-38.315032958984375,0.4797699153423309,0.5949143171310425,-0.008614540100097656,988.0099487304688,0,13.0,1,1
7.48,0.10687959,-0.14378656,9.783415,-0.00016299181152135134,0.001282077981159091,-1.5400932170450687e-05,-10.728280067443848,26.919034957885746,-38.577186584472656,0.477527529001236,0.5873388648033142,0.0011205673217773438,988.022705078125,0,13.0,1,1
7.52,0.09731364,-0.15570273,9.783413000000001,-0.00023073155898600817,0.0017120268894359472,0.0006018108106218277,-10.742382049560547,27.379987716674805,-38.67897033691406,0.4840253591537476,0.6033049821853638,-0.00328826904296875,988.0401000976562,0,13.0,1,1
7.56,0.097307265,-0.15093602,9.766844,-0.00023073155898600817,0.0017120268894359472,0.0006018108106218277,-11.072336196899414,26.86049461364746,-38.905662536621094,0.4856149554252625,0.5810807347297668,0.025450706481933597,988.0401000976562,0,13.0,1,1
7.6,0.09252116,-0.1390195,9.762108,-0.0002306703245267272,0.0023778066970407963,6.920524174347521e-05,-10.798986434936523,27.48530387878418,-39.13831329345703,0.4872633218765259,0.5828319787979126,0.025773048400878903,988.0252685546876,0,13.0,1,1
7.64,0.09968448,-0.14378591,9.762107,0.00016886449884623292,0.0018451649229973555,0.0003355473163537681,-10.714581489562988,26.93229484558105,-39.272926330566406,0.4794220626354218,0.5800002813339233,0.016613006591796875,988.0076904296876,0,13.0,1,1
7.68,0.08772862,-0.15570207,9.773943,0.00016892561689019203,0.0011793654412031176,0.0003355735098011792,-10.709717750549316,27.568849563598636,-39.07997131347656,0.481541782617569,0.5912500023841858,0.016904830932617188,988.0177612304688,0,13.0,1,1
7.72,0.08533236400000001,-0.16523506,9.773943,-0.0002304867375642061,0.0005135657265782356,0.0006019157590344548,-10.8799409866333,27.567052841186523,-38.36077880859375,0.483598530292511,0.593170166015625,0.012454986572265623,988.0100708007812,0,13.0,1,1
7.76,0.09010583,-0.1509353,9.797613,0.0007016801973804832,0.0007798716542311013,0.000202468188945204,-11.19742202758789,27.69148063659668,-38.781044006347656,0.4806211292743683,0.575772225856781,-0.02511119842529297,988.01025390625,0,13.0,1,1
7.8,0.08053988,-0.15570168,9.764472999999999,-0.0004966802662238479,0.000913019641302526,-6.382149877026677e-05,-10.835238456726074,27.66178703308105,-38.68115234375,0.4776722192764282,0.5867847800254822,0.02254676818847656,988.0177612304688,0,13.0,1,1
7.84,0.10443255,-0.16285135,9.766839,-0.0006297770887613298,0.0014456415083259346,-0.00046326912706717854,-10.842305183410645,27.28613090515137,-38.19617462158203,0.4652090966701508,0.5693599581718445,0.008646011352539062,988.0305786132812,0,13.0,1,1
7.88,0.104426205,-0.14616825,9.750268,-0.0003634000895544887,0.0013124736724421382,6.938882870599626e-05,-10.83165168762207,27.296445846557614,-38.7373046875,0.4529504179954529,0.5809407234191895,0.04679298400878906,988.0354614257812,0,13.0,1,1
7.92,0.085300684,-0.16285102,9.776306,0.0007019244367256762,0.001179305836558342,0.0007352046668529509,-10.532159805297852,27.36617088317871,-38.78753662109375,0.4738598167896271,0.5735005140304565,0.004468917846679688,988.0126953125,0,13.0,1,1
7.96,0.09246403,-0.15331776,9.757368,0.0008351436117663981,0.0015787696465849874,0.0006020729779265821,-11.037010192871094,27.94680595397949,-38.43578338623047,0.4562345445156098,0.5752725005149841,0.0331878662109375,988.0177612304688,0,13.0,1,1
8.0,0.08255094,-0.16045891,9.759704,-0.00023005891125649214,0.002244549570605159,0.0011347308754920962,-10.757762908935547,26.83903694152832,-39.029869079589844,0.4579685926437378,0.5628840327262878,0.02406024932861328,988.032958984375,0,13.0,1,1
8.04,0.09448022,-0.15092529999999998,9.764437,0.00043620599899441004,0.003043420147150755,0.0010017766617238524,-10.704203605651855,26.730772018432614,-38.41590881347656,0.4494881331920624,0.5652630925178528,0.03383922576904297,988.0054931640624,0,13.0,1,1
8.08,0.068170965,-0.15330808,9.764435,0.0012363241985440256,0.003451517317444086,0.0012721917591989038,-11.003802299499512,27.76738548278809,-38.73833465576172,0.4748696982860565,0.5622208118438721,0.010478973388671877,988.0355834960938,0,13.0,1,1
8.12,0.084879994,-0.14377452,9.769167,-0.00022821774473413822,0.002253063954412937,0.0008728016400709747,-10.943473815917967,27.40263557434082,-39.03422546386719,0.4521834552288056,0.5456659793853761,0.015504837036132812,988.0106201171876,0,13.0,1,1
8.16,0.08485973,-0.1652235,9.776266,0.001636188942939043,0.002918821992352605,0.0003402536676730961,-10.752899169921877,27.4755916595459,-38.8369140625,0.44474828243255615,0.571796715259552,0.006285667419433594,988.0054931640624,0,13.0,1,1
8.2,0.08483946,-0.1461568,9.766796000000001,0.0007042788784019648,0.0007882631616666912,0.0003403374867048114,-10.426286697387695,27.36000633239746,-38.88047790527344,0.4416053593158722,0.5402098298072815,0.011316299438476562,988.0128784179688,0,13.0,1,1
8.24,0.08242929,-0.15092279,9.766794,-0.00022763124434277413,0.0022529687266796827,-5.9052545111626393e-05,-10.85434341430664,27.380266189575195,-38.27680969238281,0.4527297616004944,0.5425873398780823,0.011590003967285156,988.031005859375,0,13.0,1,1
8.28,0.09913826,-0.14615579,9.759691,0.001237301854416728,0.002386095002293587,7.418909808620809e-05,-11.259026527404785,27.0543270111084,-38.73426818847656,0.4207885265350342,0.5402009487152101,0.026065826416015625,988.0157470703124,0,13.0,1,1
8.32,0.08477861,-0.15807165,9.752586,0.0009711812599562107,0.002519221277907491,-0.00019204296404495835,-10.86167812347412,27.58473396301269,-39.28843688964844,0.4416087567806244,0.551782488822937,0.04528045654296875,988.0233154296876,0,13.0,1,1
8.36,0.079978496,-0.15807118,9.771522500000001,0.0004389406531117857,0.0019865259528160095,0.0004739143478218466,-10.75442123413086,27.47411918640137,-38.75960540771485,0.4418778121471405,0.5382379293441772,0.012541770935058594,987.988037109375,0,13.0,1,1
8.4,0.07756832,-0.14615436,9.762053,0.0004389406531117857,0.0019865259528160095,0.0004739143478218466,-10.75442123413086,27.47411918640137,-38.75960540771485,0.4451969861984253,0.5319502949714661,0.02214908599853516,987.988037109375,0,13.0,1,1
8.44,0.08232784,-0.14615376,9.77862,3.966217627748847e-05,0.0013207043521106243,0.0010066299000754952,-10.6762113571167,28.02155876159668,-38.95765686035156,0.433151513338089,0.5246589779853821,0.008177757263183594,988.0584716796876,0,13.0,1,1
8.48,0.08708733,-0.15091981,9.759682000000002,0.0004393315757624805,0.0013206726871430876,7.460813503712416e-05,-10.675668716430664,27.653268814086914,-38.85920715332031,0.4205614924430847,0.5363948941230774,0.03211021423339844,988.0308837890624,0,13.0,1,1
8.52,0.07272768,-0.14615281,9.766781,0.0005726850940845907,0.0015869567869231105,7.469189586117864e-05,-10.488679885864258,28.09156608581543,-38.60572814941406,0.43221160769462585,0.5244045853614807,0.013410568237304688,988.0308837890624,0,13.0,1,1
8.56,0.08465689400000001,-0.16521852,9.771513,0.0005728804389946162,0.0015869251219555733,-5.83822256885469e-05,-10.909967422485352,27.85534477233887,-38.91191101074219,0.4197040796279907,0.5314046144485474,0.01839637756347656,987.9956665039062,0,13.0,1,1
8.6,0.07268709,-0.1413853,9.766777000000001,0.0005730761331506072,0.0014537355164065955,0.0003411753859836608,-10.875375747680664,27.57147789001465,-38.592689514160156,0.4361924231052399,0.5190883874893188,0.01863956451416016,988.0157470703124,0,13.0,1,1
8.64,0.07983655,-0.14853455,9.773877,-9.251810843124987e-05,0.0009210719726979733,0.0006075750570744276,-10.730344772338867,27.285852432250977,-38.59832763671875,0.4098241627216339,0.5163193345069885,0.018873214721679688,988.0033569335938,0,13.0,1,1
8.68,0.07981622,-0.14853404,9.764406,-0.00022548047127202159,0.0011873561888933182,-5.813088500872254e-05,-10.580747604370117,27.00465202331543,-38.83588409423828,0.41666534543037415,0.518487811088562,0.023847579956054688,988.02587890625,0,13.0,1,1
8.72,0.07740599,-0.14615029999999998,9.766771,0.00044050480937585245,0.0009210084099322556,7.511087460443376e-05,-10.625856399536133,27.384130477905273,-39.31304168701172,0.4190801978111267,0.5157910585403442,0.033537864685058594,988.0236206054688,0,13.0,1,1
8.76,0.07738575,-0.15091638,9.766769,-9.193149162456392e-05,0.0007878188043832778,0.0006078264559619129,-10.84811782836914,27.4920711517334,-39.28510284423828,0.41696566343307495,0.5131517648696899,0.01954174041748047,988.0260620117188,0,13.0,1,1
8.8,0.07736546,-0.16283228,9.771502,4.1421910282224424e-05,-1.11605622805655e-05,-0.0005905111902393402,-10.952169418334961,28.13184928894043,-38.8446044921875,0.4097285568714142,0.5202116370201111,0.02449321746826172,988.0311889648438,0,13.0,1,1
8.84,0.07256538,-0.15091531,9.762032000000001,0.00017497088992968204,0.0011871973983943462,-0.00032402778742834926,-10.83553695678711,27.02964973449707,-39.10601806640625,0.4105892777442932,0.497211754322052,0.02483558654785156,988.0286254882812,0,13.0,1,1
8.88,0.07493499,-0.13899846,9.780968,0.00017497088992968204,0.0011871973983943462,-0.00032402778742834926,-10.67026138305664,27.92153739929199,-38.56780242919922,0.414448082447052,0.4864279627799988,-0.008213043212890625,988.0286254882812,0,13.0,1,1
8.92,0.07969451,-0.15329765,9.766762,0.0007077982299961151,0.0002550600038375705,0.0003418457054067403,-10.804232597351074,27.743261337280273,-38.30577087402344,0.3975459635257721,0.49837911128997797,0.05354785919189453,988.0060424804688,0,13.0,1,1
8.96,0.08206412,-0.15568043,9.769127000000001,0.0001753619289956987,0.0010539758950471876,-5.7544384617358446e-05,-10.999672889709473,27.033750534057614,-38.696044921875,0.4047200083732605,0.5052037835121155,0.02535724639892578,988.0361938476562,0,13.0,1,1
9.0,0.08552402,-0.15570666,9.776327,4.239944973960519e-05,0.00092078628949821,-0.0004569343873299657,-11.014073371887207,26.86256217956543,-39.222694396972656,0.391897052526474,0.493013858795166,0.015993118286132812,988.0464477539062,0,13.0,1,1
9.04,0.07359731,-0.14140756,9.752657000000001,3.74316587112844e-05,0.0005221189931035042,0.0010056740138679745,-10.879122734069824,27.410600662231445,-39.66048431396485,0.39898720383644093,0.4948163032531738,0.02094936370849609,988.0233154296876,0,13.0,1,1
9.08,0.080789864,-0.14855798,9.762129,-0.0008981142309494319,0.0009134576539508998,0.00020170316565781832,-11.11744499206543,27.23996543884277,-39.38282012939453,0.40145885944366455,0.4877419471740722,0.030605316162109375,988.0034790039062,0,13.0,1,1
9.12,0.0832026,-0.14855851,9.769232,0.00043324480066075916,-1.861214695964009e-05,-0.0003310229512862861,-10.620746612548828,27.0202579498291,-39.44650268554688,0.3897868394851685,0.4848079085350037,0.030805587768554688,988.0263671875,0,13.0,1,1
9.16,0.08083552,-0.15570892,9.762133,-0.0010317126289010048,0.0002477394591551274,-0.000331117247696966,-10.827085494995117,27.300859451293945,-38.96922302246094,0.38222476840019226,0.4819833636283874,0.0357666015625,988.0439453125,0,13.0,1,1
9.2,0.07368868599999999,-0.14379312,9.750297999999999,-0.0002329848357476294,0.0018456705147400496,0.0004677360993809998,-10.844667434692383,27.020811080932614,-38.642189025878906,0.3943023085594177,0.4702713489532471,0.035945892333984375,988.0037841796876,0,13.0,1,1
9.24,0.073711514,-0.14379366,9.7692375,0.0008320584311150013,0.0006472846725955607,-0.00019814801635220647,-11.023204803466797,26.853723526000977,-38.758872985839844,0.392104297876358,0.4679281115531922,0.0266571044921875,988.0084228515624,0,13.0,1,1
9.28,0.083293915,-0.14856072,9.764505,0.0005655225249938668,0.0002478466194588691,-0.0005977160180918872,-11.056818962097168,27.507360458374023,-39.25384521484375,0.3709006607532501,0.4700332880020142,0.026841163635253903,988.0365600585938,0,13.0,1,1
9.32,0.07614705,-0.14379479,9.766875,-0.0003668029676191509,0.00024788238806650037,-6.517866859212518e-05,-10.983473777770996,27.41824150085449,-39.64485168457031,0.3873783349990845,0.4773366451263428,0.03177070617675781,988.0210571289062,0,13.0,1,1
9.36,0.08572948,-0.16286151,9.785814,0.0006982404156588018,0.001180023769848049,0.00046735882642678916,-11.076329231262207,27.700040817260746,-39.64703369140625,0.3660041391849518,0.4796129465103149,0.0035486221313476562,988.0361938476562,0,13.0,1,1
9.4,0.08097252,-0.15094574,9.764511,-0.00010092736920341851,0.0005142696900293231,-6.536726141348481e-05,-11.053773880004883,27.51030540466309,-39.40845489501953,0.3733354508876801,0.4725721478462219,0.03213024139404297,988.0341186523438,0,13.0,1,1
9.44,0.08338526,-0.15332957,9.769249,0.0010972742456942797,0.0007806212524883449,-0.0004649353795684874,-11.310628890991213,27.90212059020996,-39.69973754882813,0.3661935925483704,0.4750034213066101,0.02757740020751953,988.0086669921876,0,13.0,1,1
9.48,0.076238364,-0.14618029,9.773985,-0.00010136730270460248,0.0009138149325735867,-0.0005981876165606081,-11.053232192993164,27.14201545715332,-39.30999755859375,0.3781043887138367,0.4676421880722046,0.03250408172607422,988.038818359375,0,13.0,1,1
9.52,0.07626122,-0.15333067,9.762151,-0.00023474561749026182,0.0006475347909145057,0.000466981582576409,-11.28668975830078,27.60793876647949,-38.83938598632813,0.3709618747234345,0.4599767923355103,0.01849842071533203,988.0238037109376,0,13.0,1,1
9.56,0.09062344,-0.13664828,9.771622,-0.0010339131113141775,0.001180202467367053,-0.000598376092966646,-10.856706619262695,27.11494255065918,-38.72283172607422,0.3448747396469116,0.4384904503822327,0.03761005401611328,988.04150390625,0,13.0,1,1
9.6,0.071527064,-0.14618202,9.762156,3.11304465867579e-05,0.0006476062699221076,0.00020047713769599795,-10.736837387084961,27.75417137145996,-39.08663940429688,0.35704442858695984,0.45030331611633295,0.03304862976074219,988.0365600585938,0,13.0,1,1
9.64,0.0739398,-0.15333239999999998,9.7739935,3.091018879786134e-05,0.0001150102325482294,-0.0008648805669508874,-10.99899196624756,26.771379470825195,-39.296669006347656,0.3694023787975311,0.4624751210212708,0.014263153076171875,988.0263671875,0,13.0,1,1
9.68,0.078742445,-0.1557162,9.766893,0.0008296380401588976,0.00011504594294819981,-0.00033234333386644716,-10.939451217651367,27.77535057067871,-39.364593505859375,0.3571060597896576,0.4506857991218567,0.033390045166015625,988.0187377929688,0,13.0,1,1
9.72,0.08115518,-0.14856692,9.769262,3.047025529667735e-05,0.0017129770712926984,-0.00019927968969568607,-11.06138515472412,27.502939224243164,-39.02192687988281,0.36020517349243164,0.447873592376709,0.04301738739013672,988.0338134765624,0,13.0,1,1
9.76,0.0883477,-0.15095077,9.762163000000001,-0.0007686975295655428,-0.00028435647254809737,0.00046641571680083865,-10.699201583862305,27.47324562072754,-38.922035217285156,0.34399622678756714,0.4503374695777893,0.03369903564453125,988.0266723632812,0,13.0,1,1
9.8,0.09076044,-0.15095131,9.766900999999999,0.0005626619677059351,-0.0006837945547886193,0.00046632144949398935,-10.445934295654297,27.44677543640137,-38.57459259033203,0.3472701609134674,0.4432934522628784,0.01962757110595703,988.0191040039062,0,13.0,1,1
9.84,0.083613545,-0.13903554,9.771637,2.9810064006596807e-05,-0.00015112698019947857,0.0003330691542942077,-10.773387908935547,27.298513412475586,-39.054344177246094,0.35930335521698,0.4409111142158508,0.010329246520996094,988.0244140625,0,13.0,1,1
9.88,0.07168692,-0.15810226,9.76217,0.00029590580379590387,0.0011804881505668163,6.665900582447648e-05,-10.634987831115724,27.375288009643555,-38.849212646484375,0.3516594767570496,0.4479546546936035,0.029462814331054688,988.021240234375,0,13.0,1,1
9.92,0.09799862,-0.15095304,9.774008,-0.0005032617482356726,0.0022457872983068228,6.656470941379665e-05,-10.875673294067383,26.9393367767334,-39.01756286621094,0.3306098282337189,0.4315173029899597,0.039076805114746094,988.04150390625,0,13.0,1,1
9.96,0.08380881,-0.15095665,9.766919999999999,-0.0002373860334046185,-0.00015098416770342737,0.0005990078207105397,-10.947604179382324,28.136274337768555,-39.076515197753906,0.3421836495399475,0.42795658111572266,0.029793739318847656,988.0238037109376,0,13.0,1,1
10.0,0.08157617,-0.15096055,9.771668,0.0002955323434434831,-0.00016358811990357938,-0.00020494265481829643,-11.250139236450195,28.063589096069336,-38.871681213378906,0.3355498015880585,0.4256242513656616,0.03466987609863281,988.0594482421876,0,13.0,1,1
10.04,0.07921928,-0.14142825,9.769304,0.0002955323434434831,-0.00016358811990357938,-0.00020494265481829643,-11.250139236450195,28.063589096069336,-38.871681213378906,0.34919875860214233,0.41479653120040894,0.03473472595214844,988.0594482421876,0,13.0,1,1
10.08,0.0959816,-0.15096219,9.783511,-0.0005040341638959943,-0.0008292773272842169,6.110797403380275e-05,-10.952468872070312,27.49971580505371,-39.26947021484375,0.3325193226337433,0.4459075331687927,0.02069187164306641,988.033935546875,0,13.0,1,1
10.12,0.09123477,-0.14381312,9.781147,2.827955177053809e-05,0.0014344592345878482,0.0003272874455433339,-11.190791130065918,27.329084396362305,-38.99181365966797,0.32519686222076416,0.4198485612869263,0.020859718322753903,988.0394287109376,0,13.0,1,1
10.16,0.08409810000000001,-0.15573029,9.774047999999999,0.0004274354432709515,0.001967142568901181,-0.0007381122559309006,-11.054455757141113,27.77268028259277,-38.80782318115234,0.3277722001075745,0.4320677518844605,0.021005630493164062,988.0110473632812,0,13.0,1,1
10.2,0.09369069,-0.16049768,9.766949,0.00042711751302704215,0.0007687728502787651,-7.24589335732162e-05,-10.626835823059082,27.01436424255371,-39.13728332519531,0.3209396004676819,0.4252781867980957,0.03061389923095703,988.0288696289062,0,13.0,1,1
10.24,0.08416408,-0.1533487,9.76932,0.000693115231115371,0.0007688244222663343,-7.259543053805828e-05,-10.619905471801758,27.28410148620605,-38.923187255859375,0.3284263610839844,0.4277536273002625,0.016556739807128906,988.0139770507812,0,13.0,1,1
10.28,0.07941729,-0.15334947,9.781158,2.7007597964257002e-05,0.0011683498742058873,0.00019358412828296423,-10.81102466583252,27.579435348510746,-39.21894836425781,0.3258553147315979,0.4112745523452759,0.011984825134277344,988.033935546875,0,13.0,1,1
10.32,0.08900988,-0.15573354,9.778794,0.0001598472590558231,0.0017010333249345422,-7.286795880645514e-05,-11.269542694091795,27.14993476867676,-38.8922119140625,0.3188180923461914,0.41836750507354736,0.0358123779296875,988.033935546875,0,13.0,1,1
10.36,0.08426309,-0.15096779,9.766962,-0.00037310266634449363,0.0010352953104302287,-0.0007387939840555191,-10.703767776489258,27.46882438659668,-38.69011688232422,0.3166655600070953,0.4162648916244507,0.021749496459960938,988.0292358398438,0,13.0,1,1
10.4,0.09385574,-0.14381881,9.764597,0.00042552669765427714,0.0015679786447435615,6.0017337091267116e-05,-11.122011184692383,27.23554801940918,-39.15090942382813,0.3046565651893616,0.4137634038925171,0.03611564636230469,988.031982421875,0,13.0,1,1
10.44,0.0843291,-0.14143635,9.766967999999999,-0.00024058116832748053,0.0011685562785714865,0.0005925127188675107,-11.145406723022461,27.161439895629886,-39.91281127929688,0.3122430443763733,0.40720850229263306,0.02677154541015625,988.0117797851562,0,13.0,1,1
10.48,0.086752,-0.15335353,9.771706,0.0009575222502462566,0.0009022922604344783,-0.0006060450104996562,-10.684524536132812,27.856264114379886,-39.79353332519531,0.3102037608623505,0.4148773550987244,0.03636741638183594,988.0516967773438,0,13.0,1,1
10.52,0.0820052,-0.14858781,9.7669735,0.0002914146170951426,0.000502870068885386,-0.0002067075110971928,-10.874396324157717,27.94123649597168,-38.76844787597656,0.3084142208099365,0.4031824469566345,0.03649139404296875,988.0244140625,0,13.0,1,1
10.56,0.091597795,-0.1509719,9.769344,0.00019655091455206278,0.00035181682324036956,-1.219497062265873e-05,-10.68205451965332,27.015241622924805,-38.97486114501953,0.3059273958206177,0.4002918601036072,0.02719211578369141,988.0291748046876,0,13.0,1,1
10.6,0.082071215,-0.13667299,9.766979,0.0003293908084742725,-0.0003139212494716048,0.0010529322316870091,-10.41218376159668,26.8990535736084,-38.77869415283203,0.3144936263561249,0.3896552920341492,0.031991004943847656,988.0316772460938,0,13.0,1,1
10.64,0.09166378,-0.13667382,9.774084,0.000595388759393245,0.00021876225946471092,-0.00027878349646925926,-10.798442840576172,27.11701393127441,-39.03986358642578,0.2983444631099701,0.386285662651062,0.022672653198242188,988.0092163085938,0,13.0,1,1
10.68,0.072577596,-0.14144124,9.781189,-7.071899017319083e-05,-0.00111276563256979,-1.2603937648236752e-05,-10.837738990783693,27.29054832458496,-38.42809295654297,0.3072476089000702,0.3900529444217682,0.02272319793701172,988.0421752929688,0,13.0,1,1
10.72,0.086950004,-0.13905872,9.764622,-0.00020419497741386292,-0.0015121877659112215,-0.00027905625756829977,-10.945134162902832,27.29524803161621,-38.25784301757813,0.30142512917518616,0.392530620098114,0.02281665802001953,988.0218505859376,0,13.0,1,1
10.76,0.098932534,-0.15335919,9.764625,-0.0006039868458174169,-0.0015121360775083306,-0.0009449822828173636,-10.830809593200684,27.56028938293457,-38.2139892578125,0.2991457283496857,0.3894583582878113,0.02297687530517578,988.0422973632812,0,13.0,1,1
10.8,0.089405894,-0.15097667,9.7693615,6.148457759991288e-05,0.00035212666261941195,-0.0006788027239963412,-11.102065086364746,27.780916213989254,-39.03192138671875,0.2931655943393707,0.3883516788482666,0.018314361572265625,988.0397338867188,0,13.0,1,1
10.84,0.077489436,-0.14621098,9.778833,0.0003274821792729199,0.00021902035223320127,0.0005194825353100897,-10.854748725891113,27.85447120666504,-39.0743408203125,0.3060584664344788,0.3814423084259033,0.01842021942138672,988.0346069335938,0,13.0,1,1
10.88,0.089471936,-0.1533616,9.767000999999999,-0.00033862580312415963,-0.00031355980900116265,-0.00014644348993897438,-10.902358055114746,27.86271095275879,-39.298439025878906,0.29463452100753784,0.3885701596736908,0.03748321533203125,988.00927734375,0,13.0,1,1
10.92,0.08711502,-0.13429625,9.757534,-0.0003389438497833908,0.00048543961020186543,-0.00014657981228083372,-11.122554779052734,27.60384178161621,-39.249359130859375,0.2882724702358246,0.367767870426178,0.05178546905517578,988.031982421875,0,13.0,1,1
10.96,0.08348435,-0.14856549,9.764522999999999,-0.000468202808406204,0.0002184907789342105,-1.17509625852108e-05,-10.893661499023438,27.13349723815918,-39.488059997558594,0.29181969165802,0.3932939767837525,0.03312873840332031,988.0296020507812,0,13.0,1,1
11.0,0.088246435,-0.1414152,9.762153999999999,-0.000468202808406204,0.0002184907789342105,-1.17509625852108e-05,-10.893661499023438,27.13349723815918,-39.488059997558594,0.28137844800949097,0.3777602016925812,0.028459548950195312,988.0296020507812,0,13.0,1,1
11.04,0.09061861,-0.15571438,9.773989,-6.115209544077516e-05,0.00035041867522522807,0.00012465415056794882,-11.094050407409668,27.314077377319336,-38.62091827392578,0.2848767042160034,0.3758699297904968,0.03328800201416016,988.0596313476562,0,13.0,1,1
11.08,0.08582103,-0.15809728,9.766886,0.0003384926239959896,-0.0011143465526401997,-0.0004079045029357076,-11.241987228393556,27.70266914367676,-39.159751892089844,0.2882935404777527,0.3880054950714111,0.03812694549560547,988.017333984375,0,13.0,1,1
11.12,0.08341336,-0.15094699,9.771618,-0.00046028400538489217,-4.9110676627606153e-05,0.0003911166568286717,-11.07883071899414,27.32880973815918,-39.39397430419922,0.2912569642066956,0.3761780858039856,0.033516883850097656,988.0448608398438,0,13.0,1,1
11.16,0.08100572,-0.13664685,9.766883,-0.000459941744338721,-0.00018232417642138896,0.0010570528684183957,-11.026655197143556,27.324987411499023,-39.40178680419922,0.28930410742759705,0.358817458152771,0.03839683532714844,988.0427856445312,0,13.0,1,1
11.2,0.09054759,-0.14379628,9.759779,-0.000459941744338721,-0.00018232417642138896,0.0010570528684183957,-11.026655197143556,27.324987411499023,-39.40178680419922,0.27902668714523315,0.3579535484313965,0.033710479736328125,988.0427856445312,0,13.0,1,1
11.24,0.09769952,-0.14141257,9.769246,0.0007386506185866892,-0.0007149837329052389,0.0002581786247901618,-10.76523494720459,26.937589645385746,-39.34241485595703,0.2680586278438568,0.365403950214386,0.029077529907226562,988.014404296875,0,13.0,1,1
11.28,0.08573228,-0.1414121,9.785814,-6.01257779635489e-05,-4.922179505228996e-05,-0.000407537561841309,-10.902251243591307,26.75636863708496,-38.92578125,0.28097134828567505,0.3494264483451843,0.024435997009277344,988.0326538085938,0,13.0,1,1
11.32,0.09527415,-0.15094478,9.77161,0.000872151053044945,-0.00031556544126942754,-0.00027430651243776083,-10.245983123779297,26.52814292907715,-39.16752624511719,0.26549071073532104,0.3618685901165009,0.029254913330078125,988.0498657226562,0,13.0,1,1
11.36,0.09047657,-0.16286077,9.766874000000001,-0.00019294145749881864,-0.000581909145694226,0.00012524065095931292,-10.982632637023926,27.682092666625977,-39.12152862548828,0.27327668666839605,0.3641654849052429,0.029376983642578125,988.017333984375,0,13.0,1,1
11.4,0.10001844,-0.15094389,9.764505,-0.0007254023221321403,0.0007496425532735884,0.0007911037537269294,-10.83249282836914,27.0325984954834,-39.26062774658203,0.2524375021457672,0.36716192960739136,0.03421592712402344,988.0071411132812,0,13.0,1,1
11.44,0.09283098599999999,-0.14379366,9.77634,0.0006063483306206763,0.00048329884884878993,-7.770722731947899e-06,-10.921356201171877,26.4748477935791,-38.52143859863281,0.2657162845134735,0.3508974313735962,0.020096778869628903,988.0372314453124,0,13.0,1,1
11.48,0.090423346,-0.14379324,9.771604,-5.927024176344276e-05,-0.000848308322019875,0.0003917764988727868,-10.684555053710938,26.644006729125977,-38.72179412841797,0.2739233076572418,0.3535504639148712,0.0485992431640625,988.01220703125,0,13.0,1,1
11.52,0.08323586,-0.14617606,9.77397,7.422984344884753e-05,-0.0005820479709655045,-0.0005401824600994587,-11.072879791259766,27.22878074645996,-39.00411224365234,0.272959440946579,0.34697091579437256,0.02500152587890625,988.0327758789062,0,13.0,1,1
11.56,0.08321813,-0.15332545,9.759764,-0.0003250730806030333,0.0011489773169159891,-0.0004069511778652668,-10.895589828491213,27.60622978210449,-40.20828247070313,0.2710631787776947,0.3590315580368042,0.04405689239501953,988.0276489257812,0,13.0,1,1
11.6,0.083200395,-0.15094174,9.759764,-0.00045806000707671046,-4.94717969559133e-05,-0.0002737198956310749,-11.790860176086426,27.926198959350586,-39.08824920654297,0.2646251320838928,0.3570095896720886,0.0252227783203125,988.0377807617188,0,13.0,1,1
11.64,0.07840282,-0.15570782,9.76923,-0.00045806000707671046,-4.94717969559133e-05,-0.0002737198956310749,-11.249053955078123,27.327016830444336,-38.67477416992188,0.2774182856082916,0.35496097803115845,0.04426002502441406,988.0377807617188,0,13.0,1,1
11.68,0.09750426,-0.13664122,9.755024,-0.0001915728789754212,-0.00018265744438394904,-0.0004068046109750867,-11.07440185546875,27.22730827331543,-38.92681121826172,0.2479306161403656,0.3247400522232056,0.053793907165527344,988.0427856445312,0,13.0,1,1
11.72,0.08553702,-0.15570699,9.75739,0.00020807230612263083,-0.0009816328529268503,0.00039221640327014034,-11.105950355529783,27.51412773132324,-39.400634765625,0.2607652842998505,0.35146263241767883,0.05388832092285156,988.0350952148438,0,13.0,1,1
11.76,0.06640011,-0.14855672,9.745553,0.00034140091156587005,-4.955515032634139e-05,-0.0002734999870881438,-11.202285766601562,27.05492973327637,-38.9739990234375,0.2877844870090485,0.3398572504520416,0.05398941040039063,988.0302124023438,0,13.0,1,1
11.8,0.0878914,-0.15332283,9.773957000000001,-0.0005905335419811307,0.0010156806092709305,-0.00027342664543539286,-11.18386173248291,27.59882164001465,-38.7777099609375,0.2284412086009979,0.32854974269866943,0.006752967834472656,988.0377807617188,0,13.0,1,1
11.84,0.08309388,-0.13902278,9.766853,0.0006080592866055668,0.0011488110758364198,0.0010582259856164458,-10.87165069580078,27.312047958374023,-39.34793090820313,0.24601155519485474,0.3362578451633453,0.021048545837402344,988.012451171875,0,13.0,1,1
11.88,0.09263569,-0.15332194,9.757383,7.559830555692315e-05,-0.00018279641517437994,-0.0010722276056185363,-11.040895462036133,27.680021286010746,-38.80449676513672,0.2635681629180908,0.3486398458480835,0.054282188415527344,988.0276489257812,0,13.0,1,1
11.92,0.07878047,-0.14618401,9.781099000000001,-0.00045686232624575496,0.0003498076112009585,-6.8907393142580994e-06,-10.800508499145508,27.48383140563965,-39.061012268066406,0.271443635225296,0.3326383829116821,0.02123546600341797,988.0327758789062,0,13.0,1,1
11.96,0.06973541,-0.13904686,9.748007000000001,0.0002090986235998571,0.0011487274896353485,0.0007921300712041558,-10.90235710144043,27.86271095275879,-39.298439025878906,0.2685345411300659,0.33102867007255554,0.044910430908203125,988.0531005859376,0,13.0,1,1
12.0,0.07692796,-0.15096377,9.771681,0.000604670203756541,0.0007474865997210145,0.0001194821670651436,-10.728141784667967,27.02495384216309,-39.27626037597656,0.26249375939369196,0.3243590593338013,0.03551769256591797,988.0151977539062,0,13.0,1,1
12.04,0.07695079,-0.15573083,9.776417,-6.372778443619609e-05,-0.0004505114047788084,0.0005178381688892841,-10.980567932128906,27.315275192260746,-39.10038757324219,0.27066758275032043,0.3316943645477295,0.0308685302734375,988.0151977539062,0,13.0,1,1
12.08,0.08414331,-0.14619835,9.778786,-0.001251117093488574,-0.0003808201872743666,0.0002343148807995021,-11.130706787109377,27.96476554870605,-38.961280822753906,0.2642207145690918,0.3248702585697174,0.02622699737548828,988.0253295898438,0,13.0,1,1
12.12,0.076996475,-0.14619885,9.776422,-0.0005855474737472832,0.0006844790186733007,-0.00016525323735550046,-11.179295539855957,27.60324287414551,-39.00962829589844,0.2485542595386505,0.3325241208076477,0.03577232360839844,988.0482788085938,0,13.0,1,1
12.16,0.07701933400000001,-0.15096600000000002,9.774057,0.00021317991195246577,-0.0003807487082667649,-0.0001653476501815021,-11.114401817321776,27.24291038513184,-39.53743743896485,0.25705698132514954,0.32112258672714233,0.012165069580078123,988.0355224609376,0,13.0,1,1
12.2,0.07226229,-0.15334979999999998,9.759855,-0.0004528298159129918,-0.0007801868487149477,-0.0001654418301768601,-11.029155731201172,26.95374870300293,-39.14872741699219,0.2608577609062195,0.32400548458099365,0.03116607666015625,988.0280151367188,0,13.0,1,1
12.24,0.07467508,-0.14143403,9.766959,-0.0003198919002898037,-0.0011796249309554696,0.0006334114586934447,-10.83455753326416,27.399415969848636,-39.281776428222656,0.249857097864151,0.3126351237297058,0.04071331024169922,988.0279541015624,0,13.0,1,1
12.28,0.09142724,-0.15096767,9.771695,-0.00018695410108193755,1.883227378129959e-05,-0.00016563053941354156,-11.15203857421875,27.523839950561523,-39.70204162597656,0.2433297634124756,0.32029399275779724,0.04553699493408203,988.0100708007812,0,13.0,1,1
12.32,0.08667022,-0.13905184,9.762229,-0.00018717400962486863,0.000817815656773746,0.0002337489859201014,-10.612977027893066,27.5538387298584,-38.709083557128906,0.2417709231376648,0.3088006377220154,0.03141593933105469,988.0206909179688,0,13.0,1,1
12.36,0.079523355,-0.1509688,9.774067,-0.0009863418526947498,0.00028521951753646135,-0.00029897718923166394,-11.044780731201172,27.41322898864746,-39.17320251464844,0.2356487810611725,0.30666011571884155,0.02675819396972656,988.0253295898438,0,13.0,1,1
12.4,0.077156276,-0.1533527,9.774069,-0.0005870881141163409,0.00041841325582936406,0.0015651397407054901,-10.589741706848145,27.10172843933105,-39.07112884521485,0.253059446811676,0.3191520571708679,0.012639999389648438,988.0127563476562,0,13.0,1,1
12.44,0.07000941,-0.15096994,9.7575,-0.000187834317330271,0.0006847648182883859,0.000233466038480401,-11.142202377319336,27.69061088562012,-38.94347381591797,0.24694740772247314,0.3123690187931061,0.055324554443359375,988.0355224609376,0,13.0,1,1
12.48,0.07959187,-0.14858718,9.77644,-0.0008538441616110504,-0.0002473050262778997,0.00023337156744673848,-10.918556213378906,27.47821617126465,-38.3496322631836,0.24546197056770325,0.310470849275589,0.026994705200195312,988.0534057617188,0,13.0,1,1
12.52,0.084394515,-0.14620455,9.757505,-0.0005877483054064214,0.0001522045349702239,0.00023327738745138052,-10.79952907562256,27.85359764099121,-39.23676300048828,0.2250799536705017,0.3040473461151123,0.05073070526123047,988.0355224609376,0,13.0,1,1
12.56,0.082027465,-0.14858834,9.757507,0.0003441372537054121,-0.000247233547270298,0.0004994989139959216,-10.90874481201172,27.22468376159668,-39.4140853881836,0.2378825545310974,0.3024037778377533,0.041335105895996094,987.9924926757812,0,13.0,1,1
12.6,0.0748806,-0.15812199,9.776446,0.0004770750529132784,0.0005517497193068267,-0.00029954308411106467,-11.22484016418457,27.244665145874023,-39.21257781982422,0.24135777354240415,0.3058811724185944,0.017724037170410156,988.023193359375,0,13.0,1,1
12.64,0.08685291,-0.14620619,9.774080999999999,0.0004768549115397036,1.915375469252467e-05,0.00023299444001168013,-10.797220230102539,26.48635292053223,-39.54204559326172,0.23532357811927795,0.294673889875412,0.04619407653808594,988.0459594726562,0,13.0,1,1
12.68,0.07014641,-0.14144023,9.781185,-5.5996875744313e-05,-0.0003802842984441668,0.0004992159083485603,-10.98111057281494,27.68356132507324,-39.198829650878906,0.2579568922519684,0.2975454330444336,0.02258872985839844,988.0082397460938,0,13.0,1,1
12.72,0.086898565,-0.14382403,9.771719000000001,-0.0004556907224468887,-0.0005134065286256373,-0.00029982608975842595,-10.905699729919434,27.227628707885746,-39.568702697753906,0.23257100582122806,0.29565390944480896,0.046334266662597656,988.028564453125,0,13.0,1,1
12.76,0.08214161,-0.15097438,9.740947,7.650075713172555e-05,-0.0005133350496180357,-3.369880141690373e-05,-10.718168258666992,27.29763984680176,-39.216773986816406,0.23548418283462524,0.3076037168502808,0.07009696960449219,988.0209350585938,0,13.0,1,1
12.8,0.072604835,-0.14859171,9.771723,7.650075713172555e-05,-0.0005133350496180357,-3.369880141690373e-05,-10.718168258666992,27.29763984680176,-39.216773986816406,0.24405965209007266,0.3020610213279724,0.032263755798339844,988.0209350585938,0,13.0,1,1
12.84,0.082187265,-0.14859222,9.759888,0.0004757546703331173,0.0010845959186553957,-0.00016695103840902448,-10.923826217651367,27.31587028503418,-39.340110778808594,0.21400010585784912,0.2862066328525543,0.05126476287841797,988.040771484375,0,13.0,1,1
12.88,0.0750404,-0.13667645,9.76936,7.606059079989791e-05,0.0006851578364148736,0.00023242848692461846,-11.079266548156738,26.59075736999512,-39.11976623535156,0.23124727606773374,0.27991122007369995,0.04187297821044922,988.0209350585938,0,13.0,1,1
12.92,0.08150697,-0.14619227,9.750359,0.0006091183167882264,1.9298982806503773e-05,-3.3704855013638735e-05,-10.94140911102295,27.035818099975586,-39.013084411621094,0.2354055345058441,0.2737340331077576,0.04199790954589844,988.026123046875,0,13.0,1,1
12.96,0.07194102,-0.14142556,9.774028999999999,8.248555241152644e-05,0.0006841147551313043,-0.0005637657013721764,-11.028177261352539,27.32351493835449,-39.32447814941406,0.22901546955108645,0.2818470597267151,0.02786731719970703,988.0235595703124,0,13.0,1,1
13.0,0.08388418,-0.15572508,9.757458,8.248555241152644e-05,0.0006841147551313043,-0.0005637657013721764,-10.980567932128906,27.315275192260746,-39.10038757324219,0.21834540367126465,0.2941606044769287,0.04213237762451172,988.0235595703124,0,13.0,1,1
13.04,0.0838778,-0.15334160000000002,9.788231,-0.00071640097303316,0.00015147315571084619,0.0005015240749344231,-10.953447341918944,27.12994956970215,-39.09371948242188,0.2170182466506958,0.2878633737564087,0.00905609130859375,988.0388793945312,0,13.0,1,1
13.08,0.06953207,-0.16049129999999998,9.764559,8.260837057605386e-05,-0.00011485270806588233,0.0003683924733195454,-10.909424781799316,27.48705863952637,-38.81346130371094,0.2346595823764801,0.29536789655685425,0.04700469970703125,988.0213012695312,0,13.0,1,1
13.12,0.07908529,-0.14857478,9.762192,-0.0009825942106544974,0.0006840849528089166,0.0005015766946598886,-11.089484214782717,27.31849479675293,-38.85283660888672,0.2286066710948944,0.27469706535339355,0.04233074188232422,988.028564453125,0,13.0,1,1
13.16,0.076689065,-0.16287424,9.764557,0.00034904637141153216,-0.00038118843804113567,0.0005016028298996389,-11.018203735351562,27.5961971282959,-39.264991760253906,0.20804837346076965,0.2828355133533478,0.04712963104248047,988.0313720703124,0,13.0,1,1
13.2,0.08385241,-0.15334101,9.771658,0.0003491074894554913,0.0008172229863703251,-3.100273897871375e-05,-11.16519260406494,27.14229393005371,-38.90784454345703,0.21639996767044067,0.2858864068984985,0.023517608642578125,988.0416259765624,0,13.0,1,1
13.24,0.07906631,-0.13427468,9.757454,-0.000449779152404517,0.00015142350457608703,0.0002353393356315792,-10.647867202758787,27.205575942993164,-39.45317077636719,0.2056767046451569,0.25557494163513184,0.0567169189453125,988.0390014648438,0,13.0,1,1
13.28,0.06950036,-0.16049053,9.769289,-0.0005828758585266769,0.00015141349285840988,-0.0006967399385757744,-10.777273178100586,27.031721115112305,-39.42305755615234,0.2325946390628815,0.2918033003807068,0.03312206268310547,988.0238647460938,0,13.0,1,1
13.32,0.08144352,-0.14619072,9.771656,-0.0008491307380609214,0.0012166672386229036,0.0013006553053855894,-10.970051765441896,27.21966361999512,-38.94244384765625,0.21248891949653625,0.2667977809906006,0.0568399429321289,988.0263061523438,0,13.0,1,1
13.36,0.07665741400000001,-0.14857383,9.757452,0.0011482995469123125,-0.0005143959424458443,-0.00016405590577051046,-10.72219181060791,26.92492866516113,-38.88640594482422,0.20166906714439392,0.2749417722225189,0.02375507354736328,988.0440063476562,0,13.0,1,1
13.4,0.07665104,-0.15095699999999998,9.766922000000001,0.00048257090384140616,0.0004176996881142258,0.0003686020208988338,-10.781838417053224,27.02730369567871,-39.191139221191406,0.2239340543746948,0.27330222725868225,0.04749584197998047,988.0213012695312,0,13.0,1,1
13.44,0.06708509,-0.13904046,9.769287,-0.0007157895597629249,0.0005508477333933115,-3.0845694709569216e-05,-11.422588348388672,27.90239906311035,-39.29757690429688,0.22258135676383967,0.25735896825790405,0.019150733947753903,988.029052734375,0,13.0,1,1
13.48,0.083808064,-0.15095665,9.766919999999999,-0.0004494124441407621,0.00028452201513573533,-0.0002971352660097182,-10.910701751708984,26.48515892028809,-39.06257629394531,0.2023296356201172,0.2607647478580475,0.04287242889404297,988.0390014648438,0,13.0,1,1
13.52,0.074242115,-0.14857323,9.771654,8.328031981363893e-05,1.8196122255176306e-05,-0.0005634250701405107,-11.04464340209961,27.519140243530273,-39.87228393554688,0.2157520353794098,0.25899142026901245,0.03818798065185547,988.0191040039062,0,13.0,1,1
13.56,0.0742358,-0.14857309,9.769285,-0.0003161323838867247,-0.0007807614165358245,-0.0002970828791148961,-11.20337200164795,27.7915096282959,-39.1708984375,0.20561447739601132,0.2626808881759644,0.03821849822998047,988.0319213867188,0,13.0,1,1
13.6,0.08617896,-0.15572270000000002,9.769285,0.0010660444386303425,-0.0011954604415223002,0.00037720712134614587,-11.09307098388672,27.683839797973636,-38.79667663574219,0.2048075497150421,0.26628175377845764,0.028786659240722656,988.0162963867188,0,13.0,1,1
13.64,0.07422310000000001,-0.14380623,9.771652,0.000666631618514657,-0.0009291544556617737,0.0003772333730012178,-11.036627769470217,27.05230140686035,-39.461280822753906,0.2039133906364441,0.25062236189842224,0.04303169250488281,988.04150390625,0,13.0,1,1
13.68,0.07421678,-0.15095587,9.781119,0.0002672190312296152,-0.0005296905292198062,0.0005104174488224089,-10.766757011413574,26.93611717224121,-39.265113830566406,0.20740631222724915,0.25875169038772583,0.02414989471435547,988.0191650390624,0,13.0,1,1
13.72,0.07660025,-0.14618914,9.77165,0.0001341220922768116,2.931337803602218e-06,0.00024412773200310767,-11.039128303527832,26.681062698364254,-39.20821380615234,0.206140011548996,0.2670063376426697,0.028934478759765625,988.0267944335938,0,13.0,1,1
13.76,0.08137375,-0.15333886,9.766916,0.000799973146058619,0.0006687112036161125,0.00011099607218056916,-11.208916664123537,27.417325973510746,-38.76322937011719,0.19048744440078733,0.26626649498939514,0.024247169494628903,988.0319213867188,0,13.0,1,1
13.8,0.06463808,-0.14857213,9.769282,0.0015989821404218676,0.0004023851943202317,0.0003773383505176753,-10.912468910217283,27.484113693237305,-38.658851623535156,0.21771490573883054,0.2744135856628418,0.02430438995361328,988.0140380859376,0,13.0,1,1
13.84,0.08375096,-0.14857192,9.766914,0.00026746396906673914,0.0006686912965960801,-2.2109306883066893e-05,-10.973094940185547,27.21671867370605,-38.78783416748047,0.21217525005340576,0.2589959502220154,0.05274677276611328,988.0137329101562,0,13.0,1,1
13.88,0.06462544,-0.14857186,9.778749000000001,0.0006669987924396992,-0.0011955299414694311,-0.0005547149921767414,-10.750833511352539,27.108774185180664,-38.815765380859375,0.21612140536308289,0.2530350089073181,0.01964282989501953,988.0092163085938,0,13.0,1,1
13.92,0.07695335,-0.14619781,9.764582,0.00026758608873933554,-0.0006629080744460225,-2.2056919988244765e-05,-10.582674980163574,27.477384567260746,-39.55610656738281,0.2006807029247284,0.2372066378593445,0.0480499267578125,988.024169921875,0,13.0,1,1
13.96,0.07696223,-0.16764756,9.76695,0.00013266690075397491,-0.0009289380395784974,-2.2811756934970614e-05,-11.115081787109377,27.50528907775879,-38.936805725097656,0.18488049507141116,0.26000627875328064,0.02916431427001953,988.03173828125,0,13.0,1,1
14.0,0.06502163400000001,-0.13904844,9.778786,0.0006634274031966925,0.0006692611495964228,-0.00028992962324991817,-10.780860900878906,27.397062301635746,-39.36689758300781,0.2123062014579773,0.2394808232784271,0.02447986602783203,988.0116577148438,0,13.0,1,1
14.04,0.08175981,-0.14619853,9.764585,0.00013071007560938597,3.4852419048547745e-06,0.00010950752766802908,-10.756240844726562,26.840505599975586,-39.10717010498047,0.20185601711273196,0.24310609698295596,0.03398323059082031,988.0243530273438,0,13.0,1,1
14.08,0.074599,-0.15334858,9.75985,0.0005300983320921661,-0.00026281675673089916,-2.368708373978734e-05,-10.967007637023926,27.22260856628418,-39.09705352783203,0.1910303831100464,0.2563583850860596,0.05770111083984375,988.0396728515624,0,13.0,1,1
14.12,0.08177757,-0.14858215,9.752749,0.0006631707074120642,0.00026982882991433144,-2.3723754566162825e-05,-11.041193962097168,27.04788017272949,-39.22936248779297,0.18535920977592468,0.2410084754228592,0.04826545715332031,988.0324096679688,0,13.0,1,1
14.16,0.07461676,-0.14858241,9.755117,0.000796243199147284,-0.000395946903154254,-0.00015691836597397923,-10.956491470336914,27.12700462341309,-38.939109802246094,0.18921160697937006,0.24422992765903476,0.04830455780029297,988.01708984375,0,13.0,1,1
14.2,0.07701549,-0.15334918,9.776423,-2.7901260182261467e-06,-0.00026277510914951563,-0.0005564288585446775,-11.201306343078613,27.424692153930664,-39.149757385253906,0.19742602109909055,0.25765180587768555,0.02467823028564453,988.03466796875,0,13.0,1,1
14.24,0.07941431,-0.13428320000000002,9.776424,0.0009292298927903175,0.0002698705648072064,-0.00042330758878961205,-11.110516548156738,27.50971031188965,-39.168724060058594,0.19623786211013794,0.22287502884864807,0.053130149841308594,988.0196533203124,0,13.0,1,1
14.28,0.07703331,-0.15334965,9.757486,0.0007959009381011128,0.0001367404474876821,0.0006418825360015035,-10.802573204040527,27.85065269470215,-39.0821533203125,0.19983446598052976,0.25021833181381226,0.038969993591308594,988.0022583007812,0,13.0,1,1
14.32,0.07943204,-0.14858331,9.764588999999999,0.0007959009381011128,0.0001367404474876821,0.0006418825360015035,-11.0910062789917,27.3170223236084,-38.77552795410156,0.19373080134391785,0.2490013539791107,0.0390167236328125,988.0022583007812,0,13.0,1,1
14.36,0.07944095,-0.15335001,9.774059,0.0001300255535170436,0.001068859826773405,-0.00015710160369053483,-10.86638069152832,27.47439384460449,-38.3574447631836,0.19802984595298767,0.252560555934906,0.020101547241210938,988.0301513671876,0,13.0,1,1
14.4,0.07944983,-0.14381711,9.766958,0.0005294138099998237,-0.0015942850150167944,0.0007749672513455153,-10.86113452911377,27.21644401550293,-39.18998718261719,0.18744754791259768,0.25103914737701416,0.024875640869140625,988.0225219726562,0,13.0,1,1
14.44,0.0842385,-0.15811701,9.764592,-0.0005359351634979248,-0.0001295337569899857,-0.0002903331187553704,-11.073423385620117,27.59707069396973,-39.1025619506836,0.16744521260261536,0.24033422768116,0.034377098083496094,988.057861328125,0,13.0,1,1
14.48,0.08663726,-0.15096743,9.764593,0.0002629267983138561,-0.00012951996177434919,0.00024226217647083106,-11.140137672424316,27.323789596557614,-38.922325134277344,0.17125394940376282,0.22960789501667025,0.04388141632080078,988.0301513671876,0,13.0,1,1
14.52,0.08425629,-0.14143457,9.769328,0.0001296832924708724,0.00013680983101949096,0.00010906753595918416,-10.986655235290527,27.30937767028809,-38.79116821289063,0.16539263725280762,0.21369144320487976,0.04392433166503906,988.0171508789062,0,13.0,1,1
14.56,0.069925725,-0.14620136,9.769328999999999,-0.000536191975697875,0.00013682380085811022,0.0009079783922061324,-11.40003490447998,27.71265983581543,-39.058998107910156,0.19776701927185056,0.221319779753685,0.048702239990234375,988.0175170898438,0,13.0,1,1
14.6,0.0771043,-0.15096803,9.776432000000002,-3.6458950489759454e-06,-0.0005289519904181361,-2.416380448266864e-05,-10.894342422485352,27.39587211608887,-38.88743591308594,0.17814341187477112,0.2349010109901428,0.02504920959472656,988.0252685546876,0,13.0,1,1
14.64,0.081893,-0.15811808,9.762229,0.00012942659668624398,-0.0010615700157359242,-2.4200533516705043e-05,-11.18331813812256,27.230531692504886,-38.67926025390625,0.17747855186462402,0.2383025884628296,0.04874992370605469,988.0280151367188,0,13.0,1,1
14.68,0.096241236,-0.14620192,9.769331,-0.0004032907309010625,-0.0011947139864787462,-0.0009563427302055061,-11.19383430480957,27.32613945007324,-38.83720397949219,0.1627066135406494,0.20844274759292605,0.03456687927246094,988.0301513671876,0,13.0,1,1
14.72,0.086690545,-0.14858548,9.757496000000002,-0.00013706041499972343,-0.0009283841936849057,0.00037519997567869723,-11.366283416748047,27.16494560241699,-39.263099670410156,0.17163586616516113,0.22592850029468536,0.048797607421875,988.0203857421876,0,13.0,1,1
14.76,0.07474995,-0.13905258,9.774067,-0.0005366199184209108,-0.0009283702820539474,-0.0005569422501139343,-11.346230506896973,26.60397148132324,-38.77146911621094,0.17946535348892212,0.223755806684494,0.03465557098388672,988.0104370117188,0,13.0,1,1
14.8,0.08192846,-0.13905285,9.778803,-0.00040354731027036905,0.0004032230353914201,0.0003751266631297767,-11.372371673583984,27.1590518951416,-38.953880310058594,0.1835128366947174,0.2138284891843796,0.029943466186523438,988.035888671875,0,13.0,1,1
14.84,0.07237777,-0.15811925,9.785905,0.00012899877037853003,0.0008027107105590402,0.0006414058152586223,-10.7779541015625,27.29409599304199,-38.82243347167969,0.18189531564712524,0.24615728855133054,0.025257110595703125,988.0130004882812,0,13.0,1,1
14.88,0.07240254,-0.14382012,9.764603,0.000927860732190311,0.0020011460874229674,0.0003750533214770258,-10.884124755859377,26.668127059936523,-39.15435791015625,0.18881553411483765,0.20724473893642426,0.0584707260131836,988.0228881835938,0,13.0,1,1
14.92,0.09154743,-0.14858736,9.7504015,0.0007946174591779709,0.004531160928308964,0.0005081746494397521,-10.622269630432127,27.01878547668457,-39.36920166015625,0.1527155041694641,0.2254045456647873,0.0490713119506836,988.0328369140624,0,13.0,1,1
14.96,0.08199796,-0.1485876,9.748035,0.0011933489004150033,0.003598039969801903,0.0003725264396052808,-11.145108222961426,27.79357719421387,-39.487937927246094,0.173596128821373,0.22441737353801727,0.05388736724853516,988.0380249023438,0,13.0,1,1
15.0,0.048549472999999996,-0.12952162,9.748036,0.0009268975118175149,0.005462272558361292,0.0007719421992078424,-11.131686210632324,27.59499931335449,-38.78553009033203,0.18003658950328827,0.19501663744449613,0.03976726531982422,987.9974975585938,0,13.0,1,1
15.04,0.058119237000000004,-0.12952186,9.769342,0.00026101002003997564,0.005195972975343466,0.0010382161708548665,-11.31891918182373,28.15712547302246,-38.71258544921875,0.19260311126708984,0.18448524177074432,0.03508281707763672,988.0330200195312,0,13.0,1,1
15.08,0.060519277999999996,-0.1414385,9.774077,0.0006603860529139638,0.0014675662387162447,0.00023922655964270234,-10.887413024902344,27.665605545043945,-38.67333221435547,0.1676820069551468,0.20264127850532526,0.02091026306152344,988.0104370117188,0,13.0,1,1
15.12,0.06769913400000001,-0.14620529,9.766977,0.0003939722664654255,2.8448994271457195e-06,0.00023918462102301421,-10.842710494995117,27.760343551635746,-38.99370574951172,0.17148485779762268,0.215661495923996,0.030409812927246094,988.01806640625,0,13.0,1,1
15.16,0.07248914,-0.13428919,9.766977,0.00026071653701364994,-0.00013029720867052674,0.00023914268240332603,-10.343809127807617,27.279726028442386,-39.73532104492188,0.16600926220417025,0.2052755206823349,0.02096271514892578,988.0056762695312,0,13.0,1,1
15.2,0.07488915,-0.1533557,9.77408,0.0009264082182198764,-0.0005297550815157592,-0.0009593206341378393,-10.590147018432617,27.575937271118164,-39.86865997314453,0.16538378596305847,0.2233223170042038,0.02098369598388672,988.00830078125,0,13.0,1,1
15.24,0.06055990000000001,-0.1557392,9.762245,-0.00040526874363422405,-0.0010623709531500936,-0.00029357295716181403,-11.135571479797363,27.32821083068848,-39.15423583984375,0.17896947264671326,0.22642052173614505,0.04941844940185547,988.0283813476562,0,13.0,1,1
15.28,0.067739725,-0.13667323,9.759879,-0.0008048407034948468,-0.0006628812407143414,-0.00016045698430389166,-10.744746208190918,27.11466789245605,-39.12498474121094,0.16398879885673526,0.1923280954360962,0.04470157623291016,988.0285034179688,0,13.0,1,1
15.32,0.06774992,-0.14858986,9.781185,0.0011924307327717545,-0.00026339155738241965,0.000771606806665659,-10.87469482421875,27.30910301208496,-39.193321228027344,0.17240434885025024,0.22490139305591586,0.016326904296875,988.0260620117188,0,13.0,1,1
15.36,0.07731962,-0.15097336,9.757513000000001,0.0011923328274860976,2.9401853680610657e-06,-0.0004268567427061498,-11.039373397827148,27.681493759155273,-38.881797790527344,0.1527033895254135,0.2145838290452957,0.04948520660400391,988.0059814453124,0,13.0,1,1
15.4,0.07493991,-0.14620705,9.771718,0.0009259191574528812,-0.0007959915674291551,-0.0009595304145477713,-11.141658782958984,27.32231712341309,-38.84502410888672,0.16573938727378845,0.2089458405971527,0.04005241394042969,988.0056762695312,0,13.0,1,1
15.44,0.07256016,-0.13905747,9.774086,0.000792663311585784,0.0010682353749871254,0.00037200713995844126,-11.196197509765623,27.06081962585449,-39.28321838378906,0.15037976205348969,0.2079978585243225,0.04008102416992188,988.021240234375,0,13.0,1,1
15.48,0.060620785,-0.14859082,9.785923,0.0002599338768050074,0.000402461679186672,-0.0006932983524166048,-10.530936241149902,26.735509872436523,-39.28971862792969,0.17277538776397705,0.192876860499382,0.02591705322265625,988.0209350585938,0,13.0,1,1
15.52,0.06780064,-0.1319081,9.776455,0.0007924677338451147,0.0012014252133667471,0.0007713970844633878,-10.34546947479248,27.17233848571777,-38.95893096923828,0.16704198718070984,0.1966705620288849,0.01647472381591797,988.0133056640624,0,13.0,1,1
15.56,0.07020068,-0.15097462,9.774088,0.0006592118879780173,0.00040249346056953067,-2.7592468541115522e-05,-10.35544204711914,26.8996524810791,-39.01842498779297,0.15192900598049164,0.2197315096855164,0.030699729919433594,988.0336303710938,0,13.0,1,1
15.6,0.060651243,-0.14144179999999998,9.755152,0.0002595424884930253,-0.0005295804003253579,-2.767634578049183e-05,-10.803850173950195,26.8487491607666,-39.33126831054688,0.1703549027442932,0.2042980045080185,0.04965877532958984,988.0263061523438,0,13.0,1,1
15.64,0.07978058,-0.13667549,9.764622,0.005585762206465006,0.00013622513506561518,-0.0004271920188330114,-11.307722091674805,27.79915428161621,-39.15526580810547,0.14085432887077332,0.1911482810974121,0.02599811553955078,988.0697631835938,0,13.0,1,1
15.68,0.063061446,-0.14620884,9.750419,0.005585762206465006,0.00013622513506561518,-0.0004271920188330114,-10.82015609741211,27.570600509643555,-38.75511932373047,0.15870915353298187,0.1983906328678131,0.05918025970458984,988.0697631835938,0,13.0,1,1
15.72,0.0869706,-0.14144255,9.785928,-0.0037353914231061935,0.001068346668034792,0.0005048715393058956,-10.844369888305664,27.6529483795166,-38.21731567382813,0.13347268104553225,0.19181695580482486,0.007142066955566406,988.2374877929688,0,13.0,1,1
15.76,0.079811096,-0.14620931,9.764624000000001,-0.0009391724597662687,0.0006688887369818985,-2.780207432806492e-05,-10.404520034790039,28.53898429870605,-38.41392517089844,0.14206010103225708,0.20523883402347565,0.04030895233154297,987.9271850585938,0,13.0,1,1
15.8,0.063091904,-0.15574266,9.776461,0.0006586250383406878,0.0005357466288842262,0.00023847183911129835,-10.88200569152832,27.933874130249023,-38.381927490234375,0.16030238568782804,0.19524817168712616,0.04032993316650391,987.9555053710938,0,13.0,1,1
15.84,0.075051546,-0.14620979,9.755157,0.001324316835962236,0.0002694466966204345,-0.0005605178303085269,-10.638712882995604,27.63471794128418,-38.093971252441406,0.14927512407302854,0.19419215619564054,0.06403827667236328,988.0215454101562,0,13.0,1,1
15.88,0.077546835,-0.14382912,9.76227,0.0002589554060250521,0.0012015681713819506,-0.0008268756209872662,-10.851001739501953,28.01534843444824,-38.00654602050781,0.1436850279569626,0.18821963667869568,0.045113563537597656,988.0093383789062,0,13.0,1,1
15.92,0.0823406,-0.14621277,9.76227,-7.684808224439621e-06,0.00013635726645588878,0.00037140690255910164,-11.012689590454102,26.758119583129886,-38.600929260253906,0.13741028308868408,0.19674108922481534,0.04041767120361328,987.9736938476562,0,13.0,1,1
15.96,0.06323531,-0.15097965,9.774107,0.00012431712821125984,0.0012007666518911721,-0.00016371224774047732,-10.831789016723633,27.19052314758301,-38.038230895996094,0.15076524019241333,0.21480731666088104,0.021503448486328125,988.0062866210938,0,13.0,1,1
16.0,0.068029046,-0.14383014,9.759905999999999,0.00039049866609275336,0.00026868301210924983,0.00023570421035401523,-10.93059539794922,27.572355270385746,-38.430267333984375,0.1451101154088974,0.1853783428668976,0.04993247985839844,988.0140380859376,0,13.0,1,1
16.04,0.06326324,-0.13906394,9.769375,0.0006566799711436032,-0.00026392698055133224,0.00010248861508443952,-10.984834671020508,27.94299125671387,-38.44359588623047,0.14467757940292358,0.17975202202796936,0.04994487762451172,988.016845703125,0,13.0,1,1
16.08,0.06805694,-0.14144756,9.778845,0.0003902297466993332,-0.0005302209756337106,0.0007682206341996789,-10.611592292785645,27.44939994812012,-38.087310791015625,0.15306442975997925,0.18847495317459104,0.02630138397216797,988.0241088867188,0,13.0,1,1
16.12,0.06807092,-0.14144792,9.752808,0.0007895691087469459,0.00040190643630921835,0.0003686892450787127,-10.639010429382324,27.002580642700195,-38.51884460449219,0.1476617306470871,0.1924360692501068,0.035785675048828125,988.0318603515624,0,13.0,1,1
16.16,0.07286465,-0.14621479999999998,9.767012,0.0007894346490502357,-0.0005301773780956863,0.00023547359160147607,-10.623493194580078,27.649450302124023,-38.86702728271485,0.14226269721984866,0.18689733743667605,0.03579998016357422,988.0347290039062,0,13.0,1,1
16.2,0.0728786,-0.14859842,9.771747999999999,0.00025666854344308376,-0.00026383966905996203,-0.00029721570899710065,-10.856706619262695,27.11494255065918,-38.72282409667969,0.14139600098133087,0.19046877324581146,0.045291900634765625,988.0547485351562,1,1.0,2,2
16.24,0.07289255,-0.15336527,9.764647,-0.00027609756216406817,2.4980399757623672e-06,0.00036851642653346067,-10.57175350189209,26.90757179260254,-38.60063171386719,0.14990881085395813,0.19424214959144592,0.045318603515625,988.01708984375,1,1.0,2,2
16.28,0.072906464,-0.14144929,9.752811999999999,0.00038955756463110447,0.0002688358654268086,0.0005016167415305972,-10.312100410461426,27.51912879943848,-38.137542724609375,0.134700208902359,0.1738114356994629,0.0548086166381836,988.0195922851562,1,1.0,2,2
16.32,0.070530534,-0.15574922,9.762283,-0.0005426823627203703,0.0006683313986286521,0.000102085352409631,-10.560938835144043,27.44410514831543,-38.017822265625,0.13840240240097046,0.1967124789953232,0.04063129425048828,988.0272216796876,1,1.0,2,2
16.36,0.07532430000000001,-0.14621653,9.771752000000001,0.00012297299690544605,0.0006683531682938338,-0.0006969200330786407,-11.02692985534668,27.113149642944336,-38.00363159179688,0.1327245980501175,0.18594355881214145,0.02645206451416016,988.0247192382812,1,1.0,2,2
16.4,0.06577864,-0.13668375,9.771753,-0.00027663551736623054,2.5853514671325684e-06,0.00010197004303336143,-10.932116508483887,27.57088279724121,-38.35295867919922,0.15085656940937042,0.16599510610103607,0.04067707061767578,988.0145874023438,1,1.0,2,2
16.44,0.07774210000000001,-0.14860047,9.767021000000002,-1.0453863069415092e-05,0.0006683968240395187,0.00010191247565671802,-10.852416038513184,26.907529830932614,-37.55658721923828,0.1315503716468811,0.17927096784114838,0.04068374633789063,988.0297241210938,1,1.0,2,2
16.48,0.07058635,-0.13906766,9.757553,0.0003888856153935194,-0.0017284242203459144,0.00023501281975768507,-10.722030639648438,27.45114707946777,-37.76245880126953,0.13069137930870056,0.1733105331659317,0.05017280578613281,988.0350341796876,1,1.0,2,2
16.52,0.08015987,-0.15336768,9.774125,-0.0006765127182006836,0.0002689666580408812,0.00010179728269577026,-10.49452304840088,27.085248947143555,-38.62293243408203,0.1399088054895401,0.1817830950021744,0.021775245666503903,988.0374755859376,1,1.0,2,2
16.56,-0.14208706,-1.1066794,9.90669,-0.00027717300690710545,-0.0011957488022744653,-0.00016457622405141592,-10.625993728637695,27.27821159362793,-38.61396026611328,0.12006153166294098,0.17874540388584134,0.007596015930175781,988.02783203125,1,1.0,2,2
16.6,-0.8805528,-1.8478795,9.828573,-0.00746783521026373,2.6944326236844063e-06,0.0024985249619930983,-10.211634635925293,27.24469566345215,-38.521881103515625,1.6380507946014404,2.651482105255127,-0.24327850341796875,988.0195922851562,1,1.0,2,2
16.64,1.389868,1.4601108,10.070028,-0.17281731963157654,0.022952420637011528,0.5203034877777101,-9.651267051696776,27.29531669616699,-38.61119842529297,-0.7817263603210449,-0.4819616377353668,0.18756961822509768,987.963623046875,1,1.0,2,2
16.68,0.3263756,1.302814,10.806231,-0.1621648371219635,0.03387139365077019,1.2866274118423462,-9.021522521972656,28.516679763793945,-38.009864807128906,-0.5309842824935913,-2.371645450592041,-1.673563003540039,987.9485473632812,1,1.0,2,2
16.72,0.16865599,-1.595253,9.544514,-0.9404731392860411,-0.15654444694519046,0.6955392360687256,-8.275932312011719,30.00456047058105,-37.441978454589844,-0.07895053923130035,-0.5138237476348877,0.062405586242675774,987.956298828125,1,1.0,2,2
16.76,0.015716225,-2.7797422000000003,9.485334,-1.6468762159347534,-0.012600681744515896,0.2434679716825485,-7.59537410736084,31.74684715270996,-35.64720153808594,0.029984712600708008,1.3888592720031738,-0.03166007995605469,987.9638671875,1,1.0,2,2
16.8,0.14956462,-2.6772617999999997,9.326733,-1.721444606781006,-0.05507804453372955,0.32935479283332825,-7.552659034729004,34.261260986328125,-33.41439819335937,0.2221468836069107,0.07946348190307617,0.19516658782958984,987.9819946289062,1,1.0,2,2
16.84,0.06832194,-3.2730818,9.847517999999999,-1.7643216848373413,-0.06479855626821518,0.3129763007164001,-7.27064323425293,37.31607055664063,-31.635011672973636,0.20800279080867767,0.022820234298706055,-0.019051551818847656,987.9541625976562,1,1.0,2,2
16.88,-0.30448878,-3.3112147000000003,9.402486,-1.7466118335723877,-0.03643588721752167,0.1984604150056839,-6.954906463623048,38.61090087890625,-28.987993240356445,0.09898889809846878,-0.29364824295043945,-0.2779273986816406,987.9819946289062,1,1.0,2,2
16.92,-0.6247216999999999,-3.9404006000000003,8.102893,-1.311185359954834,0.7450680732727051,0.12722086906433105,-6.664332866668701,40.83058166503906,-26.69915580749512,0.20275092124938965,-0.539823055267334,0.2996225357055664,988.0171508789062,1,1.0,2,2
16.96,-0.9569042,-4.5600533,8.292271000000001,-1.4034643173217771,0.5831480622291565,-0.12298302352428435,-4.801707267761231,43.09943389892578,-23.731630325317386,0.2326721549034119,0.001216888427734375,0.21547222137451166,988.0608520507812,1,1.0,2,2
17.0,-0.6748816999999999,-5.339385500000001,8.462710000000001,-1.177228927612305,0.6155055165290833,-0.2339036464691162,-4.266073226928712,44.02100372314453,-21.55856132507324,0.09292483329772948,-0.12387704849243165,-0.6866827011108398,988.0327758789062,1,1.0,2,2
17.04,-1.1265593,-5.5348144,7.0518594,-1.177228927612305,0.6155055165290833,-0.2339036464691162,-4.4059715270996085,44.363059997558594,-19.86336326599121,0.10472989082336426,0.1327657699584961,1.6934175491333008,988.0327758789062,1,1.0,2,2
17.08,-1.2101918,-5.510982,8.330149,-0.8608459234237671,0.8188377022743225,-0.10926786065101624,-3.9437046051025386,44.95343780517578,-19.122316360473636,-0.1875627040863037,0.13288640975952148,-0.4994874000549317,988.0049438476562,1,1.0,2,2
17.12,-1.1026323,-6.8718343,5.669416,-0.6202296614646912,0.5064491629600525,0.020161591470241547,-3.463855743408203,45.82386779785156,-18.708303451538086,-0.03506410121917725,0.3450322151184082,0.01352071762084961,988.0202026367188,1,1.0,2,2
17.16,-1.8697768,-5.4823832999999995,9.295971,-0.2994522750377655,0.9651783108711244,0.020161531865596768,-2.3689918518066406,45.90007019042969,-17.57274055480957,0.2808524370193481,-0.2141594886779785,-0.7521867752075195,988.1067504882812,1,1.0,2,2
17.2,-1.9462398,-5.9328237,7.179692999999999,-0.853123128414154,-0.4715958535671234,0.5872811079025269,-1.5823163986206057,46.6357650756836,-16.197328567504886,0.1001596450805664,0.005242824554443359,1.152768611907959,988.459716796875,1,1.0,2,2
17.24,-2.6106186,-5.463318,6.694418400000001,-0.4039815664291382,0.4980602860450745,0.4229642152786255,-0.2022256851196289,46.7164306640625,-16.337730407714847,0.4527430534362793,-0.5684242248535156,0.5862269401550293,988.5614013671876,1,1.0,2,2
17.28,-2.2999175,-6.082971,6.6731143,-0.08293785899877547,0.8103156685829163,0.25625038146972656,0.5943698883056641,46.092247009277344,-15.654115676879885,0.0991530418395996,-0.061686515808105476,0.3389997482299805,988.2945556640624,1,1.0,2,2
17.32,-2.192358,-6.321299,6.4837394,-0.2054433077573776,0.42788606882095337,-0.10860241949558258,0.002751350402832031,46.9605712890625,-15.613759994506836,0.13190793991088867,0.10512733459472656,1.3522939682006836,987.9949951171876,1,1.0,2,2
17.36,-2.3213985,-5.966191,6.39142,-0.3279487490653992,-0.11326775699853894,-0.13736459612846375,-0.33962345123291016,47.429725646972656,-14.895593643188475,0.17421603202819824,-0.17223167419433594,-0.2554759979248047,987.8447875976562,1,1.0,2,2
17.4,-1.9127115000000001,-5.956658,2.3837476000000004,-0.2535135746002197,-0.40661466121673584,-0.06665778905153275,-0.7535772323608398,46.989036560058594,-14.190141677856445,0.8107115030288696,-0.7042636871337891,4.329866886138916,987.735595703125,1,1.0,2,2
17.44,1.6052381000000002,-7.458123700000001,7.7052207,-0.22035740315914154,-1.164283275604248,-0.29142847657203674,-1.9462738037109373,46.87245178222656,-12.998735427856445,-1.8083648681640625,1.8696517944335935,3.22411847114563,987.771240234375,1,1.0,2,2
17.48,0.9743179,-7.2197960000000005,8.711282,-1.260454177856445,-5.350902080535889,-0.5171312093734741,-5.072343349456787,47.42054748535156,-10.239561080932617,-0.8673775196075441,-0.04664754867553711,-4.198347091674806,987.9384155273438,1,1.0,2,2
17.52,-0.43332034,-7.260312599999999,5.8730080000000005,-0.08253919333219527,-1.2098233699798584,0.5883458852767944,-4.749700546264648,48.56481170654297,-9.20146942138672,1.1173597574234009,0.2625441551208496,4.948654174804688,987.9718627929688,1,1.0,2,2
17.56,-0.12261914,-7.029135000000001,6.793850999999999,-0.5604432225227356,0.4649041295051575,0.21204154193401334,-4.408686637878418,48.62040710449219,-8.718381881713867,0.16409319639205933,-0.1925196647644043,-0.9980239868164062,987.9464721679688,1,1.0,2,2
17.6,0.17135274,-7.455742,6.149973,-0.7961328029632568,-0.5256577730178833,0.1952635943889618,-4.5961952209472665,48.970703125,-7.247282028198242,0.07252649962902069,0.055194854736328125,0.439321517944336,987.97705078125,1,1.0,2,2
17.64,0.032752365,-7.470041800000001,6.3346160000000005,-0.5175666213035583,0.005908751394599676,0.0004534672480076552,-4.601441383361816,49.2286605834961,-6.4147396087646475,0.08491867780685425,0.18210887908935547,0.17638731002807614,987.9846801757812,1,1.0,2,2
17.68,-0.029371142000000003,-7.460509,6.1452413,-0.3904009163379669,-0.09822073578834534,0.09086765348911284,-4.045776844024658,49.1689453125,-5.57305908203125,0.2387422472238541,-0.17940807342529294,0.05440187454223633,987.9972534179688,1,1.0,2,2
17.72,-0.38144696,-6.759806599999999,6.706198700000001,-0.4734915494918823,-0.13590441644191742,0.10391706228256226,-4.535683631896973,49.55248260498047,-4.596197128295898,0.5281128883361816,-0.8051447868347168,-0.335871696472168,988.007568359375,1,1.0,2,2
17.76,0.2757733,-8.170708,6.2067190000000005,-0.3081077039241791,0.07062327861785889,-0.03350118547677994,-4.472448825836182,49.08476257324219,-4.3476200103759775,0.04722626507282257,-0.042449951171875,-0.5389571189880371,988.007568359375,1,1.0,2,2
17.8,0.17778468,-8.003879,6.119132,0.3825880885124207,1.0125815868377686,-0.5458905696868896,-5.214804649353027,49.33831024169922,-5.017905235290527,-0.5314312577247621,1.010737419128418,0.6512904167175293,988.0882568359376,1,1.0,2,2
17.84,-0.48900074,-7.2483783,7.4518666,0.7892523407936096,1.4655848741531372,-0.2639952301979065,-5.180777549743652,49.00243377685547,-6.620165824890138,-0.26084521412849426,0.29619932174682617,-0.8668522834777832,988.0608520507812,1,1.0,2,2
17.88,-0.9120161,-6.3379664,5.548636,0.941052496433258,1.5087281465530396,0.19526654481887815,-4.957124710083008,49.58200073242188,-8.921089172363281,-0.2052949070930481,-0.6263408660888672,1.5364389419555664,987.9948120117188,1,1.0,2,2
17.92,-0.95503706,-6.5190954,6.4529065999999995,0.9497077465057372,1.6345624923706057,0.4518619179725647,-2.6689043045043945,49.09210205078125,-11.400590896606445,-0.7680820226669312,0.4068217277526856,0.6298236846923828,988.0887451171876,1,1.0,2,2
17.96,-1.3230846,-3.5924292,6.895573,0.901504635810852,0.40271830558776855,0.7593236565589905,-1.371175765991211,48.93866729736328,-13.208257675170898,-0.3543217182159424,-2.623019218444824,1.7723631858825684,988.0756225585938,1,1.0,2,2
18.0,-0.8713959000000001,-5.785044999999999,9.068665,1.1454501152038574,-0.15161824226379395,0.4900782406330109,-0.2017650604248047,47.87478637695313,-14.788909912109375,-0.10023200511932373,-0.1607837677001953,-1.930309772491455,988.032470703125,1,1.0,2,2
18.04,-1.5811993999999998,-5.897059400000001,9.506596,1.0121589899063108,-0.806355893611908,-0.7470921874046326,-1.4401922225952148,46.45310974121094,-16.747430801391598,0.4726970791816712,0.1165761947631836,-0.3593730926513672,988.1492919921876,1,1.0,2,2
18.08,-1.8799398999999997,-6.864670299999999,12.321199,1.286064863204956,-0.7257952690124512,-0.7433637380599976,-3.664105892181397,46.11035919189453,-18.540239334106445,1.2963206768035889,1.8301358222961424,-5.234193801879883,988.1568603515624,1,1.0,2,2
18.12,-2.4415696,-5.7564459999999995,10.280671,1.2816706895828247,-0.20501457154750824,-0.8067469596862793,-5.0448174476623535,44.345115661621094,-21.072603225708008,1.6304316520690918,1.2032790184020996,-1.249577522277832,988.136474609375,1,1.0,2,2
18.16,-2.2957883,-5.0962777,11.090254,1.401512861251831,0.707783043384552,-0.4059414565563202,-5.636512279510497,43.16058349609375,-23.60656547546387,1.4507768154144287,1.37941312789917,-2.525729179382324,988.050048828125,1,1.0,2,2
18.2,-1.8560491000000001,-3.713976,9.478189,1.6373356580734253,0.4107077121734619,-0.17091770470142365,-5.657215118408202,40.82471466064453,-25.69923973083496,1.1379034519195557,0.6883437633514404,-0.3160514831542969,987.991455078125,1,1.0,2,2
18.24,-1.7317768,-2.7892637000000002,9.901917999999998,1.7795482873916626,0.2784818708896637,0.0020544752478599553,-5.768977165222168,38.98396301269531,-29.26955604553223,0.5040991306304932,-0.13368582725524902,-0.3565826416015625,987.96630859375,1,1.0,2,2
18.28,-2.087875,-3.9141717000000003,11.776743,1.5012482404708862,-0.0043455916456878185,-0.08396553993225098,-5.692121505737305,36.47663116455078,-32.291046142578125,1.4621798992156982,1.6105258464813232,-2.10147476196289,987.9866333007812,1,1.0,2,2
18.32,-1.8106490000000002,-1.8025866999999998,10.036849,1.3639624118804932,0.4719603657722473,0.17023298144340515,-6.166120052337647,33.03301239013672,-36.712547302246094,0.6822176575660706,0.5257714986801147,-1.1851863861083984,988.0195922851562,1,1.0,2,2
18.36,-2.5037230999999998,-1.0542372,9.4592495,1.3639624118804932,0.4719603657722473,0.17023298144340515,-5.539549350738525,30.56599235534668,-39.28221130371094,1.190518498420715,0.14759457111358645,0.7843809127807617,988.0195922851562,1,1.0,2,2
18.4,-2.40096,-1.4260286,11.116291,1.4807419776916504,0.4269529581069946,0.10671666264533997,-4.612944602966309,27.8004207611084,-41.80364990234375,1.2931731939315796,0.4810526371002197,-1.3279552459716797,987.8745727539062,1,1.0,2,2
18.44,-2.1404636000000004,-0.81352586,10.112598,1.2654255628585815,0.15104970335960388,0.09659667313098907,-4.0984721183776855,25.22776985168457,-43.27207946777344,0.7661733627319336,1.3005162477493286,-0.6486005783081055,987.922607421875,1,1.0,2,2
18.48,-2.0329208,-0.36070293,10.7115,1.6352051496505735,0.1121675819158554,0.2942030727863312,-3.729711532592773,23.20311164855957,-44.13424682617188,0.8882085084915161,0.7607446312904358,-0.6014537811279297,987.9605102539062,1,1.0,2,2
18.52,-2.1834874,-0.38215238,10.664156,1.4743505716323853,0.1948586404323578,0.2278904169797897,-2.382797241210937,20.30399513244629,-46.17375946044922,0.3018113374710083,1.6220748424530032,-1.6377201080322266,987.94580078125,1,1.0,2,2
18.56,-2.9386987999999996,-0.5322988000000001,9.717274,1.4358679056167605,0.32814979553222656,0.2848820090293884,-1.3781499862670898,16.767684936523438,-47.12244415283203,1.4335672855377195,2.1623461246490483,0.015784263610839844,987.9886474609376,1,1.0,2,2
18.6,-2.4105334,0.18983455,8.441352,1.4510478973388672,0.5617087483406067,0.2679709792137146,0.3048295974731445,14.814260482788086,-47.42144775390625,0.3123314380645752,2.5901868343353267,0.003170967102050781,987.99169921875,1,1.0,2,2
18.64,-2.6280172000000004,1.3004423,6.805615400000001,1.1023073196411133,1.044672608375549,0.71112060546875,2.6420116424560547,12.999422073364258,-47.98334503173828,0.3125262260437012,1.2122628688812256,2.4281911849975586,987.9758911132812,1,1.0,2,2
18.68,-2.4578330000000004,1.5030086,6.296713,1.0113605260849001,0.8980656862258911,0.8083259463310242,4.326512336730957,11.047473907470703,-48.359657287597656,0.30863499641418457,2.061940193176269,2.6279778480529785,987.9529418945312,1,1.0,2,2
18.72,-1.9649818,2.5421052000000004,6.8838277,0.8397198319435121,0.22362075746059415,0.9333612322807312,5.129982948303223,9.060461044311523,-48.213233947753906,-0.0031585693359375,0.622154951095581,2.0700488090515137,987.9378051757812,1,1.0,2,2
18.76,-2.3688369,2.3991075,7.29099,0.5775267481803894,-0.3271211385726929,0.9356160759925842,5.3023786544799805,7.589090347290039,-48.53862762451172,0.38740181922912603,1.0462167263031006,1.9838943481445312,987.9503784179688,1,1.0,2,2
18.8,-2.2684233,1.9867991999999999,7.8259807,0.2989575862884521,-0.625927209854126,0.8262922763824463,4.1672401428222665,7.3166561126708975,-48.88665008544922,1.202280044555664,1.729084014892578,1.2681150436401367,987.9833374023438,1,1.0,2,2
18.84,-0.8822421,2.549252,9.151617,0.0582076758146286,-0.7600171566009521,0.9613142609596252,2.7373361587524414,7.505128860473633,-48.29241943359375,0.4531790018081665,1.3404510021209717,0.6524238586425781,987.9906616210938,1,1.0,2,2
18.88,0.15262347,2.844778,9.227371,0.4504905641078949,-1.6449847221374512,1.3758347034454346,-0.1994791030883789,6.2836666107177725,-49.23109436035156,0.2058105915784836,1.3262059688568115,-0.4033098220825195,987.995849609375,1,1.0,2,2
18.92,0.628252,2.9401078,8.216579,0.6516918540000916,-1.2776018381118774,1.6120567321777344,-2.7278642654418945,5.5490150451660165,-48.64452362060547,0.21505606174468994,1.398808479309082,0.20474529266357425,987.9962158203124,1,1.0,2,2
18.96,1.6822366999999998,3.1784348,8.228419,0.6369109153747559,-0.7638785839080809,1.7454808950424194,-3.5714187622070312,4.706808090209961,-49.08112335205078,0.035310149192810066,1.1081488132476809,0.7296514511108398,987.9878540039062,1,1.0,2,2
19.0,2.2988696,2.7780432999999998,7.7739205,0.670466423034668,-1.0648155212402344,1.870116591453552,-5.5714192390441895,3.571544647216797,-48.78349304199219,0.10150671005249023,1.675973653793335,0.2617349624633789,987.9474487304688,1,1.0,2,2
