Timestamp,Ax,Ay,Az,Gx,Gy,Gz,Mx,My,Mz,LiAx,LiAy,LiAz,P,Value,Type,GroupType,Activities
0.0,0.060377836,-0.13643397,9.7589855,-0.0003415814135223627,0.0013151840539649127,6.247963756322861e-05,-6.7861366271972665,24.34181785583496,-39.18782043457031,-0.004541553556919098,0.0034714490175247192,0.05618000030517578,988.0451049804688,0,13.0,1,1
0.04,0.050747335,-0.13643225,9.775551,0.004176183138042688,0.002975223120301962,-0.0008001736714504659,-4.50672721862793,29.26699638366699,-37.82566833496094,0.5519557595252991,1.4931325912475586,-0.08826828002929688,987.9408569335938,0,13.0,1,1
0.08,0.048286617000000004,-0.14596356,9.768442,0.00018212746363133192,0.00044511153828352684,-0.0013325128238648176,-4.750319957733153,28.93401527404785,-38.538490295410156,0.5416781902313232,1.5104417800903318,-0.07376384735107422,987.8968505859376,0,13.0,1,1
0.12,0.06494504,-0.14119525,9.758966000000001,0.0007154422346502542,-8.763110963627696e-05,-0.0004001145134679973,-4.2285661697387695,28.89580345153809,-38.61665344238281,0.5268000364303589,1.4894155263900757,-0.0687103271484375,987.9502563476562,0,13.0,1,1
0.16,0.060094416,-0.14119355,9.766062,0.00018349324818700552,-0.00022089987760409716,-0.00013350608060136435,-4.442376136779785,29.274961471557614,-38.451927185058594,0.5309388637542725,1.511061429977417,-0.04468250274658203,987.9422607421876,0,13.0,1,1
0.2,0.050806699999999996,-0.14358349,9.773189,0.00031733396463096136,0.0001784631167538464,0.0001331025268882513,-4.214463233947754,28.434850692749023,-38.514869689941406,0.5441961288452148,1.4997410774230957,-0.07749748229980469,987.9347534179688,0,13.0,1,1
0.24,0.046319574,-0.13644083,9.76848,0.0011169646168127656,0.0015099316369742155,0.00013339516590349376,-4.813446998596191,28.29538536071777,-38.41441345214844,0.5328295230865479,1.497555375099182,-0.08191108703613281,987.9473876953124,0,13.0,1,1
0.28,0.05583608,-0.13405655,9.787415,0.0007086990517564117,0.0007156216306611897,-0.00039943098090589046,-4.260114669799806,29.18261528015137,-39.090476989746094,0.5265421867370605,1.4850057363510132,-0.0813894271850586,987.9595947265624,0,13.0,1,1
0.32,0.051013112,-0.13882203,9.773207000000001,0.0007086990517564117,0.0007156216306611897,-0.00039943098090589046,-4.260114669799806,29.18261528015137,-39.090476989746094,0.5308220386505127,1.4887555837631226,-0.07174491882324219,987.9595947265624,0,13.0,1,1
0.36,0.06291956,-0.12690456,9.766102,0.0007086990517564117,0.0007156216306611897,-0.00039943098090589046,-4.61702823638916,29.37466239929199,-38.19989013671875,0.5252053737640381,1.4677083492279053,-0.06667900085449219,987.9595947265624,0,13.0,1,1
0.4,0.060486495,-0.14596976,9.761364,0.0008422725950367749,0.0012481861049309373,-0.00026609492488205433,-4.631972789764403,29.57176780700684,-38.82499694824219,0.5147651433944702,1.489346981048584,-0.066314697265625,987.951904296875,0,13.0,1,1
0.44,0.05088377,-0.13405229,9.77793,0.0004432143759913743,-0.0004829348181374371,-0.000532232690602541,-4.168238162994385,28.53105354309082,-38.91254425048828,0.5327675342559814,1.482227802276611,-0.08011817932128906,987.936279296875,0,13.0,1,1
0.48,0.053230584000000004,-0.14120103,9.7708235,0.00031088764080777764,0.0008485096041113138,7.553026080131532e-07,-4.867687225341797,28.66602897644043,-38.42774200439453,0.5317635536193848,1.4846560955047607,-0.07025909423828125,987.9766845703124,0,13.0,1,1
0.52,0.05796724599999999,-0.1483499,9.780289,-0.00022132851881906393,0.0007152842590585352,9.334180504083631e-07,-5.007172584533691,29.32582664489746,-38.82977294921875,0.5212223529815674,1.4865741729736328,-0.06980037689208984,987.9312744140624,0,13.0,1,1
0.56,0.05792415,-0.13166584,9.777918,-0.0006203866214491428,0.0001825850340537727,-0.0003983622882515192,-5.1691060066223145,29.06902885437012,-39.09773254394531,0.5105487704277039,1.4553236961364746,-0.08830070495605469,987.930908203125,0,13.0,1,1
0.6,0.050711334000000004,-0.14358120000000002,9.766079,0.000445292389485985,0.00018251762958243492,-0.0005313419969752432,-4.761378765106201,29.39790916442871,-38.794883728027344,0.5336565375328064,1.476847529411316,-0.06899261474609375,987.9461669921876,0,13.0,1,1
0.64,0.05066818,-0.14358012,9.766075,0.00031255016801878815,-0.0006164975347928702,-0.00013169017620384693,-4.885377407073975,29.49232292175293,-38.473365783691406,0.5187293291091919,1.4791115522384644,-0.05440521240234375,987.9686889648438,0,13.0,1,1
0.68,0.026726067000000003,-0.13642920000000003,9.768436,-8.650805102661252e-05,-0.0002170911175198853,-0.00026467000134289265,-4.739367485046387,29.576459884643555,-38.65475463867188,0.5558528900146484,1.4666281938552856,-0.05866050720214844,987.9686889648438,0,13.0,1,1
0.72,0.055361747999999995,-0.14834453,9.775535000000001,-0.0006187244434840977,0.0007149471202865242,1.8239952623844147e-06,-4.858119010925293,29.412919998168945,-39.16577911376953,0.5163433551788329,1.4689600467681885,-0.06771564483642578,987.9631958007812,0,13.0,1,1
0.76,0.050538837999999996,-0.13642709,9.773164,0.001245902618393302,-8.40681022964418e-05,-0.001063261181116104,-4.80760383605957,29.30171012878418,-38.39720916748047,0.5204938650131226,1.4520504474639893,-0.05784702301025391,987.932861328125,0,13.0,1,1
0.8,0.05288565,-0.13880934,9.775528,-0.00021841918351128697,-0.0004836094449274242,0.00040165407699532807,-4.657028198242188,29.3902645111084,-38.81051635742188,0.5146661996841431,1.4586695432662964,-0.08578968048095703,987.9710083007812,0,13.0,1,1
0.84,0.033723235,-0.11974205,9.782625,0.00018147024093195801,0.00031527073588222265,0.00013551628217101097,-4.345635414123535,29.25994682312012,-38.081031799316406,0.5327151417732239,1.4322991371154783,-0.08537483215332031,987.9404907226562,0,13.0,1,1
0.88,0.052799404,-0.13880719,9.76605,0.0001818857272155583,0.0008478349773213267,-0.0006632532458752394,-4.3503618240356445,28.729307174682614,-38.97306823730469,0.5220186710357666,1.462649703025818,-0.056488037109375,987.9631958007812,0,13.0,1,1
0.92,0.050366342,-0.14118941,9.770781,-0.0010161201935261488,-0.0004838118620682508,-0.00039675919106230134,-4.6775169372558585,29.21318626403809,-39.02794647216797,0.5211383104324341,1.46478533744812,-0.0608053207397461,987.940185546875,0,13.0,1,1
0.96,0.055103034,-0.13880510000000001,9.763676,0.0008485066355206072,4.8752466682344675e-05,-0.0007960548391565679,-4.676974296569824,28.844900131225586,-38.92950439453125,0.5201874375343323,1.442914366722107,-0.06036567687988281,987.9552612304688,0,13.0,1,1
1.0,0.040720522,-0.12927096,9.77314,0.0005826062406413258,-0.00021763086260762063,-0.0010621927212923763,-4.3454980850219735,29.36586570739746,-38.78011322021485,0.5241669416427612,1.4404281377792358,-0.07891464233398438,987.9702758789062,0,13.0,1,1
1.04,0.052626908,-0.14595284,9.766034,0.0013819695450365546,-0.0010166459251195192,-0.00039622490294277673,-4.651919364929199,29.02639579772949,-38.94398498535156,0.5184076428413391,1.4519206285476685,-0.059535980224609375,987.9524536132812,0,13.0,1,1
1.08,0.047803998,-0.13403536,9.780234,-8.23522568680346e-05,0.00031486607622355217,3.4269760362803936e-06,-4.452349662780762,29.00227165222168,-38.51142120361328,0.5122373700141907,1.4251708984375,-0.0685272216796875,987.942138671875,0,13.0,1,1
1.12,0.04059118,-0.13880087,9.792065,0.0001843791105784476,0.0005811144364997746,-0.0006621846696361898,-4.206692695617677,28.968435287475586,-37.77745056152344,0.5203628540039062,1.4413224458694458,-0.0775156021118164,987.9576416015624,0,13.0,1,1
1.16,0.030988455,-0.14356638,9.76839,0.00045111071085557336,0.0005810469156131147,-0.0007951643783599137,-4.464961051940918,28.2524356842041,-37.6187744140625,0.5384690165519714,1.433629870414734,-0.06285667419433594,987.942138671875,0,13.0,1,1
1.2,0.05465406,-0.15071042,9.777838000000001,0.00018521043239161367,4.8347690608352416e-05,-0.0009281443199142815,-4.489580154418945,28.80898857116699,-37.87849426269531,0.4991138875484466,1.4403332471847534,-0.06711673736572266,987.9649658203124,0,13.0,1,1
1.24,0.028314412,-0.14832596,9.770731,0.0005855548079125582,0.0008471539476886393,-0.001060929149389267,-4.5009379386901855,28.6407527923584,-38.55976104736328,0.5310611724853516,1.4420218467712402,-0.0571441650390625,987.9722900390624,0,13.0,1,1
1.28,0.03782326,-0.134025,9.773093,0.0003835581592284143,0.00037639407673850656,-0.0003543419297784567,-4.940596580505371,29.49319648742676,-38.310935974121094,0.5250751376152039,1.420154333114624,-0.07089805603027344,987.9468994140624,0,13.0,1,1
1.32,0.047332108,-0.14117368,9.76362,0.0010498370975255966,0.0007757884450256824,-0.0006204480305314063,-4.8235273361206055,29.12904930114746,-38.8465576171875,0.4951199591159821,1.4219428300857544,-0.05148601531982422,987.9520263671876,0,13.0,1,1
1.36,0.049671232999999995,-0.11972283,9.758882,0.0005724287475459278,0.00012165505904704331,0.0001526622800156474,-4.200360298156738,27.97390174865723,-38.4130859375,0.5177563428878784,1.399885654449463,-0.05101108551025391,987.9417724609376,0,13.0,1,1
1.4,0.03767097,-0.12925477,9.770712,0.0005729180411435664,-1.15823931992054e-05,1.9714003428816795e-05,-4.135167598724365,28.245710372924805,-38.516021728515625,0.5262634754180908,1.4252296686172483,-0.06945228576660156,987.9468994140624,0,13.0,1,1
1.44,0.040010095,-0.13640329999999998,9.773075,-0.0007581720710732043,0.0003878120915032923,0.00028623966500163084,-4.579690456390381,28.461599349975586,-38.46015930175781,0.5200205445289612,1.4023433923721311,-0.06412601470947266,987.9569702148438,0,13.0,1,1
1.48,0.03995934,-0.15070178,9.763601,-0.0010239987168461084,0.0009203642839565873,-0.0005124981980770826,-4.630887031555176,28.835187911987305,-38.62809753417969,0.4996203482151032,1.4177266359329224,-0.03989124298095703,987.9540405273438,0,13.0,1,1
1.52,0.039908558,-0.13640083,9.768332000000001,-0.0007571936002932488,-0.00014497857773676517,-0.0005122885340824722,-5.091034412384033,29.51054954528809,-38.59671020507813,0.5033790469169617,1.3998926877975464,-0.04409980773925781,987.926513671875,0,13.0,1,1
1.56,0.051807284,-0.14354946,9.761225,0.0001754012773744762,-1.190003240481019e-05,0.0005531846545636653,-4.822983741760254,28.76075553894043,-38.74810791015625,0.487936943769455,1.401282787322998,-0.03885555267333984,987.9693603515624,0,13.0,1,1
1.6,0.046976686,-0.12924848,9.768322,-0.0007562150130979718,-0.00014513745554722846,0.0001539203803986311,-4.626863479614258,29.207895278930664,-38.95846557617188,0.4864220917224884,1.3929457664489746,-0.07143974304199219,987.9591064453124,0,13.0,1,1
1.64,0.04692599,-0.13878043,9.770685,0.00044269574573263526,0.0010532046435400844,0.00028728815959766507,-4.228703498840332,28.789884567260746,-37.917579650878906,0.5040481090545654,1.3897379636764526,-0.061466217041015625,987.9765014648438,0,13.0,1,1
1.68,0.04687521,-0.12447943,9.77068,0.00044269574573263526,0.0010532046435400844,0.00028728815959766507,-4.33400297164917,29.640024185180664,-38.79792022705078,0.5031783580780029,1.3768612146377563,-0.060977935791015625,987.9765014648438,0,13.0,1,1
1.72,0.046824455,-0.14592774,9.756472,4.371110117062926e-05,-0.00014529633335769174,0.0002874977653846145,-4.832520961761475,29.22612571716309,-39.081809997558594,0.4924562275409698,1.3972028493881226,-0.041518211364746094,987.9588012695312,0,13.0,1,1
1.76,0.041993855999999996,-0.13877662,9.770671,0.0007099900976754725,-0.00041169160977005964,-0.0002449242165312171,-4.25902795791626,28.44603538513184,-38.8935775756836,0.5102545619010925,1.3887985944747925,-0.05990791320800781,987.9486694335938,0,13.0,1,1
1.8,0.04433301,-0.13639216,9.763564,-8.797884220257401e-05,0.0003870971850119531,2.18111090362072e-05,-4.9273343086242685,28.768400192260746,-38.73247528076172,0.499638170003891,1.370976448059082,-0.05465507507324219,987.9512329101562,0,13.0,1,1
1.84,0.04189235,-0.13877411,9.773028,0.00031198427313938737,-0.0005450878525152801,0.00042149447835981846,-4.51892614364624,28.83490562438965,-39.03025817871094,0.4982503652572632,1.386667013168335,-0.04940605163574219,987.968505859375,0,13.0,1,1
1.88,0.041841567,-0.13877292,9.770657,-0.00022015819558873775,0.0002537802793085575,0.00015538826119154692,-4.737302303314209,29.209646224975586,-38.63360595703125,0.5021654963493347,1.3688373565673828,-0.04890155792236328,987.9658813476562,0,13.0,1,1
1.92,0.04418069,-0.14592148,9.758816,0.0005792786250822246,-0.0004120887897443025,0.0004219139227643609,-4.241988182067871,29.09437370300293,-39.319068908691406,0.5051240921020508,1.3776370286941528,-0.048091888427734375,987.9635009765624,0,13.0,1,1
1.96,0.056079447000000004,-0.12685405,9.77775,-8.602155139669776e-05,-0.00054532615467906,0.0006884395843371749,-4.514497756958008,28.733407974243164,-38.56309509277344,0.4806302189826965,1.3567359447479248,-0.06676101684570312,987.943115234375,0,13.0,1,1
2.0,0.04885894,-0.14115243,9.765908,0.0004470995045267046,0.00012038409477099775,-0.0005097722169011831,-4.858257293701172,29.30700492858887,-38.466697692871094,0.4881836473941803,1.3560327291488647,-0.028075218200683597,987.9760131835938,0,13.0,1,1
2.04,0.041638523,-0.13161810000000002,9.780107000000001,-0.0003513588453643024,-0.00014601123984903094,-0.00011008873116225006,-4.303731441497804,28.35130882263184,-38.57321166992188,0.4877446591854096,1.3542641401290894,-0.06096553802490234,987.9532470703124,0,13.0,1,1
2.08,0.036807925,-0.14353321,9.775367999999999,0.00018176209414377809,0.0005196990678086877,0.0005559106357395649,-4.136253356933594,28.982290267944336,-38.712928771972656,0.4903478622436523,1.3628157377243042,-0.060115814208984375,987.9557495117188,0,13.0,1,1
2.12,0.03675717,-0.14114876,9.768261,-0.0006166962557472289,-0.0004124859115108848,-0.0003759851679205895,-4.614282131195068,28.74547004699707,-38.77937316894531,0.4896577596664429,1.361015796661377,-0.04564571380615234,987.9532470703124,0,13.0,1,1
2.16,0.04626602,-0.13638087,9.763523,0.0008485305006615818,0.0005195401608943938,-0.0005089334445074201,-4.653440952301025,29.02492332458496,-38.866676330566406,0.4885927438735962,1.3478901386260986,-0.04039955139160156,987.9758911132812,0,13.0,1,1
2.2,0.045589685,-0.13642295,9.7613125,0.00031638814834877854,-0.0008121186401695013,-0.00010924984235316516,-4.2314724922180185,28.99876976013184,-39.16112518310547,0.4807922840118408,1.344220519065857,-0.044754981994628906,987.9765014648438,0,13.0,1,1
2.24,0.052778423,-0.13642342,9.770782,0.0004295333055779338,-1.1729367543011905e-05,-0.0007686088792979717,-4.5446624755859375,28.91578483581543,-38.41514587402344,0.4698301553726196,1.3356677293777466,-0.05368328094482422,987.9406127929688,0,13.0,1,1
2.28,0.057577223,-0.13880713,9.775518,-0.0003757539670914412,-0.00041017401963472366,-0.0009044838370755316,-4.432158470153809,28.547216415405273,-38.718849182128906,0.46343794465065,1.3459781408309937,-0.048371315002441406,987.96826171875,0,13.0,1,1
2.32,0.05759626599999999,-0.1435742,9.763685,-0.00024277949705719945,0.0005219611921347678,-0.000638246419839561,-4.645831108093262,29.032285690307614,-39.25320434570313,0.471981555223465,1.3324483633041382,-0.04309272766113281,987.9728393554688,0,13.0,1,1
2.36,0.04566574,-0.13880812,9.768421,-0.00024296273477375507,-0.000809588236734271,-0.00010569323785603045,-4.516563415527344,29.1002254486084,-38.58423614501953,0.4803725779056549,1.3287657499313354,-0.05205059051513672,987.950439453125,0,13.0,1,1
2.4,0.05285448,-0.13880856,9.751852,0.0009552753763273357,-0.0008095586090348661,0.0002937020035460592,-4.257506370544434,28.447511672973636,-38.97088623046875,0.4694189727306366,1.3202635049819946,-0.03258323669433594,987.9326782226562,0,13.0,1,1
2.44,0.060043215999999996,-0.13880904,9.768424000000001,-0.000376487267203629,0.000255734717939049,0.00029362342320382595,-4.368243217468262,27.817121505737305,-39.07090759277344,0.453865259885788,1.316081166267395,-0.05568408966064453,987.925048828125,0,13.0,1,1
2.48,0.0505026,-0.14357609999999998,9.766060000000001,-0.0003766706213355064,-0.0002768673002719879,-0.00010592897888273001,-4.604607582092285,28.386022567749023,-39.144752502441406,0.4664699733257294,1.3169623613357544,-0.01724720001220703,987.96044921875,0,13.0,1,1
2.52,0.045741856,-0.13166018,9.768428,-0.00011053797788918017,0.0005221102037467061,-0.00023916538339108231,-4.89564847946167,28.587499618530273,-38.95772552490234,0.4553071260452271,1.303312063217163,-0.045073509216308594,987.9505004882812,0,13.0,1,1
2.56,0.05532044,-0.143577,9.763695,-0.00011072121560573579,0.0007884558872319758,0.00029338768217712635,-5.395092487335205,29.43639945983887,-38.31455993652344,0.4631615579128266,1.3230998516082764,-0.039763450622558594,987.9629516601562,0,13.0,1,1
2.6,0.067288995,-0.1340444,9.775534,-0.00011090456973761321,0.0007884855731390418,0.000426467158831656,-5.107095718383789,29.231977462768555,-38.34697723388672,0.4473748505115509,1.305237054824829,-0.05346488952636719,987.9554443359376,0,13.0,1,1
2.64,0.05296856,-0.13166152,9.766066,0.0012204915983602405,-1.0432384442538023e-05,0.00016007263911888003,-4.287670135498047,28.629884719848636,-38.82293701171875,0.4554872214794159,1.3014490604400637,-0.029265403747558594,987.9326782226562,0,13.0,1,1
2.68,0.04820782,-0.13166194,9.7613325,0.00015504471957683563,-0.0004098765202797949,-0.00010632176417857409,-4.5771894454956055,28.83283805847168,-38.71321868896485,0.4638516902923584,1.2831687927246094,-0.019260406494140625,987.9476928710938,0,13.0,1,1
2.72,0.06256622,-0.1459621,9.7826395,0.0004211773630231619,-0.00040984677616506815,0.0001599156530573964,-5.287155151367188,29.06341361999512,-38.3863525390625,0.4528672099113464,1.2982808351516724,-0.07079696655273438,987.9299926757812,0,13.0,1,1
2.76,0.041076124,-0.13881274,9.766071,0.0004209941253066063,0.00038913072785362596,0.00042615289567038417,-4.973124027252197,29.41024971008301,-38.6090087890625,0.4658368825912476,1.2895349264144895,-0.03711509704589844,987.9453735351562,0,13.0,1,1
2.8,0.057824463,-0.1411965,9.763705999999999,0.00015431165229529142,0.00012287433492019773,0.0004259958514012396,-4.380526542663573,28.911684036254886,-38.82511901855469,0.439736008644104,1.288023591041565,-0.03153038024902344,987.93505859375,0,13.0,1,1
2.84,0.050673783,-0.12928058,9.761341,0.00015431165229529142,0.00012287433492019773,0.0004259958514012396,-4.380526542663573,28.911684036254886,-38.82511901855469,0.4579015970230103,1.2812179327011108,-0.02177333831787109,987.93505859375,0,13.0,1,1
2.88,0.053082705,-0.13643087,9.770811,-0.0005596186965703964,0.00024008541367948053,0.0006637033075094223,-4.829615116119385,29.12315559387207,-38.53733825683594,0.45167475938797,1.2675992250442505,-0.030691146850585938,987.9426879882812,0,13.0,1,1
2.92,0.060271412,-0.15311427,9.768445,0.0001059877686202526,-2.6200665161013603e-05,0.00026415102183818817,-4.768307685852051,29.12817192077637,-39.00898742675781,0.4500585198402405,1.2920693159103394,-0.0395965576171875,987.9901733398438,0,13.0,1,1
2.96,0.053120732000000004,-0.12928198,9.766079,0.00037212041206657887,0.0010390924289822578,-0.0002685593208298087,-4.45829963684082,29.10229301452637,-38.901275634765625,0.44409799575805664,1.259264588356018,-0.024845123291015625,987.9573974609376,0,13.0,1,1
3.0,0.043580115,-0.15073197,9.777918,-2.753676380962133e-05,-0.0017571946373209355,-2.322020009160042e-06,-4.432158470153809,28.547216415405273,-38.718849182128906,0.4618799984455109,1.2838844060897827,-0.047989845275878906,987.9554443359376,0,13.0,1,1
3.04,0.06271833,-0.13643278,9.770817999999998,-2.753676380962133e-05,-0.0017571946373209355,-2.322020009160042e-06,-4.64154052734375,28.82487297058105,-38.08695983886719,0.441169023513794,1.2555036544799805,-0.03318214416503906,987.9554443359376,0,13.0,1,1
3.08,0.05556768,-0.13166668,9.775555,-0.0010931668803095818,0.00010707607725635172,-0.0001356370048597455,-4.585204124450684,29.2996768951416,-39.12422180175781,0.44390133023262013,1.2397679090499878,-0.04657268524169922,987.9630126953124,0,13.0,1,1
3.12,0.05080688,-0.13166715,9.766086999999999,-0.0010931668803095818,0.00010707607725635172,-0.0001356370048597455,-4.585204124450684,29.2996768951416,-39.12422180175781,0.4479010403156281,1.2375545501708984,-0.04154682159423828,987.9630126953124,0,13.0,1,1
3.16,0.061984955999999994,-0.13403155,9.77075,-2.8269831091165546e-05,-0.0005586540210060775,0.0006631534779444338,-4.9609479904174805,29.422033309936523,-39.227447509765625,0.4226629137992859,1.2381079196929932,-0.03153038024902344,987.9680786132812,0,13.0,1,1
3.2,0.039656848,-0.11732839,9.765941999999999,-0.0006942428881302477,0.0003734813071787357,-0.00013587274588644505,-4.515882015228272,28.83785057067871,-39.18486785888672,0.4514637589454651,1.2288439273834229,-0.0355377197265625,987.9273681640624,0,13.0,1,1
3.24,0.056341708,-0.14354338,9.775406,-0.0002888712915591896,-0.0005618050927296281,-0.0003871117951348424,-4.654282569885254,28.761083602905273,-39.38999938964844,0.4305163025856018,1.250840425491333,-0.04889202117919922,987.93505859375,0,13.0,1,1
3.28,0.051517516,-0.12924267,9.770667999999999,-0.000821074761915952,-2.9242830350995064e-05,-0.0006532440893352032,-4.354789733886719,28.83080863952637,-39.440223693847656,0.4526901841163635,1.2272156476974487,-0.029349327087402344,987.9545288085938,0,13.0,1,1
3.32,0.05147308,-0.15069105,9.751726,-0.0005543305887840688,-0.00029562824056483805,0.0004122029058635235,-4.9022793769836435,28.94989585876465,-38.74695587158203,0.4367987513542175,1.246421456336975,-0.005074501037597656,987.949951171875,0,13.0,1,1
3.36,0.044258922,-0.13400705,9.770658500000001,-0.0008202184108085929,0.000902723870240152,0.00027922843582928186,-4.280198097229004,28.53133201599121,-38.51038360595703,0.44098520278930653,1.2253451347351074,-0.04269218444824219,987.95751953125,0,13.0,1,1
3.4,0.05138421,-0.14353903,9.75882,0.0003786313463933766,-0.0006952410913072526,0.0005457278457470238,-4.504525184631348,29.00609397888184,-38.50360107421875,0.4349980652332306,1.2305418252944946,-0.02320575714111328,987.9554443359376,0,13.0,1,1
3.44,0.053729713,-0.13162155,9.773017999999999,-0.0006862041191197933,-0.0005621526506729424,1.3279612176120281e-05,-4.778280735015869,28.85548591613769,-39.0684814453125,0.4237425625324249,1.2093844413757324,-0.041289329528808594,987.9479370117188,0,13.0,1,1
3.48,0.06324488,-0.1506867,9.76828,-0.0010852497071027756,-0.0014943277928978205,-0.00011969485785812141,-4.923311233520508,29.14111137390137,-39.062843322753906,0.4079110324382782,1.2192397117614746,-0.031250953674316406,987.9757690429688,0,13.0,1,1
3.52,0.063200474,-0.13876922,9.765908,-0.00028587382985278964,-2.9659830033779144e-05,0.00014680455205962062,-4.667681694030762,29.37995719909668,-38.269378662109375,0.4118217527866364,1.2169815301895142,-0.026221275329589844,987.9349975585938,0,13.0,1,1
3.56,0.020137787,-0.10540222,9.758803,-0.00015228771371766925,0.0005029024323448539,0.0001469881390221417,-4.8492631912231445,29.20992088317871,-38.23145294189453,0.4721286296844482,1.1555290222167969,-0.020925521850585938,987.9505004882812,0,13.0,1,1
3.6,0.0631116,-0.15068342,9.784838,0.0001144563429988921,0.00036967493360862136,-0.0007849340327084063,-4.673089027404785,29.11169242858887,-38.560791015625,0.4229318201541901,1.1938331127166748,-0.034552574157714844,987.9757690429688,0,13.0,1,1
3.64,0.07023686,-0.16259868,9.768263000000001,-0.0009503788896836339,-0.0005625002668239176,0.0001473550801165402,-4.408625602722168,28.72723960876465,-38.656028747558594,0.40761372447013855,1.222867727279663,-0.015089988708496094,987.9629516601562,0,13.0,1,1
3.68,-0.0015046,-0.09586586,9.775361,-0.00015100318705663082,-0.0006957276491448282,1.438066828995943e-05,-4.2249794006347665,28.53045463562012,-38.672813415527344,0.5099283456802368,1.116129994392395,-0.042632102966308594,987.96044921875,0,13.0,1,1
3.72,0.06775814,-0.13399722,9.794294,-0.0005500487168319523,0.001168414019048214,0.0009466697229072453,-4.705616474151611,29.02874183654785,-38.85885620117188,0.4424746930599213,1.1377967596054075,-0.0471038818359375,987.9379272460938,0,13.0,1,1
3.76,0.10356220599999999,-0.1768951,9.742211,0.00038248515920713533,-0.0006958666490390898,0.0006805373704992236,-4.36932897567749,28.5537052154541,-39.26780700683594,0.3699106574058533,1.2433129549026491,0.010199546813964844,987.9349975585938,0,13.0,1,1
3.8,-0.04226622,-0.09109606,9.780084,0.0009155449806712569,0.00010301149450242521,-0.0006508585065603256,-4.269544601440431,28.541643142700195,-39.05152130126953,0.4772220551967621,1.1198794841766355,-0.03182220458984375,987.9174194335938,0,13.0,1,1
3.84,0.08435416,-0.14829357,9.780078999999999,-0.0004156061331741512,0.00143452116753906,0.000547746429219842,-4.906707763671875,29.0513973236084,-39.21411895751953,0.3946216106414795,1.1583969593048096,-0.017083168029785156,987.9706420898438,0,13.0,1,1
3.88,0.017392486000000002,-0.11492659,9.768239999999999,-0.0004151780740357936,-0.0005629173247143626,0.00014845619443804026,-4.75474739074707,29.035512924194336,-39.005653381347656,0.4649664163589478,1.1344414949417114,-0.016493797302246094,987.9632568359376,0,13.0,1,1
3.92,0.19898057,-0.25553899999999996,9.772969999999999,-0.001213697250932455,-0.0001635130029171705,0.0001486396649852395,-5.099485397338867,29.23933982849121,-38.73350524902344,0.2390084564685821,1.3293511867523191,0.003069877624511719,987.9453735351562,0,13.0,1,1
3.96,-0.116530895,-0.026743128999999997,9.7848015,-0.0010801111347973347,0.0005022072000429034,-0.0003838085103780031,-4.756269454956055,29.034040451049805,-38.9283447265625,0.5188004970550537,1.0438467264175415,-0.057917594909667976,987.9632568359376,0,13.0,1,1
4.0,0.067447126,-0.15067254,9.754024000000001,0.0001187384477816522,0.001434243400581181,0.0005484806024469434,-4.55504035949707,29.11730766296387,-39.27217102050781,0.42191505432128906,1.116527080535889,-0.01959991455078125,987.9580688476562,0,13.0,1,1
4.04,0.09369165,-0.18165402,9.777691,0.0009181141504086555,-0.0016284588491544127,0.0002823481336236,-5.20481538772583,28.87721824645996,-38.5421142578125,0.36324989795684814,1.1735934019088743,-0.07110118865966797,987.9351196289062,0,13.0,1,1
4.08,0.13666546,-0.1888028,9.791891,-0.0009456687257625164,0.00010252487845718859,-0.00038325809873640537,-5.033750534057617,29.142858505249023,-38.73799133300781,0.3095363974571228,1.244902491569519,-0.02791881561279297,987.95068359375,0,13.0,1,1
4.12,-0.06413072,-0.05533813,9.777683,-0.0006789247854612768,-0.00016386050265282393,-0.0006493903929367661,-4.830999374389648,29.227598190307614,-39.15911102294922,0.5030862092971802,1.074066162109375,-0.027385711669921875,987.950439453125,0,13.0,1,1
4.16,0.07443911,-0.14590158,9.7847805,0.00038676714757457376,0.0022329124622046947,0.0009486884227953851,-4.64528751373291,28.663991928100586,-39.15475463867188,0.4204640984535217,1.1032960414886477,-0.012688636779785156,987.96826171875,0,13.0,1,1
4.2,0.11263317,-0.21024902,9.761106,0.0002540373825468123,-0.00202821078710258,1.6766309272497892e-05,-4.823526382446289,29.12904167175293,-38.8465576171875,0.32395756244659424,1.1939674615859983,0.0257110595703125,987.9584350585938,0,13.0,1,1
4.24,0.0026532412,-0.07916759,9.772936999999999,-0.0005444822018034756,-0.0004303850000724197,-0.00011620810255408288,-4.921926975250244,29.036664962768555,-38.44107055664063,0.3456900417804718,1.0937318801879885,-0.006823539733886719,987.932861328125,0,13.0,1,1
4.28,0.036067426,-0.11491574,9.749261,-0.00120984367094934,0.0031648101285099983,1.7133308574557304e-05,-4.535530090332031,28.924623489379886,-38.87897491455078,0.4774918854236603,1.0704727172851562,0.007904052734375,987.9481201171876,0,13.0,1,1
4.32,0.098160446,-0.16734676,9.76346,0.0005216377903707325,-0.0008299978217110037,0.0009494224796071649,-4.640423774719238,29.30055427551269,-38.9617919921875,0.3379877209663391,1.13267183303833,-0.02473354339599609,987.9429931640624,0,13.0,1,1
4.36,0.09811604,-0.16257916,9.775291000000001,-0.00041003950173035264,-0.0012295411434024572,-0.00038197333924472327,-4.7025723457336435,29.03169059753418,-39.013465881347656,0.3654057681560517,1.156801700592041,-0.014752388000488281,987.9635009765624,0,13.0,1,1
4.4,-0.033373028,-0.08392982,9.765819,-0.00041003950173035264,-0.0012295411434024572,-0.00038197333924472327,-4.605693340301514,29.12259864807129,-39.34165954589844,0.4686129987239838,1.0855981111526491,-6.67572021484375e-06,987.9635009765624,0,13.0,1,1
4.44,0.057398856,-0.1339776,9.791855,0.00038933620089665055,0.00023512670304626226,-0.00038178986869752407,-4.754204750061035,28.66722679138184,-38.907203674316406,0.4097508490085602,1.100382924079895,-0.023180007934570312,987.9533081054688,0,13.0,1,1
4.48,0.06691402,-0.18402533,9.76581,-0.0008086569723673165,0.0009008469060063363,0.0008168150670826435,-4.98752498626709,29.23906135559082,-39.13566589355469,0.4090771079063416,1.1005361080169678,-0.03215599060058594,987.9409790039062,0,13.0,1,1
4.52,0.112277746,-0.16257472,9.787111,-0.0006746426806785166,-0.0020287667866796255,0.0008171821245923637,-4.354790210723877,28.83080863952637,-39.44023132324219,0.27859872579574585,1.1768341064453125,-0.050556182861328125,987.9507446289062,0,13.0,1,1
4.56,-0.07895887,-0.07915892,9.772903999999999,0.00012473337119445205,0.0016995860496535895,-0.0009136875160038472,-4.383432388305663,29.0146541595459,-39.369590759277344,0.491447389125824,1.0202792882919312,-0.04058551788330078,987.9512329101562,0,13.0,1,1
4.6,0.11935857,-0.16018929,9.787104,0.0002583193709142506,0.0003679370856843889,0.0004180753603577614,-4.756269454956055,29.034040451049805,-38.9283447265625,0.3324282467365265,1.0921705961227417,-0.021158218383789062,987.9638061523438,0,13.0,1,1
4.64,0.05478683,-0.17210461,9.768162,-0.0006733579211868347,-0.0006973959971219301,-0.000247530872002244,-4.843473434448242,28.58367729187012,-38.96554565429688,0.47913512587547297,1.0539039373397827,-0.0253448486328125,987.948974609375,0,13.0,1,1
4.68,0.10732022,-0.15542056,9.775259,-0.001072403509169817,-0.00043114964501000935,0.0005516003002412617,-3.902252197265625,28.1480770111084,-39.08509063720703,0.3294594883918762,1.1347266435623171,-0.024791717529296875,987.9413452148438,0,13.0,1,1
4.72,-0.07674664,-0.06008832,9.753950999999999,-0.00013986992416903377,0.0015661498764529824,0.0001523100072517991,-4.504823684692383,28.37395668029785,-38.92847442626953,0.5469909310340881,0.9826831817626952,0.013605117797851562,987.9337768554688,0,13.0,1,1
4.76,0.09528184,-0.15065183,9.782352000000001,0.00026003218954429036,0.0006339747924357653,0.000818283180706203,-4.918883323669434,29.039609909057614,-38.595680236816406,0.3500590920448303,1.09283185005188,-0.009612083435058594,987.9515380859376,0,13.0,1,1
4.8,0.11435661,-0.21499921,9.761044,-0.0006716451025567949,-0.001896095578558743,-0.000513112754561007,-5.294084548950195,28.79367637634277,-38.60045623779297,0.2623909413814545,1.147542953491211,-0.00884246826171875,987.9362182617188,0,13.0,1,1
4.84,0.011499882,-0.10065825,9.787294000000001,-0.001070690806955099,-0.0012303752591833472,0.0002860184758901596,-4.946301460266113,28.59279441833496,-39.02721405029297,0.373670369386673,1.0453712940216064,-0.04667758941650391,987.9767456054688,0,13.0,1,1
4.88,-0.019557565,-0.10065855,9.758888,0.0007827393128536643,0.002499797381460667,-0.00038439163472503424,-4.924834251403809,29.13963890075684,-38.98553466796875,0.5004129409790039,0.9794026017189026,-0.00832366943359375,987.9689331054688,0,13.0,1,1
4.92,0.11189824,-0.18884017,9.780194,-2.205133205279708e-05,-0.0002942901919595897,0.0002716648741625249,-4.520448207855225,28.83343315124512,-38.95294952392578,0.2746275067329407,1.0797662734985352,-0.04099559783935547,987.9795532226562,0,13.0,1,1
4.96,0.104739785,-0.1554745,9.761257,-0.0006879494176246227,-0.00029427261324599385,0.00013846054207533598,-4.92483377456665,29.13963508605957,-38.98553466796875,0.3349211812019348,1.0845671892166138,0.0021343231201171875,987.946533203125,0,13.0,1,1
5.0,-0.024303615,-0.100659385,9.784931,0.0005103631992824376,0.0014367983676493168,-0.00026105978759005666,-4.504386901855469,29.11201286315918,-39.202674865722656,0.4715114235877991,1.0326390266418457,-0.011587142944335938,987.9494018554688,0,13.0,1,1
5.04,0.059354185999999996,-0.14117539999999998,9.763626,0.00011078099487349392,0.0007710261270403862,0.001070472993887961,-4.604309558868408,29.018156051635746,-38.71987915039063,0.4222820699214935,1.0233813524246216,0.007826805114746094,987.9540405273438,0,13.0,1,1
5.08,0.047415912000000005,-0.17215826,9.765995,-0.0009545907960273324,-0.0018921149894595144,0.00013832101831212643,-4.429657459259033,28.9184513092041,-38.97191619873047,0.364053875207901,1.0141793489456177,-0.02013683319091797,987.9570922851562,0,13.0,1,1
5.12,0.10956466,-0.16500871,9.768364,-0.0004220675327815116,-0.00016104418318718672,0.0005377482157200575,-4.763741493225098,29.13258934020996,-39.24090576171875,0.24300476908683774,1.0619405508041382,-0.019643783569335938,987.9541015625,0,13.0,1,1
5.16,-0.033818215,-0.07444446,9.751794,0.00037677137879654765,0.0011705528013408186,-0.00012808787869289517,-4.131549835205078,29.092626571655273,-39.64391326904297,0.4271499514579773,0.9719377160072328,-0.009697914123535156,987.9342041015624,0,13.0,1,1
5.2,0.09763762,-0.16500928,9.768366,0.0005098209367133677,0.00010530697181820871,0.0005376553162932397,-4.5931129455566415,28.66017723083496,-39.16256713867188,0.3831236660480499,1.0200968980789185,-0.00926971435546875,987.9468994140624,0,13.0,1,1
5.24,0.033121526,-0.12926038,9.773100999999999,-0.0010881826747208834,-0.0012262549716979265,-0.00012818101095035672,-4.789638042449951,28.68724250793457,-39.74974060058594,0.4386864602565765,0.9725494384765624,-0.013510704040527344,987.9319458007812,0,13.0,1,1
5.28,0.09288037,-0.16262658,9.777836,-0.0001561857643537223,0.0005048159509897231,0.000404404301661998,-4.899235725402832,28.952844619750977,-38.90156555175781,0.3130446970462799,1.0348209142684937,-0.01305389404296875,987.9697265625,0,13.0,1,1
5.32,-0.012264073,-0.10304482,9.7589,0.0002431795583106577,-0.00042727202526293695,-0.00039458979154005647,-4.429955959320068,28.28631401062012,-39.39678192138672,0.4118037819862366,0.96865051984787,0.015794754028320312,987.95947265625,0,13.0,1,1
5.36,0.10724228599999999,-0.16262712,9.756533000000001,0.00010991323506459594,0.0005048512248322368,-0.0003946363576687872,-4.810807704925537,28.77254295349121,-39.366546630859375,0.3288991451263428,1.0168782472610474,-0.0027027130126953125,987.9423828125,0,13.0,1,1
5.4,0.06662524,-0.15071101,9.756535000000001,-0.0004228272591717541,-2.7762958779931072e-05,0.00013794895494356754,-4.61262321472168,28.852861404418945,-39.555755615234375,0.4515478014945984,0.9550896883010864,0.026175498962402344,987.9472045898438,0,13.0,1,1
5.44,0.054686964000000005,-0.11734535,9.768372,-0.000422935641836375,-0.000427219143602997,-0.000661045138258487,-5.23788595199585,29.16256523132324,-38.938636779785156,0.35950034856796265,0.988590657711029,0.021897315979003903,987.9652709960938,0,13.0,1,1
5.48,-0.014608949,-0.10781254,9.763638499999999,-0.0008225178462453188,0.00037174613680690527,0.0002710138796828687,-4.860076904296875,28.67338752746582,-38.81426239013672,0.4577660262584686,0.9364693760871888,0.012903213500976562,987.9601440429688,0,13.0,1,1
5.52,0.08099842,-0.15786170000000002,9.773108,-0.0002899949322454632,-0.00029402592917904263,0.0004041253123432398,-4.679039001464844,29.211713790893555,-38.950645446777344,0.347003310918808,0.9703688621520996,-0.005634307861328125,987.9351806640624,0,13.0,1,1
5.56,0.092959166,-0.18646128,9.766007,0.00024252856383100152,-0.001359271933324635,0.0008035526843741536,-4.583437919616699,28.30072593688965,-39.52794647216797,0.3604765832424164,1.0277944803237915,0.004261016845703125,987.9501953125,0,13.0,1,1
5.6,-0.021744847,-0.095896915,9.775477,0.00024242018116638067,-0.0009597805328667164,-0.0006612311699427664,-4.624661445617676,28.94699668884277,-39.636390686035156,0.40617409348487854,0.9472277760505676,0.004715919494628906,987.9453735351562,0,13.0,1,1
5.64,0.06430286,-0.16024579,9.773111,-0.0006897940183989704,0.0014370800927281382,0.00027082784799858933,-5.117473602294922,29.43350028991699,-39.204002380371094,0.3764491081237793,0.966619610786438,0.0004024505615234375,987.9531860351562,0,13.0,1,1
5.68,0.06192419,-0.1673959,9.74944,-0.0005567446933127941,-0.002424482721835375,-0.00012869242345914242,-5.070981502532959,28.9495792388916,-38.105064392089844,0.31762149930000305,0.9713724851608276,0.019805908203125,987.9353637695312,0,13.0,1,1
5.72,0.08583444,-0.157863,9.792050999999999,-0.000556852959562093,-0.00016078009502962232,-0.0002618968137539923,-4.854532241821289,29.04757499694824,-39.22193145751953,0.3021990954875946,0.9666870832443236,-0.036568641662597656,987.9429931640624,0,13.0,1,1
5.76,-0.0049705504999999995,-0.093514815,9.770747,-0.000556852959562093,-0.00016078009502962232,-0.0002618968137539923,-5.142528533935547,29.251996994018555,-39.18952178955078,0.3911061584949493,0.9146053194999696,-0.0077152252197265625,987.9429931640624,0,13.0,1,1
5.8,0.09287169599999999,-0.16977616,9.761265,-0.0008232773398049176,0.0002387114800512791,0.00027068838244304056,-5.0049705505371085,29.06492805480957,-39.50770568847656,0.33706068992614746,0.9675021767616272,0.006905555725097656,987.9531860351562,0,13.0,1,1
5.84,0.032971025,-0.13640656,9.763618,-0.00015759613597765565,0.0007713607046753168,-0.00026198994601145387,-4.707000732421875,29.133188247680664,-39.480628967285156,0.4027616083621979,0.9298949241638184,-0.006856918334960938,987.9506225585938,0,13.0,1,1
5.88,0.087937504,-0.16977237,9.777821000000001,0.0005106172175146638,0.0007709673373028637,0.00013852264964953065,-4.702029228210449,28.66339683532715,-38.915016174316406,0.3248351812362671,0.9778656363487244,-0.02063179016113281,987.9456176757812,0,13.0,1,1
5.92,0.016239196,-0.09827395,9.7636175,-0.00028794870013371115,0.0009040632285177707,-0.0009265773114748301,-4.435202598571777,28.54426383972168,-38.564247131347656,0.3612900972366333,0.8925623297691345,0.0034627914428710933,987.9506225585938,0,13.0,1,1
5.96,0.07837539999999998,-0.16023917,9.7588825,-0.000953726063016802,0.00010511360596865417,0.0008044813293963671,-4.947525024414063,29.22345542907715,-38.52503967285156,0.3311687111854553,0.9500082731246948,0.01809310913085937,987.9533081054688,0,13.0,1,1
6.0,0.023406357000000003,-0.12449004,9.763618,-0.00015476584667339918,-2.8046255465596918e-05,5.538866389542818e-06,-4.671865463256836,28.48102760314941,-39.062965393066406,0.4050795137882233,0.8770588636398315,-0.00023746490478515625,987.9329223632812,0,13.0,1,1
6.04,0.102271855,-0.1888385,9.768352499999999,-0.00015475397231057286,0.0007708994671702385,5.544221494346857e-06,-4.5654497146606445,28.10656547546387,-39.05744934082031,0.2708723843097687,0.9939861893653871,-0.0047760009765625,987.9584350585938,0,13.0,1,1
6.08,0.018624008,-0.12210663,9.751781,0.0005110479542054236,-0.0005606820341199636,-0.00026076642097905284,-5.251445770263672,29.255224227905273,-38.94197082519531,0.31187692284584045,0.9276686906814576,-0.004346847534179688,987.9512329101562,0,13.0,1,1
6.12,0.044911623,-0.1292565,9.747047,0.00037790247006341815,0.0011703693307936194,0.0004050284624099731,-5.2982139587402335,29.52731132507324,-38.64274597167969,0.33417171239852905,0.8617932200431824,0.014966011047363281,987.9559936523438,0,13.0,1,1
6.16,0.07836902,-0.15547253,9.775454,-0.0006873489473946393,-0.0005606859922409059,0.00027187576051801443,-4.858555793762207,28.674863815307614,-38.89157104492188,0.2513942122459412,0.9430899620056152,-0.008287429809570312,987.9537963867188,0,13.0,1,1
6.2,0.028179824,-0.13163970000000003,9.773087,-0.00015470519429072738,0.0010372073156759145,-0.0007933825836516918,-4.440173149108887,29.01405906677246,-39.129859924316406,0.43574604392051697,0.8486236929893494,0.01577281951904297,987.93603515625,0,13.0,1,1
6.24,0.07597658,-0.16023900000000002,9.773085,-0.00015469262143597007,0.00023825769312679765,0.00027188617968931794,-4.440173149108887,29.01405906677246,-39.129859924316406,0.3197427988052368,0.9392747282981871,0.006723403930664063,987.9609985351562,0,13.0,1,1
6.28,0.0018883646,-0.11019011,9.763617,-0.000287838454823941,-0.00016121810767799616,-0.0009265299304388462,-4.4384074211120605,28.01510429382324,-39.53358459472656,0.3944865763187408,0.8872771263122559,0.02133274078369141,987.9563598632812,0,13.0,1,1
6.32,0.07358414,-0.15308912,9.763617,-0.00042098440462723374,0.0007708854973316193,0.0013371602399274707,-4.491507530212402,29.28172492980957,-38.598716735839844,0.3448886275291443,0.9119859337806702,0.012235641479492188,987.9588623046876,0,13.0,1,1
6.36,0.006665646999999999,-0.11972313,9.763617,0.0005111337522976099,0.00023825175594538453,-0.00026072986656799907,-4.508111953735352,29.37143898010254,-38.44744110107422,0.319426953792572,0.9220747947692872,0.007886886596679688,987.94384765625,0,13.0,1,1
6.4,0.08314121,-0.16262211,9.782555,0.00011167203774675727,0.0005045656580477953,0.0005382230738177897,-4.5524330139160165,28.38220024108887,-39.15257263183594,0.27032122015953064,0.913000226020813,-0.0012006759643554688,987.936767578125,0,13.0,1,1
6.44,0.04490149,-0.14593919,9.7588825,-0.0005541056743822992,-0.00042754190508276224,-0.00026071938918903465,-4.464005470275879,28.20189476013184,-39.6175537109375,0.2640832662582397,0.918261170387268,-0.0008182525634765625,987.9468994140624,0,13.0,1,1
6.48,0.02100125,-0.117339835,9.749413,0.0005111703067086637,0.00037140375934541225,-0.0002607141504995525,-4.8928489685058585,29.59087181091309,-38.78591918945313,0.3530213832855225,0.8145067095756531,0.023202896118164062,987.939208984375,0,13.0,1,1
6.52,0.05445862,-0.13163938,9.758882,-0.0001546071725897491,-2.807215787470341e-05,-0.0003938667359761894,-4.636836528778076,28.93520927429199,-39.01795196533203,0.2514379620552063,0.9006837606430054,-0.004825592041015625,987.9572143554688,0,13.0,1,1
6.56,0.07835632599999999,-0.15308891,9.770717999999999,-2.143724123016e-05,0.00023824186064302919,0.00027192808920517564,-4.663956642150879,29.12052726745605,-39.02462005615234,0.26449936628341675,0.906101644039154,-0.013937950134277344,987.926513671875,0,13.0,1,1
6.6,0.054456055,-0.15070562,9.754147,-2.142478479072452e-05,-0.0008270237012766303,0.0009377230890095234,-4.63045072555542,29.57324028015137,-38.90229797363281,0.3153396844863892,0.9020017981529236,0.014841079711914062,987.9544067382812,0,13.0,1,1
6.64,0.009046614,-0.11018987,9.754147,-0.0002877282095141709,0.0010371855460107329,-0.00105964089743793,-4.3647637367248535,28.55812263488769,-39.49971771240234,0.35190314054489136,0.8450187444686891,0.019975662231445312,987.9498901367188,0,13.0,1,1
6.68,0.07118282,-0.1530888,9.768351,-0.001352979801595211,-0.0005607117782346903,0.00027194380527362233,-4.407944679260254,28.46486473083496,-39.25666046142578,0.2841886281967163,0.8693982362747192,0.0108489990234375,987.967529296875,0,13.0,1,1
6.72,0.049672425,-0.13163929,9.763617,-0.0004208620521239936,-0.001625977223739028,-0.00012752466136589646,-4.665234565734863,28.11862754821777,-39.27373504638672,0.27334699034690857,0.8413367271423341,0.0206756591796875,987.9371337890624,0,13.0,1,1
6.76,0.07118028400000001,-0.1530888,9.775452,-0.0001545335981063545,0.0006377057870849968,-0.00039383542025461793,-4.498734951019287,28.37985038757324,-39.237693786621094,0.28615936636924744,0.8515284657478333,0.011564254760742188,987.9371337890624,0,13.0,1,1
6.8,0.051870285999999995,-0.13878445,9.751761,0.0002454174100421369,0.0003713123151101172,0.00013900111662223935,-4.923449516296387,29.035192489624023,-38.36376190185547,0.3174291551113129,0.8453658223152161,0.026319503784179688,987.9193725585938,0,13.0,1,1
6.84,0.042301804000000005,-0.14593403,9.7659645,0.0002454174100421369,0.0003713123151101172,0.00013900111662223935,-4.923449516296387,29.035192489624023,-38.36376190185547,0.3404983878135681,0.8575397729873657,0.012299537658691406,987.9193725585938,0,13.0,1,1
6.88,0.06380203,-0.15070035,9.7659645,-0.00028864474734291434,-0.00016177038196474314,9.085633791983128e-06,-4.869071960449219,28.77047538757324,-39.04951477050781,0.2862101793289185,0.8629467487335205,0.0031890869140625,987.9630126953124,0,13.0,1,1
6.92,0.035114318,-0.13401718,9.763596000000001,0.00024407281307503578,0.0013029531110078096,-0.00012403569417074323,-4.742709159851074,28.94137382507324,-38.92501831054688,0.3180795907974243,0.8354213237762451,0.008246421813964844,987.9248046875,0,13.0,1,1
6.96,0.06378427,-0.14831664,9.758861999999999,0.0003773162025026977,0.00023767573293298486,0.000408632738981396,-4.528058052062988,28.82607078552246,-38.56642150878906,0.2976621687412262,0.8501312136650085,0.022806167602539062,987.9500732421876,0,13.0,1,1
7.0,0.061385512,-0.14354993,9.763594,-0.0014868094585835936,-0.0008276017033495009,0.001074459170922637,-4.816054821014403,29.03049278259277,-38.53400421142578,0.2960174679756165,0.8316680788993835,0.013691902160644531,987.9227905273438,0,13.0,1,1
7.04,0.008798778,-0.12448345,9.765961,0.0002443293924443424,0.0011697534937411547,0.000275548140052706,-4.711161613464356,28.65456199645996,-38.45118713378906,0.3374847173690796,0.7941697835922241,0.02350616455078125,987.9398193359376,0,13.0,1,1
7.08,0.068537414,-0.16499893,9.768326,-0.0006876905099488795,0.00037079199682921166,-0.00012388901086524132,-4.221935272216797,28.533403396606445,-38.82742309570313,0.2739981114864349,0.832601010799408,0.02386665344238281,987.9278564453124,0,13.0,1,1
7.12,0.013560861,-0.10780005,9.768326,-0.0006876905099488795,0.00037079199682921166,-0.00012388901086524132,-4.77135181427002,29.12522315979004,-38.85437774658203,0.2727985680103302,0.8094016909599304,0.0005245208740234375,987.9278564453124,0,13.0,1,1
7.16,0.09480864,-0.17929815,9.782528,-0.0012202367652207613,-0.00042816955829039216,9.305716957896948e-06,-4.941299915313722,29.335264205932614,-39.53334045410156,0.25205132365226746,0.8431295156478882,-0.018052101135253903,987.905517578125,0,13.0,1,1
7.2,0.0780704,-0.14354874,9.768324,-0.0009537498117424547,-0.00042819729424081743,0.00027569482335820794,-4.289054870605469,28.734331130981445,-39.44470977783203,0.21755683422088626,0.8627872467041016,0.0012083053588867188,987.9154663085938,0,13.0,1,1
7.24,-0.029484034,-0.10779942599999999,9.754121000000001,-0.00015471648657694462,0.0002375784679315984,-0.00025690026814118033,-4.8123297691345215,28.77106666564941,-39.28924560546875,0.4068796336650848,0.7542438507080078,0.02046108245849609,987.90771484375,0,13.0,1,1
7.28,0.10195169,-0.18168084,9.775425,-0.0006872626836411655,0.00023756455630064008,0.0001426102826371789,-4.654419898986816,28.6551570892334,-38.69091796875,0.21963173151016235,0.8404175639152527,0.02078819274902344,987.9510498046876,0,13.0,1,1
7.32,0.0015668869,-0.08873273400000001,9.761221,-0.00028770318021997815,-0.0008277127635665237,9.489012882113457e-06,-4.527920722961426,28.931989669799805,-39.2655029296875,0.3231853544712067,0.7318282127380371,0.002157211303710937,987.9487915039062,0,13.0,1,1
7.36,0.13061273,-0.20789643,9.784891,0.0002450140309520066,-0.00029509502928704023,-0.00012363231508061292,-4.161851882934569,29.16908073425293,-38.7968978881836,0.2410694360733032,0.8286141157150269,-0.007060050964355469,987.9285888671876,0,13.0,1,1
7.4,-0.0008407235000000001,-0.086348966,9.758852000000001,0.001288542291149497,-0.0008028253796510397,-0.00041785574285313487,-4.535530090332031,28.924619674682614,-38.87897491455078,0.29691430926322937,0.7392483949661255,0.054778099060058594,987.928955078125,0,13.0,1,1
7.44,0.046948433,-0.12686445,9.751749,0.0008891540346667169,0.0011945299338549376,-0.0001515031908638775,-4.723061561584473,28.85461235046387,-39.23090362548828,0.3528963327407837,0.735686182975769,0.05032634735107422,987.946533203125,0,13.0,1,1
7.48,0.044549644000000006,-0.122097805,9.756483,9.029207285493612e-05,-0.0013354849070310593,0.0006474811234511435,-4.793363094329834,28.94667625427246,-38.9945068359375,0.22717905044555664,0.8126708269119263,0.008031845092773438,987.946533203125,0,13.0,1,1
7.52,0.08994889,-0.17452969,9.77542,9.037752170115708e-05,0.0006618701736442745,0.0006475178524851799,-4.741188049316406,28.942853927612305,-39.0023193359375,0.19766303896903992,0.8516516089439392,-0.005886077880859375,987.9342651367188,0,13.0,1,1
7.56,0.020632863,-0.10303111400000001,9.777786,-4.269473720341921e-05,-0.0009360389085486533,0.00011492270277813076,-4.779664993286133,28.95992851257324,-39.69024658203125,0.2726218104362488,0.7528207302093506,-0.005605697631835938,987.9420166015624,0,13.0,1,1
7.6,0.044523,-0.13639675,9.765949,0.0008894962957128882,0.0007950006402097642,-0.00015135639114305377,-4.972985744476318,29.51616477966309,-39.308082580566406,0.3047606945037842,0.7398830652236938,0.03253459930419922,987.9189453125,0,13.0,1,1
7.64,0.070803046,-0.17929552,9.784885000000001,9.063433390110732e-05,-0.0012023826129734516,0.00011499616084620357,-4.3334598541259775,29.2717342376709,-38.69947052001953,0.27018460631370544,0.759907603263855,0.004411697387695313,987.92919921875,0,13.0,1,1
7.68,0.058844655999999995,-0.124479905,9.75411,-0.00030875380616635084,-0.0002702908823266625,0.0010471383575350046,-4.386476516723634,29.01170539855957,-39.21498107910156,0.2209443151950836,0.7561802268028259,0.03310489654541016,987.9139404296876,0,13.0,1,1
7.72,0.0062578917000000005,-0.10064699,9.763579,0.0008897531079128385,0.0009281167876906693,-0.00015124649507924914,-4.744231224060059,28.93990898132324,-38.84770965576172,0.31028151512146,0.7238932251930237,0.02865314483642578,987.937255859375,0,13.0,1,1
7.76,0.09706533,-0.16022874,9.780149,-0.00044174073264002805,0.00026231311494484544,0.00011510617332533003,-5.08538293838501,28.77839088439941,-38.63172149658203,0.2614262402057648,0.7585077881813049,-0.01843357086181641,987.8994140625,0,13.0,1,1
7.8,0.06733623,-0.15311174,9.763701,0.0008899243548512459,-0.0014687541406601667,0.00038145866710692644,-5.0578269958496085,29.33112907409668,-38.899261474609375,0.278392106294632,0.7834630012512207,0.024312973022460938,987.9398193359376,0,13.0,1,1
7.84,-0.023435622000000003,-0.11259706,9.756604,0.00035537168150767684,-0.0007984363473951818,0.00023517879890277984,-4.938393592834473,29.2322940826416,-38.988868713378906,0.328945130109787,0.7180516719818115,0.02932262420654297,987.9220581054688,0,13.0,1,1
7.88,0.086544275,-0.15549715,9.782646000000002,0.00021708005806431172,0.0014660819433629513,-0.0001664951560087502,-4.45609712600708,28.841398239135746,-39.57920837402344,0.21309253573417666,0.7525877356529236,0.020109176635742188,987.937255859375,0,13.0,1,1
7.92,0.057909906,-0.14834844,9.766081,0.00021665188251063228,-0.0002649017260409892,0.0004991110181435944,-4.530720233917236,27.92861366271973,-39.43730926513672,0.26433736085891724,0.7201548218727112,0.01091289520263672,987.9423828125,0,13.0,1,1
7.96,0.07229376,-0.15073277,9.780288,-5.009217420592904e-05,-0.00026483219699002797,-0.00043317797826603055,-4.683903217315674,28.57516288757324,-39.14360046386719,0.25312647223472595,0.7496420741081238,0.006464958190917969,987.945068359375,0,13.0,1,1
8.0,0.00064110756,-0.11498470599999999,9.761353999999999,-0.0003168363473378122,0.0006673428579233588,-0.0006996774463914335,-4.9273343086242685,28.768400192260746,-38.73247528076172,0.3233975172042847,0.7128652334213257,0.006712913513183594,987.9779663085938,0,13.0,1,1
8.04,0.06760278,-0.14835168,9.763725,0.0006148410611785947,-0.00026469322619959707,0.0003654026077128947,-4.924833297729492,29.139631271362305,-38.98553466796875,0.2596966326236725,0.7190229296684265,0.01643085479736328,987.94775390625,0,13.0,1,1
8.08,0.093936145,-0.17456885,9.76373,0.00048125494504347444,-0.00026462378446012735,0.00036521902075037366,-4.9173617362976065,29.04108238220215,-38.67298126220703,0.1969262957572937,0.7771628499031067,0.02614307403564453,987.9501953125,0,13.0,1,1
8.12,0.022283493999999997,-0.114987984,9.74953,0.0007471427670679986,-0.00039771210867911577,-0.0004339120932854712,-4.567215919494629,29.10552024841309,-38.653724670410156,0.2721129953861237,0.6880143880844116,0.04058265686035156,987.90966796875,0,13.0,1,1
8.16,0.053396672,-0.12690546,9.77084,-5.2233168389648206e-05,-0.0003976425505243242,-0.0003009377396665513,-4.528899192810059,28.56222343444824,-39.089744567871094,0.28535303473472595,0.7181357145309448,0.03133583068847656,987.9306640625,0,13.0,1,1
8.2,0.067780495,-0.17695542,9.754272,0.0007462860667146742,-0.0006638889899477363,0.0007641423144377768,-4.428135871887207,28.9199275970459,-39.049224853515625,0.2271392345428467,0.7620453238487244,0.03631305694580078,987.9461669921876,0,13.0,1,1
8.24,0.039146096,-0.119757816,9.76848,8.006830466911198e-05,-0.0009301353129558264,9.816914098337293e-05,-4.724583625793457,28.853139877319336,-39.153602600097656,0.2256789207458496,0.7300702333450317,0.012879371643066406,987.9283447265624,0,13.0,1,1
8.28,0.02963093,-0.13405855,9.76375,0.0008785877726040782,0.0008009874145500362,0.0007637753151357174,-4.704935550689697,28.76637077331543,-39.45948791503906,0.2765102982521057,0.6836113929748535,0.008402824401855469,987.9409790039062,0,13.0,1,1
8.32,0.06791377,-0.1388262,9.768488,-5.394587060436606e-05,2.109212800860405e-06,-0.0003016717382706702,-4.766786098480225,29.1296443939209,-39.08628845214844,0.19921326637268064,0.7324954867362976,0.018095970153808597,987.9283447265624,0,13.0,1,1
8.36,0.08946735,-0.17219318,9.773228,-0.00032069004373624915,-0.0007967688725329937,-0.0001686972682364285,-5.141007423400879,29.253477096557614,-39.266822814941406,0.2124282717704773,0.7337748408317566,0.013591766357421877,987.9513549804688,0,13.0,1,1
8.4,0.056053102,-0.14836149,9.763761500000001,0.0003446713672019541,-0.0002640675811562687,0.0002305929665453732,-4.721134662628174,28.381879806518555,-38.51068115234375,0.21558845043182373,0.7442482709884644,0.01858997344970703,987.9286499023438,0,13.0,1,1
8.44,-0.0060399175,-0.09593047,9.766133,0.00034424319164827466,0.0016002131160348654,-0.0004353802069090307,-4.6744728088378915,29.21613502502441,-39.18256378173828,0.3380032181739807,0.6266880631446838,0.02355670928955078,987.9386596679688,0,13.0,1,1
8.48,0.12544912,-0.21032895,9.766136999999999,0.00034424319164827466,0.0016002131160348654,-0.0004353802069090307,-4.819939613342285,28.76370048522949,-38.90271759033203,0.15109151601791382,0.7612439393997192,0.02377414703369141,987.9386596679688,0,13.0,1,1
8.52,0.037067175,-0.11261557,9.768509,-0.00032197457039728766,-0.0003970864927396178,0.0004965419066138567,-4.717110633850098,28.75458335876465,-38.84104919433594,0.2358658015727997,0.6719840168952942,0.038204193115234375,987.9641723632812,0,13.0,1,1
8.56,0.022772193,-0.12453307,9.768513,0.00047654478112235676,-0.001195964636281133,-0.00030258932383731013,-4.3154706954956055,29.07757377624512,-38.228981018066406,0.3586082458496094,0.645090639591217,0.0431509017944336,987.9464721679688,0,13.0,1,1
8.6,0.082564145,-0.18411614,9.775619,0.0011414780747145414,-0.0005300358752720059,0.00036283332156017417,-4.697027206420898,29.405874252319336,-39.421142578125,0.1947828233242035,0.7068581581115723,0.015050888061523438,987.928955078125,0,13.0,1,1
8.64,0.0610995,-0.1293018,9.761419,0.0008747339597903192,-0.0007962821982800959,0.0004958078498020768,-4.6373796463012695,29.30349922180176,-39.11640167236328,0.2417750656604767,0.6908586025238037,0.0341033935546875,987.9268188476562,0,13.0,1,1
8.68,0.0420247,-0.12691964,9.768526,0.0007411479600705206,0.000535366649273783,0.0002293084398843348,-4.543981552124023,28.653409957885746,-39.01577758789063,0.2401134967803955,0.6731612086296082,0.02486515045166016,987.9544067382812,0,13.0,1,1
8.72,0.056408525,-0.12453742,9.782732000000001,-0.0001913857995532453,0.0010680679697543383,-0.00017034885240718722,-4.826028347015381,28.75781059265137,-38.59349822998047,0.2433280348777771,0.6365849375724792,0.0108795166015625,987.9340209960938,0,13.0,1,1
8.76,0.0798766,-0.16265936,9.759021,-5.8656150940805674e-05,0.00040234770858660335,0.00022894149878993633,-4.8977131843566895,28.95431327819824,-38.97887420654297,0.2183663845062256,0.6996451020240784,0.034775733947753906,987.9420776367188,0,13.0,1,1
8.8,0.038788795,-0.13404872,9.763714,-0.000325400207657367,-0.0006628462579101324,0.00036191585240885615,-4.9739651679992685,29.14640617370605,-39.13233184814453,0.2461548447608948,0.66556316614151,0.021002769470214844,987.9318237304688,0,13.0,1,1
8.84,0.06508404,-0.14834858,9.751878,-0.0008492281776852906,0.0004009879776276648,0.00023253093240782619,-4.745615482330322,29.04435157775879,-39.469482421875,0.21225082874298096,0.6687808036804199,0.04950523376464844,987.9420776367188,0,13.0,1,1
8.88,0.019682258,-0.11259951,9.76845,0.0003491321695037186,0.00013468210818246007,-0.00016696896636858582,-4.661211013793945,28.4913387298584,-39.604103088378906,0.24912071228027344,0.6268952488899231,0.026070594787597656,987.9174194335938,0,13.0,1,1
8.92,0.07465634,-0.15549870000000002,9.76845,-0.0008503146818839014,-0.0007072617299854755,0.0010553030297160149,-4.736621379852295,28.9472713470459,-39.23423767089844,0.2293214201927185,0.6521053910255432,0.007330894470214844,987.9498291015624,0,13.0,1,1
8.96,0.050763667,-0.13404931,9.77792,-5.1428272854536765e-05,-0.0013730414211750028,-9.986571967601776e-06,-4.83586311340332,28.59104347229004,-39.35206604003906,0.21393173933029172,0.6580420136451721,0.02175140380859375,987.94482421875,0,13.0,1,1
9.0,0.053159893,-0.1435826,9.761349000000001,-0.00045096309622749686,9.17057623155415e-05,-0.00040948670357465744,-4.962905883789063,28.68250846862793,-38.875938415527344,0.2555416822433472,0.6403785347938538,0.02196693420410156,987.9273681640624,0,13.0,1,1
9.04,0.04360664,-0.11974998,9.763717,-0.00018470833310857412,0.0007575054187327622,0.0006557507440447807,-4.857576370239258,29.044626235961914,-39.06732940673828,0.2114661335945129,0.632131814956665,0.02691078186035156,987.9650268554688,0,13.0,1,1
9.08,0.05317259,-0.1411996,9.775554,-0.0001847694511525333,9.1725611127913e-05,0.0006557244341820477,-4.788253784179688,28.58280372619629,-39.127967834472656,0.233599066734314,0.628890872001648,0.022391319274902344,987.942626953125,0,13.0,1,1
9.12,0.05078903,-0.13166668,9.763717999999999,-0.00045114633394405246,0.0003580513875931501,-0.00014324928633868694,-4.812872886657715,29.13935661315918,-39.3876953125,0.23704442381858826,0.6205304861068726,0.013144493103027344,987.9353637695312,0,13.0,1,1
9.16,0.06991458,-0.15788294,9.770821,-0.0005843655089847745,0.0004912192234769464,0.00012304034316912293,-4.678060054779053,29.58148002624512,-39.12640380859375,0.2357634902000427,0.6265498399734497,0.05123138427734375,987.9481811523438,0,13.0,1,1
9.2,0.04363197,-0.119750574,9.758985000000001,-0.0005844265106134117,0.0006243870593607426,0.00025617214851081366,-4.310225009918213,28.819623947143555,-39.0615234375,0.20062106847763064,0.6469849944114685,0.02777862548828125,987.9456787109376,0,13.0,1,1
9.24,0.048418134,-0.12928386,9.766086999999999,0.0003476179554127157,0.0015565025387331846,-0.0004096436314284802,-4.383432388305663,29.0146541595459,-39.369590759277344,0.2565759718418121,0.6010128259658813,0.0279693603515625,987.9232788085938,0,13.0,1,1
9.28,0.03886485,-0.124517515,9.766088,-5.1916984375566244e-05,-0.0005740144988521934,-1.019611954689026e-05,-4.726648330688477,29.219953536987305,-39.17474365234375,0.20765990018844604,0.6545884013175964,0.023444175720214844,987.930908203125,0,13.0,1,1
9.32,0.07232982,-0.16026677,9.770823,-0.0007177676889114082,0.0003581009805202484,-0.000809169840067625,-4.9133381843566895,29.41379356384277,-39.00334930419922,0.2066536843776703,0.6370931267738342,0.01889514923095703,987.9507446289062,0,13.0,1,1
9.36,0.096235186,-0.16980006,9.754252000000001,8.111872011795641e-05,-0.0011066264705732463,0.0006555411964654922,-4.862004280090332,29.1461238861084,-39.53449249267578,0.12965908646583554,0.6906816959381104,0.028553009033203125,987.9054565429688,0,13.0,1,1
9.4,-0.04715258,-0.074469134,9.7708235,-0.00031847722129896283,0.0007576044881716371,-1.03008933365345e-05,-4.874478340148926,28.5022029876709,-39.340919494628906,0.34184136986732483,0.5573440194129944,0.043059349060058594,987.96142578125,0,13.0,1,1
9.44,0.091468066,-0.15073414,9.766089,-0.00031847722129896283,0.0007576044881716371,-1.03008933365345e-05,-4.874478340148926,28.5022029876709,-39.340919494628906,0.1455109715461731,0.612640380859375,0.03842735290527344,987.96142578125,0,13.0,1,1
9.48,0.089084506,-0.16026737,9.780292999999999,-0.0012506439816206696,0.0004912987351417542,-1.032691216096282e-05,-4.779366493225098,29.59206962585449,-39.265380859375,0.16423481702804565,0.6617315411567688,0.014925003051757812,987.96142578125,0,13.0,1,1
9.52,0.06997162,-0.1435846,9.756622,0.0002140324213542044,-0.0015060605946928265,-0.0008093009237200023,-4.68748950958252,28.94050407409668,-39.08744812011719,0.2106527090072632,0.624843418598175,0.034066200256347656,987.913330078125,0,13.0,1,1
9.56,-0.013668627,-0.09591921,9.773193,-0.0004518185160122812,9.184470400214195e-05,-0.00040985317900776863,-4.775237083435059,28.858434677124023,-39.22309112548828,0.2857376039028168,0.5835152864456177,0.02478599548339844,987.9207763671876,0,13.0,1,1
9.6,0.09866312,-0.18171735,9.766092,-0.0007181953988038003,0.0007576441857963799,0.0001227523316629231,-4.431041717529297,29.02289390563965,-39.59368896484375,0.17463025450706482,0.6087405681610107,0.029707908630371094,987.9436645507812,0,13.0,1,1
9.64,0.04370171,-0.14120181,9.758991,-0.0008514144574292004,0.00022502237698063252,-0.0004099055659025908,-4.4266133308410645,28.9213924407959,-39.12652587890625,0.17359820008277893,0.6101347804069519,0.03936004638671875,987.9237060546876,0,13.0,1,1
9.68,0.01741916,-0.10783608,9.770827,-5.2527931984514005e-05,0.0008908220333978534,-0.0005430896999314426,-4.4992780685424805,28.74814033508301,-39.33614349365234,0.2674613893032074,0.5402387380599976,0.04902076721191406,987.9212036132812,0,13.0,1,1
9.72,0.08434272,-0.17218472,9.758992,-5.258893361315131e-05,9.188428521156312e-05,-0.0006762738339602947,-4.67629337310791,28.5825252532959,-39.530128479003906,0.1849685311317444,0.6134682893753052,0.030254364013671875,987.9364624023438,0,13.0,1,1
9.76,0.0629673,-0.14597197,9.749535,8.050777250900866e-05,0.0004913680022582412,-0.0006763001438230276,-4.477266788482666,28.92669486999512,-39.19601440429688,0.1982765793800354,0.6100907325744629,0.04462432861328125,987.9496459960938,0,13.0,1,1
9.8,0.019960523,-0.103073195,9.763741,-0.00018647540127858517,0.000624634325504303,-0.00014395429752767086,-4.819940567016602,28.76370048522949,-38.90271759033203,0.22029125690460205,0.5500785112380981,0.030594825744628906,987.9520874023438,0,13.0,1,1
9.84,0.06299013,-0.13405614,9.7637415,-0.00018647540127858517,0.000624634325504303,-0.00014395429752767086,-4.744231224060059,28.93990898132324,-38.84770965576172,0.18629345297813416,0.5660609602928162,0.030744552612304688,987.9520874023438,0,13.0,1,1
9.88,0.08690062,-0.15312265,9.763742,-0.0004446180537343025,0.0010250927880406382,0.0006490974919870496,-4.42704963684082,28.1833438873291,-38.852317810058594,0.16679328680038452,0.6010565161705017,0.030893325805664062,987.9241333007812,0,13.0,1,1
9.92,0.04389375400000001,-0.13405664,9.775578999999999,-0.0003116801381111145,-0.000972240581177175,0.0002495294902473688,-4.4992780685424805,28.74814033508301,-39.33614349365234,0.2086971402168274,0.5931329727172852,0.016857147216796875,987.9396362304688,0,13.0,1,1
9.96,0.008056641,-0.114990786,9.761377,0.0004871574928984046,9.30408132262528e-05,-0.00014999147970229387,-4.735344409942627,29.94917106628418,-38.98512268066406,0.2506316006183624,0.5187740921974182,0.03594684600830078,987.9268188476562,0,13.0,1,1
10.0,0.0678156,-0.16027327,9.761377,-0.0008445319253951311,-0.0004395731375552714,-0.00015003862790763378,-5.145573139190674,29.24905204772949,-39.034912109375,0.16812199354171753,0.5823380351066589,0.04085063934326172,987.9268188476562,0,13.0,1,1
10.04,0.055877537000000005,-0.14120735,9.766113,0.00035377941094338894,0.0003593924338929355,-0.00028324371669441467,-4.9111361503601065,29.152891159057614,-39.68128204345703,0.16718965768814087,0.5604212284088135,0.03626251220703125,987.9548950195312,0,13.0,1,1
10.08,0.06544852,-0.15789063,9.763747,0.0003536695148795843,-0.0003063793992623687,-0.00028329086489975447,-4.822005271911621,29.13052177429199,-38.923866271972656,0.17583781480789185,0.5860522389411926,0.03167915344238281,987.9498901367188,0,13.0,1,1
10.12,0.0272215,-0.11499186,9.761381,0.0002204014454036951,-0.0003063615877181292,-0.0005496540106832981,-4.658167362213135,28.49428367614746,-39.75871276855469,0.2365972101688385,0.5307450294494629,0.036568641662597656,987.9677734375,0,13.0,1,1
10.16,0.07025117,-0.15312462,9.761381,8.713360875844955e-05,0.0004926039255224168,-0.00015022722072899342,-4.998040676116943,29.33466911315918,-39.293601989746094,0.17804202437400818,0.5468778610229492,0.02725410461425781,987.9474487304688,0,13.0,1,1
10.2,0.051143408,-0.13882525,9.751914,-0.00031245010904967785,0.0002263058559037745,-0.0005497483070939778,-4.9990200996398935,28.964902877807614,-39.11785125732422,0.20965781807899475,0.5424091815948486,0.04168891906738281,987.94287109375,0,13.0,1,1
10.24,0.051154792000000004,-0.13882549,9.77322,0.0002200715243816376,0.0007589554297737777,-0.0006829533958807588,-4.616103172302246,28.111860275268555,-39.12694549560547,0.1902170479297638,0.5361255407333374,0.02282142639160156,987.95263671875,0,13.0,1,1
10.28,0.055945963,-0.13405920000000002,9.756651,-0.00017951230984181166,-0.0012383956927806141,-0.0010824742494150996,-4.467048645019531,28.19894981384277,-39.46293640136719,0.20823781192302704,0.5380141735076904,0.0371694564819336,987.9276123046876,0,13.0,1,1
10.32,0.055957437,-0.1340595,9.763753999999999,-0.00017962232232093808,0.0010253072250634432,-1.7257872968912125e-05,-4.398812294006348,28.47370338439941,-39.72048950195313,0.1929232627153397,0.5492879152297974,0.0420522689819336,987.9476318359376,0,13.0,1,1
10.36,0.04401934,-0.13882633,9.773224,-0.0005792060401290655,9.321927791461347e-05,-1.730507938191295e-05,-4.6246609687805185,28.94698905944824,-39.636390686035156,0.2110946625471115,0.5415046215057373,0.03746318817138672,987.947998046875,0,13.0,1,1
10.4,0.053590328,-0.14835976,9.754288,-0.00017984234727919102,-0.0011051842011511326,0.0005152795929461718,-4.632270812988281,28.939626693725586,-39.24987030029297,0.19996017217636108,0.5373498797416687,0.05187225341796875,987.9227905273438,0,13.0,1,1
10.44,0.041652262,-0.13644363,9.770859,-7.239932892844081e-05,0.0008380304207094014,-0.00040231354068964714,-4.258049488067627,28.8158016204834,-39.0693359375,0.1997334510087967,0.5171213150024414,0.03298759460449219,987.9306640625,0,13.0,1,1
10.48,0.056003094,-0.15312676,9.766125,0.001125912182033062,-0.0015587946400046349,0.00013027118984609842,-4.5839805603027335,28.66901206970215,-39.62639617919922,0.1845471560955048,0.5428929924964905,0.023649215698242188,987.9303588867188,0,13.0,1,1
10.52,0.034505367,-0.13406093,9.756657,0.00046001240843907004,-0.000360355363227427,0.00026338198222219944,-4.3478612899780265,29.100549697875977,-39.22612762451172,0.20719079673290253,0.5259721279144287,0.037985801696777344,987.9459228515624,0,13.0,1,1
10.56,0.051246077,-0.13644446,9.754291,6.042857421562076e-05,0.0008380839717574418,-0.0006687706336379051,-4.745753288269043,28.938432693481445,-38.77040100097656,0.20102880895137787,0.5088406801223755,0.06653881072998047,987.9334716796876,0,13.0,1,1
10.6,0.053647400000000005,-0.1507444,9.756658999999999,0.00019347650231793523,0.0005717860185541213,0.0005296035669744015,-4.738824844360352,29.20817375183105,-38.55630493164063,0.1711968332529068,0.534643292427063,0.03353309631347656,987.9437866210938,0,13.0,1,1
10.64,0.039319396,-0.14121161,9.768496,0.0003265244304202497,0.0004386458895169199,0.0007958722999319433,-4.349383354187012,29.09907341003418,-39.148826599121094,0.19862113893032074,0.513014018535614,0.019458770751953125,987.9336547851562,0,13.0,1,1
10.68,0.046500504000000005,-0.15074493,9.7708645,0.00019325659377500412,0.0004386638174764812,-0.000402596197091043,-4.423707008361816,28.81842613220215,-38.5820541381836,0.1929163634777069,0.5197632312774658,0.024320602416992188,987.9337158203124,0,13.0,1,1
10.72,0.039687573999999996,-0.14598711,9.76853,0.0001931465812958777,-0.0006265819538384676,-0.0008021173998713492,-4.1792964935302725,28.99494743347168,-39.16893768310547,0.19668255746364596,0.526738703250885,0.01970863342285156,987.9364013671876,0,13.0,1,1
10.76,0.042455195999999994,-0.12693025,9.749626,0.0007256683311425148,0.00017238355940207842,-0.00040269060991704464,-4.745753288269043,28.93842887878418,-38.77040100097656,0.19453175365924835,0.4909260272979736,0.05764579772949219,987.94384765625,0,13.0,1,1
10.8,0.042494535,-0.13169776,9.754364,-0.0006058261496946216,4.27686027251184e-05,-0.00028428895166143775,-4.336939334869385,28.53073692321777,-38.27066040039063,0.18812330067157745,0.5106974840164185,0.04362678527832031,987.9413452148438,0,13.0,1,1
10.84,0.056873262,-0.1626813,9.759102,-0.0006058261496946216,4.27686027251184e-05,-0.00028428895166143775,-4.336939334869385,28.53073692321777,-38.27066040039063,0.1732289493083954,0.5235487222671509,0.034224510192871094,987.9413452148438,0,13.0,1,1
10.88,0.052132785,-0.12931637,9.749638000000001,0.00032590038608759636,-0.0006229595746845008,-0.0012165568768978119,-4.7802085876464835,29.328222274780273,-39.78870391845703,0.17736512422561646,0.5062610507011414,0.05328369140625,987.9288940429688,0,13.0,1,1
10.92,0.04500246,-0.13170059,9.770946499999999,-0.00020711030811071399,-0.0004897401086054742,-0.00015145592624321583,-4.922768592834473,28.772817611694336,-38.964393615722656,0.2004433423280716,0.4892711043357849,0.03445911407470703,987.9491577148438,0,13.0,1,1
10.96,0.059381127,-0.14838453,9.766214999999999,-0.00047380523756146436,-9.020470315590501e-05,0.00011469755554571748,-4.652897834777832,28.65663719177246,-38.768226623535156,0.17512311041355133,0.5055098533630371,0.039325714111328125,987.9570922851562,0,13.0,1,1
11.0,0.052250803,-0.1436189,9.761484,0.00019160530064255,0.0003093305276706815,-0.0002849386655725539,-4.61968994140625,28.477209091186523,-39.070777893066406,0.1695573776960373,0.4933993816375733,0.048903465270996094,987.9315795898438,0,13.0,1,1
11.04,0.040340602,-0.13170351,9.766222,-7.508974522352219e-05,4.307623021304608e-05,0.0005138464039191604,-4.51588249206543,28.837854385375977,-39.18486785888672,0.182685986161232,0.4812356233596802,0.039551734924316406,987.9622192382812,0,13.0,1,1
11.08,0.047549635,-0.13408782,9.778063000000001,0.0004571632016450167,0.0008420853991992773,-0.0008178953430615367,-4.53637170791626,28.6607723236084,-39.40229797363281,0.18648818135261536,0.4929693937301636,0.015990257263183594,987.9520874023438,0,13.0,1,1
11.12,0.045199037000000004,-0.14600517,9.756762,0.00019046815577894452,4.319933941587806e-05,-0.0005517419776879251,-4.650396347045898,29.027868270874023,-39.02128601074219,0.18032284080982208,0.4905468821525574,0.044508934020996094,987.9370727539062,0,13.0,1,1
11.16,0.045238376,-0.12932314,9.770968,0.00019046815577894452,4.319933941587806e-05,-0.0005517419776879251,-4.890646934509277,29.329973220825195,-39.463844299316406,0.17924265563488007,0.4735941290855408,0.030420303344726562,987.9370727539062,0,13.0,1,1
11.2,0.045277715,-0.14124049,9.752033,0.000190089107491076,4.326086491346359e-05,-0.0001524305553175509,-4.314652442932129,28.92111778259277,-39.52867889404297,0.16889609396457672,0.4853719472885132,0.06366348266601562,987.9600219726562,0,13.0,1,1
11.24,0.05965644,-0.13170831,9.766241,-7.660582195967437e-05,-8.98355501703918e-05,-0.0002857510116882622,-4.684445858001709,28.943449020385746,-39.24205780029297,0.1579664647579193,0.4638265371322632,0.030635833740234375,987.9295043945312,0,13.0,1,1
11.28,0.057305872,-0.14600892,9.763877,-7.736391853541137e-05,0.00044291937956586486,-0.0008187078055925668,-4.59227180480957,28.92402458190918,-38.639244079589844,0.16185201704502106,0.4898760318756104,0.03547382354736328,987.9194946289062,0,13.0,1,1
11.32,0.043005764,-0.13171028,9.76388,0.00032173085492104286,0.0007092967280186713,0.000246393377892673,-4.358514308929443,29.09023475646973,-38.68498992919922,0.17913836240768433,0.4586524963378906,0.04506969451904297,987.9423217773438,0,13.0,1,1
11.36,0.04782492,-0.14362769,9.766252,-0.0007439118344336747,0.002174095716327429,0.00037938897730782633,-4.515339374542236,28.46956443786621,-39.08641052246094,0.16843920946121216,0.4751114845275879,0.040444374084472656,987.9398803710938,0,13.0,1,1
11.4,0.050254165999999996,-0.12932895,9.754419,0.00032097275834530587,-8.952786447480321e-05,0.00011291058035567404,-4.253919601440431,28.08216667175293,-39.02704620361328,0.16719898581504822,0.453700065612793,0.054749488830566406,987.9553833007812,0,13.0,1,1
11.44,0.05746317,-0.14601283,9.759157,0.00032059359364211565,0.0008426391868852079,0.0005122219445183873,-4.410988807678223,28.4619197845459,-39.10204315185547,0.13769301772117615,0.4795451164245606,0.035918235778808594,987.9398803710938,0,13.0,1,1
11.48,0.03360346,-0.13886394,9.763895,0.000187056721188128,0.00031006900826469064,0.00011258554877713325,-4.848582267761231,28.947546005249023,-38.83207702636719,0.1890556365251541,0.448743999004364,0.03601360321044922,987.927490234375,0,13.0,1,1
11.52,0.057541847,-0.13648166,9.759165,0.0004529934376478195,0.00017697259318083522,0.00011242314940318464,-4.651376247406006,28.65810966491699,-38.84552764892578,0.1497708261013031,0.4605675935745239,0.045581817626953125,987.940185546875,0,13.0,1,1
11.56,0.038461953,-0.13409932,9.754433,5.314056761562824e-05,-8.928176248446107e-05,-0.0004203710122965276,-4.5615644454956055,28.37335777282715,-38.688743591308594,0.1775641292333603,0.4536149501800537,0.059871673583984375,987.9281005859376,0,13.0,1,1
11.6,0.04328108,-0.14839993,9.775742,0.0005853932816535233,0.00031025364296510816,-0.0006868494092486799,-4.518383979797363,28.46661949157715,-38.931800842285156,0.17220765352249146,0.4654368162155152,0.031554222106933594,987.915283203125,0,13.0,1,1
11.64,0.05049008,-0.14125116,9.768644,0.00045185629278421397,-0.0011544222943484785,-0.00015438016271218655,-4.996656894683838,29.23022270202637,-38.671836853027344,0.16102568805217746,0.447729229927063,0.04116058349609375,987.9509887695312,0,13.0,1,1
11.68,0.055309236,-0.13410227,9.768646,0.0004514773609116674,0.0003103765775449574,0.0003780893166549504,-4.8240699768066415,29.49733543395996,-38.94500732421875,0.16533011198043826,0.456078052520752,0.03173828125,987.93310546875,0,13.0,1,1
11.72,0.059370400000000004,-0.16030063,9.759113000000001,0.0007174140773713589,4.4122396502643824e-05,0.00011161091970279811,-4.990163803100586,28.761911392211914,-38.18352508544922,0.15579846501350406,0.4682300686836242,0.04135513305664063,987.9156494140624,0,13.0,1,1
11.76,0.04742974,-0.1293182,9.763848,5.3058145567774766e-05,-0.0004887421382591128,0.0002453833003528416,-4.683062076568604,28.83901023864746,-38.620277404785156,0.1692037135362625,0.4466731548309326,0.04618644714355469,987.9612426757812,0,13.0,1,1
11.8,0.056998192999999996,-0.14600141,9.77095,0.00045917823445051914,0.00044297007843852043,-0.00028725137235596776,-4.834043025970459,29.224653244018555,-39.00450134277344,0.15368656814098358,0.4536065459251404,0.027353286743164062,987.9359741210938,0,13.0,1,1
11.84,0.047447502999999995,-0.13408525,9.768583,-0.00047301291488111014,0.0005761418724432588,0.0007779755396768451,-4.348297119140625,28.36249351501465,-38.95191955566406,0.1577700674533844,0.4321520328521729,0.02270793914794922,987.9408569335938,0,13.0,1,1
11.88,0.04028669,-0.14600186,9.761483,-7.362454198300837e-05,-0.0004891077987849712,0.0005116229876875877,-4.614687919616699,29.21967887878418,-39.576904296875,0.17133668065071106,0.4534510374069214,0.032268524169921875,987.966552734375,0,13.0,1,1
11.92,0.04268539,-0.14838542,9.775688,-0.00020686828065663576,-0.0002227780059911311,0.0002452704356983304,-4.708660125732422,29.02580070495605,-38.704246520996094,0.15611030161380768,0.4462760090827942,0.04182910919189453,987.9436645507812,0,13.0,1,1
11.96,0.037914515,-0.14600234,9.766217999999999,-0.00038680504076182837,-0.00012992683332413435,3.650609869509936e-05,-4.553518295288086,29.11877632141113,-39.34947204589844,0.16442523896694186,0.4294280409812927,0.05140113830566406,987.9617919921876,0,13.0,1,1
12.0,0.04509312,-0.13885264,9.747282,0.0001457412727177143,0.0010685084853321314,-0.0006293203914538026,-4.296802520751953,28.62104606628418,-38.359107971191406,0.15371108055114746,0.4362627863883972,0.05150508880615234,987.9232788085938,0,13.0,1,1
12.04,0.04749185,-0.14123614,9.761486,-0.000653291936032474,0.0006690485170111059,0.0004359064623713493,-4.22940731048584,28.6319522857666,-39.13997650146485,0.15278583765029907,0.4292606711387634,0.02791595458984375,987.9186401367188,0,13.0,1,1
12.08,0.049890637,-0.13885312,9.761486999999999,1.2412085197865965e-05,-0.00012988515663892028,3.639596980065107e-05,-4.527377128601074,28.56369590759277,-39.16705322265625,0.15691015124320984,0.4317100644111633,0.03273200988769531,987.9566650390624,0,13.0,1,1
12.12,0.040339947,-0.14361991,9.770957000000001,0.0004118003416806459,-0.0006625030655413866,-0.00022995658218860626,-4.481152534484863,28.65990257263184,-39.564720153808594,0.16124986112117767,0.41998541355133057,0.03280448913574219,987.9465942382812,0,13.0,1,1
12.16,0.04990843,-0.14600341,9.761489,0.0004117147764191032,-0.00106196291744709,-0.0004963090177625418,-4.817439079284668,29.134939193725586,-39.15577697753906,0.15554411709308624,0.4222316145896912,0.04709815979003906,987.9617919921876,0,13.0,1,1
12.2,0.0379678,-0.13885383,9.770958,-0.0005204766057431698,0.0005359462229534984,0.0007020756602287292,-4.615666389465332,28.849916458129886,-39.401145935058594,0.1644641011953354,0.4150206446647644,0.02350902557373047,987.936767578125,0,13.0,1,1
12.24,0.054706007,-0.16030343,9.759122999999999,-0.000387403997592628,-0.0009287772700190543,0.00043572310823947186,-4.589089870452881,29.03288459777832,-39.49293518066406,0.14927268028259275,0.4505918622016907,0.04253673553466797,987.9468994140624,0,13.0,1,1
12.28,0.045155257000000004,-0.13408764,9.780428,1.1984258890151978e-05,0.00026965816505253315,0.0003025284968316555,-4.620095252990723,28.95141410827637,-39.868309020996094,0.14317815005779266,0.4102177023887634,0.009485244750976562,987.929443359375,0,13.0,1,1
12.32,0.037994415,-0.13647117,9.766228,-0.00038757536094635725,0.0017344094812870026,-9.69821121543646e-05,-4.675313949584961,28.95228385925293,-39.70587921142578,0.16638033092021942,0.4078655242919922,0.061641693115234375,987.9467163085938,0,13.0,1,1
12.36,0.038003296,-0.14123793,9.756758999999999,0.00014497083611786368,-0.0010618935339152813,3.613927401602268e-05,-4.867251396179199,29.40408134460449,-38.701942443847656,0.16104334592819214,0.4103787541389465,0.04751110076904297,987.926513671875,0,13.0,1,1
12.4,0.0356223,-0.13408835,9.75676,-0.0005209043156355619,-0.0007955636829137803,-0.0004965293919667602,-4.326828956604004,28.909337997436523,-38.910240173339844,0.16000689566135404,0.39354008436203,0.04286670684814453,987.9595947265624,0,13.0,1,1
12.44,0.052360475,-0.13647185,9.76623,-0.0002547596814110875,-0.0005292200949043037,-0.0006297604413703084,-4.622435569763184,29.10639762878418,-38.491302490234375,0.1493985503911972,0.4040939211845398,0.04772281646728516,987.9298095703124,0,13.0,1,1
12.48,0.052369356,-0.14362182,9.759129,-0.0002547596814110875,-0.0005292200949043037,-0.0006297604413703084,-4.622435569763184,29.10639762878418,-38.491302490234375,0.14424119889736176,0.4122553467750549,0.038298606872558594,987.9298095703124,0,13.0,1,1
12.52,0.045208544,-0.14838861,9.761496000000001,-0.0002547596814110875,-0.0005292200949043037,-0.0006297604413703084,-4.757248878479004,28.66427421569824,-38.75259399414063,0.14811958372592926,0.4100177884101868,0.05257892608642578,987.9298095703124,0,13.0,1,1
12.56,0.03804767,-0.13885574,9.7638645,-0.0013201087713241575,0.00026974151842296124,0.0004354663542471826,-4.341367721557616,28.632234573364254,-38.7378158569336,0.15175311267375946,0.3980456590652466,0.04319572448730469,987.91455078125,0,13.0,1,1
12.6,0.06195563,-0.14123924,9.754396,-0.00025501649361103773,0.0013350327499210837,0.0009680247167125344,-5.0269813537597665,28.88637733459473,-39.64783477783203,0.13157756626605988,0.39601200819015503,0.033799171447753906,987.9400634765624,0,13.0,1,1
12.64,0.05240488,-0.13408963,9.7733345,0.0001443719957023859,-0.00039600650779902935,0.0005685142241418363,-4.777301788330078,29.22524833679199,-39.244232177734375,0.14039476215839386,0.3891744613647461,0.03860282897949219,987.9298095703124,0,13.0,1,1
12.68,0.059583485,-0.13647313,9.7686,0.0004106020787730813,0.001201902749016881,0.00043531961273401976,-4.910432815551758,29.31082344055176,-38.458885192871094,0.13491830229759216,0.3916816711425781,0.04340648651123047,987.9120483398438,0,13.0,1,1
12.72,0.05794108,-0.15079112,9.754467,0.00014420063234865663,-0.00119492644444108,0.0003021248849108815,-4.5368080139160165,27.922719955444336,-39.12809753417969,0.13378363847732544,0.399383008480072,0.04812908172607422,987.90478515625,0,13.0,1,1
12.76,0.05319932,-0.15079208,9.768673,0.0002860712702386081,-0.00012198160402476788,1.921970397233963e-05,-4.689011573791504,28.93903160095215,-39.01013946533203,0.14281301200389862,0.3973923325538635,0.03871726989746094,987.9501953125,0,13.0,1,1
12.8,0.04128787,-0.14840968,9.768677,0.0005494428914971651,-0.0005209774244576694,-0.0005146737676113844,-4.7367591857910165,28.841352462768555,-38.53515625,0.1420793980360031,0.40016162395477295,0.034043312072753906,987.9432983398438,0,13.0,1,1
12.84,0.055665374000000004,-0.13411094,9.773415,0.0008153915987350048,0.00014487188309431076,-0.0001153572229668498,-4.318675518035889,28.54841423034668,-39.19831848144531,0.13641299307346344,0.3837802410125733,0.019904136657714844,987.958251953125,0,13.0,1,1
12.88,0.04614389,-0.13649516,9.763949,1.607701415196061e-05,0.00014493142953142524,0.0008165909675881268,-4.395906448364259,28.3707332611084,-39.17601776123047,0.14502935111522675,0.3770442605018616,0.04837322235107422,987.9281005859376,0,13.0,1,1
12.92,0.05574155,-0.13411282,9.766319000000001,0.000282025954220444,-0.00012132478877902031,0.0006832758663222194,-4.275632858276366,28.535749435424805,-38.74230194091797,0.13023172318935394,0.3604877293109894,0.03896617889404297,987.940673828125,0,13.0,1,1
12.96,0.046220005,-0.12458064,9.754487,-0.0005172886303626001,-0.0011865287087857725,-0.00038214493542909617,-4.527377128601074,28.56369590759277,-39.16705322265625,0.14858832955360413,0.3585339188575745,0.06269645690917969,987.9053344726562,0,13.0,1,1
13.0,0.055817723,-0.15079765,9.756858,1.4975841622799633e-05,1.195224467664957e-05,-0.00024914450477808714,-5.305280208587647,29.151655197143555,-38.15777587890625,0.12421248853206635,0.3801428079605103,0.04855155944824219,987.950927734375,0,13.0,1,1
13.04,0.041516334,-0.12934913,9.768697,-0.00011854904005303979,1.2011849321424961e-05,-0.00011614372488111258,-4.761378288269043,29.39790916442871,-38.794883728027344,0.14237356185913086,0.37768876552581787,0.039155006408691406,987.9566650390624,0,13.0,1,1
13.08,0.048724145,-0.14364974,9.77817,-0.0009178635082207619,0.0005447030998766422,0.0004163307603448629,-4.708224296569824,29.76384925842285,-38.97845458984375,0.14144521951675415,0.3757910430431366,0.025010108947753903,987.9539794921876,0,13.0,1,1
13.12,0.05115211,-0.1341175,9.766336,-0.00025244097923859954,1.2130942195653915e-05,0.0005493314238265157,-4.617869853973389,29.11081504821777,-38.72321319580078,0.14087244868278506,0.3544968962669373,0.06767940521240234,987.9082641601562,0,13.0,1,1
13.16,0.044020474000000004,-0.12935184,9.763973,-0.00011964986333623528,-0.0006535991560667753,-0.0005160894943401216,-4.657464027404785,28.652212142944336,-38.53630828857422,0.13544252514839172,0.3572990298271179,0.04406070709228516,987.9564819335938,0,13.0,1,1
13.2,0.048838377,-0.14365248,9.763977,0.00041261495789512986,-0.000520381610840559,0.00014954304788261652,-3.982090950012207,28.70550346374512,-39.182395935058594,0.13019272685050964,0.3696405589580536,0.039376258850097656,987.9236450195312,0,13.0,1,1
13.24,0.05604613,-0.13888688,9.766347999999999,-0.00012038386194035412,-0.0005203220644034445,0.0002825437113642693,-4.286149024963379,28.631357192993164,-38.900245666503906,0.11512315273284912,0.35296839475631714,0.025236129760742188,987.9439697265624,0,13.0,1,1
13.28,0.056084216,-0.14842089,9.75925,-0.0007865407387726009,-0.00012078869622200727,0.0005487023154273629,-4.179733276367188,28.256895065307614,-38.89472961425781,0.12430275976657867,0.3651689887046814,0.048958778381347656,987.9393920898438,0,13.0,1,1
13.32,0.04895261,-0.1460386,9.775824,-0.0001211180933751166,-0.0006533608539029956,0.00041538698133081203,-4.359355926513672,28.82639122009277,-39.20831298828125,0.1280769258737564,0.3680908977985382,0.044280052185058594,987.9642944335938,0,13.0,1,1
13.36,0.048990667,-0.1460395,9.756889,0.0005443046684376894,-0.00012066960334777832,0.00014891382306814194,-4.475202083587647,28.559873580932614,-39.17486572265625,0.1275743991136551,0.35651421546936035,0.044330596923828125,987.9465942382812,0,13.0,1,1
13.4,0.058588355999999994,-0.15319033,9.754526,1.1306081432849167e-05,0.0005451797042042017,-0.0009165069786831737,-4.8570332527160645,28.67633628845215,-38.96887969970703,0.10765087604522704,0.3782111704349518,0.04912281036376953,987.9674072265624,0,13.0,1,1
13.44,0.05145675,-0.14127482,9.76163,-0.00038853491423651576,-0.00012055039405822754,0.001213862793520093,-4.392563819885254,29.005815505981445,-38.90576171875,0.1163509637117386,0.3616766631603241,0.03971576690673828,987.91650390625,0,13.0,1,1
13.48,0.04671499,-0.14842556,9.761635,-0.0006998120225034653,0.00035881291842088103,0.0001620840630494058,-4.4109883308410645,28.4619197845459,-39.10205078125,0.12987485527992249,0.35980939865112305,0.04449939727783203,987.934326171875,0,13.0,1,1
13.52,0.053922802,-0.14842649,9.752169,9.876867989078164e-05,-4.060129867866635e-05,-0.001036494504660368,-4.357834339141847,28.827863693237305,-39.285621643066406,0.12918461859226227,0.3620811104774475,0.058765411376953125,987.9547119140624,0,13.0,1,1
13.56,0.04440123,-0.13651104,9.761641000000001,-0.0009668621351011095,-0.00017369963461533192,0.00016176956705749035,-4.210738658905028,28.1754207611084,-39.270111083984375,0.13342243432998654,0.3316648602485657,0.035137176513671875,987.927001953125,0,13.0,1,1
13.6,0.04921913,-0.14366181,9.756909,-0.0001682814327068627,-0.00030679797055199737,0.000827401876449585,-5.31913948059082,28.6121768951416,-38.58596801757813,0.1325235217809677,0.3674495220184326,0.039933204650878906,987.9652099609376,0,13.0,1,1
13.64,0.044477403,-0.13651295,9.768749,-0.0003021732554771006,0.0002259529428556561,-0.0006376499659381808,-4.544524192810059,29.02169609069824,-39.114219665527344,0.12161619961261748,0.34058547019958496,0.044747352600097656,987.9520874023438,0,13.0,1,1
13.68,0.04639852,-0.1508011,9.763973,-0.0003021732554771006,0.0002259529428556561,-0.0006376499659381808,-4.544524192810059,29.02169609069824,-39.114219665527344,0.12608879804611206,0.34438416361808777,0.049503326416015625,987.9520874023438,0,13.0,1,1
13.72,0.050679117,-0.13172267,9.7615595,-0.0004356982535682618,-4.03032754547894e-05,-0.00023833353770896792,-4.400036811828613,29.10436820983887,-39.21831512451172,0.1122054159641266,0.337588906288147,0.05911636352539064,987.9425659179688,0,13.0,1,1
13.76,0.06262606400000001,-0.14602222,9.77813,0.00010970729636028408,9.261508239433171e-05,0.00042805873090401286,-4.610259532928467,29.11817741394043,-39.1097412109375,0.11632001399993895,0.3404415845870972,0.03075885772705078,987.9549560546876,0,13.0,1,1
13.8,0.057843685,-0.14602216,9.7544565,-2.3426429834216833e-05,-0.000839494401589036,0.0001617533853277564,-5.066522598266602,30.060338973999023,-38.70964050292969,0.11107130348682404,0.3429645895957947,0.04501628875732422,987.9346313476562,0,13.0,1,1
13.84,0.050671518,-0.13172244,9.768661,-0.0008223493932746352,9.260710794478656e-05,0.00016176392091438174,-4.218891143798828,28.53635215759277,-38.982032775878906,0.13408096134662628,0.33155596256256104,0.030864715576171875,987.9502563476562,0,13.0,1,1
13.88,0.048279047,-0.15555514,9.752089999999999,-0.0008223493932746352,9.260710794478656e-05,0.00016176392091438174,-4.824505805969238,28.7592830657959,-38.670799255371094,0.12422055006027223,0.3482796847820282,0.0640573501586914,987.9502563476562,0,13.0,1,1
13.92,0.045886576,-0.14125539999999998,9.761559,-0.0006891670054756105,0.0003589190891943872,-0.0001045415410771966,-5.079295158386231,28.784284591674805,-38.9409408569336,0.12885652482509613,0.3178286552429199,0.049892425537109375,987.9425659179688,0,13.0,1,1
13.96,0.055443704,-0.14125539999999998,9.75919,-2.3328408133238557e-05,-0.00163845787756145,-0.00010452058631926776,-4.5233540534973145,28.9364070892334,-39.497413635253906,0.11420786380767822,0.33018940687179565,0.040467262268066406,987.9578857421876,0,13.0,1,1
14.0,0.048271417999999996,-0.13887204,9.75919,-2.3328408133238557e-05,-0.00163845787756145,-0.00010452058631926776,-4.5233540534973145,28.9364070892334,-39.497413635253906,0.11836093664169313,0.31879472732543945,0.026309967041015625,987.9578857421876,0,13.0,1,1
14.04,0.043489099999999996,-0.13887198,9.761559,-0.0002895956276915968,-4.057056503370404e-05,0.0002949741901829839,-4.580095291137695,28.93580818176269,-39.25768280029297,0.11363331973552705,0.3215228021144867,0.045284271240234375,987.9404296875,0,13.0,1,1
14.08,0.045876442999999996,-0.13648863,9.771027,-0.0008222027099691331,-0.001771627925336361,0.0006944584893062711,-4.799450874328613,28.940786361694336,-38.68528747558594,0.11332975327968595,0.31961357593536377,0.04059123992919922,987.9530639648438,0,13.0,1,1
14.12,0.041094123999999996,-0.14602168,9.756822999999999,-0.0005558624980039895,-0.0009726841235533356,0.0001618372043594718,-4.894669532775879,28.95726585388184,-39.13347625732422,0.11737878620624542,0.3129803836345673,0.04537200927734375,987.9811401367188,0,13.0,1,1
14.16,0.05543101,-0.1293387,9.763924000000001,0.000109951535705477,-4.0582497604191296e-05,-0.00023762614000588653,-5.212830543518066,29.34406089782715,-38.95311737060547,0.11637555062770845,0.31100136041641235,0.04069232940673828,987.9434204101562,0,13.0,1,1
14.2,0.057818352999999996,-0.12933858,9.773392,-0.0004226556629873812,0.0008915191865526141,2.870016032829881e-05,-4.772735595703125,29.229665756225586,-39.47615051269531,0.10605134069919586,0.2992777228355408,0.054947853088378906,987.9633178710938,0,13.0,1,1
14.24,0.04586634,-0.13172184,9.761557,0.0011752641294151545,-0.00044006423559039837,0.0004281844885554165,-4.769829273223877,29.12669944763184,-38.931678771972656,0.1200631707906723,0.31280556321144104,0.04076385498046875,987.9711303710938,0,13.0,1,1
14.28,0.05542338,-0.15555449,9.759188,-0.00015629100380465388,0.0002257215091958642,-0.00023759482428431508,-4.893147468566895,28.95873832702637,-39.210784912109375,0.1099359542131424,0.3348042964935303,0.05500984191894531,987.9683837890624,0,13.0,1,1
14.32,0.043471336,-0.14840467,9.752087,0.0002432073815725744,9.255955228582025e-05,-0.00023758423049002886,-4.6618924140930185,28.75371360778809,-39.00347137451172,0.123531773686409,0.31417107582092285,0.05978488922119141,987.9612426757812,0,13.0,1,1
14.36,0.053028405,-0.14125474,9.766291,0.00024323171237483618,-0.00017376034520566466,-0.0006370475748553872,-4.427156448364258,29.28968620300293,-39.2249755859375,0.11397342383861543,0.3076869249343872,0.036141395568847656,987.9685668945312,0,13.0,1,1
14.4,0.045856148,-0.13172160000000002,9.775758999999999,0.00024325615959241984,-0.0019048175308853386,-0.0007701951544731855,-4.8524675369262695,28.680761337280273,-39.20079040527344,0.11342525482177734,0.3011932671070099,0.02197742462158203,988.0042724609376,0,13.0,1,1
14.44,0.057803154,-0.1388713,9.756821,-2.3035157937556505e-05,0.00035886344267055387,0.00016192090697586536,-4.740751266479492,29.68090629577637,-39.276527404785156,0.10356925427913666,0.3280901312828064,0.05041790008544922,987.9664306640624,0,13.0,1,1
14.48,0.04824099,-0.14602114,9.759188,0.00011014699703082441,-0.0009727198048494756,-0.000503858202137053,-4.947930335998535,29.697668075561523,-39.32257080078125,0.12699060142040253,0.30752724409103394,0.045716285705566406,987.9609985351562,0,13.0,1,1
14.52,0.050628334000000004,-0.14602102,9.763922,0.0002433297340758145,-0.000306934118270874,0.00029509986052289605,-5.128533363342285,29.89739418029785,-39.46038818359375,0.11678797006607056,0.3058888912200928,0.045754432678222656,987.9744262695312,0,13.0,1,1
14.56,0.048235953,-0.14125444,9.75682,0.00024335406487807631,9.253580356016756e-05,0.0006945842178538443,-4.898799419403076,29.69089317321777,-39.17577362060547,0.1161319464445114,0.3089102804660797,0.0410614013671875,987.9766845703124,0,13.0,1,1
14.6,0.05301320599999999,-0.13410453,9.766289,0.0003765363362617791,0.00022568966960534453,-0.00023751088883727792,-4.114838600158691,27.89656639099121,-39.42253875732422,0.10619617998600006,0.29300856590271,0.03162384033203125,987.9996337890624,0,13.0,1,1
14.64,0.041061163,-0.14363758,9.761553999999999,0.00011024513514712452,-0.0011058936361223461,0.0001619734102860093,-4.59409236907959,28.29041862487793,-38.98680877685547,0.1247841864824295,0.30588340759277344,0.041126251220703125,987.962158203125,0,13.0,1,1
14.68,0.058901906,-0.1269819,9.756921,0.00024342729011550543,0.0002256817533634603,2.8825947083532814e-05,-5.246879577636719,29.25964164733887,-39.17388916015625,0.0990472286939621,0.2897951602935791,0.06000423431396485,987.96923828125,0,13.0,1,1
14.72,0.051774085,-0.13413276,9.768761,-0.0006939555169083178,9.338062955066563e-05,0.0002928801113739609,-4.3700103759765625,28.81608009338379,-38.66718292236328,0.1031697690486908,0.2879401743412018,0.04583549499511719,987.9844360351562,0,13.0,1,1
14.76,0.054205805,-0.14366694,9.737991000000001,-0.00029243947938084597,-3.585772356018424e-05,0.00041562161641195416,-4.397290229797363,28.47517204284668,-39.79779052734375,0.09841200709342957,0.30089449882507324,0.06952381134033203,987.971923828125,0,13.0,1,1
14.8,0.056637585,-0.1365181,9.7593,0.0007724206661805509,-0.0019000035244971516,0.0002822908572852612,-4.728606224060059,28.48042869567871,-38.82323455810547,0.10288378596305847,0.2849107980728149,0.0506134033203125,987.9650268554688,0,13.0,1,1
14.84,0.04472986,-0.1436689,9.764038000000001,-2.6930239982903007e-05,9.7431184258312e-05,0.0006815917440690099,-4.899778366088867,29.321134567260746,-39.00001525878906,0.11658519506454468,0.30230438709259033,0.04117584228515625,987.9719848632812,0,13.0,1,1
14.88,0.049551517,-0.14605327,9.780612,-0.0002936495002359152,-0.0007014510338194668,-0.00011752871796488762,-4.778281211853027,28.85548973083496,-39.0684814453125,0.1018349826335907,0.2860776782035828,0.04120635986328125,987.9625244140624,0,13.0,1,1
14.92,0.04959339,-0.14128773,9.759312,-0.0009598423494026065,-0.0004350696690380573,0.0004149301967117936,-4.554496765136719,28.74901390075684,-39.17372131347656,0.110556498169899,0.2984333336353302,0.04124546051025391,987.9520263671876,0,13.0,1,1
14.96,0.047245324000000005,-0.13652219,9.76405,-0.0002944560255855322,9.762757690623404e-05,-0.0003841902362182736,-4.546887397766113,28.75637626647949,-39.56024169921875,0.1098138689994812,0.2779681086540222,0.03180408477783203,987.9498291015624,0,13.0,1,1
15.0,0.047287107,-0.13413997,9.74985,-1.6114034224301573e-05,0.0005174778634682298,-2.0340958144515756e-05,-4.4872398376464835,28.654008865356445,-39.25550079345703,0.10858620703220367,0.280878484249115,0.060252189636230476,987.9473266601562,0,13.0,1,1
15.04,0.04732901,-0.14367409,9.766425,-0.0006823068833909929,0.0015828069299459455,0.00037896007415838534,-4.4998207092285165,29.11642646789551,-39.4345932006836,0.10307346284389496,0.2746780514717102,0.03187274932861328,987.9752807617188,0,13.0,1,1
15.08,0.04737085,-0.13652529,9.754593,-1.6920675989240408e-05,0.00011813503806479275,-0.00028700259281322365,-4.165193557739259,28.53400230407715,-39.06715393066406,0.10217057168483734,0.2780459821224213,0.06031036376953125,987.9602661132812,0,13.0,1,1
15.12,0.054582417,-0.13890962,9.764064999999999,0.0006484659970737994,0.0006508323131129147,0.0005117722321301699,-4.518627643585205,29.467042922973636,-38.605384826660156,0.09211449325084686,0.2765974402427673,0.05560016632080078,987.962646484375,0,13.0,1,1
15.16,0.045064627999999995,-0.13176079,9.764069000000001,0.001047536265105009,0.0003845818864647299,-0.0001541904057376087,-4.651919364929199,29.02639579772949,-38.94398498535156,0.10079078376293182,0.2704493403434753,0.03195476531982422,987.9348754882812,0,13.0,1,1
15.2,0.0451065,-0.1460615,9.764072,-0.00028444646159186965,0.0001183314889203757,0.00011195288971066478,-4.981437206268311,29.24495506286621,-39.44488525390625,0.11423857510089876,0.2833065390586853,0.050922393798828125,987.9552001953124,0,13.0,1,1
15.24,0.052318065999999996,-0.14129598,9.761709,-0.00028444646159186965,0.0001183314889203757,0.00011195288971066478,-4.946845054626465,28.96108818054199,-39.12566375732422,0.10851931571960448,0.28172755241394043,0.05095481872558594,987.9552001953124,0,13.0,1,1
15.28,0.045190155999999995,-0.14368017,9.76408,0.0002477820380590856,0.0006510287057608366,-0.0004208518075756729,-4.3428897857666025,28.63075828552246,-38.66051483154297,0.1076616644859314,0.26597946882247925,0.03677940368652344,987.9654541015624,0,13.0,1,1
15.32,0.04284209,-0.14368124,9.766452000000001,-1.9340601284056905e-05,0.0010506333783268929,-0.0006875134422443807,-5.135056972503662,29.1534481048584,-38.87696838378906,0.106454536318779,0.2643764615058899,0.05101776123046875,987.9578857421876,0,13.0,1,1
15.36,0.05722338,-0.14606558,9.761721000000001,-0.00015290180454030633,0.0015833305660635233,-0.0008208443759940566,-4.800834655761719,29.045225143432614,-39.30706024169922,0.09114933013916016,0.27699363231658936,0.03684806823730469,987.9730834960938,0,13.0,1,1
15.4,0.052485435999999996,-0.14130004,9.77356,-0.00015330518363043666,0.0007844484644010662,-0.0009541751933284104,-4.8117876052856445,28.40277671813965,-39.1907958984375,0.09055222570896147,0.2758161723613739,0.02739906311035156,987.9909057617188,0,13.0,1,1
15.44,0.054917157,-0.12938471,9.771196,0.0007783971377648412,-0.00014759154873900118,-0.00028855813434347516,-5.072908401489258,29.42231559753418,-38.825286865234375,0.08992995321750641,0.2598313689231873,0.04162883758544922,987.9607543945312,0,13.0,1,1
15.48,0.050179213,-0.13653554,9.756998,-0.0005535856471396984,-0.0001475260651204735,0.00011074281064793466,-4.633250236511231,28.569860458374023,-39.07411193847656,0.09419681131839752,0.2633582353591919,0.051115989685058594,987.9657592773438,0,13.0,1,1
15.52,0.059780717000000004,-0.13653655,9.761736,0.0011770641431212425,0.0002520132402423769,-2.2587948478758332e-05,-4.8114891052246085,29.03491020202637,-38.76592254638672,0.08398257195949554,0.25718507170677185,0.05113887786865234,987.9939575195312,0,13.0,1,1
15.56,0.055042684,-0.1460707,9.768841,0.00011139741400256753,0.00011892072507180274,0.0002435549977235496,-4.470773696899414,28.45837211608887,-38.70770263671875,0.08801907300949098,0.274997353553772,0.02749061584472656,987.968505859375,0,13.0,1,1
15.6,0.047914862999999995,-0.14607172,9.754642500000001,0.00024415209190919995,0.0009179338812828064,-0.00042240769835188985,-4.728063583374023,28.112138748168945,-38.72478485107422,0.08695429563522339,0.25879138708114624,0.055927276611328125,987.9412231445312,0,13.0,1,1
15.64,0.059482723,-0.13414599,9.764076,0.0006432225345633924,0.00025220963289029896,0.0001100513036362827,-4.738985061645508,28.68195152282715,-39.68025207519531,0.09140488505363464,0.2488992065191269,0.04646587371826172,987.963623046875,0,13.0,1,1
15.68,0.05429566,-0.13890256,9.752203,0.0009091351530514656,-1.4040764654055236e-05,0.00024303636746481058,-4.802356719970703,29.04375267028809,-39.22975158691406,0.08254444599151611,0.2667238712310791,0.05129241943359375,987.9863891601562,0,13.0,1,1
15.72,0.05430323,-0.13890274,9.752203,0.0007874244474805893,-0.0005504412110894918,-0.00029362645000219345,-4.753225803375244,29.03698539733887,-39.08296203613281,0.08644130825996399,0.2603592276573181,0.05132484436035156,987.963623046875,0,13.0,1,1
15.76,0.04236138,-0.14366944,9.754572,-0.00041006034007295966,0.0003815123927779496,0.00037256462383084,-4.562512397766113,29.215856552124023,-39.584716796875,0.09553052484989166,0.2685285210609436,0.04187774658203125,987.9539794921876,0,13.0,1,1
15.8,0.06148821,-0.13651986,9.778244,0.0003888140781782568,-0.00015110743697732687,-0.00016009865794330835,-4.727627754211426,28.850194931030273,-38.998985290527344,0.0853244960308075,0.25318700075149536,0.01822662353515625,987.9666137695312,0,13.0,1,1
15.84,0.056716025,-0.14128657,9.756941000000001,0.0006550565012730657,0.000914167903829366,-0.0008259195601567626,-4.503844261169434,28.74372291564941,-39.10423278808594,0.08503346145153046,0.2565780878067017,0.07032394409179688,987.9563598632812,0,13.0,1,1
15.88,0.059113503,-0.13890351,9.775878,0.0002555093378759921,-0.0008168732747435571,-2.700358163565397e-05,-4.376502990722656,29.28439140319824,-39.15548706054688,0.08460813760757446,0.25509417057037354,0.03720664978027344,987.969482421875,0,13.0,1,1
15.92,0.044781744000000005,-0.13890363,9.745106,-0.0002771957661025226,-0.0002842296671587974,-0.0008259826572611928,-4.499278545379639,28.748144149780273,-39.33614349365234,0.08885885775089264,0.24898409843444824,0.07036781311035156,987.9691162109376,0,13.0,1,1
15.96,0.047179222,-0.14605375,9.768778,0.0003885205951519311,0.0005147298215888442,-0.00029338221065700054,-5.144731998443604,29.51289939880371,-38.51158905029297,0.0922919511795044,0.2525992691516876,0.027790069580078125,987.9540405273438,0,13.0,1,1
16.0,0.044796944000000005,-0.13890405,9.782982,0.0005216050776652992,0.0017131632193922994,-0.00016025581862777474,-4.971899509429932,28.779584884643555,-39.111183166503906,0.08753453195095062,0.2575585246086121,0.008849143981933594,987.95166015625,0,13.0,1,1
16.04,0.042414635,-0.13413768,9.759311,0.003850480075925589,-0.0014826154801994562,-0.0005597610725089909,-4.8114891052246085,29.034914016723636,-38.76592254638672,0.10103927552700044,0.24633340537548065,0.04202079772949219,988.0203857421876,0,13.0,1,1
16.08,0.05915159,-0.13652118,9.766413,-0.0022748582996428013,0.0013137131463736296,0.00023915508063510058,-4.503545761108398,29.3758602142334,-38.679359436035156,0.07174389064311981,0.2295474708080292,0.042054176330566406,988.089599609375,0,13.0,1,1
16.12,0.04720968,-0.13413803,9.752211,-0.0013428262900561096,-0.00028417014982551336,-0.00029350805561989546,-4.538979530334473,29.3958797454834,-39.52189636230469,0.07596088945865631,0.23763976991176605,0.046810150146484375,987.8677978515624,0,13.0,1,1
16.16,0.054386973,-0.14605464,9.790087,0.00012183777289465071,0.0006479474832303822,-0.0002935394877567888,-4.233675003051759,29.25967216491699,-38.483192443847656,0.08027306199073793,0.24195250868797305,0.013681411743164062,987.911376953125,0,13.0,1,1
16.2,0.04722488,-0.14605476,9.764047999999999,0.0026517652440816164,-0.0005504621658474207,-0.0004267288604751229,-4.5526771545410165,29.38262367248535,-38.826148986816406,0.08923646807670592,0.2542233467102051,0.02791309356689453,987.9747924804688,0,13.0,1,1
16.24,0.04484263,-0.14367177,9.778252,-0.0018756778445094824,0.0006479712319560349,0.000372187263565138,-4.287671089172363,28.629884719848636,-38.82293701171875,0.10277102887630464,0.2387262284755707,0.04687309265136719,987.9796752929688,0,13.0,1,1
16.28,0.05201995400000001,-0.13413878,9.766417,-1.1540309060364963e-05,0.0003816672251559794,-0.00016047596000134945,-4.329329967498778,28.53809928894043,-38.65718078613281,0.07827141880989075,0.22303907573223114,0.032691001892089844,987.893798828125,0,13.0,1,1
16.32,0.052027524000000006,-0.13652225,9.775886999999999,-0.00014477159129455686,0.0002485211589373648,0.00023896642960608008,-4.549227714538574,28.911359786987305,-38.1832275390625,0.07833269238471985,0.23123326897621155,0.02323436737060547,987.9242553710938,0,13.0,1,1
16.36,0.05442506,-0.13175593,9.756949,-1.1687108781188725e-05,-0.001349362195469439,-0.0006931704701855779,-4.673089027404785,29.11169242858887,-38.560791015625,0.08284468948841095,0.2347185909748077,0.0469207763671875,987.9195556640624,0,13.0,1,1
16.4,0.052042782,-0.14367245,9.759317,0.0005208714283071458,-0.0002840867673512548,0.00037206150591373444,-4.806081771850586,29.30318260192871,-38.474517822265625,0.08239401876926422,0.2387133687734604,0.04220008850097656,987.9903564453124,0,13.0,1,1
16.44,0.056830227000000004,-0.13413955,9.768787,0.0006539560272358358,-0.0001509169233031571,0.00010571419261395931,-4.318920612335205,29.5488338470459,-38.87189483642578,0.07751289010047913,0.22281348705291748,0.046950340270996094,987.9725341796876,0,13.0,1,1
16.48,0.05444792,-0.13175641,9.749849000000001,-0.0006776968366466463,-0.0005503788124769926,0.00037199858343228703,-4.464387893676758,29.09640312194824,-38.59205627441406,0.08220906555652617,0.2311112582683563,0.06589984893798828,987.9879150390624,0,13.0,1,1
16.52,0.05206561,-0.13890650000000002,9.76642,0.0008417002973146738,-0.000942815444432199,-0.000810823286883533,-4.110112190246582,28.42720603942871,-38.53050231933594,0.07693932950496674,0.2297065854072571,0.03277873992919922,987.9573974609376,0,13.0,1,1
16.56,0.049683303,-0.13652338,9.775889999999999,-0.00022363656898960468,0.0005219337763264775,-1.190707553178072e-05,-4.3635168075561515,28.34776496887207,-38.178871154785156,0.07637129724025726,0.22827163338661194,0.0233306884765625,987.9501342773438,1,1.0,2,2
16.6,0.056860655999999996,-0.13890685,9.745117,-0.00022363656898960468,0.0005219337763264775,-1.190707553178072e-05,-4.606512069702148,29.2790584564209,-38.041954040527344,0.06160147488117217,0.22690850496292114,0.07542610168457031,987.9501342773438,1,1.0,2,2
16.64,0.06457487,-0.13653697,9.773574,-0.0006231838488020003,-0.00027700196369551117,-1.1938507668673992e-05,-4.428954124450684,29.07638359069824,-37.74951171875,0.06551472842693329,0.2305178046226501,0.051718711853027344,987.9805908203124,1,1.0,2,2
16.68,0.050264657000000004,-0.1436875,9.742802000000001,-0.0004914566525258124,-0.0008094013901427388,-0.0002788675483316183,-4.0972328186035165,28.59692192077637,-37.92654418945313,0.07527685165405272,0.2387276589870453,0.06592845916748047,987.9449462890624,1,1.0,2,2
16.72,0.05268371,-0.14368822,9.768844999999999,0.0001764992484822869,-0.0012069980148226025,0.00024507497437298303,-4.302454471588135,29.35320854187012,-38.3240966796875,0.09380201995372772,0.22303339838981628,0.03280448913574219,987.9603881835938,1,1.0,2,2
16.76,-0.16476817,0.054123193,9.7806835,-0.00035641377326101065,-0.0005411627935245633,-0.00015451933722943068,-4.195357799530028,28.71637535095215,-38.919212341308594,0.07457642257213593,0.2260535955429077,0.028082847595214844,987.9627685546876,1,1.0,2,2
16.8,-1.0346633,0.46166307,9.837498,-0.0011556425597518682,-0.0004079591308254749,-0.002551482990384102,-4.4764251708984375,29.19053840637207,-38.67269134521485,2.403384208679199,-2.036196231842041,-0.014475822448730469,987.9780883789062,1,1.0,2,2
16.84,1.0039524,-0.75857604,10.10973,-0.005816452205181122,-0.0012068611104041338,-0.7572907805442809,-6.107420921325684,29.40165901184082,-38.4337158203125,-2.202877759933472,2.067666292190552,-0.1611490249633789,987.96826171875,1,1.0,2,2
16.88,0.5355605999999999,-0.35580283,10.159444,-0.1750604808330536,-0.03889050707221031,-0.8105541467666626,-6.856980323791504,29.17363548278809,-37.9199447631836,-0.2275106906890869,0.34253817796707153,-0.6153841018676758,987.9376831054688,1,1.0,2,2
16.92,-0.29848600000000003,-0.08172651,9.967703,-0.2347155064344406,0.17935539782047272,-0.20601719617843628,-6.555966377258301,29.24484062194824,-38.04747772216797,0.3034935891628265,-0.04006381332874298,0.4494943618774414,987.8815307617188,1,1.0,2,2
16.96,-0.15267277,-0.25332326,10.595015,-0.26387739181518555,0.2820202112197876,-0.060741987079381936,-5.89581298828125,29.283403396606445,-37.920509338378906,0.18218979239463806,-0.3587419986724853,-0.9450445175170898,987.88427734375,1,1.0,2,2
17.0,0.19628215,-2.0503158999999997,8.42666,-0.7548309564590454,0.2941376268863678,-0.22998583316802976,-5.6985535621643075,30.626523971557614,-37.18267822265625,-0.5221930742263794,1.0857195854187012,1.227041244506836,987.8866577148438,1,1.0,2,2
17.04,0.10310507,-1.3543994,10.109743,-1.1569682359695437,0.3460693061351776,-0.13943856954574585,-5.61447811126709,32.6005859375,-35.540496826171875,-0.21469484269618988,0.2416222095489502,-0.31255149841308594,987.89697265625,1,1.0,2,2
17.08,0.841614,-1.8405889,9.250451,-1.310499668121338,-0.3827040791511536,0.3947909474372864,-5.334175109863281,33.91544342041016,-33.73602294921875,-1.2912089824676514,-0.29955315589904785,0.07254886627197266,987.9706420898438,1,1.0,2,2
17.12,-0.24576223,-2.608005,8.845661999999999,-0.9111591577529908,0.07975348830223082,0.10783549398183824,-5.3468403816223145,35.904510498046875,-32.46474456787109,0.6731621026992798,0.21819710731506348,0.01897525787353516,987.9706420898438,1,1.0,2,2
17.16,0.8106036,-1.6642276999999999,10.9288025,-1.1103638410568235,-0.25447291135787964,0.21036697924137115,-5.276080131530762,36.97080993652344,-31.15231895446777,-1.8081791400909424,-0.9497586488723756,-1.7063941955566406,987.9713134765624,1,1.0,2,2
17.2,-2.5973675,-4.6743093,8.407736,-1.4902637004852295,-0.706544041633606,0.18306946754455566,-5.834169864654541,38.71215057373047,-29.1666202545166,4.2512731552124015,1.4904437065124512,0.9613523483276368,988.0017700195312,1,1.0,2,2
17.24,0.17255813,-3.4373882000000004,9.326212,-1.1050381660461426,0.19107365608215326,-0.432519793510437,-6.2158403396606445,39.354835510253906,-27.836679458618164,-0.53253173828125,-0.14641928672790527,-0.1151123046875,988.0042724609376,1,1.0,2,2
17.28,-0.07118273,-4.090407,8.885916,-1.0226134061813354,-0.08229953795671463,0.10983237624168396,-6.519737720489503,39.80690002441406,-26.43058586120605,0.203543484210968,0.06696033477783203,-0.01701641082763672,987.99658203125,1,1.0,2,2
17.32,-0.1500203,-4.6171126,8.777027,-1.1833354234695437,-0.001073155552148819,-0.004017786588519812,-6.386530876159668,41.77420043945313,-24.64161872863769,0.44585275650024414,0.21895790100097656,0.039363861083984375,988.0221557617188,1,1.0,2,2
17.36,0.43314493,-5.136668,7.995853,-1.2524447441101074,0.11091271042823793,-0.22093218564987185,-6.534689903259277,43.58352661132813,-23.03100204467773,-0.4035471677780152,0.04404449462890625,0.2498655319213867,987.9940795898438,1,1.0,2,2
17.4,-0.042416394,-5.4226623,7.652611299999999,-1.4053102731704712,0.16643962264060974,-0.2827176153659821,-6.640133857727051,43.535789489746094,-20.317508697509766,0.3204176127910614,-0.03705978393554688,0.6336331367492676,987.9990844726562,1,1.0,2,2
17.44,0.079497844,-5.751555000000001,7.3519797,-1.0561704635620115,0.05032594501972199,-0.07259448617696762,-7.0224857330322275,44.44084167480469,-18.386940002441406,-0.11092116683721542,0.3184952735900879,0.5567035675048828,987.9788208007812,1,1.0,2,2
17.48,0.09864622,-5.8182874,7.3496146,-0.6560311317443848,0.04939388856291771,-0.0631403923034668,-7.033384323120117,45.43096160888672,-17.519384384155273,0.042819276452064514,0.2160806655883789,0.8892931938171387,987.9814453125,1,1.0,2,2
17.52,-0.30760795,-5.232002,8.296497,-0.035115987062454224,0.05818235874176025,-0.07099682837724686,-7.363039970397949,45.5436019897461,-17.321208953857422,0.3180747926235199,-0.15044021606445312,0.1063251495361328,987.9736938476562,1,1.0,2,2
17.56,0.53366673,-6.008951000000001,7.5531993,0.3604959845542908,0.06204397976398467,-0.09283484518527983,-7.620192527770996,45.30328369140625,-18.037363052368164,-0.3563464879989624,0.5696206092834473,0.5223369598388672,987.938232421875,1,1.0,2,2
17.6,-0.0088118315,-5.3678503,7.704703,0.2824651300907135,0.21743935346603396,-0.3208013772964477,-7.779081344604492,45.04943084716797,-18.459932327270508,0.14478006958961487,0.1030116081237793,0.606511116027832,987.9713134765624,1,1.0,2,2
17.64,-0.042241275,-4.9817595,8.350951,0.4370612502098084,-0.0034696331713348627,0.010894937440752985,-7.923569679260254,44.966758728027344,-18.355844497680664,0.07686254382133484,0.1229848861694336,0.3136758804321289,988.0780029296876,1,1.0,2,2
17.68,-0.3576792,-4.1094804,9.534555000000001,0.8214879035949707,0.0066504161804914474,-0.008013609796762466,-7.625759601593018,44.50879669189453,-19.45271873474121,0.3859246373176575,-0.3681483268737793,-0.833247184753418,988.0601196289062,1,1.0,2,2
17.72,-0.11149010000000001,-4.4812727,8.367527,0.7386634349822998,0.14047420024871826,-0.19390220940113068,-8.068241119384767,43.93756866455078,-21.198732376098636,0.15127001702785492,0.1011343002319336,0.7748193740844727,988.075439453125,1,1.0,2,2
17.76,0.07734135,-4.357343,10.031673,0.31415560841560364,0.4087874889373779,-0.6358535289764404,-8.69091796875,43.09185791015625,-22.285043716430664,-0.050859712064266205,-0.7156286239624023,-1.8265905380249023,988.0704345703124,1,1.0,2,2
17.8,0.63641214,-4.562300700000001,10.559544,0.3803348243236542,0.3713701367378235,-0.3845846056938171,-9.216174125671387,41.9687728881836,-23.60109138488769,-0.7094817757606506,1.3624186515808103,-1.0842418670654297,987.9865112304688,1,1.0,2,2
17.84,0.10806766,-3.599452,10.038744,0.949318528175354,0.3109164834022522,0.29159125685691833,-8.613358497619629,40.74246215820313,-24.08413124084473,-0.311726838350296,-0.6200776100158691,-1.666748046875,988.0347290039062,1,1.0,2,2
17.88,-0.70448303,-3.4922051,9.655258,1.1882103681564329,0.3653782904148102,-0.6077601909637451,-8.617266654968263,40.05536651611328,-26.27586936950684,0.05627688765525818,0.08308982849121094,-0.1575479507446289,987.9534301757812,1,1.0,2,2
17.92,-0.8120126999999999,-3.7996483,9.574775,0.6214905381202698,0.7259699106216431,-0.7248058915138245,-9.38483715057373,39.6011962890625,-28.05562400817871,0.5480270385742188,0.5634849071502686,-0.35680103302001953,988.0194702148438,1,1.0,2,2
17.96,-0.6566531,-3.6471186,10.706299000000001,0.6214905381202698,0.7259699106216431,-0.7248058915138245,-10.183987617492676,38.221580505371094,-29.23747062683105,0.2037838101387024,0.4347412586212158,-0.8748264312744141,988.0194702148438,1,1.0,2,2
18.0,-0.976884,-3.5660877,11.596369000000001,0.4823403060436249,0.4747009575366974,-0.6924485564231873,-10.510951042175293,36.07247161865234,-30.37006187438965,0.8075023889541626,0.7912399768829346,-2.3312225341796875,987.9942626953124,1,1.0,2,2
18.04,-0.16908117,-2.6604424,11.163172,0.7244210839271545,-0.1755092293024063,-0.3146795928478241,-12.604534149169922,34.640777587890625,-33.12003326416016,0.18508473038673398,0.3232288360595703,-1.9945659637451167,988.0372924804688,1,1.0,2,2
18.08,-0.22642285,-2.4364145,10.436442,1.0453317165374756,-0.28003817796707153,-0.13611486554145813,-12.79904842376709,32.66846466064453,-34.437355041503906,0.14892500638961792,0.19761276245117188,-0.7066793441772461,988.0419311523438,1,1.0,2,2
18.12,-0.0017561316,-3.0894332,12.742098,0.8101745843887329,-0.17391128838062286,-0.35316237807273865,-13.72205924987793,31.48917579650879,-35.99675750732422,0.014623895287513731,0.7949185371398926,-2.650075912475586,987.96630859375,1,1.0,2,2
18.16,-0.7736784999999999,-3.9712462,11.343084,0.5228195786476135,-0.2616623342037201,-0.5270667672157288,-14.81377124786377,30.3095760345459,-36.91426849365234,0.6899533867835999,2.364775419235229,-2.398242950439453,987.9305419921876,1,1.0,2,2
18.2,-0.8381898999999999,-2.8654057999999996,9.884888,1.3667744398117063,0.12609361112117767,-0.6174811124801636,-15.03113842010498,27.894865036010746,-38.8950424194336,1.0462007522583008,2.3304729461669917,-0.1451892852783203,987.989013671875,1,1.0,2,2
18.24,-1.3281038,-2.050325,10.074266,1.381687879562378,0.26284685730934143,-0.15742041170597074,-13.66555404663086,24.539220809936523,-41.06468200683594,0.9629175066947936,1.381556749343872,-0.0758056640625,987.9661254882812,1,1.0,2,2
18.28,-1.7343712,-2.4888487,10.5453415,1.0523881912231443,0.19879791140556333,0.10316962003707886,-13.573976516723633,23.25552177429199,-41.311614990234375,1.7551984786987305,2.668403148651123,-0.8608779907226562,987.9788208007812,1,1.0,2,2
18.32,-0.96241695,-1.0112165000000002,10.450655000000001,1.418439269065857,-0.361663818359375,0.17334377765655518,-14.13469696044922,20.940195083618164,-42.39846801757813,1.568312406539917,1.9010777473449707,-0.4471521377563477,987.9738159179688,1,1.0,2,2
18.36,-0.023169517999999997,-0.33913225,11.776289,1.6510661840438845,-0.6831070780754089,0.4275422394275665,-14.835882186889648,18.9149112701416,-43.71159362792969,0.5805803537368774,1.6795538663864136,-1.9502811431884768,987.9963989257812,1,1.0,2,2
18.4,-0.06139201,0.49739802,10.864918,1.6316248178482056,-0.4815059304237366,0.361495852470398,-14.545766830444336,15.604757308959961,-44.10150146484375,0.3963073790073395,1.539405345916748,-1.289133071899414,987.9658203125,1,1.0,2,2
18.44,-0.020747751000000002,0.5426799,9.368847,1.798471450805664,0.21171431243419647,0.10170461237430573,-14.275567054748535,12.96150016784668,-45.68212890625,0.12032410502433775,2.0153820514678955,-0.6620054244995117,987.9635620117188,1,1.0,2,2
18.48,-0.48437274,2.0131624,7.8088630000000006,1.232150673866272,0.937291979789734,-0.07672709226608276,-11.996946334838867,10.512453079223633,-46.35185241699219,0.17800503969192505,1.2054872512817385,1.5799593925476074,987.9529418945312,1,1.0,2,2
18.52,-1.428368,1.841566,8.057421000000001,0.9645031094551086,0.9322320222854614,-0.06607452780008316,-10.16132640838623,8.280771255493164,-47.04302215576172,0.597551167011261,0.8964574337005615,1.204864501953125,987.8258056640624,1,1.0,2,2
18.56,-2.138153,1.3315438,7.9579987999999995,0.327475368976593,0.847809910774231,-0.3768652081489563,-8.00346851348877,7.667564392089844,-47.493629455566406,1.1039165258407593,1.8809366226196291,1.557004451751709,987.82568359375,1,1.0,2,2
18.6,-1.875248,1.8439484,8.081095,-0.008748617023229599,0.8380894064903259,-0.22146999835968015,-6.733677864074707,7.8558998107910165,-48.00825500488281,0.8720009326934814,1.3075119256973269,1.109750747680664,987.8131103515624,1,1.0,2,2
18.64,-1.1726006000000002,2.3182204,8.410136999999999,0.061558619141578674,0.6276998519897461,0.26482275128364563,-5.215484619140625,7.38121223449707,-48.36839294433594,0.01800084114074707,0.8274168968200684,1.0099859237670898,987.85107421875,1,1.0,2,2
18.68,-0.85711765,2.3063037,8.656328,0.3363964557647705,0.3672429621219635,0.5774775147438049,-4.3291845321655265,7.5786190032958975,-47.90065002441406,-0.3729023337364197,1.0412790775299072,0.2455158233642578,987.8815307617188,1,1.0,2,2
18.72,-0.7710653000000001,2.2562544,7.820708,0.7539796233177185,0.2628471553325653,0.7471206188201904,-3.609001636505127,6.6202964782714835,-48.49444580078125,-0.36455482244491577,1.8508969545364382,1.104525089263916,987.894287109375,1,1.0,2,2
18.76,-0.48187120000000006,2.3968675,8.180522999999999,1.0663679838180542,0.2268945127725601,1.0063791275024414,-3.3685073852539062,5.317768096923828,-48.3782958984375,-0.5221641063690186,1.5583560466766355,0.5955076217651367,987.9019775390624,1,1.0,2,2
18.8,0.16639143,3.3120317000000004,5.7612977,1.1766226291656494,-0.20693404972553253,1.2991933822631836,-3.813657283782959,3.0571250915527344,-48.100440979003906,-0.5389442443847656,2.0437347888946533,1.6649761199951172,987.8890380859376,1,1.0,2,2
18.84,0.5966130999999999,4.217676,5.107953500000001,1.2590457201004028,-0.2221138030290604,1.8521975278854368,-4.133286476135254,0.7035446166992188,-48.22140502929688,-0.2642856240272522,1.295431137084961,4.7882347106933585,987.9042358398438,1,1.0,2,2
18.88,1.4617969,3.5169916,10.559624000000001,0.41176486015319824,-0.596551775932312,1.9884080886840818,-4.9785003662109375,-0.2460517883300781,-47.881629943847656,-1.1443257331848145,0.8474464416503906,-2.0521154403686523,987.84326171875,1,1.0,2,2
18.92,1.8179317,4.060378,8.381801,-0.15295839309692386,-0.9768507480621338,1.7784179449081419,-6.575447082519531,0.04949092864990234,-47.42188262939453,-0.1023949384689331,1.443779230117798,-0.9234237670898438,987.9016723632812,1,1.0,2,2
