Timestamp,Ax,Ay,Az,Gx,Gy,Gz,Mx,My,Mz,LiAx,LiAy,LiAz,P,Value,Type,GroupType,Activities
0.0,0.034543097,-0.16831967,9.754527000000001,0.000211757404031232,0.004855947103351355,6.87269784975797e-05,-5.50340461730957,26.414276123046875,-39.665016174316406,0.005915483459830284,-0.006319478154182434,0.05878353118896485,989.88720703125,0,13.0,1,1
0.04,0.03928101,-0.14210257,9.790032,0.000211757404031232,0.004855947103351355,6.87269784975797e-05,-5.50340461730957,26.414276123046875,-39.665016174316406,-0.3928795456886292,1.164165496826172,-0.04287147521972656,989.88720703125,0,13.0,1,1
0.08,0.027289689,-0.14210150000000002,9.7639885,0.0008284461218863727,0.00010149501031264664,0.00022143407841213048,-0.9384760856628418,27.947887420654297,-37.68675994873047,-0.3726003170013428,1.1752197742462158,-0.014078140258789062,989.8243408203124,0,13.0,1,1
0.12,0.027247816,-0.14686707,9.787657000000001,0.0008284461218863727,0.00010149501031264664,0.00022143407841213048,-0.8255677223205566,27.10511016845703,-37.19293975830078,-0.38616037368774414,1.1682850122451782,-0.0516958236694336,989.8243408203124,0,13.0,1,1
0.16,0.029595822,-0.13733295,9.775817,-0.00023641377629246563,0.00010142949759028852,0.00035476498305797577,-0.2701706886291504,27.625526428222656,-37.84786605834961,-0.3950119018554688,1.157503604888916,-0.02786540985107422,989.8123779296876,0,13.0,1,1
0.2,0.02955395,-0.15639812,9.766342999999999,0.00016346342454198748,-0.00016495188174303618,-0.0004440097545739264,-0.3255276679992676,27.52048492431641,-36.98635864257813,-0.39893606305122375,1.1890130043029783,-0.013434410095214844,989.8550415039062,0,13.0,1,1
0.24,0.029512107000000003,-0.13971415,9.771073,0.0017617621924728157,-0.0005644912016578019,0.0002219528832938522,-0.5752072334289551,27.181610107421875,-37.38996124267578,-0.38795006275177,1.1665310859680176,-0.01775646209716797,989.8297119140624,0,13.0,1,1
0.28,0.031860173,-0.16354594,9.7663355,0.00016427029913756996,-0.00029824080411344767,-0.0007099800277501345,-0.8943467140197754,27.19864654541016,-37.03384399414063,-0.3780424892902374,1.1844868659973145,-0.012892723083496094,989.8623657226562,0,13.0,1,1
0.32,0.022258699,-0.14447862,9.775802,0.0002978317206725478,-3.1990392017178244e-05,-4.4017302570864565e-05,-0.6626553535461426,27.731678009033203,-37.10073852539063,-0.36757507920265203,1.1488206386566162,-0.03155708312988281,989.8496704101562,0,13.0,1,1
0.36,0.022216797000000003,-0.14447764,9.778165,0.0005645512137562038,-3.205587563570589e-05,-4.384433850646019e-05,-0.2250618934631348,27.24604797363281,-37.370704650878906,-0.3766666948795319,1.15119731426239,-0.017087936401367188,989.8495483398438,0,13.0,1,1
0.4,0.024122237999999997,-0.13969913,9.766283999999999,0.000298638828098774,0.0007668262114748359,-0.0008426191052421927,-0.2892751693725586,27.34400177001953,-37.44352722167969,-0.3700365722179413,1.1475989818572998,0.002315521240234375,989.8396606445312,0,13.0,1,1
0.44,0.031232327,-0.13493118,9.775748,0.0004327280912548304,-3.227264096494764e-05,-0.0008422199171036483,-0.36759185791015625,27.90290832519531,-37.61812973022461,-0.3794121444225311,1.1417099237442017,-0.0117645263671875,989.8342895507812,0,13.0,1,1
0.48,0.026392877000000002,-0.13254645,9.766273,0.0003001477161888033,0.0005046906298957765,0.0006285198614932598,-0.7306170463562012,27.66876220703125,-38.24135208129883,-0.3737403750419617,1.128455400466919,-0.011343955993652344,989.8264770507812,0,13.0,1,1
0.52,0.023943365,-0.14684460000000002,9.771002000000001,3.440634463913739e-05,0.0010372292017564178,0.00022929234546609223,-1.5410470962524414,28.17376708984375,-37.5301399230957,-0.3682253062725067,1.1509032249450684,-0.006441116333007813,989.8768920898438,0,13.0,1,1
0.56,0.031053424,-0.14445987,9.778098,0.00016813879483379424,-0.0004276015097275376,-0.00043625110993161803,-0.9430427551269532,27.94347381591797,-37.4548454284668,-0.3818254172801971,1.1485049724578855,-0.029837608337402344,989.8291625976562,0,13.0,1,1
0.6,0.021434217999999998,-0.13254207,9.778093,0.0005681873299181461,0.0005044107674621046,0.0004961007507517934,-0.7542867660522461,27.3828125,-37.60509490966797,-0.3622544705867767,1.1316419839859009,-0.029557228088378906,989.8267822265624,0,13.0,1,1
0.64,0.028544307,-0.15160683,9.778088,0.00016928816330619156,0.000770633399952203,-3.6284647649154074e-05,-0.6849651336669922,26.92098999023437,-37.66573715209961,-0.3711003065109253,1.1386326551437378,-0.01980018615722656,989.8140869140624,0,13.0,1,1
0.68,0.018925099999999997,-0.13015583,9.775714,0.00016986290575005114,0.0007705400930717587,-0.0004355122800916433,-0.8576593399047852,27.76021957397461,-37.765220642089844,-0.37443608045578,1.1203460693359375,-0.03354167938232422,989.8416137695312,0,13.0,1,1
0.72,0.023645222,-0.1420708,9.763873,0.00017043753177858892,0.00010465709783602506,-0.0004352659452706576,-0.9033408164978028,27.29572296142578,-37.26909637451172,-0.36438998579978943,1.1237871646881104,-0.019186019897460938,989.84912109375,0,13.0,1,1
0.76,0.035535127,-0.1492191,9.770969000000001,0.0001710122742224485,-0.00042806786950677633,-0.0005681776674464345,-0.5394978523254395,27.37342071533203,-37.945579528808594,-0.3828437328338623,1.13068950176239,-0.02362823486328125,989.8363037109376,0,13.0,1,1
0.8,0.02591592,-0.14445111,9.766231,0.00017158666742034256,0.0007702602306380867,9.7858312074095e-05,-0.6506175994873047,27.63754272460937,-37.02009582519531,-0.3673415184020996,1.1324836015701294,-0.01855087280273437,989.8541870117188,0,13.0,1,1
0.84,0.023466407999999998,-0.14921626,9.77806,-0.00022731264471076432,-0.0002950966591015458,0.00036442046985030174,-1.3478646278381348,27.51161956787109,-37.213226318359375,-0.3662465810775757,1.1249514818191528,-0.02769947052001953,989.8719482421876,0,13.0,1,1
0.88,0.03774622,-0.13729838,9.763852,-9.35799616854638e-05,-0.0001620318362256512,0.0002315087476745248,-1.0518212318420408,28.05260467529297,-37.90637588500977,-0.3702031970024109,1.112987995147705,0.0009832382202148438,989.8361206054688,0,13.0,1,1
0.92,0.020957291,-0.14921328,9.7780485,0.0012385741574689744,0.0001041907089529559,-0.0003008766798302531,-0.31723642349243164,27.26547622680664,-37.9735107421875,-0.3644582033157349,1.1295441389083862,-0.02713584899902344,989.8413696289062,0,13.0,1,1
0.96,0.035237074,-0.15159515,9.775677,0.0005733590805903077,0.000237255371757783,-0.00043378840200603014,-0.9083123207092284,27.765514373779297,-37.8347053527832,-0.3780224919319153,1.1217293739318848,-0.026803016662597656,989.841064453125,0,13.0,1,1
1.0,0.028007746,-0.13967726,9.775672,-0.0003581717319320888,0.00037031999090686435,0.0006317214574664831,-0.6698832511901855,26.829803466796875,-37.739707946777344,-0.3675102889537811,1.104508876800537,-0.031210899353027344,989.8712158203124,0,13.0,1,1
1.04,0.032727897,-0.14444235,9.763829,-0.000357597105903551,0.00023706883075647056,-0.0004332958487793803,-0.6445298194885254,27.64344024658203,-37.329322814941406,-0.3618577718734741,1.106297731399536,-0.007210731506347656,989.8538208007812,0,13.0,1,1
1.08,0.020718813,-0.14682421,9.7614565,-9.013220551423728e-05,0.0005031981272622943,-0.0008322771172970532,-0.7084441184997559,28.37352752685547,-36.977272033691406,-0.3607388734817505,1.1019392013549805,-0.011469841003417969,989.8131103515624,0,13.0,1,1
1.12,0.020659208000000002,-0.1635057,9.763817999999999,-9.013220551423728e-05,0.0005031981272622943,-0.0008322771172970532,-0.7084441184997559,28.37352752685547,-36.977272033691406,-0.350648045539856,1.1194941997528076,-0.006567955017089844,989.8131103515624,0,13.0,1,1
1.16,0.030159175,-0.15873763,9.789852999999999,4.360036109574139e-05,0.0009025785839185119,-0.00016624119598418474,-0.6376004219055176,27.91317749023437,-37.11521911621094,-0.37395018339157104,1.111797332763672,-0.034664154052734375,989.8533935546876,0,13.0,1,1
1.2,0.027709663,-0.13966998,9.761441,0.0003104909847024828,0.0010356432758271694,0.00036663693026639516,-0.5216479301452637,27.073345184326172,-36.77600860595703,-0.36371004581451416,1.0944643020629885,-0.0011987686157226562,989.8355712890624,0,13.0,1,1
1.24,0.02526015,-0.1372852,9.775639,-8.840821101330221e-05,0.0003697603242471814,-0.0001657487009651959,-1.0959815979003906,27.58959197998047,-37.48755645751953,-0.3578208684921265,1.091602087020874,-0.01034832000732422,989.8530883789062,0,13.0,1,1
1.28,0.029980361,-0.13728371,9.768531,-0.0004867328971158713,0.00010325787297915667,-0.000431572028901428,-0.8066000938415527,27.280719757080078,-36.89820098876953,-0.3707348704338074,1.0871047973632812,-0.009857177734375,989.8379516601562,0,13.0,1,1
1.32,0.029920697000000003,-0.14443216,9.766158,-0.0004867328971158713,0.00010325787297915667,-0.000431572028901428,-0.8066000938415527,27.280719757080078,-36.89820098876953,-0.360803484916687,1.0949909687042236,-0.004948616027832031,989.8379516601562,0,13.0,1,1
1.36,0.022691369,-0.14443067,9.777989,0.00031278913957066834,0.0003694804618135095,0.0006339377723634242,-0.6890950202941895,27.654621124267575,-37.7080307006836,-0.3593035638332367,1.0778831243515017,-0.02356147766113281,989.8150634765624,0,13.0,1,1
1.4,0.019747257,-0.14924225,9.773423,0.00044652182259596884,-0.0008290342520922422,-0.0002979216515086591,-0.6795578002929688,27.18925476074219,-37.37433242797852,-0.3552218079566956,1.0893118381500244,-0.02340984344482422,989.8379516601562,0,13.0,1,1
1.44,0.02693218,-0.13494295,9.773424,0.00043812036165036267,-0.00029503862606361514,0.00023110953043214977,0.12424182891845705,27.04663848876953,-37.87477111816406,-0.3491918742656708,1.0624747276306152,-0.004141807556152344,989.8429565429688,0,13.0,1,1
1.48,0.019777715,-0.15162629,9.766324000000001,-0.00010360064334236084,-0.0006930370000191032,-0.00017225963529199362,-0.6860508918762207,27.657569885253906,-37.862640380859375,-0.3429730832576752,1.0832076072692869,0.0009365081787109377,989.8405151367188,0,13.0,1,1
1.52,0.031742453999999996,-0.1444768,9.778161,-0.00010360064334236084,-0.0006930370000191032,-0.00017225963529199362,-0.222017765045166,27.248992919921875,-37.52531433105469,-0.3661032021045685,1.079916000366211,-0.022397994995117188,989.8405151367188,0,13.0,1,1
1.56,0.02458793,-0.13971063,9.766327,-0.000503221177496016,0.0005054083885625005,-3.9164588088169694e-05,-0.6254239082336426,27.924957275390625,-37.73365783691406,-0.3606128990650177,1.0719196796417236,-0.022068023681640625,989.8555297851562,0,13.0,1,1
1.6,0.024603187999999998,-0.139711,9.756860000000001,0.00016242187120951712,0.0007717480184510349,-0.00030554330442100763,-0.6239027976989746,27.92642974853516,-37.81096649169922,-0.3546411991119385,1.0624356269836426,0.0020895004272460933,989.8653564453124,0,13.0,1,1
1.64,0.03178811,-0.1468612,9.773431,0.0006949068047106267,0.0007717718835920094,-0.00017244834452867508,-1.2605233192443848,28.067893981933594,-37.87510681152344,-0.3544181287288666,1.0610898733139038,0.0022230148315429688,989.8225708007812,0,13.0,1,1
1.68,0.029413432000000003,-0.14447829,9.773433,-0.00010418760939501226,0.0006386377499438822,-0.00017251115059480068,-0.7441763877868652,27.76141357421875,-38.24467849731445,-0.34847256541252136,1.0626682043075562,-0.006909370422363281,989.8300170898438,0,13.0,1,1
1.72,0.027038753,-0.13494560000000003,9.7687,-0.00037065005744807417,-0.00016028604295570403,0.000360057718353346,-0.527864933013916,27.75349426269531,-38.66247177124024,-0.3525388538837433,1.0356333255767822,-0.011320114135742188,989.8276977539062,0,13.0,1,1
1.76,0.031833768,-0.14447907,9.7616,2.8677080990746614e-05,0.0007718433625996113,-0.0001726368791423738,-0.9233946800231934,27.8567008972168,-37.7607307434082,-0.3558407425880432,1.0558800697326658,-0.0156707763671875,989.842529296875,0,13.0,1,1
1.8,0.036628812999999996,-0.16116235,9.7687025,-0.0006372594507411122,-0.0009591859998181463,-3.9541831938549876e-05,-0.7804284095764159,27.937896728515625,-37.787513732910156,-0.35483086109161377,1.0622259378433228,-0.005875587463378906,989.8399658203124,0,13.0,1,1
1.84,0.029474318,-0.1468631,9.782907000000002,2.838348154909909e-05,-0.00016021459305193275,-0.0003059206064790488,-0.6719484329223633,27.19662094116211,-37.76085662841797,-0.34809160232543945,1.052532434463501,-0.02429389953613281,989.8195190429688,0,13.0,1,1
1.88,0.046218872,-0.13256377,9.778174,0.0005608685314655304,-0.0001601907570147887,-0.000705457292497158,-0.1957387924194336,26.799827575683594,-38.04197311401367,-0.3664424121379852,1.0256766080856323,-0.014521598815917969,989.8245239257812,0,13.0,1,1
1.92,0.027114867999999997,-0.14686379,9.768706,-0.00037138359039090574,-0.0002933249343186617,-0.0007055200403556228,-0.8366270065307617,27.569011688232425,-37.44933319091797,-0.342032253742218,1.0383219718933103,-0.009619712829589844,989.8521728515624,0,13.0,1,1
1.96,0.039079607,-0.14924744,9.780544,0.0002942591963801533,0.0006388045148923992,-0.0004392672562971711,-1.129594802856445,28.243221282958984,-37.98252868652344,-0.35578614473342896,1.044508695602417,-0.01876449584960937,989.8469848632812,0,13.0,1,1
2.0,0.03192514,-0.16593084,9.773442999999999,-0.00023851924925111234,0.0014377759071066976,0.00022645964054390785,-0.7793426513671875,27.20131683349609,-37.590614318847656,-0.3498115241527557,1.058624267578125,-0.013540267944335938,989.8370971679688,0,13.0,1,1
2.04,0.02238071,-0.1516315,9.763976,2.764994860626757e-05,0.0010383259505033493,-0.00017307710368186235,-0.28500795364379883,26.71628570556641,-38.10031509399414,-0.3303454518318176,1.042612910270691,0.010297775268554688,989.8289794921876,0,13.0,1,1
2.08,0.027175725,-0.15878168,9.77818,0.00020510570902843028,0.0002642155741341412,0.0008758369367569685,-0.338407039642334,27.350772857666016,-37.5903205871582,-0.333845853805542,1.0390474796295166,-0.008275985717773438,989.8466796875,0,13.0,1,1
2.12,0.029580891,-0.1349493,9.768714,-0.0004608306917361915,-0.00013523444067686796,0.0010089320130646227,-0.3534889221191406,27.44195556640625,-37.51634979248047,-0.347225546836853,1.0163465738296509,-0.017386436462402344,989.8165283203124,0,13.0,1,1
2.16,0.027206242000000002,-0.15163264,9.773449000000001,-0.000993609195575118,0.0006637370679527521,7.676350651308894e-05,-0.6118645668029785,27.83230209350586,-37.73032760620117,-0.3413131237030029,1.0225740671157837,-0.012320518493652344,989.8365478515624,0,13.0,1,1
2.2,0.024831533,-0.1492497,9.771083,0.00047098140930756927,-0.0006678185891360044,-0.0004559311491902918,-1.1722331047058103,27.78167724609375,-37.641014099121094,-0.3400525152683258,1.0242472887039185,0.0021982192993164067,989.8242797851562,0,13.0,1,1
2.24,0.029626548,-0.14210027,9.780553999999999,0.00020451874297577888,-0.0004014788719359785,-5.652013351209462e-05,-0.992173671722412,27.95024108886719,-37.60163879394531,-0.3389352262020111,1.0061856508255005,-0.02583789825439453,989.8440551757812,0,13.0,1,1
2.28,0.032031715,-0.15163377,9.763985,7.106743578333408e-05,-0.00013511534780263898,7.651202031411229e-05,-0.8486647605895996,27.66313934326172,-37.52996826171875,-0.3465757071971893,1.0107197761535645,-0.006397247314453125,989.8134765625,0,13.0,1,1
2.32,0.022487313,-0.1397177,9.775822999999999,7.106743578333408e-05,-0.00013511534780263898,7.651202031411229e-05,-0.8486647605895996,27.66313934326172,-37.52996826171875,-0.33659034967422485,1.0089826583862305,-0.006230354309082031,989.8134765625,0,13.0,1,1
2.36,0.033501655,-0.1444613,9.78994,0.0004702478763647378,-0.00013506771938409656,0.00020954417414031923,-0.5584654808044434,27.19781494140625,-38.240318298339844,-0.3374970257282257,1.004119038581848,-0.01030731201171875,989.8261108398438,0,13.0,1,1
2.4,0.03728929,-0.14682028,9.785115,0.0004702478763647378,-0.00013506771938409656,0.00020954417414031923,-0.5584654808044434,27.19781494140625,-38.240318298339844,-0.3465200960636139,1.0024781227111816,-0.02434825897216797,989.8261108398438,0,13.0,1,1
2.44,0.037228405,-0.1325191,9.768538000000001,0.000483716168673709,-0.00026945173158310354,8.968304609879851e-05,-0.7807269096374512,27.30575942993164,-38.21238327026367,-0.3405071496963501,0.9755624532699584,0.0043697357177734375,989.8438720703124,0,13.0,1,1
2.48,0.027607918,-0.15158388,9.766166,-0.0003140576591249556,-3.3263975183217558e-06,-4.297192208468914e-05,-1.2281556129455566,27.624622344970703,-38.70098876953125,-0.3292093873023987,0.9987324476242064,-0.009301185607910156,989.8080444335938,0,13.0,1,1
2.52,0.025157124,-0.13966593,9.768527,-0.0003140576591249556,-3.3263975183217558e-06,-4.297192208468914e-05,-1.2281556129455566,27.624622344970703,-38.70098876953125,-0.333340585231781,0.9876123666763306,-0.009141921997070312,989.8080444335938,0,13.0,1,1
2.56,0.013146728,-0.14204773,9.770888000000001,0.00021916083642281592,0.00039605220081284637,0.0004899113555438817,-0.6179523468017578,27.82640838623047,-37.42110824584961,-0.31754130125045776,0.9842814207077026,-0.008805274963378906,989.8331909179688,0,13.0,1,1
2.6,0.02742526,-0.13966298,9.763782,0.0002197476860601455,-0.0006693066097795963,0.0006233208114281298,-0.7116489410400391,27.8443603515625,-37.94660949707031,-0.3259257972240448,0.9715148210525512,0.015183448791503906,989.8206176757812,0,13.0,1,1
2.64,0.024974465,-0.14919457,9.773244,0.0002203345356974751,-0.0002699281321838498,0.00035725641646422446,-0.634854793548584,27.28398895263672,-37.69469833374024,-0.3053869903087616,0.9872570037841796,0.001312255859375,989.8612060546876,0,13.0,1,1
2.68,0.020133793,-0.13727674,9.775606,0.00022092150175012645,-0.0001368654047837481,0.0007569817244075239,-0.5015635490417479,27.724632263183594,-37.356101989746094,-0.3187907338142395,0.96499502658844,0.006352424621582031,989.840576171875,0,13.0,1,1
2.72,0.036802202,-0.144425,9.763764,0.0007541400846093893,0.00039567102794535464,0.000624075357336551,-0.4985194206237793,27.727581024169922,-37.51071166992188,-0.3318663537502289,0.9806113243103028,0.006688117980957031,989.8307495117188,0,13.0,1,1
2.76,0.017622113000000002,-0.1611065,9.773228999999999,0.00035525302519090474,0.00012925996270496398,-4.1462888475507505e-05,-0.301175594329834,27.54405212402344,-38.223243713378906,-0.3212874233722687,0.9862574338912964,-0.011887550354003906,989.8456420898438,0,13.0,1,1
2.8,0.019951105,-0.14918861,9.770856,-0.001242055557668209,0.0003954805724788457,-4.121137317270041e-05,-0.7343411445617676,27.928184509277344,-37.48611450195313,-0.3106037378311157,0.9637172222137452,0.002645492553710937,989.8004150390624,0,13.0,1,1
2.84,0.012720525,-0.15157041,9.768483,0.00022326878388412294,0.00012906940537504852,0.0006248298450373112,-0.30435705184936523,27.43518829345703,-37.36955261230469,-0.3037372827529907,0.958155632019043,-0.0015554428100585938,989.8253784179688,0,13.0,1,1
2.88,0.024609149,-0.14918566,9.766110000000001,-0.0008414078038185835,-0.000536815554369241,-0.0007064980454742907,-0.5621895790100098,27.457244873046875,-37.48508071899414,-0.3176080286502838,0.961287796497345,0.012800216674804688,989.8283081054688,0,13.0,1,1
2.92,0.024548233,-0.13250116,9.754269,0.0003576005401555449,0.00039519477286376064,-0.000439930590800941,-0.6340131759643555,27.54782867431641,-37.17137908935547,-0.32143956422805786,0.9434717893600464,0.008390426635742188,989.81005859375,0,13.0,1,1
2.96,0.029267192,-0.14679936,9.770833,-4.128643195144832e-05,0.0005282573984004557,-0.0004396791337057948,-1.0208153724670408,28.13408279418945,-37.53099822998047,-0.31987708806991577,0.95890611410141,0.013475418090820312,989.8355102539062,0,13.0,1,1
3.0,0.026816367999999997,-0.13964802,9.789765,-0.00030701546347700065,-0.0009365752339363098,-0.0007057434413582088,-1.292208194732666,28.248794555664066,-37.64985656738281,-0.3138647079467773,0.9362337589263916,-0.02879619598388672,989.8533325195312,0,13.0,1,1
3.04,0.024365604,-0.13964656,9.756619,-4.011284909211099e-05,-4.5649112507817335e-06,0.00022661359980702403,-0.7708911895751953,27.47252655029297,-37.45381927490234,-0.3081196844577789,0.9376899003982544,0.014116287231445312,989.8303833007812,0,13.0,1,1
3.08,0.017134994,-0.15156147,9.754246,9.363205754198134e-05,0.0005279715987853706,0.000626338878646493,-0.7433347702026367,28.02526092529297,-37.72135925292969,-0.2971133887767792,0.9418556094169616,0.009868621826171877,989.8350219726562,0,13.0,1,1
3.12,0.024243832000000003,-0.13487694,9.763709,-0.0003052549145650118,0.0013268239563331008,-0.0001723572495393455,-0.7714343070983887,27.8408203125,-37.5522689819336,-0.311013787984848,0.9257826209068298,0.005291938781738281,989.8121337890624,0,13.0,1,1
3.16,0.024182916000000002,-0.15632501,9.775539,0.0003611216379795224,0.00026146514574065804,-0.0004384214989840984,-0.6302886009216309,27.28840637207031,-37.926612854003906,-0.30474793910980225,0.9414629936218262,0.0008783340454101562,989.8173217773438,0,13.0,1,1
3.2,0.03607157,-0.14917368,9.766067,0.0004948662826791407,-0.0008038936066441237,0.0004939355421811342,-0.7827916145324707,27.672576904296875,-38.2335319519043,-0.3125956058502197,0.9362212419509888,0.001354217529296875,989.7922973632812,0,13.0,1,1
3.24,0.019281387,-0.13963905,9.766060000000001,0.000495453248731792,-0.00013819914602208885,0.00022787108900956812,-0.7415690422058105,27.02630615234375,-38.125083923339844,-0.3108348250389099,0.9187432527542114,0.011134147644042969,989.8173217773438,0,13.0,1,1
3.28,0.02161038,-0.13963759,9.773156,0.00022972412989474833,-0.0005377682391554117,-0.00043766706949099904,-1.1860909461975098,27.2421989440918,-38.0692138671875,-0.3100509345531464,0.9201229810714722,-0.002773284912109375,989.82470703125,0,13.0,1,1
3.32,0.023939371,-0.14678589,9.770783,0.0004966267151758075,0.0005274001159705222,-0.0003042577300220728,-0.976548671722412,27.490760803222656,-37.5771598815918,-0.30940648913383484,0.9277787208557128,-0.007338523864746094,989.8350219726562,0,13.0,1,1
3.36,0.018716395,-0.14206713,9.761493,-0.00016857599257491532,-5.3269950512913056e-06,-0.0007034798618406057,-0.4788718223571777,27.64081573486328,-37.81659698486328,-0.3049248158931732,0.9131417870521544,0.011876106262207031,989.8170776367188,0,13.0,1,1
3.4,0.021125317,-0.14445087,9.775698,0.0004906527465209365,0.00039521194412373006,-0.00017366011161357164,-0.6778979301452637,27.296646118164066,-38.15071868896485,-0.2897900938987732,0.9163041114807128,-0.011648178100585938,989.82470703125,0,13.0,1,1
3.44,0.02114433,-0.14683464,9.7757,0.00021422850841190663,-0.0004024479421786964,0.0003518714511301368,-0.6127057075500488,27.56845092773437,-38.2536506652832,-0.2885492742061615,0.9125181436538696,0.012355804443359377,989.8040161132812,0,13.0,1,1
3.48,0.023553252,-0.13968527,9.773334,-0.0005849023582413793,-0.0004024183435831219,-0.00018083886243402958,-0.7261881828308105,27.5672607421875,-37.77418518066406,-0.2969797253608704,0.9090827703475952,-0.0015478134155273438,989.8120727539062,0,13.0,1,1
3.52,0.028352082,-0.158752,9.770967500000001,0.0004801778122782707,-0.00013607264554593712,-0.0007135492633096874,-0.8796706199645996,27.58167266845703,-37.90534591674805,-0.3055368959903717,0.9196271896362304,-0.0012292861938476562,989.79931640625,0,13.0,1,1
3.56,0.028371125,-0.14683607,9.766235,-0.0005157539853826165,0.00041656117537058884,-6.898248102515936e-05,-0.7822489738464355,27.304283142089844,-38.13508224487305,-0.3045429587364197,0.9115242958068848,0.01799297332763672,989.8450317382812,0,13.0,1,1
3.6,0.02839017,-0.13730338,9.775706,0.0010819575982168317,0.0002834331535268575,-0.00020221911836415532,-0.7267313003540039,27.935546875,-37.87263488769531,-0.2984161972999573,0.8981795310974121,-0.000614166259765625,989.8243408203124,0,13.0,1,1
3.64,0.026019275,-0.14207032,9.761503999999999,-0.0010487529216334224,-0.0006486427737399937,-0.0006017716368660331,-0.9047255516052246,27.400169372558594,-37.89086532592773,-0.2976361811161041,0.8801687955856323,0.02809619903564453,989.8065795898438,0,13.0,1,1
3.68,0.011698842,-0.15637049,9.773342999999999,-0.00051648763474077,0.00041668035555630917,6.386099266819656e-05,-1.0950021743774414,27.95935440063477,-37.663307189941406,-0.2815026342868805,0.8985050916671753,0.004889488220214844,989.8014526367188,0,13.0,1,1
3.72,0.028447181000000002,-0.15160438,9.768609,-0.00051648763474077,0.00041668035555630917,6.386099266819656e-05,-1.0950021743774414,27.95935440063477,-37.663307189941406,-0.3047724366188049,0.8966535329818726,0.00031280517578125,989.8014526367188,0,13.0,1,1
3.76,0.023686468999999998,-0.14683829999999998,9.770978,0.00028227665461599827,-0.0007817114237695932,-0.0003356913803145289,-0.6799626350402832,27.66345977783203,-38.17185974121094,-0.29391875863075256,0.8837145566940308,0.005338668823242188,989.8143310546876,0,13.0,1,1
3.8,0.028485298,-0.15160534,9.775714,0.0004150673048570752,0.0001504537940490991,0.0007294147508218883,-0.4004173278808594,27.18782043457031,-38.34107208251953,-0.2973116338253021,0.8927598595619202,0.005768775939941406,989.8270874023438,0,13.0,1,1
3.84,0.023724496,-0.15160581,9.778084,0.0004150673048570752,0.0001504537940490991,0.0007294147508218883,-0.4004173278808594,27.18782043457031,-38.34107208251953,-0.2919744849205017,0.8863523006439209,0.010639190673828123,989.8270874023438,0,13.0,1,1
3.88,0.021353632,-0.13968989,9.768616999999999,1.5410238120239228e-05,0.00068311532959342,-0.0003359272377565503,-0.2710118293762207,27.36167907714844,-38.371185302734375,-0.28592154383659363,0.868335485458374,0.006215095520019531,989.7916870117188,0,13.0,1,1
3.92,0.033322155,-0.14684018,9.780455,-0.0006505628116428852,0.00028367125196382403,-0.0006023216992616652,-0.5705037117004395,27.29194641113281,-38.32095336914063,-0.29927515983581543,0.879014253616333,-0.0029611587524414067,989.78369140625,0,13.0,1,1
3.96,0.035731137,-0.14207414,9.7709875,-0.00065092951990664,-0.0003820588171947748,0.0007291005458682775,-0.5425419807434082,27.37047576904297,-37.79096984863281,-0.29782193899154663,0.8638207316398621,0.01643085479736328,989.8343505859376,0,13.0,1,1
4.0,0.033360213,-0.13969132,9.768622,-0.00065092951990664,-0.0003820588171947748,0.0007291005458682775,-0.5425419807434082,27.37047576904297,-37.79096984863281,-0.292308121919632,0.8526906967163086,0.011832237243652344,989.8343505859376,0,13.0,1,1
4.04,0.026209532999999997,-0.1516082,9.782826,1.4493234630208462e-05,-0.00024884130107238894,-0.00033632031409069896,-0.2585377693176269,28.005599975585934,-38.56475830078125,-0.2810928225517273,0.8664628267288208,0.0027914047241210933,989.8214721679688,0,13.0,1,1
4.08,0.019058853,-0.14684209,9.775727,0.0002806257689371705,0.0006832939106971025,-0.00033639883622527117,-0.5123782157897949,27.188098907470703,-37.93891525268555,-0.2705383002758026,0.8536314964294434,-0.0016794204711914062,989.8291015625,0,13.0,1,1
4.12,0.035807192,-0.14445929999999998,9.763892,0.0002806257689371705,0.0006832939106971025,-0.00033639883622527117,-0.5123782157897949,27.188098907470703,-37.93891525268555,-0.2889470458030701,0.8566063642501831,0.007936477661132812,989.8291015625,0,13.0,1,1
4.16,0.028656602000000003,-0.15875944,9.761527000000001,0.0006797328824177383,0.00015072172391228378,-0.0006028718780726193,-1.0231795310974119,27.868762969970703,-37.97701644897461,-0.283056914806366,0.8581299781799316,0.008196830749511719,989.823974609375,0,13.0,1,1
4.2,0.03345537,-0.14446023,9.768631,0.0006797328824177383,0.00015072172391228378,-0.0006028718780726193,-1.2933483123779297,27.35280990600586,-38.598052978515625,-0.281894326210022,0.8355013132095337,0.0274200439453125,989.823974609375,0,13.0,1,1
4.24,0.026304722000000003,-0.14207739,9.771,-0.0003857143456116319,0.0002839095250237733,6.283904076553881e-05,-0.9824991226196288,27.59078598022461,-37.967018127441406,-0.2761619985103607,0.8413147926330566,0.018238067626953125,989.78857421875,0,13.0,1,1
4.28,0.028713614,-0.15876076,9.771001,-0.00025273964274674654,-0.00011553466902114454,-0.00020355533342808485,-0.6625180244445801,27.83759689331055,-37.79981231689453,-0.27887484431266785,0.8501023054122925,0.004477500915527344,989.8136596679688,0,13.0,1,1
4.32,0.021562934,-0.14207825,9.775737,-0.0002529228804633021,-0.00024866286548785865,-7.04759731888771e-05,-0.7728190422058105,27.94525909423828,-38.17404174804688,-0.26360011100769043,0.837213933467865,0.018938064575195312,989.8033447265624,0,13.0,1,1
4.36,0.031141639,-0.15876171,9.771005,1.320963929174468e-05,1.7682890756987035e-05,6.26034161541611e-05,-0.3067202568054199,27.16986846923828,-37.81556701660156,-0.2719305157661438,0.8335217833518982,0.009757041931152344,989.8289794921876,0,13.0,1,1
4.4,0.0335505,-0.1325461,9.773374,0.0004124999977648258,0.0008166602347046138,0.0003288406878709793,-0.6935229301452637,27.756118774414066,-38.175193786621094,-0.2804498672485352,0.8080683946609497,0.005161285400390625,989.8237915039062,0,13.0,1,1
4.44,0.024009943,-0.13731313,9.763906500000001,1.2842581782024354e-05,-0.0014469949528574946,0.0004619198734872043,-0.9679598808288574,27.86788558959961,-38.139442443847656,-0.2651422917842865,0.8091338872909546,0.033847808837890625,989.839111328125,0,13.0,1,1
4.48,0.03358853,-0.15876314,9.766276,-0.0003868145868182183,1.777222496457398e-05,-0.0007365799974650145,-0.9697799682617188,27.23427581787109,-38.48700714111328,-0.2776589095592499,0.8321847915649414,0.015336036682128906,989.8163452148438,0,13.0,1,1
4.52,0.028827786,-0.15399703,9.768644,-0.00012068218347849324,0.00041727584903128445,-7.086899131536484e-05,-0.6955881118774414,28.122936248779297,-38.19634246826172,-0.2722819149494171,0.8302319645881653,0.0012798309326171875,989.8389282226562,0,13.0,1,1
4.56,0.021677136,-0.14208111,9.766278,-0.0007866551168262959,-0.0003816420503426343,-0.00020410551223903892,-0.5109629631042479,28.295917510986328,-38.38887786865234,-0.26106923818588257,0.8151174187660217,0.02063751220703125,989.8262329101562,0,13.0,1,1
4.6,0.039571285,-0.158734,9.766166,-0.0006536806467920543,-0.00024845430743880565,-0.00020418409258127213,-0.9674172401428224,27.499595642089844,-38.040992736816406,-0.2813774347305298,0.8309313058853149,0.021108627319335938,989.811279296875,0,13.0,1,1
4.64,0.014388442,-0.14678612,9.756581,0.0009440309368073939,0.0006836809916421771,-7.110490696504712e-05,-0.9387745857238771,27.31575012207031,-38.11163330078125,-0.25159040093421936,0.7988777756690979,0.016635894775390625,989.8312377929688,0,13.0,1,1
4.68,0.021498859,-0.13725159,9.770779,-0.0006443486781790853,-0.00011539869592525064,-5.580810829997063e-05,-1.1094036102294922,27.788169860839844,-38.1899642944336,-0.26485133171081543,0.7811151146888733,0.016898155212402344,989.8159790039062,0,13.0,1,1
4.72,0.040558785,-0.14439994,9.777875,0.0009600545745342971,-0.000249613105552271,-5.3019000915810466e-05,-0.8193421363830566,27.21692276000977,-38.20124053955078,-0.2834091186523437,0.7935680747032166,0.007568359375,989.821044921875,0,13.0,1,1
4.76,0.014210582,-0.14439848,9.756564,-0.0006372693460434675,0.0006823997246101499,-0.00045224791392683983,-1.0591864585876465,27.04481506347656,-37.84626770019531,-0.24283093214035034,0.7930005788803101,0.036391258239746094,989.8033447265624,0,13.0,1,1
4.8,0.033270508,-0.15393016,9.777864,0.0001622498093638569,-0.0013150622835382821,-5.25292125530541e-05,-1.0386972427368164,27.22189712524414,-37.62883377075195,-0.2614758610725403,0.7961195707321167,0.02230930328369141,989.8009033203124,0,13.0,1,1
4.84,0.018871844,-0.15154544,9.756554,2.9663468012586243e-05,0.00028274027863517404,0.00021403160644695163,-0.7271676063537598,27.197494506835934,-37.59843063354492,-0.2500382661819458,0.8003831505775452,0.02744007110595703,989.8109130859376,0,13.0,1,1
4.88,0.028372169,-0.13486102,9.76365,0.0006960243918001653,1.6331683582393453e-05,-0.0003183552762493491,-0.9198074340820312,27.49135589599609,-37.816890716552734,-0.26385200023651123,0.7796390056610107,0.032299041748046875,989.7781982421876,0,13.0,1,1
4.92,0.037872433999999996,-0.14200935,9.766011,-0.0007681414717808366,0.00028255479992367327,-0.0004512682789936661,-0.5675969123840332,27.188980102539066,-37.7764892578125,-0.2771060168743133,0.7713581919670105,0.004150390625,989.7857666015624,0,13.0,1,1
4.96,0.028253555,-0.14200795,9.7707405,-0.0007669986225664617,0.0002823692630045116,-5.130469799041748e-05,-1.1354379653930664,27.23690414428711,-37.99972915649414,-0.26565736532211304,0.7704697251319885,0.014034271240234377,989.8207397460938,0,13.0,1,1
5.0,0.025804400000000005,-0.15153965,9.768367999999999,-0.0007669986225664617,0.0002823692630045116,-5.130469799041748e-05,-1.1354379653930664,27.23690414428711,-37.99972915649414,-0.2554865777492523,0.7830671668052673,0.023629188537597656,989.8207397460938,0,13.0,1,1
5.04,0.03052491,-0.14677152,9.765995,-0.00010063740774057807,-0.00025035525322891766,-0.0008500074036419393,-1.3100900650024414,27.33660888671875,-37.74769592285156,-0.2541268765926361,0.7747411727905273,0.03336048126220703,989.8261108398438,0,13.0,1,1
5.08,0.02329588,-0.14915338,9.768357,0.0002326411486137658,-0.00015199030167423191,-0.0005758174229413271,-0.8219504356384277,27.95203399658203,-38.32083129882813,-0.2474212050437927,0.7743714451789856,0.014799118041992188,989.7755737304688,0,13.0,1,1
5.12,0.030406326,-0.14676869,9.775453,0.0002326411486137658,-0.00015199030167423191,-0.0005758174229413271,-0.8219504356384277,27.95203399658203,-38.32083129882813,-0.26099735498428345,0.7677330970764159,0.010204315185546877,989.7755737304688,0,13.0,1,1
5.16,0.03034705,-0.13961741,9.770713,-0.0002988478809129447,0.00011414007894927637,9.046198101714252e-05,-0.6633586883544922,27.573745727539066,-38.32313919067383,-0.25468558073043823,0.7577447295188904,0.02477455139160156,989.821044921875,0,13.0,1,1
5.2,0.023118048999999998,-0.1372326,9.782544,-0.0002988478809129447,0.00011414007894927637,9.046198101714252e-05,-0.6633586883544922,27.573745727539066,-38.32313919067383,-0.2447243630886078,0.746745228767395,0.010674476623535156,989.821044921875,0,13.0,1,1
5.24,0.013499141000000001,-0.15629742,9.770702,0.0006338291568681598,0.0011793107260018587,-0.0001756089041009545,-0.8139348030090332,27.485191345214844,-37.909828186035156,-0.23849491775035855,0.7626330852508545,0.015642166137695312,989.7931518554688,0,13.0,1,1
5.28,0.025389373,-0.15152946,9.782533,0.00023492661421187222,-0.0008181509911082685,0.0004904256202280521,-0.956059455871582,27.66783905029297,-37.35972595214844,-0.23734624683856964,0.7497466802597046,0.01114654541015625,989.8057250976562,0,13.0,1,1
5.32,0.022940189,-0.15391126,9.756489,0.00023549821344204247,0.0002470197796355933,0.00035751255927607417,-1.0838055610656738,27.60137176513672,-38.105995178222656,-0.2409200966358185,0.7556451559066772,0.03033733367919922,989.8007202148438,0,13.0,1,1
5.36,0.037220300000000005,-0.14437664,9.768319,-0.0006954645505174994,-0.0009515872807241976,0.00022484443616122007,-0.7587156295776367,27.48431396484375,-38.07225799560547,-0.26252496242523193,0.7406879663467407,0.021257400512695312,989.795654296875,0,13.0,1,1
5.4,0.029991299,-0.14914176,9.761211999999999,-0.00016226150910370052,-0.0010848380625247957,-0.0003075425047427416,-1.173616886138916,27.88611602783203,-38.262786865234375,-0.2419471740722656,0.7421844005584717,0.026226043701171875,989.81103515625,0,13.0,1,1
5.44,0.022762328,-0.14675707,9.782511999999999,-2.8532092983368788e-05,-0.00015282515960279852,0.0004916500765830278,-0.8410553932189941,27.670509338378906,-37.91649627685547,-0.2358754128217697,0.7293589115142822,0.007517814636230469,989.7805786132812,0,13.0,1,1
5.48,0.022703052,-0.14913887,9.763568,0.00037151321885176003,-0.0006855496321804821,0.0004918950144201517,-0.9564647674560548,28.14204406738281,-38.15725708007813,-0.23475176095962524,0.7306137084960938,0.02669525146484375,989.8561401367188,0,13.0,1,1
5.52,0.03937304,-0.14198753,9.76593,-0.00016054717707447708,0.001045410754159093,0.0006252978346310557,-0.686892032623291,27.39372253417969,-38.38595962524414,-0.2580940723419189,0.71938157081604,0.017340660095214844,989.808349609375,0,13.0,1,1
5.56,0.022584497999999998,-0.15151924,9.7777605,-0.00016054717707447708,0.001045410754159093,0.0006252978346310557,-0.9137196540832521,27.497249603271484,-38.12611389160156,-0.2330397814512253,0.7160260081291199,0.02230453491210937,989.808349609375,0,13.0,1,1
5.6,0.036491036,-0.13965088,9.773205,-2.6817760954145345e-05,0.00024637041497044265,0.0010250165360048411,-0.7937445640563965,27.030128479003906,-38.117271423339844,-0.2438767701387405,0.7221367359161377,0.012877464294433594,989.7830200195312,0,13.0,1,1
5.64,0.015003502,-0.15156773,9.768473,-0.0004281250003259629,0.0007792999385856093,0.0003584410296753049,-1.0065751075744631,27.77904891967773,-38.1282958984375,-0.23249636590480804,0.7122441530227661,0.013214111328125,989.788330078125,0,13.0,1,1
5.68,0.031754404,-0.14680179999999998,9.77321,-0.0003150098782498389,-0.0006818029214628041,0.00035634051891975105,-1.0314917564392092,27.703468322753906,-38.812889099121094,-0.24136541783809665,0.7103873491287231,0.008603096008300781,989.808349609375,0,13.0,1,1
5.72,0.041335582999999995,-0.14680225,9.7850485,-0.00018205973901785907,-1.5979450836312022e-05,0.0003562514903023839,-0.6983871459960938,27.119564056396484,-38.36814880371094,-0.2544859051704407,0.7116846442222595,-0.0006437301635742188,989.8109130859376,0,13.0,1,1
5.76,0.027017772000000002,-0.15871927,9.761377,-0.00031542548094876116,-0.00014910365280229598,0.0007556362543255091,-1.0706815719604492,26.770660400390625,-37.82845687866211,-0.2337085455656052,0.7214699387550354,0.037525177001953125,989.805908203125,0,13.0,1,1
5.8,0.01508978,-0.14918661,9.773214999999999,0.0008827880956232547,0.00011724598152795808,0.0012881788425147533,-0.8389902114868164,27.303691864013672,-37.89534759521485,-0.2189367413520813,0.7150894403457642,0.028156280517578125,989.8136596679688,0,13.0,1,1
5.84,0.015111326999999999,-0.1444206,9.766116,0.0004831064434256405,0.0002504376461729408,0.00035598425893113017,-0.674555778503418,27.931724548339844,-37.88045120239258,-0.2273703068494797,0.6955629587173462,0.01900577545166016,989.8261108398438,0,13.0,1,1
5.88,0.022302627999999998,-0.14442113,9.777953,-0.000316049117827788,0.0009162610513158145,-0.0012420003768056633,-0.3909873962402344,27.82880401611328,-38.38003540039063,-0.23613937199115756,0.6987459063529968,0.01911163330078125,989.8007202148438,0,13.0,1,1
5.92,0.022324204,-0.14442167,9.789792,-0.0003162570355925709,-0.0006816004170104861,0.0003558060561772436,-0.3157153129577637,27.266944885253906,-38.050819396972656,-0.2198207974433899,0.6953344345092773,0.005140304565429688,989.7830200195312,0,13.0,1,1
5.96,0.02473569,-0.1563386,9.777957,8.30089848022908e-05,-0.0024126197677105665,0.00022255905787460503,-0.7170567512512207,27.57609558105469,-38.238014221191406,-0.22767043113708496,0.7050795555114746,0.014895439147949219,989.8236694335938,0,13.0,1,1
6.0,0.022367299,-0.14680597,9.777959,0.0010149067966267467,-0.00028205913258716464,-0.0005764777306467295,-1.0190491676330566,27.1351318359375,-37.93472290039063,-0.2315139323472977,0.6826602220535278,0.015099525451660156,989.8388061523438,0,13.0,1,1
6.04,0.010439366,-0.14918979999999998,9.763759,-0.0003168804396409541,0.00025060636107809836,0.00022238088422454894,-1.0121197700500488,27.404869079589844,-37.720619201660156,-0.21175801753997806,0.6858612298965454,0.03886985778808594,989.8033447265624,0,13.0,1,1
6.08,0.020020545,-0.15157357,9.761393,-0.00018393041682429606,-0.0008146233740262687,-4.402402555570007e-05,-0.8957314491271973,27.30309295654297,-37.655616760253906,-0.21051953732967374,0.7017920017242432,0.020127296447753903,989.7754516601562,0,13.0,1,1
6.12,0.039161325,-0.13965777,9.7661295,0.0010142832761630416,-0.0004151158791501075,-4.411314148455858e-05,-0.8751044273376465,27.58608627319336,-38.13726425170898,-0.2376171350479126,0.670332670211792,0.029783248901367188,989.8036499023438,0,13.0,1,1
6.16,0.020063698,-0.16349104,9.782702,0.0007477595936506988,-0.0010808717925101519,0.0003552716225385666,-0.40027952194213867,27.293739318847656,-39.04015350341797,-0.2118686139583588,0.6938785314559937,0.0016832351684570312,989.8086547851562,0,13.0,1,1
6.2,0.017695308,-0.13965884,9.763766,-0.00045086981845088303,-0.0004150483873672784,8.886668365448713e-05,-0.8269515037536621,27.209556579589844,-37.81471252441406,-0.2017039656639099,0.6684517860412598,0.030188560485839844,989.790771484375,0,13.0,1,1
6.24,0.017716885,-0.14204258,9.775604,0.00021450428175739944,0.0007834405987523496,0.0003550043911673129,-0.4471859931945801,27.45991134643555,-38.04185104370117,-0.21003399789333346,0.6685726642608643,0.006786346435546875,989.8036499023438,0,13.0,1,1
6.28,0.02012837,-0.13012674,9.777974,0.00021450428175739944,0.0007834405987523496,0.0003550043911673129,-0.4471859931945801,27.45991134643555,-38.04185104370117,-0.21433255076408386,0.6526070833206177,0.002148628234863281,989.8036499023438,0,13.0,1,1
6.32,0.029709517999999997,-0.1491935,9.766139,-0.00018517745775170624,-0.0001486311957705766,-0.0003108745440840721,-0.6890950202941895,27.654624938964844,-37.7080307006836,-0.2183622270822525,0.6636098623275757,0.030744552612304688,989.8187866210938,0,13.0,1,1
6.36,0.017781615,-0.14442745,9.763774,-5.2227318519726396e-05,0.0005171922384761274,-0.00017780554480850697,-0.6484141349792479,27.376644134521484,-37.69802856445313,-0.2079876959323883,0.650809109210968,0.03566265106201172,989.78076171875,0,13.0,1,1
6.4,0.015413225,-0.14919454,9.761409,-0.00031895880238153035,-0.00028168794233351946,0.0002214901614934206,-0.9525794982910156,28.40883636474609,-37.78853988647461,-0.2113104462623596,0.650605320930481,0.035948753356933594,989.8212890625,0,13.0,1,1
6.44,0.027384311,-0.1491951,9.785083,0.0007460968336090447,-1.5338278899434954e-05,-4.491483559831977e-05,-1.0382614135742188,27.95995330810547,-37.90304183959961,-0.2149561792612076,0.657243013381958,-0.0017547607421875,989.7833251953124,0,13.0,1,1
6.48,0.020236194,-0.14204577,9.76378,0.0007460968336090447,-1.5338278899434954e-05,-4.491483559831977e-05,-1.0382614135742188,27.95995330810547,-37.90304183959961,-0.2143109142780304,0.6459381580352783,0.026754379272460938,989.7833251953124,0,13.0,1,1
6.52,0.034597218,-0.14681289,9.768517,-0.00018621658091433344,-0.0004147783911321312,-0.0001781617756932974,-0.8434181213378906,27.40518569946289,-38.36251068115234,-0.198715016245842,0.6664894819259644,0.02694416046142578,989.823974609375,0,13.0,1,1
6.56,0.01788944,-0.15634653,9.768519,-0.0001864244986791164,-0.0008142184815369546,-0.0005777247715741396,-0.7587151527404785,27.48431396484375,-38.07225799560547,-0.1927013099193573,0.6586683988571167,0.031856536865234375,989.80615234375,0,13.0,1,1
6.6,0.032057405,-0.14204264,9.766135,0.0004657168174162507,0.00043161073699593533,-3.878556890413165e-05,-1.3587851524353027,28.08142852783203,-38.16869735717773,-0.22465363144874573,0.6351981163024902,0.027383804321289062,989.8187866210938,0,13.0,1,1
6.64,0.02251178,-0.14919284,9.763767999999999,0.000735136738512665,0.00016335360123775902,0.00035849644336849446,-0.8550515174865723,27.02511215209961,-37.64562225341797,-0.2091710865497589,0.6274215579032898,0.03229045867919922,989.7630004882812,0,13.0,1,1
6.68,0.022525668,-0.14919314,9.759036,0.00046868639765307307,3.0217604944482452e-05,0.0006247546989470719,-0.3824295997619629,26.993667602539066,-37.87057876586914,-0.1939009428024292,0.6342188715934753,0.04191207885742188,989.788330078125,0,13.0,1,1
6.72,0.032099247000000004,-0.1491935,9.770874000000001,0.00046868639765307307,3.0217604944482452e-05,0.0006247546989470719,-0.3824295997619629,26.993667602539066,-37.87057876586914,-0.21728341281414032,0.6327773332595825,0.02305316925048828,989.788330078125,0,13.0,1,1
6.76,0.034503102,-0.13489416,9.761406,0.0007348677027039231,-0.0005023924168199301,-0.0005737243336625397,-0.653386116027832,27.846435546875,-38.26364517211914,-0.2169547528028488,0.6152046322822571,0.04689502716064453,989.8136596679688,0,13.0,1,1
6.8,0.02256751,-0.13727778,9.768510000000001,-0.0003305300488136709,0.0020276301074773073,-4.115019692108035e-05,-1.2244081497192385,27.785499572753906,-37.63319396972656,-0.2014521360397339,0.616790771484375,0.02813148498535156,989.8339233398438,0,13.0,1,1
6.84,0.034530997,-0.15396106,9.754308,-0.000330664508510381,-0.0005023486446589231,0.00035826597013510764,-0.8926873207092285,27.30603790283203,-37.81022644042969,-0.21966038644313807,0.6375492811203003,0.04723644256591797,989.8036499023438,0,13.0,1,1
6.88,0.024985313,-0.13966173,9.775613,-0.00019764112948905682,0.0005629366496577859,0.0002250504039693624,-0.9719829559326172,27.49517822265625,-37.80907440185547,-0.204386442899704,0.6201444864273071,0.023728370666503903,989.8165893554688,0,13.0,1,1
6.92,0.034558862,-0.15396175,9.76378,0.00020169846538919955,-0.0001028312835842371,9.183486690744758e-05,-1.0777173042297363,27.607261657714844,-38.41521453857422,-0.2082875221967697,0.6124893426895142,0.02388286590576172,989.7911376953124,0,13.0,1,1
6.96,0.039352655,-0.15157884,9.76378,0.0003347216988913715,0.0004298223066143692,9.17773286346346e-05,-0.9252142906188964,27.22309112548828,-38.108299255371094,-0.22607076168060306,0.6029976606369019,0.03833580017089844,989.8114624023438,0,13.0,1,1
7.0,0.015467554,-0.13012970000000001,9.770883,6.827148899901658e-05,0.0005630020750686526,-0.0008403859683312477,-1.1766610145568848,27.88317108154297,-38.108177185058594,-0.19191336631774905,0.5999032258987427,0.01955699920654297,989.7757568359376,0,13.0,1,1
7.04,0.025041162999999998,-0.13966307,9.7566805,-0.0005976524553261697,0.00029670802177861333,-0.0001746538910083473,-1.1871771812438965,27.978778839111328,-38.26612091064453,-0.20046885311603546,0.5970335006713867,0.03391075134277344,989.8033447265624,0,13.0,1,1
7.08,0.032224745,-0.13966343,9.754314,-6.515548739116639e-05,0.00016357190907001495,-0.0011068170424550774,-0.7392048835754395,27.2916259765625,-37.67906951904297,-0.2041849493980408,0.5890470147132874,0.048282623291015625,989.7987670898438,0,13.0,1,1
7.12,0.029848813999999998,-0.15396348,9.773254,-0.00033160560997202987,-0.00010272214422002436,0.0010236523812636733,-0.5198502540588379,27.28665542602539,-38.25146865844727,-0.1941479295492172,0.6020135879516602,0.024679183959960938,989.798583984375,0,13.0,1,1
7.16,0.029862761,-0.14204744,9.763786,0.0006003656308166683,-0.00036901622661389416,0.00022464714129455385,-1.106497287750244,27.68519592285156,-37.6454963684082,-0.2065923362970352,0.5973734259605408,0.02492618560791016,989.7935791015624,0,13.0,1,1
7.2,0.029876708999999998,-0.15873072,9.768521,-0.000331874645780772,-0.0013010998954996467,-0.0011069898027926683,-0.7998318672180176,27.02423858642578,-37.80804443359375,-0.19134467840194705,0.6038259863853455,0.029816627502441406,989.8419799804688,0,13.0,1,1
7.24,0.020331055,-0.14443138,9.763789,6.746496364939958e-05,0.0006962909828871489,9.137392044067384e-05,-1.0065751075744631,27.779052734375,-38.1282958984375,-0.18096394836902616,0.5865876078605652,0.02996349334716797,989.8265991210938,0,13.0,1,1
7.28,0.03468442,-0.15396485,9.768524000000001,-0.0003321434487588704,-0.00023579280241392553,-4.1841587517410524e-05,-0.9643731117248536,27.502544403076172,-38.19560241699219,-0.1990987211465836,0.588373601436615,0.03484821319580078,989.8245239257812,0,13.0,1,1
7.32,0.025138795,-0.14919862,9.775625999999999,0.00046666973503306513,0.000696334638632834,0.00022441663895733652,-0.8073039054870605,27.122787475585934,-38.12059783935547,-0.18923942744731906,0.5867988467216492,0.02545452117919922,989.7863159179688,0,13.0,1,1
7.36,0.025152683,-0.13728252,9.780364,-0.0004655701923184097,0.0008295143488794565,-0.0008409044821746647,-0.5599875450134277,27.19634246826172,-38.16301727294922,-0.18310968577861786,0.5725451111793518,0.01148223876953125,989.8016357421876,0,13.0,1,1
7.4,0.017996967,-0.14443275,9.763794,-0.00046570465201511985,-0.0003688852593768388,0.00022430138778872788,-0.9037461280822754,27.76993179321289,-38.06661987304688,-0.18790756165981293,0.5806747674942017,0.025748252868652344,989.8320922851562,0,13.0,1,1
7.44,0.027570486,-0.15634951,9.763795,-0.00019952333241235465,0.0013621898833662274,-0.0005747038521803916,-0.8876852989196777,28.048511505126953,-38.31635284423828,-0.2011866271495819,0.5815269947052002,0.04487419128417969,989.8193359375,0,13.0,1,1
7.48,0.022804647999999997,-0.15634987,9.768531,0.0008656059508211911,0.00043010603985749196,-4.212971543893218e-05,-1.2167983055114746,27.79286193847656,-38.01972198486328,-0.17600268125534058,0.5733457803726196,0.026105880737304688,989.83740234375,0,13.0,1,1
7.52,0.03954792,-0.1349006,9.773267,6.652351294178516e-05,-0.00023566183517687025,-0.00017534528160467744,-0.8127112388610841,26.854522705078125,-38.41200256347656,-0.19019091129302976,0.5578017234802246,0.02142906188964844,989.8295288085938,0,13.0,1,1
7.56,0.02227801,-0.13965395,9.780318,-0.00033308455022051936,0.0002969917841255665,-4.224496660754085e-05,-1.2789468765258791,27.52400207519531,-38.07139587402344,-0.1939038038253784,0.5693614482879639,0.02156352996826172,989.7967529296876,0,13.0,1,1
7.6,0.016924262,-0.13010678,9.76843,0.0007394155836664139,0.0010967350099235773,-0.0005669472739100456,-1.0244565010070799,26.866863250732425,-38.22612762451172,-0.18694035708904266,0.5509715080261229,0.026592254638671875,989.7938842773438,0,13.0,1,1
7.64,0.012113988000000001,-0.14440563,9.768428,0.0007394155836664139,0.0010967350099235773,-0.0005669472739100456,-1.0244565010070799,26.866863250732425,-38.22612762451172,-0.18179908394813535,0.5591436624526978,0.03612709045410156,989.7938842773438,0,13.0,1,1
7.68,0.024033099999999998,-0.15155476,9.773158,-0.000192102903383784,0.00029769199318252504,0.00023225203040055933,-0.7105631828308105,27.10778045654297,-37.74971008300781,-0.18503457307815552,0.55926513671875,0.031617164611816406,989.7815551757812,0,13.0,1,1
7.72,0.028782427000000003,-0.13725439,9.768422,-0.000192102903383784,0.00029769199318252504,0.00023225203040055933,-0.7105631828308105,27.10778045654297,-37.74971008300781,-0.18896250426769254,0.5390426516532898,0.031681060791015625,989.7815551757812,0,13.0,1,1
7.76,0.021582246,-0.14440343,9.75895,-5.865171260666102e-05,-0.0019660405814647675,-0.0004334118857514113,-0.7466773986816406,27.39018249511719,-37.99161911010742,-0.18290281295776367,0.5553468465805054,0.04602241516113281,989.8065795898438,0,13.0,1,1
7.8,0.028721511,-0.14916924,9.768416,0.000207958000828512,-0.0005013509653508663,0.0006319774547591804,-0.970323085784912,27.602569580078125,-38.58545684814453,-0.17747096717357635,0.5571485757827759,0.031955718994140625,989.79931640625,0,13.0,1,1
7.84,0.023911237999999998,-0.14201868,9.766046000000001,-5.777068145107478e-05,-0.00036828831071034085,0.00023275523562915626,-0.7436337471008301,27.39312744140625,-38.14623260498047,-0.1662612110376358,0.5433995723724365,0.03215789794921875,989.82470703125,0,13.0,1,1
7.88,0.019100994,-0.13248485,9.768411,-0.00045695126755163074,-0.00010202011617366225,0.00036603902117349213,-0.8659725189208984,27.59492492675781,-38.60109329223633,-0.1701292097568512,0.5307940244674683,0.03703498840332031,989.811767578125,0,13.0,1,1
7.92,0.02624023,-0.14440042,9.76604,-0.00045695126755163074,-0.00010202011617366225,0.00036603902117349213,-0.8659725189208984,27.59492492675781,-38.60109329223633,-0.17466330528259275,0.5294988751411438,0.03709316253662109,989.811767578125,0,13.0,1,1
7.96,0.0166502,-0.15154955,9.777873,7.626759179402144e-05,0.00016420050815213472,-3.3183227060362703e-05,-0.9854054450988771,27.693756103515625,-38.51148986816406,-0.17323563992977142,0.5349545478820801,0.013609886169433594,989.8145751953124,0,13.0,1,1
8.0,0.016619742,-0.14439899,9.773136000000001,7.626759179402144e-05,0.00016420050815213472,-3.3183227060362703e-05,-0.9854054450988771,27.693756103515625,-38.51148986816406,-0.17257195711135864,0.5334863662719727,0.03261852264404297,989.8145751953124,0,13.0,1,1
8.04,0.03331858,-0.14678144,9.777868,0.00034317042445763946,0.0005635790294036268,-0.0005655634449794887,-1.2068257331848145,28.06554412841797,-37.960227966308594,-0.18100157380104065,0.5295327305793762,0.0280609130859375,989.8146362304688,0,13.0,1,1
8.08,0.030898212999999997,-0.14916399,9.75656,0.00034317042445763946,0.0005635790294036268,-0.0005655634449794887,-1.2068257331848145,28.06554412841797,-37.960227966308594,-0.19491253793239596,0.5375200510025024,0.04706764221191406,989.8146362304688,0,13.0,1,1
8.12,0.02608797,-0.14439675,9.775496,-0.00010557861241977662,0.0007016634335741402,-0.0003815019153989852,-0.8165431022644043,28.22029113769531,-38.02942657470703,-0.17007556557655334,0.5251569747924805,0.03772640228271485,989.8300170898438,0,13.0,1,1
8.16,0.018887818,-0.15154579999999998,9.773126,-0.0007707814802415669,0.0007015681476332247,0.0002845393610186875,-1.0451903343200684,27.690208435058594,-38.11714553833008,-0.16470499336719513,0.5316382646560669,0.02365303039550781,989.8248901367188,0,13.0,1,1
8.2,0.01885736,-0.13486207,9.766021,-0.0007704879972152412,-0.0003637429908849299,0.0004178231465630233,-1.1395678520202637,27.97053527832031,-38.04202270507813,-0.15889571607112885,0.5189192295074463,0.0522003173828125,989.7992553710938,0,13.0,1,1
8.24,0.028386502999999997,-0.14677778,9.754182,-0.0007704879972152412,-0.0003637429908849299,0.0004178231465630233,-0.3479437828063965,27.81613922119141,-37.92401885986328,-0.17693206667900085,0.5163356661796571,0.038115501403808594,989.7992553710938,0,13.0,1,1
8.28,0.028356045,-0.14677706,9.761281,2.875326026696712e-05,-0.000363790662959218,0.00015163313946686685,-0.7235808372497559,26.8321533203125,-37.65458679199219,-0.1662096083164215,0.5182970762252808,0.04297542572021485,989.8126220703124,0,13.0,1,1
8.32,0.009206384,-0.14439294,9.777847999999999,-0.00010411119728814809,-0.00023068040900398046,1.86008692253381e-05,-0.5538992881774902,27.202232360839844,-38.47223281860352,-0.15099620819091794,0.5155140161514282,0.02889251708984375,989.7968139648438,0,13.0,1,1
8.36,0.033074915,-0.14439222,9.763641999999999,-0.0005032913177274168,-9.757009684108198e-05,-0.00024758913787081843,-0.7444748878479004,27.12928009033203,-38.66955184936523,-0.17325592041015625,0.5066226720809937,0.02907562255859375,989.82470703125,0,13.0,1,1
8.4,0.023484886,-0.14200822,9.773108500000001,-0.00023668205540161583,-0.0007634073845110834,0.0001520104706287384,-1.0265212059020996,27.233680725097656,-38.24727630615234,-0.1730901300907135,0.4956427216529846,0.02913188934326172,989.8070068359376,0,13.0,1,1
8.44,0.028234214,-0.14677396,9.768371,-0.00036954652750864636,0.0008344401721842588,-0.00024733762256801134,-0.6979517936706543,27.85762023925781,-38.64235305786133,-0.1674928367137909,0.5012059211730957,0.04349708557128906,989.8248901367188,0,13.0,1,1
8.48,0.018644183999999998,-0.1420067,9.777837,-0.00036925292806699867,0.0011007083812728524,0.00028542001382447785,-1.0180706977844238,27.50489044189453,-38.11048126220703,-0.15748324990272522,0.4859620928764343,0.02460193634033203,989.8583374023438,0,13.0,1,1
8.52,0.02578345,-0.15153912,9.775468,0.00136209384072572,-9.77606396190822e-05,-0.0001139279338531196,-0.7913804054260254,27.295448303222656,-37.67124938964844,-0.16659604012966156,0.5074009895324707,0.034165382385253906,989.8126220703124,0,13.0,1,1
8.56,0.029418588,-0.14680308,9.766113,0.00043028179788962007,0.001366928918287158,-0.0005132761434651911,-1.0753550529479978,27.872589111328125,-37.969200134277344,-0.16660457849502566,0.4952863156795502,0.04363346099853516,989.7947387695312,0,13.0,1,1
8.6,0.024659067000000003,-0.13965371,9.777951,0.00015971735410857946,-0.0008960661944001912,-0.00024878093972802157,-1.0173897743225098,27.24251937866211,-38.71110534667969,-0.1655580699443817,0.4969576895236969,0.024820327758789062,989.81005859375,0,13.0,1,1
8.64,0.022289455,-0.13965419,9.761382000000001,-0.0013126329286023974,-0.0004953565075993538,-0.0005183595349080862,-0.7891774177551271,27.03454971313477,-38.34918212890625,-0.1694507896900177,0.4896534085273743,0.024921417236328125,989.8121337890624,0,13.0,1,1
8.68,0.031869352000000004,-0.14680454,9.785055999999999,1.8750622984953225e-05,-9.585103543940932e-05,0.0004136621719226241,-0.9960589408874512,27.68344116210937,-37.97035217285156,-0.17340296506881714,0.4999557733535767,0.010868072509765623,989.8201904296876,0,13.0,1,1
8.72,0.034279525,-0.15157166,9.773223,-0.00038091879105195403,0.000969444285146892,1.4104472938925028e-05,-0.7354807853698729,27.03219985961914,-38.434303283691406,-0.16848412156105042,0.4939498901367188,0.029850006103515625,989.8075561523438,0,13.0,1,1
8.76,0.019960463,-0.14203903,9.766123,1.8359467503614724e-05,0.0007031601853668691,1.4020653907209635e-05,-0.7661881446838379,27.582862854003906,-38.38481140136719,-0.15310806035995486,0.4853136837482453,0.04419994354248047,989.8303833007812,0,13.0,1,1
8.8,0.015200913,-0.1539559,9.763757,-0.00011499416723381728,-9.575573494657874e-05,0.00041341062751598656,-1.1186957359313965,27.253108978271484,-38.85008239746094,-0.1530674695968628,0.4933908879756928,0.04898452758789063,989.8303833007812,0,13.0,1,1
8.84,0.017611146,-0.14442325,9.775595,-0.0002483477001078427,0.0016353292157873511,-0.000252462865319103,-0.8252921104431152,27.31694412231445,-38.59109497070313,-0.15729768574237826,0.4763972759246826,0.015941619873046875,989.82275390625,0,13.0,1,1
8.88,0.036750674,-0.15634018,9.770862,-0.00011538532271515578,0.0004369395319372416,-0.0003857046249322593,-1.0825819969177246,26.970703125,-38.60816955566406,-0.1609339416027069,0.4933252036571503,0.025498390197753903,989.822998046875,0,13.0,1,1
8.92,0.027211337999999998,-0.14442429,9.761394500000002,0.001082840608432889,-0.00102776603307575,-0.0003857884439639747,-0.7044754028320312,27.11367416381836,-38.058929443359375,-0.15513929724693298,0.4719071388244629,0.04926300048828125,989.8075561523438,0,13.0,1,1
8.96,0.015282124,-0.14919135,9.76613,0.00015053928655106574,3.752924385480583e-05,0.0005462332628667356,-1.0602726936340332,27.78139877319336,-38.04317092895508,-0.1545039862394333,0.4788668751716614,0.035152435302734375,989.81005859375,0,13.0,1,1
9.0,0.017692327,-0.15157512,9.770866999999999,-0.00011597217235248535,0.00030387687729671603,-0.0009185878443531693,-0.8684735298156738,27.22368621826172,-38.34803009033203,-0.1540732979774475,0.4764706492424011,0.030501365661621094,989.8207397460938,0,13.0,1,1
9.04,0.027272223999999998,-0.14919229999999997,9.751930999999999,0.00028330605709925294,0.0008365404210053384,0.0004129076260142028,-0.8354034423828125,26.93834686279297,-37.951507568359375,-0.15814141929149628,0.4642439484596253,0.05427169799804688,989.8023681640624,0,13.0,1,1
9.08,0.02729255,-0.14919284,9.768504,-0.0003826793399639428,3.762450069189072e-05,0.00014650789671577513,-0.475827693939209,27.643760681152344,-37.97121047973633,-0.157236248254776,0.4762347638607025,0.04015445709228516,989.8128662109376,0,13.0,1,1
9.12,0.017753214,-0.14919338,9.77324,0.0002829147852025926,-0.0002286596136400476,1.3266107998788355e-05,-0.5315899848937988,28.012924194335934,-37.90723419189453,-0.1375330090522766,0.4545350968837738,0.04024600982666016,989.8179931640624,0,13.0,1,1
9.16,0.029723017999999997,-0.14442727,9.766141000000001,-0.0003830704954452813,0.0008366357069462537,-0.00011997565161436798,-0.35267019271850586,27.285499572753906,-38.8160514831543,-0.15089063346385956,0.4613676071166992,0.04507732391357422,989.8359985351562,0,13.0,1,1
9.2,0.027353406,-0.14442775,9.775611,-0.00038326607318595046,-0.0011607017368078232,-0.000919007055927068,-0.8771691322326659,27.952903747558594,-38.15840911865234,-0.164503812789917,0.4537656605243683,0.02623844146728516,989.8182373046876,0,13.0,1,1
9.24,0.027373731000000002,-0.1491948,9.77798,-0.0011824093526229262,0.0005703833303414285,-0.0006527751102112234,-0.6914582252502441,27.38930511474609,-38.15404510498047,-0.15413033962249756,0.4608650207519531,0.012121200561523438,989.8159790039062,0,13.0,1,1
9.28,0.02261421,-0.14204547,9.789819,0.00041529029840603465,-9.537466394249351e-05,0.0005455624777823687,-0.7185783386230469,27.57462310791016,-38.16071319580078,-0.15303178131580353,0.4489860832691193,0.01694202423095703,989.80322265625,0,13.0,1,1
9.32,0.013074875,-0.14442929999999998,9.768516,-0.0002506949822418392,-0.0006279746303334832,-0.0002534690429456532,-0.6838479042053223,27.39666748046875,-38.54057312011719,-0.13358289003372192,0.4515239596366882,0.03595161437988281,989.8385620117188,0,13.0,1,1
9.36,0.02504468,-0.14442977,9.770883999999999,-0.0006505601922981441,-0.0006279111839830875,-0.00038679462159052486,-0.6827626228332521,26.66008758544922,-38.34366989135742,-0.15133973956108093,0.4526286125183106,0.026611328125,989.780517578125,0,13.0,1,1
9.4,0.02984479,-0.14204696,9.763784,-0.0006505601922981441,-0.0006279111839830875,-0.00038679462159052486,-0.6827626228332521,26.66008758544922,-38.34366989135742,-0.16057142615318298,0.4465658962726593,0.03612327575683594,989.780517578125,0,13.0,1,1
9.44,0.017915577,-0.14443073,9.770887,0.00028134981403127307,3.791034396272153e-05,1.2595381122082472e-05,-0.9206490516662598,27.227508544921875,-38.34021377563477,-0.15047462284564972,0.4440605342388153,0.02673625946044922,989.8084106445312,0,13.0,1,1
9.48,0.03227529,-0.14204797,9.768522,-0.00025147775886580353,0.0007037317845970392,-0.0006532781408168375,-0.6702880859375,27.30400848388672,-38.53723907470703,-0.14981645345687866,0.43701300024986267,0.03154563903808594,989.846435546875,0,13.0,1,1
9.52,0.027468592000000003,-0.14204732,9.768519,1.4642559108324347e-05,0.00017113178910221905,1.2427743058651684e-05,-0.5449051856994629,27.10515594482422,-38.23698806762695,-0.14405034482479095,0.4297257661819458,0.04583454132080078,989.84130859375,0,13.0,1,1
9.56,0.029828787000000002,-0.15157974,9.76615,-0.0007845006766729058,-0.0006277840584516525,1.2343924026936293e-05,-0.9402966499328612,27.31427764892578,-38.03432846069336,-0.14753401279449466,0.44025763869285583,0.04123401641845703,989.8490600585938,0,13.0,1,1
9.6,0.032235175,-0.13966367,9.759049000000001,-0.0010483301011845472,0.0008361799409613012,-0.0007885280065238477,-0.4164786338806152,26.90924835205078,-38.091346740722656,-0.15142662823200226,0.4191884696483612,0.0460357666015625,989.821044921875,0,13.0,1,1
9.64,0.022692055,-0.16588017,9.761419,0.00151797104626894,-0.001036094967275858,-0.0004152085748501122,-0.13886022567749026,26.90634155273437,-38.98078155517578,-0.13125832378864288,0.4595331251621246,0.036652565002441406,989.8514404296876,0,13.0,1,1
9.68,0.02748835,-0.1515809,9.76142,-0.00021324116096366202,-0.0006365953013300897,-1.580285606905818e-05,-0.4945507049560547,26.46772766113281,-38.592369079589844,-0.14993420243263245,0.4249588549137116,0.0414276123046875,989.8262329101562,0,13.0,1,1
9.72,0.025114954,-0.15873119,9.777991,-0.0006128738750703633,-0.0001039377457345836,0.00025044492213055486,-0.901681423187256,27.403118133544922,-38.04547500610352,-0.13964147865772247,0.4416764676570892,0.027298927307128903,989.8466186523438,0,13.0,1,1
9.76,0.022741556,-0.14681518,9.759056,0.0001859148469520733,2.9245980840642005e-05,0.0010493244044482708,-1.173616886138916,27.886119842529297,-38.262786865234375,-0.13838960230350494,0.4195341169834137,0.04160308837890625,989.8338012695312,0,13.0,1,1
9.8,0.020368159,-0.14204898,9.773261,0.0005852297763340175,-0.00023704409250058236,0.0002503086579963565,-1.0658173561096191,27.407215118408203,-37.635501861572266,-0.13279807567596436,0.4077779352664948,0.02747058868408203,989.8440551757812,0,13.0,1,1
9.84,0.0084350705,-0.15158251,9.770896,0.00018559691670816392,0.00016245557344518602,0.0005165564361959696,-0.6845297813415527,27.659046173095703,-37.93994140625,-0.12775680422782898,0.4291315674781799,0.051212310791015625,989.8388671875,0,13.0,1,1
9.88,0.025180936,-0.14681637,9.768529,0.0003185959649272263,-0.00023699252051301298,0.00011701451148837805,-1.2501668930053709,27.446067810058594,-38.84111785888672,-0.13659153878688812,0.4218725860118866,0.03235149383544922,989.8338623046876,0,13.0,1,1
9.92,0.015637815,-0.14205024,9.768531,-0.0012794584035873413,0.0008282968774437903,0.00025010426179505885,-1.1776399612426758,27.513412475585934,-37.93241882324219,-0.14075255393981936,0.40490663051605225,0.027696609497070312,989.88720703125,0,13.0,1,1
9.96,0.02282399,-0.13490078,9.768533,-0.00048066949239000683,2.937499812105671e-05,0.0005163521273061633,-1.2050585746765137,27.06658935546875,-38.363956451416016,-0.14488369226455688,0.3932852745056152,0.03249359130859375,989.8237915039062,0,13.0,1,1
10.0,0.008501053,-0.14205101,9.761433,-0.0004808285157196224,-0.0003700729866977781,0.00038312596734613186,-0.6877336502075195,27.12987518310547,-38.90928649902344,-0.1154666617512703,0.4010225534439087,0.05148601531982422,989.8338623046876,0,13.0,1,1
10.04,0.02285698,-0.1372849,9.763802,0.0007174339261837304,0.00016258459072560072,0.00038305783527903264,-1.0211138725280762,27.50194549560547,-37.95587158203125,-0.13851043581962585,0.3988860547542572,0.046817779541015625,989.8388671875,0,13.0,1,1
10.08,0.039602757,-0.14920166,9.773271000000001,0.0008504329598508775,-0.00010370552627136932,0.00038298976141959434,-1.3687586784362793,27.808746337890625,-38.228187561035156,-0.14691585302352905,0.4156573116779328,0.02321910858154297,989.84716796875,0,13.0,1,1
10.12,0.02527985,-0.13728568,9.75907,-0.00034814741229638463,-0.0005031535401940347,0.00038292162935249513,-0.9923343658447266,27.424015045166016,-38.7255859375,-0.1371568739414215,0.3957175314426422,0.056384086608886726,989.8443603515624,0,13.0,1,1
10.16,0.030076146,-0.1349028,9.7803755,-8.199045259971172e-05,-0.00010365398338763045,0.0002496956149116158,-0.7894225120544434,28.03497695922852,-38.022762298583984,-0.14109104871749878,0.3874556720256805,0.03281116485595703,989.8115234375,0,13.0,1,1
10.2,0.025312841000000003,-0.1539694,9.768541,-0.0007479391642846168,0.00016268776380456984,-0.0008156360709108412,-1.115354061126709,27.88819122314453,-38.5798225402832,-0.1306765079498291,0.3947524130344391,0.047080039978027344,989.8446044921876,0,13.0,1,1
10.24,0.025329351,-0.15158662,9.759074,0.0001840074983192608,0.00042902948916889727,-1.675653038546443e-05,-0.8169784545898438,27.48224258422852,-37.755218505859375,-0.13521286845207214,0.3982110321521759,0.032912254333496094,989.8419799804688,0,13.0,1,1
10.28,0.020566016,-0.1444371,9.770911,-0.00034878327278420335,-0.0002367344859521836,0.00011633330723270774,-0.6362385749816895,27.388427734375,-38.31647109985352,-0.12488621473312378,0.3914066553115845,0.03770542144775391,989.8697509765624,0,13.0,1,1
10.32,0.020582496999999998,-0.14682081,9.763812,-8.262631308753043e-05,-0.0005030244938097893,-0.0004163666744716466,-0.7466773986816406,27.39018249511719,-37.99161911010742,-0.1189812421798706,0.3940033912658691,0.03777313232421875,989.8348388671876,0,13.0,1,1
10.36,0.0182091,-0.14443794,9.770914999999999,-0.00021610218391288072,-0.0006361309206113219,-0.00041650288039818406,-1.5237627029418943,27.82168197631836,-38.28204345703125,-0.12241407483816147,0.3808710873126984,0.028405189514160163,989.822021484375,0,13.0,1,1
10.4,0.027785182000000002,-0.14205510000000002,9.766181,-0.00021610218391288072,-0.0006361309206113219,-0.00041650288039818406,-1.5237627029418943,27.82168197631836,-38.28204345703125,-0.14121802151203156,0.3843653202056885,0.028440475463867188,989.822021484375,0,13.0,1,1
10.44,0.025411785,-0.14205548,9.773286,0.0001830535911722109,2.9710492526646703e-05,0.0009149402612820268,-0.6392827033996582,27.385482788085934,-38.161865234375,-0.12582719326019287,0.3861832618713379,0.042724609375,989.8372192382812,0,13.0,1,1
10.48,0.027818142999999997,-0.15158898,9.782756,0.0001830535911722109,2.9710492526646703e-05,0.0009149402612820268,-0.6392827033996582,27.385482788085934,-38.161865234375,-0.12544959783554074,0.3900315761566162,0.02854633331298828,989.8372192382812,0,13.0,1,1
10.52,0.02066499,-0.14443955,9.770921000000001,0.0003160528722219169,-0.0005028955056332052,0.0002490825136192143,-0.9131765365600586,27.12895965576172,-38.02766418457031,-0.12482750415802002,0.36871394515037537,0.02387237548828125,989.8549194335938,0,13.0,1,1
10.56,0.03263098,-0.14205667,9.775657,-0.0004830537945963441,0.0006955517455935477,0.00011585647007450459,-0.6975464820861816,27.38341522216797,-37.844825744628906,-0.13366827368736267,0.3855292797088623,0.033400535583496094,989.8346557617188,0,13.0,1,1
10.6,0.027867675,-0.13490728,9.756721,0.00018506306514609605,-0.0001032244399539195,0.0009082636097446084,-0.7241234779357909,27.200439453125,-37.75303649902344,-0.1279190480709076,0.3731175065040589,0.04767990112304688,989.847412109375,0,13.0,1,1
10.64,0.025494277000000003,-0.15159065,9.7709255,0.0005843779654242097,0.0004294330719858408,-0.0002902259584516287,-0.8410549163818359,27.670509338378906,-37.91649627685547,-0.12222576886415483,0.3807514905929565,0.03352928161621094,989.8302001953124,0,13.0,1,1
10.68,0.027900636,-0.14205787,9.780395500000001,-8.15705134300515e-05,-0.000902120431419462,-0.0005566100007854402,-0.7596945762634277,27.11454772949219,-37.89649963378906,-0.12634727358818054,0.36911672353744507,0.024115562438964844,989.847412109375,0,13.0,1,1
10.72,0.015967666999999998,-0.14444163,9.766194,-8.15705134300515e-05,-0.000902120431419462,-0.0005566100007854402,-0.7596945762634277,27.11454772949219,-37.89649963378906,-0.10218369960784912,0.3777090907096863,0.05254554748535156,989.847412109375,0,13.0,1,1
10.76,0.015984058,-0.1539751,9.763829,-0.00034820433938875794,-0.00010312120866728948,0.00010904349619522692,-0.6517567634582521,26.74156188964844,-37.96829223632813,-0.10599105805158617,0.37937861680984497,0.04315471649169922,989.8455200195312,0,13.0,1,1
10.8,0.013610721000000001,-0.1468257,9.766197,-0.00034820433938875794,-0.00010312120866728948,0.00010904349619522692,-0.6517567634582521,26.74156188964844,-37.96829223632813,-0.12473423779010773,0.3736274838447571,0.03371143341064453,989.8455200195312,0,13.0,1,1
10.84,0.020796895,-0.15397593,9.766198,-8.220637391787021e-05,0.0005627200589515269,0.00010890729026868941,-0.6443915367126465,27.749351501464844,-38.02839660644531,-0.12421546131372453,0.3668334186077118,0.04323005676269531,989.820068359375,0,13.0,1,1
10.88,0.032762885,-0.14682648,9.7662,-8.220637391787021e-05,0.0005627200589515269,0.00010890729026868941,-0.6443915367126465,27.749351501464844,-38.02839660644531,-0.12354783713817595,0.3554714322090149,0.05274391174316406,989.820068359375,0,13.0,1,1
10.92,0.025609672000000003,-0.14921018,9.768569,0.0003171085263602436,-0.0003693597100209445,0.0005083128926344216,-1.0968232154846191,27.325740814208984,-38.01087951660156,-0.12271936982870102,0.36755305528640747,0.04333209991455078,989.8303833007812,0,13.0,1,1
10.96,0.032795846000000003,-0.14444402,9.775672,-0.0004819980240426958,-0.0006356497760862112,-2.438691444694996e-05,-0.901681423187256,27.403114318847656,-38.04547500610352,-0.12691146135330197,0.3608309030532837,0.02444076538085937,989.8276977539062,0,13.0,1,1
11.0,0.020862877,-0.14921096,9.778041,0.0001836326700868085,0.00042963953455910087,0.0001087028649635613,-1.1525845527648926,27.694908142089844,-37.9468994140625,-0.11199790984392166,0.3681941032409668,0.019758224487304688,989.83544921875,0,13.0,1,1
11.04,0.028049052,-0.14444482,9.763839,-0.0002160002914024517,0.00016334946849383414,0.0003749505849555135,-0.8681750297546387,27.855823516845703,-37.92315673828125,-0.13047143816947934,0.3427401781082153,0.038735389709472656,989.8330078125,0,13.0,1,1
11.08,0.03045547,-0.14682853,9.768575,0.0004496307228691876,3.0217321182135493e-05,-0.0004240651032887399,-0.8976588249206543,27.77582550048828,-38.37583923339844,-0.12015200406312945,0.3500120639801025,0.048256874084472656,989.8051147460938,0,13.0,1,1
11.12,0.028082073,-0.15636209,9.761475,-0.0007489497656933963,-0.00010291477519785984,-0.00015781738329678774,-0.8485274314880371,27.769058227539066,-38.22904968261719,-0.11949505656957625,0.3720911741256714,0.04356670379638672,989.8482666015624,0,13.0,1,1
11.16,0.018538922,-0.15159586,9.7614765,0.0006241245428100227,-0.0003779425169341266,0.0009272646275348961,-0.5433831214904785,27.10662841796875,-38.31429290771485,-0.09948336333036424,0.36496847867965704,0.05309009552001953,989.8330078125,0,13.0,1,1
11.2,0.028115034,-0.14444643,9.76858,-0.0012402456486597655,-0.0002447587030474096,-0.0002712249988690019,-1.2592988014221191,27.43723297119141,-38.37728500366211,-0.12301049381494522,0.3437318205833435,0.015261650085449219,989.8658447265624,0,13.0,1,1
11.24,0.0233517,-0.14206356,9.775682000000002,-0.00044145699939690525,0.0002878987579606473,0.00012818071991205215,-1.0994305610656738,28.06085205078125,-38.13047409057617,-0.11746003478765488,0.3419823944568634,0.02950763702392578,989.843505859375,0,13.0,1,1
11.28,0.0114187,-0.14444727,9.780417,0.0003573318535927683,-0.00024470718926750124,0.0006607443792745472,-0.9101324081420898,27.13190460205078,-38.182273864746094,-0.10277676582336426,0.3356606364250183,0.029541015625,989.8406982421876,0,13.0,1,1
11.32,0.013825058999999999,-0.13491455,9.775685000000001,0.0006234887987375258,0.0009537400910630822,0.0002612024254631251,-0.7688269615173341,27.105712890625,-37.43267059326172,-0.09743598103523254,0.3241540789604187,0.03905296325683594,989.8228759765624,0,13.0,1,1
11.36,0.018621385,-0.13968149,9.778054,-0.0004419337201397866,-0.0007772873505018651,-0.0005378132918849587,-0.4716973304748535,26.91012191772461,-37.92891693115234,-0.11099079996347427,0.3318312466144562,0.029626846313476562,989.805419921875,0,13.0,1,1
11.4,0.028197438,-0.15874818,9.763852,0.00022369695943780243,-0.00024462974397465587,0.00012790822074748576,-0.6719479560852051,27.196617126464844,-37.76085662841797,-0.11997002363204955,0.35396242141723633,0.02493000030517578,989.8359985351562,0,13.0,1,1
11.44,0.018654376,-0.14444885,9.775689999999999,0.0002235380525235087,0.0002880278043448925,-0.0002716336748562753,-0.9092917442321776,27.395751953125,-37.65895080566406,-0.1052672266960144,0.33765512704849243,0.029705047607421875,989.8530883789062,0,13.0,1,1
11.48,0.023450642999999997,-0.14444926,9.773324,-0.00017609467613510787,2.1737749193562195e-05,0.0010598775697872043,-0.9779329299926758,27.595203399658203,-38.19893646240234,-0.10471893101930617,0.3265038728713989,0.029740333557128906,989.8536376953124,0,13.0,1,1
11.52,0.015815377,-0.15397096,9.768548,0.0006226940313354135,2.176353518734686e-05,-0.00027176993899047375,-0.6704258918762207,27.19808959960937,-37.838157653808594,-0.10355891287326813,0.3482551574707031,0.04403114318847656,989.8381958007812,0,13.0,1,1
11.56,0.027762382999999998,-0.1396713,9.773280999999999,0.00036076366086490447,-0.0009110539685934783,0.0003958992601837963,-0.7607803344726562,27.85112762451172,-38.093406677246094,-0.09750069677829742,0.3264602422714233,0.029891014099121094,989.8435668945312,0,13.0,1,1
11.6,0.018200219,-0.14920428,9.768546,0.00036076366086490447,-0.0009110539685934783,0.0003958992601837963,-0.7607803344726562,27.85112762451172,-38.093406677246094,-0.0971025377511978,0.3395511507987976,0.02991771697998047,989.8435668945312,0,13.0,1,1
11.64,0.022977531000000002,-0.13728783,9.775648,-0.0007044755620881915,2.1047624613856893e-05,0.00012959385639987886,-0.6001248359680176,27.10603332519531,-38.074562072753906,-0.10623534768819808,0.3190155029296875,0.02994823455810547,989.8335571289062,0,13.0,1,1
11.68,0.025364876,-0.13967103,9.778016000000001,0.0004939704667776823,-0.00011211424134671687,0.0006622361252084374,-0.37688398361206055,27.367847442626953,-38.27824783325195,-0.0955967828631401,0.3267544209957123,0.02525615692138672,989.8463134765624,0,13.0,1,1
11.72,0.02775222,-0.13967100000000002,9.77328,0.00022767906193621454,-0.0013105397811159492,-3.543158527463674e-06,-0.4734644889831543,27.909076690673828,-37.52519226074219,-0.104387067258358,0.3203338980674744,0.03949642181396485,989.8084106445312,0,13.0,1,1
11.76,0.027749717,-0.14682075,9.766178,-3.8612488424405456e-05,0.00015419366536661985,-3.532622940838337e-06,-0.5530581474304199,27.466079711914066,-37.94891357421875,-0.10861109942197801,0.3235352039337158,0.04426383972167969,989.8211669921876,0,13.0,1,1
11.8,0.022967339,-0.15397054,9.768546,0.000627201865427196,-0.0005116000538691878,0.00012963588233105838,-0.5574865341186523,27.56758117675781,-38.41607666015625,-0.10806917399168016,0.3316187262535095,0.02535629272460937,989.8567504882812,0,13.0,1,1
11.84,0.04208398,-0.14443734,9.768546,0.0007603841368108988,0.0005536595708690584,0.0003959621826652437,-1.0141854286193848,27.771686553955078,-37.74176788330078,-0.1262529194355011,0.32044345140457153,0.02539348602294922,989.8389282226562,0,13.0,1,1
11.88,0.018182486,-0.13967076,9.778014,0.00022777685080654916,-0.0009110817918553947,0.0005291305715218186,-1.278947353363037,27.52399826049805,-38.0713996887207,-0.08714227378368378,0.3137105107307434,0.03963947296142578,989.8388671875,0,13.0,1,1
11.92,0.025349617,-0.14443722,9.770911,-0.00030483046430163085,-0.0006447698688134551,-0.0004029646515846253,-0.7321381568908691,27.66728210449219,-38.16404342651367,-0.10107378661632538,0.31657499074935913,0.04441070556640625,989.8518676757812,0,13.0,1,1
11.96,0.025347114,-0.15873685,9.773278,0.0006273239850997925,0.00015416987298522145,-3.469758667051792e-06,-0.8434185981750488,27.40518951416016,-38.36251068115234,-0.0956813246011734,0.3190211653709412,0.03972053527832031,989.8541870117188,0,13.0,1,1
12.0,0.018174887,-0.15397024,9.782748,0.0006273239850997925,0.00015416987298522145,-3.469758667051792e-06,-0.8434185981750488,27.40518951416016,-38.36251068115234,-0.10037058591842653,0.3230465352535248,0.020795822143554688,989.8541870117188,0,13.0,1,1
12.04,0.020562232,-0.14205378,9.775644999999999,0.0006273484323173761,0.0008199555450119077,0.0002628565998747945,-0.8003754615783691,27.39252853393555,-37.906497955322266,-0.0997973531484604,0.3070555329322815,0.03503227233886719,989.8365478515624,0,13.0,1,1
12.08,0.027729422000000004,-0.14920357,9.749606,9.474102989770472e-05,-0.0005116277607157826,0.00012970910756848752,-0.4405550956726074,27.097511291503906,-38.25262069702149,-0.0988907516002655,0.3099424242973328,0.06347846984863281,989.7962036132812,0,13.0,1,1
12.12,0.018167257,-0.14443687,9.775644999999999,-0.0005710241384804249,-0.0006447896594181657,0.000795509316958487,-0.5500140190124512,27.46902847290039,-38.10352325439453,-0.08381316810846329,0.3126913905143738,0.0351104736328125,989.8318481445312,0,13.0,1,1
12.16,0.018164724,-0.14443687,9.768544,-0.0007041576318442823,-0.00011216186976525933,-3.4278491511940965e-06,-0.7922220230102539,27.03160095214844,-38.19457244873047,-0.11163471639156343,0.2967844605445862,0.025674819946289062,989.8370971679688,0,13.0,1,1
12.2,0.03011173,-0.14443675,9.773278,0.0003611302527133376,-0.000378481752704829,0.0007955302717164159,-0.6760773658752441,27.93025207519531,-37.80314636230469,-0.11593503504991533,0.3037586808204651,0.03518867492675781,989.8419799804688,0,13.0,1,1
12.24,0.034888953,-0.16111973,9.77091,-3.8319005398079746e-05,2.098810728057288e-05,0.00012975101708434522,-0.5337090492248535,26.74717712402344,-38.67967224121094,-0.10118699818849564,0.3219762146472931,0.035205841064453125,989.8218383789062,0,13.0,1,1
12.28,0.020547032,-0.14920321,9.773277,9.4863265985623e-05,0.00015414212248288095,-0.0006691862363368273,-0.7145552635192871,27.94733047485352,-38.49107360839844,-0.10011859983205797,0.3015637397766113,0.03523540496826172,989.8419189453124,0,13.0,1,1
12.32,0.015764654,-0.14205337,9.749605,0.0008938353275880216,-0.0011774413287639618,0.00012977197184227407,-0.7651019096374512,26.84628295898437,-38.18790817260742,-0.09002188593149185,0.3047269284725189,0.05893707275390625,989.8623046875,0,13.0,1,1
12.36,0.01576209,-0.14443654,9.749604,0.000361228157998994,-0.0002453396446071565,0.00039609835948795086,-0.7315950393676758,27.298992156982425,-38.065589904785156,-0.09912660717964172,0.3079895377159119,0.04949378967285156,989.8421630859376,0,13.0,1,1
12.4,0.025319219,-0.15396968,9.761439999999999,-3.822133294306696e-05,2.0972260244889185e-05,0.0005292667774483562,-0.7400469779968262,27.02778244018555,-38.202392578125,-0.09875380992889404,0.3062829077243805,0.03532123565673828,989.8193359375,0,13.0,1,1
12.44,0.010977209,-0.14443642,9.759072,-0.00017135470989160242,0.00042044208385050297,0.0001298034330829978,-0.7426543235778809,27.76288604736328,-38.32198333740234,-0.08373597264289856,0.2989267706871033,0.04483413696289063,989.8648681640624,0,13.0,1,1
12.48,0.011101425,-0.14682278,9.756717,-3.817220567725599e-05,-0.0009111412800848484,0.00012981388135813177,-0.7971930503845215,27.50138854980469,-38.76018524169922,-0.0835452675819397,0.28298699855804443,0.035369873046875,989.8546752929688,0,13.0,1,1
12.52,0.013623178,-0.14205942,9.773299,-0.00030446387245319784,0.0010862238705158234,-3.333552740514278e-06,-0.6117262840270996,27.938217163085934,-38.42940521240234,-0.083138108253479,0.2824056148529053,0.030646324157714844,989.8475341796876,0,13.0,1,1
12.56,0.008850992,-0.14920941,9.763832,0.0003597289032768458,-0.0005118599510751665,-0.000272593111731112,-0.5091958045959473,27.29696273803711,-38.7926025390625,-0.07722076773643494,0.2892121970653534,0.05436515808105469,989.8324584960938,0,13.0,1,1
12.6,0.011248468999999999,-0.14920965,9.7662,-0.000306134024867788,-0.0005118480767123401,-0.000938414188567549,-0.9896726608276368,28.32147216796875,-37.85469818115234,-0.07688810676336287,0.2934182286262512,0.035437583923339844,989.8472290039062,0,13.0,1,1
12.64,0.013646007,-0.13729337,9.763833,0.0006258980138227344,-0.0011776259634643793,0.0010589233133941887,-0.7130331993103027,27.94880676269531,-38.5683822631836,-0.07203184813261032,0.28722286224365234,0.04019355773925781,989.8246459960938,0,13.0,1,1
12.68,0.013653606,-0.14206019,9.766202,0.0005659377202391624,0.0012603267095983028,-0.00016272396896965802,-0.661837100982666,27.575218200683594,-38.40044403076172,-0.09070684760808943,0.2803533673286438,0.03549003601074219,989.8324584960938,0,13.0,1,1
12.72,0.018441021000000002,-0.14921021,9.759099,0.0001663902949076146,-0.0002043988788500428,-0.0004290712240617722,-0.934208869934082,27.320167541503906,-38.34354782104492,-0.08564838767051698,0.29867467284202576,0.05444049835205078,989.8529663085938,0,13.0,1,1
12.76,0.01844865,-0.14921036,9.756733,0.00029947477742098266,0.0007277186377905308,0.0013019505422562359,-0.8691544532775879,27.48606109619141,-37.74740219116211,-0.0854702889919281,0.28278279304504395,0.04499530792236328,989.8449096679688,0,13.0,1,1
12.8,0.032795668,-0.14444402,9.766204,-0.00023323009372688833,0.00019509882258716968,-0.00016281826538033783,-0.37329721450805664,27.00250244140625,-38.33440780639648,-0.0945647805929184,0.2814220786094665,0.03554630279541016,989.8550415039062,0,13.0,1,1
12.84,0.023243666,-0.15397729999999998,9.782775,0.0010982757667079568,0.00019511071150191128,-0.0005623234901577233,-0.7833347320556641,28.04086303710937,-38.33198165893555,-0.07482439279556274,0.2945144772529602,0.016628265380859375,989.8300170898438,0,13.0,1,1
12.88,0.030420989,-0.15159425,9.782775,0.000698728603310883,-0.0002043512649834156,-0.0004291970690246672,-0.9728236198425292,27.23133087158203,-38.3323974609375,-0.08876533061265945,0.2786728143692017,0.03085613250732422,989.8123779296876,0,13.0,1,1
12.92,0.030428588,-0.14444453,9.763839,-0.00010029229451902212,6.197657785378398e-05,0.0003697191423270851,-1.59849214553833,28.015239715576172,-38.5128059387207,-0.10272419452667236,0.28186458349227905,0.03561210632324219,989.8250732421876,0,13.0,1,1
12.96,0.032826126000000004,-0.14444476,9.761472,-0.00010036563617177309,0.0007277781842276454,-0.00016294405213557184,-0.9538569450378418,27.40693664550781,-38.03765869140625,-0.09719346463680267,0.2660372853279114,0.04983997344970703,989.8276977539062,0,13.0,1,1
13.0,0.02805391,-0.15159479,9.78041,0.0004321926680859178,-0.0004706312902271748,-2.981754369102418e-05,-0.6181130409240723,27.30018615722656,-38.5450553894043,-0.09684522449970244,0.2834914922714233,0.02145576477050781,989.81494140625,0,13.0,1,1
13.04,0.013722122,-0.13967857,9.78041,-0.00036682820064015687,0.00032832822762429714,0.00010330896475352347,-0.8395333290100098,27.671977996826172,-37.99380111694336,-0.06760960072278976,0.2585577368736267,0.030942916870117188,989.8427734375,0,13.0,1,1
13.08,0.032848954,-0.15397850000000002,9.773309,0.0008315197192132473,-7.113366154953836e-05,-0.00042935428791679437,-0.8323593139648438,26.94129180908203,-38.106117248535156,-0.09131088852882384,0.2712995409965515,0.040431976318359375,989.8206787109376,0,13.0,1,1
13.12,0.011347443,-0.16112843,9.77331,-0.00036697523319162434,0.00032835200545378035,-0.00029622777947224677,-0.5007452964782715,27.56817626953125,-38.65580749511719,-0.07184873521327972,0.29294857382774353,0.026258468627929688,989.8206176757812,0,13.0,1,1
13.16,0.03764397,-0.15874541,9.761476,-0.0010328380158171058,6.204799865372479e-05,-2.9943301342427727e-05,-0.5608286857604979,26.9324951171875,-38.68634033203125,-0.10462586581707,0.2821394503116608,0.045215606689453125,989.82568359375,0,13.0,1,1
13.2,0.030481875,-0.14921239,9.778047,0.0004317523853387684,-0.000337401928845793,0.0006357834208756684,-0.4290595054626465,27.37167358398437,-38.27043533325195,-0.08461299538612366,0.2751467227935791,0.03577709197998047,989.8352661132812,0,13.0,1,1
13.24,0.020929903,-0.13729623,9.763843,0.0004317523853387684,-0.000337401928845793,0.0006357834208756684,-0.4290595054626465,27.37167358398437,-38.27043533325195,-0.074861541390419,0.2508041262626648,0.04525470733642578,989.8352661132812,0,13.0,1,1
13.28,0.025717318,-0.1396797,9.773313,0.00016536327893845734,-7.10741151124239e-05,-0.0002963535080198198,-1.1797051429748535,27.880226135253906,-37.95356750488281,-0.07909829169511795,0.2587930262088776,0.04527568817138672,989.8357543945312,0,13.0,1,1
13.32,0.025724918,-0.14921299,9.75911,-0.0002341838844586164,-0.0003373781219124794,-3.006908809766173e-05,-0.7592587471008301,27.85260009765625,-38.17070770263672,-0.08781268447637558,0.2574300765991211,0.04529571533203125,989.818115234375,0,13.0,1,1
13.36,0.025732517000000003,-0.15874633,9.775681500000001,0.0001652164792176336,-0.0010031559504568577,0.00010305744945071638,-0.8796706199645996,27.58167266845703,-37.90534210205078,-0.0919787585735321,0.2754032015800476,0.03110980987548828,989.830810546875,0,13.0,1,1
13.4,0.028130025,-0.13968024,9.761479,0.0012304068077355625,-0.00047051225556060666,-0.00016328992205671966,-0.9152417182922364,27.49577331542969,-38.04880905151367,-0.09127543866634368,0.25477421283721924,0.0453338623046875,989.8485717773438,0,13.0,1,1
13.44,0.028137624,-0.14683029,9.775683,-0.000101246201666072,-0.00033734238240867853,-0.00042963729356415564,-0.9092907905578612,27.395751953125,-37.65895080566406,-0.08118727803230286,0.24883686006069186,0.04534912109375,989.8232421875,0,13.0,1,1
13.48,0.024034798,-0.14923021,9.77101,0.0002981542784254998,-0.0002041725383605808,-3.0194874852895733e-05,-0.6770567893981934,27.56049346923828,-37.62739181518555,-0.06678391993045807,0.25698450207710266,0.05004119873046875,989.8335571289062,0,13.0,1,1
13.52,0.028848886,-0.14684775,9.780482000000001,-0.00010377613944001497,-0.0004700896679423749,0.0006345419678837062,-0.5032458305358887,27.19693756103516,-38.402748107910156,-0.09503965079784392,0.2603572607040405,0.021650314331054688,989.8108520507812,0,13.0,1,1
13.56,0.02888313,-0.14923185,9.756814,0.00029403530061244965,0.0004591058823280037,-0.00030256618629209697,-0.8185009956359863,27.480770111083984,-37.67791366577149,-0.09472709894180298,0.2588883340358734,0.06427478790283203,989.8311157226562,0,13.0,1,1
13.6,0.028917372,-0.14446613,9.773388,0.00029403530061244965,0.0004591058823280037,-0.00030256618629209697,-0.5686831474304199,27.925556182861328,-37.973388671875,-0.08970464766025542,0.2431543171405792,0.02167987823486328,989.8311157226562,0,13.0,1,1
13.64,0.026561737000000002,-0.15161678,9.761553999999999,-0.00023892663011793047,0.0001928436104208231,-0.000569023541174829,-0.6983876228332521,27.11956787109375,-38.36814880371094,-0.08012495934963226,0.2561330795288086,0.059567451477050774,989.8258056640624,0,13.0,1,1
13.68,0.021816194,-0.14923438,9.768659,-0.00010609884338919072,0.0008586868643760681,9.662465890869498e-05,-0.3191637992858887,27.73821258544922,-38.6937370300293,-0.0840601921081543,0.2445134222507477,0.031183242797851562,989.8435668945312,0,13.0,1,1
13.72,0.021850377,-0.15400179999999997,9.7733965,2.6728943339549005e-05,-0.00033968099160119886,-3.667478449642658e-05,-0.4229717254638672,27.3775634765625,-38.57965087890625,-0.0646776407957077,0.24796369671821594,0.0406646728515625,989.8285522460938,0,13.0,1,1
13.76,0.024274588,-0.13493636,9.759197,-0.00010675903467927128,0.0001930043799802661,-0.00056944799143821,-0.5686831474304199,27.925559997558594,-37.973392486572266,-0.0789826437830925,0.24276065826416016,0.05013561248779297,989.8060913085938,0,13.0,1,1
13.8,0.026698708999999998,-0.13970378,9.771035000000001,0.0014908062294125555,0.0005925317527726293,-3.695770283229649e-05,-0.5374331474304199,27.0066032409668,-37.92443084716797,-0.08352610468864441,0.23696461319923398,0.05014419555664063,989.8262939453124,0,13.0,1,1
13.84,0.033902675,-0.14447114,9.761569999999999,0.0005583703750744462,0.0004594274796545506,-0.000303415086818859,-0.9182853698730468,27.492828369140625,-37.89419555664063,-0.09282152354717256,0.24039079248905185,0.05489063262939453,989.803466796875,0,13.0,1,1
13.88,0.017207623000000002,-0.14447197,9.768675,-0.00010774937982205302,0.00019316516409162432,-3.724070847965777e-05,-0.7722759246826172,27.57697296142578,-38.07558822631836,-0.07321546226739882,0.2390437722206116,0.04543590545654297,989.8389282226562,0,13.0,1,1
13.92,0.017241836,-0.16115579,9.780513000000001,2.5078290491364896e-05,0.0003263766702730209,0.00022893369896337393,-1.0933432579040527,28.06674194335937,-38.43969345092773,-0.07335683703422546,0.2565041184425354,0.026510238647460938,989.8365478515624,0,13.0,1,1
13.96,0.024445832,-0.1444737,9.749742999999999,-0.0005078832618892193,0.0008590620127506554,-0.000836471328511834,-0.4906649589538574,26.734516143798828,-38.22365951538086,-0.07301892340183258,0.2502724826335907,0.054927825927734375,989.81103515625,0,13.0,1,1
14.0,0.019700289,-0.15877423,9.761582,0.0002907338785007596,0.0004596418584696949,9.549281094223261e-05,-0.7988529205322266,27.39399719238281,-37.983802795410156,-0.07772456109523773,0.23975881934165955,0.040732383728027344,989.8238525390624,0,13.0,1,1
14.04,0.029294132999999997,-0.15162522,9.773421,0.0006898778956383468,0.0003265374689362943,9.535130811855197e-05,-0.2628588676452637,27.000751495361328,-38.65925979614258,-0.07737524807453157,0.2478654533624649,0.05021381378173828,989.8340454101562,0,13.0,1,1
14.08,0.019768775,-0.13970962,9.780526,2.375767508056015e-05,0.0004597489605657756,-3.794807707890868e-05,-0.7610793113708496,27.218994140625,-38.51827239990234,-0.07226073741912843,0.23236119747161865,0.04548931121826172,989.8213500976562,0,13.0,1,1
14.12,0.029362619,-0.15162688,9.766326,0.00028974376618862147,-7.282914884854108e-05,-0.0001712475495878607,-0.8168406486511229,27.588157653808594,-38.45429992675781,-0.08620443940162659,0.24077872931957245,0.04076385498046875,989.8265380859376,0,13.0,1,1
14.16,0.027006983999999998,-0.1468612,9.771063999999999,0.0005557292606681585,-7.277559780050069e-05,-0.0008371787844225763,-1.0897560119628906,27.701400756835934,-38.495849609375,-0.08591897785663605,0.2347573637962341,0.036040306091308594,989.8291015625,0,13.0,1,1
14.2,0.024651318999999998,-0.14209548,9.773435000000001,-0.0005941020208410919,-0.00019478674221318212,-0.0007361862808465957,-0.7075190544128418,27.11072540283203,-37.90431594848633,-0.08993123471736908,0.2277470827102661,0.031325340270996094,989.8545532226562,0,13.0,1,1
14.24,0.02707547,-0.14447957,9.7687025,-0.0005941020208410919,-0.00019478674221318212,-0.0007361862808465957,-0.7075190544128418,27.11072540283203,-37.90431594848633,-0.08009748160839081,0.22229060530662534,0.03606510162353516,989.8545532226562,0,13.0,1,1
14.28,0.031889558,-0.14448044,9.778174,-0.00046127373934723437,-0.0001947331620613113,0.00046209368156269187,-0.4797129631042481,27.37696075439453,-38.33992004394531,-0.08454473316669464,0.2254685461521149,0.050281524658203125,989.8165893554688,0,13.0,1,1
14.32,0.0223642,-0.13971469,9.768709,-0.0009942360920831561,7.163632835727185e-05,-0.00020383749506436288,-0.9278230667114258,27.95819854736328,-38.22789764404297,-0.0746157243847847,0.2237979769706726,0.03608989715576172,989.7914428710938,0,13.0,1,1
14.36,0.041517645,-0.14448208,9.768711999999999,-0.0007282498409040272,0.00020484786364249882,-0.0003371367638465017,-0.1395406723022461,27.168716430664066,-38.38015747070313,-0.08868087083101273,0.236526221036911,0.036102294921875,989.8220825195312,0,13.0,1,1
14.4,0.029602407999999997,-0.13494983,9.768715,-0.0007285803440026939,0.0003380593843758106,-0.0006035942351445557,-0.2604951858520508,27.266075134277344,-38.21324920654297,-0.07875338196754456,0.20677530765533447,0.05504894256591797,989.8220825195312,0,13.0,1,1
14.44,0.026806712000000003,-0.13732317,9.778148,0.0003363534051459282,7.17971270205453e-05,-0.0003374198859091848,-0.7919239997863771,27.66374206542969,-37.76970291137695,-0.07832279801368712,0.21521644294261927,0.031383514404296875,989.8348388671876,0,13.0,1,1
14.48,0.021594465,-0.14446238,9.766272,0.00020286494691390544,7.185070717241615e-05,-0.0002044033899437636,-0.9905142784118652,28.05762481689453,-38.378021240234375,-0.07240520417690277,0.22331395745277405,0.04567813873291016,989.819580078125,0,13.0,1,1
14.52,0.028762937000000002,-0.14446244,9.771007,-0.000454383814940229,0.00046935604768805206,0.0003289120213594288,-0.6533856391906738,27.84642791748047,-38.26364517211914,-0.07077182829380035,0.2430759370326996,0.031477928161621094,989.8193969726562,0,13.0,1,1
14.56,0.02398184,-0.14207897,9.771007,0.0054066721349954605,-0.003525723703205585,-0.0010017647873610258,-0.7533082962036133,27.75257873535156,-37.780845642089844,-0.07551062107086183,0.22221598029136655,0.036225318908691406,989.8193969726562,0,13.0,1,1
14.6,0.023980558,-0.14922884,9.775739999999999,-0.002715950366109609,0.0015342757105827332,0.0005961358547210692,-0.017201900482177734,26.9669189453125,-37.92529296875,-0.07100707292556763,0.21474221348762512,0.03624629974365234,989.9515991210938,0,13.0,1,1
14.64,0.012029767,-0.14207899999999998,9.768638000000001,-0.0029822539072483782,0.001401115907356143,0.00019666724256239831,-0.3768844604492188,27.36785125732422,-38.27825164794922,-0.06099550053477287,0.21331839263439176,0.036258697509765625,989.7131958007812,0,13.0,1,1
14.68,0.021588117,-0.14207897,9.778108,-0.0005853986949659884,-0.00019678150420077142,0.00019667245214805007,-0.5280027389526367,27.64757537841797,-37.96339416503906,-0.06032659485936165,0.2181213051080704,0.01732349395751953,989.7891235351562,0,13.0,1,1
14.72,0.01680708,-0.15161198,9.778107,0.003808825509622693,-0.0013952049193903804,-0.0015343754785135386,-0.7849946022033691,27.93347930908203,-37.55560302734375,-0.06956197321414948,0.22635379433631894,0.03153800964355469,989.8677978515624,0,13.0,1,1
14.76,0.01441586,-0.14684543,9.761536999999999,-0.0013843222986906767,0.0007353200344368815,0.00032984092831611633,-1.1185355186462402,27.779327392578125,-37.72613525390625,-0.06510353833436966,0.2097207009792328,0.04102230072021485,989.9161987304688,0,13.0,1,1
14.8,0.03592372,-0.14922872,9.773372,-0.0019169412553310394,0.0019337397534400227,0.00046300410758703947,-0.7855372428894043,28.3017692565918,-37.654052734375,-0.06987476348876953,0.208176851272583,0.04103279113769531,989.7230224609376,0,13.0,1,1
14.84,0.02158308,-0.15161192,9.761536999999999,-0.0011179817374795675,0.0007353161927312613,6.353546632453799e-05,-0.7783637046813965,27.57107925415039,-37.76636505126953,-0.06965254247188568,0.2118586003780365,0.05050945281982422,989.7613525390624,0,13.0,1,1
14.88,0.035921186,-0.1516119,9.775739,-0.0004521675000432879,6.952244439162314e-05,0.00032986185397021467,-0.7126278877258301,27.47460174560547,-37.770851135253906,-0.08370595425367355,0.22466902434825894,0.02684879302978516,989.8019409179688,0,13.0,1,1
14.92,0.02875024,-0.15399516,9.771005,-0.0005853133625350893,0.0015342577826231716,-0.0002027646696660668,-0.7504024505615234,27.64961242675781,-37.23638153076172,-0.06940028071403502,0.22322633862495425,0.04106235504150391,989.8374633789062,0,13.0,1,1
14.96,0.01679945,-0.14207873,9.759167999999999,-0.0005853133625350893,0.0015342577826231716,-0.0002027646696660668,-0.5389552116394043,27.005130767822266,-37.847129821777344,-0.07377845048904419,0.19352327287197116,0.04107093811035156,989.8374633789062,0,13.0,1,1
15.0,0.021577954,-0.1516118,9.780472999999999,-0.00018582752090878785,-0.0003299553354736417,-0.0008685491047799588,-0.7476563453674316,27.020416259765625,-37.81586456298828,-0.07801266014575957,0.2111619263887405,0.02687835693359375,989.81787109375,0,13.0,1,1
15.04,0.019186854,-0.14207864,9.761536,-0.0004521308292169124,-0.0001967994321603328,0.00019671962945722044,-0.7768416404724121,27.572551727294922,-37.84367370605469,-0.06336872279644012,0.20012977719306946,0.05056095123291016,989.810302734375,0,13.0,1,1
15.08,0.02157545,-0.15399504,9.759167999999999,-0.0008515925728715956,-6.364341243170202e-05,0.0001967248390428722,-0.8721981048583984,27.483116149902344,-37.5927963256836,-0.06293260306119919,0.2178896963596344,0.04583549499511719,989.797607421875,1,1.0,2,2
15.12,0.019184291000000003,-0.1444619,9.768637,-0.00045210673124529416,6.951254908926785e-05,6.357213715091348e-05,-0.9971756935119628,27.207763671875,-37.095516204833984,-0.06714582443237305,0.20268785953521729,0.04110908508300781,989.8078002929688,1,1.0,2,2
15.16,0.026352733,-0.14446184,9.763902999999999,0.0008794851019047201,-0.0011289108078926802,0.00032989325700327754,-0.510014533996582,27.45342254638672,-37.492897033691406,-0.07132452726364136,0.20153973996639246,0.03638362884521485,989.8001098632812,1,1.0,2,2
15.2,0.01679182,-0.13969523,9.763902999999999,8.054994395934045e-05,-0.000329965288983658,-0.00020273323752917352,-0.6417841911315918,27.014244079589844,-37.90879821777344,-0.05184529721736908,0.19083720445632932,0.05059528350830078,989.8251342773438,1,1.0,2,2
15.24,0.021570355,-0.14684507,9.771003,-0.0005852277972735465,-0.0001968092692550272,0.00019674585200846195,-0.3548731803894043,27.546401977539066,-38.13812255859375,-0.06085991859436035,0.208424910902977,0.04587173461914063,989.7950439453124,1,1.0,2,2
15.28,0.033518612,-0.14446178,9.759167999999999,-0.0008515315712429582,-0.00019681130652315915,0.0007293828530237079,-0.4628105163574219,27.91938781738281,-38.06632995605469,-0.08374238014221191,0.19732877612113955,0.04588413238525391,989.7950439453124,1,1.0,2,2
15.32,0.021567822,-0.14684495,9.768636,-0.00018572926637716591,-0.0007294449023902416,0.00019675630028359592,-0.26962709426879883,27.257232666015625,-37.74941635131836,-0.07385469973087311,0.21086212992668152,0.04115581512451172,989.8555908203124,1,1.0,2,2
15.36,0.023956478,-0.14684495,9.766269,0.000346914486726746,-0.0007294469978660345,-6.955428398214279e-05,-0.5688209533691406,27.81964111328125,-37.274314880371094,-0.058975744992494576,0.1994657516479492,0.04590129852294922,989.8103637695312,1,1.0,2,2
15.4,0.03112489,-0.14922825,9.787574000000001,-0.0003188631089869886,-6.365928857121618e-05,-0.0006021808367222548,-0.7271671295166016,27.197494506835934,-37.59843063354492,-0.07325429469347,0.19408725202083588,0.0222320556640625,989.822998046875,1,1.0,2,2
15.44,0.012668461,-0.16116086,9.773431,-0.0008514823275618255,0.0007352863904088737,-0.00046901757013984025,-0.6419215202331543,26.90833282470703,-37.20972442626953,-0.0495465025305748,0.1967247873544693,0.045856475830078125,989.8078002929688,1,1.0,2,2
15.48,-0.07095276,-0.06583038,9.790004,-0.0027164735365659,-0.0004630084440577775,6.32798473816365e-05,-0.8386917114257812,27.935829162597656,-37.47047805786133,-0.0822094976902008,0.20672480762004847,0.026938438415527344,989.8033447265624,1,1.0,2,2
15.52,0.14177391,-0.089663774,9.851554,-0.013637736439704895,-0.0047244830057024964,-0.06359127908945084,-0.5350699424743652,27.27192687988281,-37.478416442871094,0.017586551606655117,-0.09888672828674316,-0.09601879119873047,989.7677612304688,1,1.0,2,2
15.56,-0.015934228999999998,0.010433346,9.846822,-0.11603644490242004,-0.04347340390086174,-0.1939529925584793,-0.6405062675476074,28.016151428222656,-37.65968704223633,-0.07218822091817856,-0.2726062536239624,0.017480850219726562,989.7570190429688,1,1.0,2,2
15.6,0.07729730000000001,0.070014656,10.268186,-0.1152377426624298,0.011920339427888392,-0.031100947409868237,-1.1538090705871582,28.325572967529297,-37.444725036621094,-0.09699778258800508,-0.07101880013942719,-0.30957698822021484,989.7366943359376,1,1.0,2,2
15.64,0.05820343,-0.6044538,9.375752,-0.09553060680627824,0.08861935883760452,-0.012458940967917442,-0.7885813713073729,28.29882049560547,-37.49943542480469,-0.36196720600128174,0.4059467315673828,0.10959243774414062,989.7620849609376,1,1.0,2,2
15.68,-0.058876365,-0.6640364000000001,9.612475,-0.20671771466732025,0.3116589188575745,-0.0036706221289932728,-0.8017363548278809,27.917274475097656,-36.70524597167969,0.07093186676502228,0.13040894269943235,-0.07718944549560547,989.7601318359376,1,1.0,2,2
15.72,0.21359783,-0.49005762,10.223216,-0.6959401965141296,-0.18661803007125852,0.07795508950948715,-0.7457823753356934,29.286590576171875,-36.71700668334961,-0.28386595845222473,-0.13226240873336792,-0.8608827590942383,989.7801513671876,1,1.0,2,2
15.76,0.07500887,-1.5673001,9.643253999999999,-0.7457415461540222,-0.2365522235631943,0.2369455695152283,-0.7377138137817383,30.45230865478516,-35.554710388183594,-0.18651002645492554,0.4020471572875977,0.12386226654052734,989.7677612304688,1,1.0,2,2
15.8,0.22320813,-1.140694,9.884711,-0.690081775188446,-0.018040001392364502,0.21457493305206302,-1.2717499732971191,31.5850830078125,-35.23076629638672,-0.3725567162036896,0.21502995491027832,0.2438459396362305,989.7953491210938,1,1.0,2,2
15.84,-0.14481136,-2.0940058,9.487022999999999,-0.6788967847824097,-0.012713641859591007,0.11310847848653792,-1.128187656402588,32.93054962158203,-34.40780258178711,0.2062630653381348,-0.048602938652038574,-0.6373233795166016,989.8033447265624,1,1.0,2,2
15.88,0.13961235,-2.2727525,8.840779,-0.478627473115921,0.3148549199104309,0.08075099438428879,-0.8320150375366211,32.785507202148445,-32.90526962280273,-0.3544309139251709,0.9962570667266846,1.8577318191528318,989.808349609375,1,1.0,2,2
15.92,-0.622741,-2.1559725,9.808966999999999,-0.5862193703651428,0.09740802645683287,0.1634419709444046,-0.7458972930908203,33.97244644165039,-33.06497573852539,0.5357091426849365,-0.6279704570770264,-1.200822830200195,989.8283081054688,1,1.0,2,2
15.96,-0.1901434,-2.4371998,9.352099,-0.8593264818191528,-0.5256378650665283,0.2899419069290161,-0.8538122177124023,34.76573944091797,-31.17015838623047,-0.012594468891620636,0.31594038009643555,0.3746042251586914,989.8416137695312,1,1.0,2,2
16.0,-0.19967762,-2.689828,9.375772999999999,-0.5735698342323303,-0.007786638569086791,0.07156277447938919,-0.9834628105163574,35.592308044433594,-30.81362152099609,0.3989465236663817,0.02034521102905273,0.3074893951416016,989.8541259765624,1,1.0,2,2
16.04,0.50775874,-2.8018427000000004,9.4254875,-0.4376157820224762,0.01991025172173977,-0.10966528952121736,-0.8004975318908691,35.657901763916016,-30.22978210449219,-0.7719646692276001,0.13627314567565918,-0.12249183654785155,989.8059692382812,1,1.0,2,2
16.08,-0.09686109400000001,-2.9805892000000003,9.4373255,-0.4803597033023834,0.06385241448879242,-0.2285754233598709,-0.9669427871704102,37.02924346923828,-29.5145320892334,0.14622484147548676,0.08233475685119629,-0.1672382354736328,989.8187255859376,1,1.0,2,2
16.12,0.2281909,-3.2856495000000003,9.217178,-0.5907479524612427,-0.03548337146639824,0.12748880684375766,-0.9303927421569824,37.484901428222656,-29.54682540893555,-0.2165745049715042,0.16613101959228516,0.274627685546875,989.8209838867188,1,1.0,2,2
16.16,0.20431727,-3.5263614999999997,9.2645235,-0.6852903366088867,-0.027493856847286224,0.08527762442827225,-1.0110497474670408,38.19878768920898,-28.34441947937012,-0.2574918568134308,0.07277774810791016,-0.16373348236083984,989.8362426757812,1,1.0,2,2
16.2,-0.3525045,-3.9005365,8.909447,-0.7721095681190491,-0.10272805392742156,0.2835497260093689,-0.8777356147766113,39.05973815917969,-26.182796478271484,0.14536601305007935,0.0946664810180664,0.1285696029663086,989.821044921875,1,1.0,2,2
16.24,-0.010723143999999999,-4.2222795,8.260836,-0.9352283477783204,-0.1818238347768784,0.4526602029800415,0.20791244506835935,40.65375518798828,-23.133037567138672,0.18755459785461426,0.05994558334350586,0.5780019760131836,989.8235473632812,1,1.0,2,2
16.28,-0.17560104,-3.5120635,9.013608,-0.31844115257263184,-0.03468422591686249,0.07062982767820357,-0.3277831077575684,41.67913818359375,-22.03270721435547,0.0737423449754715,-0.6318604946136475,0.045070648193359375,989.7905883789062,1,1.0,2,2
16.32,-0.22098382,-3.9744205000000004,8.83607,-0.31844115257263184,-0.03468422591686249,0.07062982767820357,-0.5047984123229979,41.51352310180664,-22.22669219970703,0.18944865465164185,-0.3847260475158691,-0.0159912109375,989.7905883789062,1,1.0,2,2
16.36,-0.106243104,-3.8624067,8.765057,-0.10405711829662324,0.03189478814601898,-0.0496118888258934,-0.35408544540405273,41.70800018310547,-23.33907699584961,0.10068739950656892,-0.4260444641113281,0.02982330322265625,989.8765869140624,1,1.0,2,2
16.4,0.388492,-4.455844,8.587519,0.005664785858243704,0.14934012293815613,-0.2994162738323212,-0.6566214561462402,41.63532257080078,-23.134235382080078,-0.3014079332351685,0.2549881935119629,0.26219654083251953,989.86669921875,1,1.0,2,2
16.44,-0.33177477,-3.9624824999999997,8.918844,0.22111408412456512,0.040150657296180725,-0.08143685013055801,-0.8101029396057129,41.64973068237305,-23.265396118164066,-0.02482764236629009,0.3507008552551269,0.3026256561279297,989.8541259765624,1,1.0,2,2
16.48,-0.16688293,-3.2427322999999997,9.058508999999999,0.3819730281829834,-0.1021958515048027,0.20738451182842252,-1.0271182060241701,41.49972534179688,-24.070003509521484,0.3499494194984436,-1.1613574028015137,-0.026968955993652344,989.8363037109376,1,1.0,2,2
16.52,0.7197591999999999,-4.570218,8.409894,0.472524881362915,0.0060608270578086385,-0.013522613793611526,-1.2781825065612793,41.265296936035156,-25.095378875732425,-0.2863997519016266,0.5934441089630127,-0.2218313217163086,989.8109130859376,1,1.0,2,2
16.56,1.427159,-2.5182152,9.503539,0.5412344336509705,0.061321355402469635,-0.4542753398418426,-2.6653637886047363,40.388668060302734,-26.293025970458984,-1.0687066316604614,0.3870217800140381,1.0860815048217771,989.8309326171876,1,1.0,2,2
16.6,0.96589637,-3.2808642,11.927553999999999,0.9003615379333496,-1.7050187587738037,-0.5493500232696533,-4.7727813720703125,38.837791442871094,-27.648174285888672,0.2249675989151001,-0.5093348026275635,-5.400562286376953,989.85595703125,1,1.0,2,2
16.64,-0.002025336,-2.9495880000000003,8.996957,1.243642807006836,0.251870334148407,-0.035094063729047775,-5.053627014160156,37.89123153686523,-29.55110168457031,0.5230895280838013,1.332359790802002,0.9054841995239258,989.9778442382812,1,1.0,2,2
16.68,-0.27209568,-2.198855,8.097419,1.0963702201843262,0.18742187321186066,-0.8267179131507874,-6.1812095642089835,35.99359893798828,-31.036945343017575,1.1920664310455322,0.1022794246673584,1.4010677337646484,990.1053466796876,1,1.0,2,2
16.72,1.0973066999999999,-1.0763307,10.438580499999999,1.0064886808395386,-0.12736351788043976,-0.2525408864021301,-7.517439365386963,35.743812561035156,-31.740234375,0.09427672624588013,-0.8222517967224121,0.4581518173217773,989.8966064453124,1,1.0,2,2
16.76,0.35642576,-2.048708,11.759478999999999,0.1010148823261261,-0.6987442374229431,0.3060567378997803,-7.999353885650635,35.240203857421875,-32.17539596557617,0.1119598150253296,0.003885030746459961,-2.5130672454833984,989.873779296875,1,1.0,2,2
16.8,-0.23628138,-2.5110636000000004,10.128475,-0.23946985602378845,0.2835618257522583,0.0093808826059103,-7.8289690017700195,35.768211364746094,-31.77063751220703,1.2704286575317385,-0.02356886863708496,-0.8850564956665039,989.8460693359376,1,1.0,2,2
16.84,0.35401297,-1.8866444,9.950933000000001,0.07118772715330124,0.4797034859657288,-0.012856451794505121,-7.388737201690674,35.759735107421875,-32.99274444580078,0.3637725710868835,0.5621992349624634,-0.324188232421875,989.9169311523438,1,1.0,2,2
16.88,0.6168908000000001,-2.3132509999999997,10.374661,0.5545511841773987,-0.28835153579711914,0.4073900878429413,-7.449524402618407,34.96612930297852,-34.245677947998054,0.2615237236022949,0.6096116304397583,-0.6068258285522461,989.8204956054688,1,1.0,2,2
16.92,0.8534796,-1.0000644,11.321541999999999,0.4544164836406708,-0.611659049987793,0.4329564273357392,-8.234081268310549,35.49618530273437,-34.848655700683594,0.2452616095542908,-0.9498304128646852,-1.9050712585449217,989.8385009765624,1,1.0,2,2
16.96,1.1498162,-2.3847485,10.741576,-0.5212315917015076,0.42564132809638977,0.8952808380126953,-6.793500900268555,35.73832321166992,-34.160995483398445,-0.5529427528381348,0.6093190908432007,-0.673792839050293,989.8480224609376,1,1.0,2,2
17.0,0.7650305000000001,-0.74743617,10.575871000000001,0.3958272337913513,0.6366966962814331,0.9606614708900452,-4.841407775878906,36.24969482421875,-35.10760498046875,-0.8731454014778137,-0.5579038858413696,-1.7353029251098633,989.873779296875,1,1.0,2,2
17.04,0.10062629,-0.9166485999999999,9.85624,0.9384459257125854,0.6199187636375427,0.1827528178691864,-3.9687445163726807,34.486892700195305,-37.21751022338867,-0.33343932032585144,-0.2645595073699951,0.35837650299072266,989.8609619140624,1,1.0,2,2
17.08,-0.4323333,-1.4791021,10.149772,1.2222055196762085,0.4484112560749054,-0.2950178384780884,-4.190646171569823,33.280029296875,-40.03810119628906,0.3064282536506653,1.1360267400741575,-1.0316839218139648,989.7972412109376,1,1.0,2,2
17.12,-0.6737248,-1.1502093999999998,10.078755000000001,0.8132776618003845,0.7396277189254761,-0.4015441536903381,-3.5056521892547607,31.34130477905273,-41.80084991455078,-0.06882870197296143,0.6342496871948242,0.057347297668457024,989.746826171875,1,1.0,2,2
17.16,-0.750213,-0.995296,10.500116,0.4906361103057861,1.044159770011902,-0.17251244187355042,-1.760547161102295,29.23643493652344,-43.87121200561523,-0.21689045429229736,0.6322377920150757,-0.9065189361572266,989.7160034179688,1,1.0,2,2
17.2,-1.1780169,-1.0048288,11.423324000000001,0.8122125864028931,0.4681185483932495,-0.09235131740570067,-0.497739315032959,27.52246856689453,-45.351234436035156,0.2482073307037353,1.7029616832733154,-1.4349517822265625,989.792236328125,1,1.0,2,2
17.24,-0.85778147,0.7826301999999999,9.008777,1.215947508811951,0.34521380066871643,0.10006196051836014,0.13037633895874026,25.47723388671875,-46.17517852783203,-0.6217300891876221,0.2845975160598755,-0.22168827056884768,989.7969970703124,1,1.0,2,2
17.28,-2.0192852,0.22017689999999998,10.23972,1.2038304805755615,0.7622644305229187,0.3374826014041901,1.766563892364502,23.375591278076172,-47.99798583984375,0.3564605712890625,0.5910420417785645,0.3728370666503906,989.7359008789062,1,1.0,2,2
17.32,-2.4805474,0.2630761,9.633716,0.7356472015380859,0.6658581495285034,-0.006064824294298886,3.3247036933898926,21.252731323242188,-48.49879455566406,0.6417863368988037,1.495361089706421,-0.8418111801147461,989.7032470703124,1,1.0,2,2
17.36,-2.0551567,2.0624516,8.805194,0.9939736127853394,0.4426853358745575,0.09566788375377656,4.818193912506104,18.48977279663086,-48.7982177734375,0.5199098587036133,0.2932131290435791,0.7258014678955078,989.84033203125,1,1.0,2,2
17.4,-1.8376868999999998,1.9075388999999998,9.321244,0.9686738848686218,0.30539947748184204,0.3787617087364197,5.533076763153076,16.156841278076172,-49.31076049804688,-0.07621657848358154,-0.0682835578918457,0.17423057556152344,989.7408447265624,1,1.0,2,2
17.44,-1.7922901999999998,1.8336574,11.544045,0.4960963726043701,0.23336103558540344,0.2229669839143753,6.429296016693115,14.994372367858887,-49.5348129272461,0.13561499118804932,0.6790550947189331,-1.9312238693237305,989.7638549804688,1,1.0,2,2
17.48,-2.5475106,2.1744666,10.708422,0.936716079711914,-0.92644464969635,-0.020978329703211784,5.799956798553468,13.298802375793455,-49.33861541748047,1.3145617246627808,1.0288238525390625,-1.0148944854736328,989.7333984375,1,1.0,2,2
17.52,-1.5103046,3.039597,12.069562,1.0642814636230469,-0.7979472279548645,-0.19901043176651,3.688921451568604,10.90101718902588,-49.56586837768555,0.8311229944229126,0.33761024475097656,-2.651186943054199,989.6875610351562,1,1.0,2,2
17.56,-0.77870005,4.4862394,12.445975,0.7719999551773071,-0.8164562582969666,0.2513297498226166,2.431114673614502,8.98598575592041,-49.72189331054688,0.1481630802154541,-1.2181358337402344,-3.3039751052856445,989.6775512695312,1,1.0,2,2
17.6,-0.7425411999999999,5.010553400000001,11.371293,1.2260686159133911,-1.0685242414474487,0.1302892416715622,-0.889735221862793,3.7704143524169917,-50.90657424926758,0.3638014495372772,0.015028953552246094,-3.0792179107666016,989.7611694335938,1,1.0,2,2
17.64,-1.1368653999999998,5.3680449999999995,11.57724,1.7392557859420776,-0.903674066066742,-0.4224509596824646,-2.406383514404297,0.2954130172729492,-49.93063735961914,0.995769739151001,-0.5746221542358398,-2.4405202865600586,989.7891235351562,1,1.0,2,2
17.68,-1.2587407,6.28084,10.734517,1.851239323616028,-0.3535982668399811,-0.7385688424110413,-2.8297133445739746,-3.525160312652588,-49.564857482910156,0.6365973949432373,-0.75439453125,-3.1868190765380864,989.7891235351562,1,1.0,2,2
17.72,-1.9159540000000002,5.539640400000001,10.796064999999999,2.1448526382446294,0.21871453523635864,-0.6829088926315308,-1.413485050201416,-7.678056240081787,-48.77025604248047,0.7918437719345093,0.3010773658752441,-3.071021556854248,989.7611694335938,1,1.0,2,2
17.76,-2.7046118,4.9438205,6.733947,2.0862629413604736,0.9349711537361144,-0.7441616058349609,1.162095546722412,-11.640862464904785,-48.16542053222656,1.0522180795669556,2.174349308013916,-1.0426983833312988,989.7584838867188,1,1.0,2,2
17.8,-2.3317776,5.310845,4.56559,2.5198254585266118,1.370397448539734,-0.5540120601654053,3.2357020378112797,-16.33827018737793,-45.59262084960938,0.6337598562240601,2.0175256729125977,0.9289994239807128,989.7586669921876,1,1.0,2,2
17.84,-1.9422138,5.4967403,2.0279498,2.608375072479248,1.0991548299789429,-0.2673230767250061,5.179389476776123,-19.628978729248047,-44.15989685058594,-0.3559916019439697,2.430558204650879,3.0176351070404053,989.695068359375,1,1.0,2,2
17.88,-3.7107315,4.593478,1.7746601000000002,1.83033299446106,1.6170061826705933,0.06836806237697601,7.740048885345459,-22.974380493164066,-42.35713958740234,0.6348931789398193,3.5709056854248047,3.1894502639770512,989.6975708007812,1,1.0,2,2
17.92,-4.0285788,5.6159040000000005,2.4445791,1.279591679573059,1.127517580986023,0.17702491581439972,8.743793487548826,-24.82758712768555,-40.555747985839844,2.319643259048462,3.241471290588379,1.4508898258209229,989.68505859375,1,1.0,2,2
17.96,-2.0353909,7.384296400000001,0.7401945,0.9364435076713562,0.8132649064064026,0.7036644816398621,9.332199096679688,-27.01704025268555,-38.67068481445313,-0.3274405002593994,1.6361207962036133,3.5124177932739262,989.7377319335938,1,1.0,2,2
18.0,-2.6400259999999998,6.8432918,2.8257008,1.1200683116912842,0.9928949475288392,1.295151948928833,8.955989837646484,-28.84499740600586,-37.42797088623047,0.4732012748718262,1.883547306060791,0.4541175365447998,989.7327270507812,1,1.0,2,2
18.04,-4.408544,3.6759148,-0.339248,0.9839807748794556,0.6880964040756226,0.947609841823578,8.82158088684082,-29.76132583618164,-36.8917350769043,2.1956019401550293,4.422497272491455,2.3912217617034908,989.7124633789062,1,1.0,2,2
18.08,-2.9028964,3.7092805,-1.6956542000000001,0.5316431522369385,1.1886370182037354,0.8280339241027832,8.873725891113281,-30.977405548095703,-35.82781982421875,2.999323844909668,6.038926601409912,5.590105056762695,989.7554321289062,1,1.0,2,2
18.12,-0.7280755999999999,3.082478,3.2044558999999997,0.8307157754898071,-0.4436129033565521,1.7007509469985962,5.025983333587647,-32.63167953491211,-34.599205017089844,0.1088445782661438,5.5119967460632315,-0.72763991355896,989.679443359375,1,1.0,2,2
18.16,0.79908144,0.8541124,1.5663527,-0.03001723252236843,-1.5939643383026123,2.4304563999176025,-0.1165452003479004,-32.23126983642578,-34.98495483398437,1.6974889039993286,8.709794998168945,3.07056188583374,989.7046508789062,1,1.0,2,2
18.2,4.8212957,1.0495411000000001,6.4593606,-0.8306960463523865,-0.6500076651573181,2.744709014892578,-5.232900619506836,-31.17367172241211,-36.2600212097168,-1.6250836849212646,8.029840469360353,-2.1347064971923833,989.7401733398438,1,1.0,2,2
18.24,6.8670615999999995,1.9814026000000002,7.143483,-0.6005992293357849,-2.212482690811157,3.3322017192840576,-11.422086715698242,-29.593433380126953,-36.70748901367188,-2.644381046295166,6.868146896362305,-5.124302387237549,989.8009643554688,1,1.0,2,2
18.28,7.139520599999999,3.6425476000000003,3.3938355000000002,0.4574735760688782,-0.15798905491828918,2.704894781112671,-20.24376106262207,-25.369163513183594,-35.749244689941406,-1.8443894386291504,3.6064062118530273,0.3343052864074707,989.7523193359376,1,1.0,2,2
18.32,8.064422,4.779371299999999,1.2822919,0.4574735760688782,-0.15798905491828918,2.704894781112671,-20.24376106262207,-25.369163513183594,-35.749244689941406,-2.14135217666626,2.904113292694092,1.6702063083648682,989.7523193359376,1,1.0,2,2
18.36,8.783792,6.0854077,2.465894,0.13429918885231018,0.4345638155937195,2.1717302799224854,-21.55792617797852,-23.807830810546875,-35.56111145019531,-2.824650287628174,0.9461030960083008,0.26924681663513184,989.6995239257812,1,1.0,2,2
18.4,8.210225,5.1630783,1.5048108,-0.29846420884132385,0.20939373970031736,1.547086477279663,-22.81010437011719,-22.503854751586914,-36.44525146484375,-2.0569314956665044,1.4158968925476074,2.5471086502075195,989.6812744140624,1,1.0,2,2
18.44,8.788592,4.8437185,5.3207417,-0.4828880429267883,0.1284337341785431,1.0136557817459106,-23.843305587768555,-20.310348510742188,-36.87629699707031,-1.7658467292785645,1.3054299354553225,-1.6193764209747314,989.7521362304688,1,1.0,2,2
18.48,9.199664,3.6234797999999997,4.224728,-0.8097909092903137,-0.6164517402648926,1.163058876991272,-25.53596305847168,-17.99747085571289,-36.2119140625,-2.30291748046875,2.040578603744507,-1.1600751876831057,989.7877807617188,1,1.0,2,2
18.52,9.225963,4.393279,3.2044644,-0.9422830939292908,0.1783680021762848,1.2324341535568235,-25.63846015930176,-16.143959045410153,-36.920448303222656,-1.81510066986084,0.998004913330078,0.7114455699920654,989.7980346679688,1,1.0,2,2
18.56,9.763514500000001,3.3303406000000004,3.8270227999999995,-1.141620635986328,0.605938196182251,1.3352320194244385,-25.650522232055664,-12.09865951538086,-37.69418716430664,-2.4467244148254395,0.8839123249053955,0.6835799217224121,989.7776489257812,1,1.0,2,2
18.6,9.435912,3.156366,3.1570876,-1.0446817874908447,0.06145535409450531,1.21259343624115,-25.69598197937012,-9.61241054534912,-38.21758270263672,-1.5880699157714844,1.4855444431304932,0.9034152030944824,989.7597045898438,1,1.0,2,2
18.64,11.075380000000001,3.5782065000000003,3.4127447999999996,-1.324709415435791,0.4180517494678497,1.1754441261291504,-25.34963798522949,-6.969938278198242,-38.88747787475586,-2.8613491058349614,-0.1907048225402832,1.9591469764709477,989.75732421875,1,1.0,2,2
18.68,9.161063,2.4532990000000003,5.11713,-1.3719804286956787,0.2675832808017731,1.4010136127471924,-24.880083084106445,-3.053165435791016,-39.65093231201172,-1.967855453491211,-0.4241678714752197,-0.13622426986694336,989.7420043945312,1,1.0,2,2
18.72,9.13716,0.8445864,4.8141274,-2.175588607788086,0.9086055755615234,0.7014016509056091,-23.3599853515625,-0.04942417144775391,-39.98394775390625,-1.399345874786377,1.199775218963623,1.4479112625122068,989.7674560546876,1,1.0,2,2
18.76,9.705950999999999,2.1696894,6.049807,-1.99515962600708,0.8813082575798035,0.8251054286956787,-21.78045463562012,5.064627647399902,-40.757545471191406,-2.3835673332214355,-0.9301692247390748,0.36626482009887695,989.8284301757812,1,1.0,2,2
18.8,9.175386999999999,0.39653027,7.266547999999999,-1.8518813848495483,0.3691827654838562,1.0076650381088257,-20.38587760925293,8.161313056945799,-40.69173812866211,-1.793355941772461,-0.1623462438583374,-0.9416742324829102,989.8150634765624,1,1.0,2,2
