Timestamp,Ax,Ay,Az,Gx,Gy,Gz,Mx,My,Mz,LiAx,LiAy,LiAz,P,Value,Type,GroupType,Activities
0.0,0.066176504,-0.15837754,9.748992999999999,-0.00021803018171340227,0.0026068566367030144,-1.5405355952680108e-05,-7.314883232116699,25.70180702209473,-40.00081634521485,-0.3722613453865051,1.4564943313598633,-0.02685070037841797,988.2930908203124,0,13.0,1,1
0.04,0.059010625,-0.1464612,9.772666000000001,0.0020744805224239826,0.0027441736310720444,0.00013462599599733951,-6.903981685638428,25.34759330749512,-37.65689468383789,-0.3716699481010437,1.468697428703308,-0.05022144317626953,988.1842041015624,0,13.0,1,1
0.08,0.063794196,-0.13216166,9.772666000000001,-0.00019329594215378165,0.00048115302342921495,-0.00013344356557354328,-7.993820190429687,26.434160232543945,-37.475547790527344,-0.3758411705493927,1.427029728889465,-0.054462432861328125,988.1334838867188,0,13.0,1,1
0.12,0.06618795,-0.15122797,9.784502,-0.00019329594215378165,0.00048115302342921495,-0.00013344356557354328,-7.993820190429687,26.434160232543945,-37.475547790527344,-0.3661079406738281,1.459493637084961,-0.06853866577148438,988.1334838867188,0,13.0,1,1
0.16,0.07097155,-0.14169498,9.767933,-0.0003264909028075636,-0.00031778868287801737,0.0003991724515799433,-7.845607280731201,26.25740623474121,-38.33487319946289,-0.3794589340686798,1.4332194328308103,-0.035040855407714844,988.1791381835938,0,13.0,1,1
0.2,0.07097536,-0.14646165,9.775034,-0.00045968528138473635,-0.0001846247469075024,-0.0002666329382918775,-7.305185317993164,25.76266288757324,-38.54316711425781,-0.3789093792438507,1.4404783248901367,-0.058391571044921875,988.1715087890624,0,13.0,1,1
0.24,0.06619936,-0.15837808,9.78687,0.001404489390552044,8.16970132291317e-05,-3.327731974422932e-07,-6.921426296234131,25.17346000671387,-38.02893829345703,-0.3782972991466522,1.4478479623794556,-0.06755256652832031,988.2166748046876,0,13.0,1,1
0.28,0.07337287,-0.15599485,9.770302000000001,0.0006055046687833965,8.17030668258667e-05,0.000132809451315552,-7.4210309982299805,25.49614524841309,-38.50972366333008,-0.3873082101345062,1.4504438638687134,-0.05777835845947265,988.2140502929688,0,13.0,1,1
0.32,0.06620696,-0.15361170000000002,9.77977,0.0006055046687833965,8.17030668258667e-05,0.000132809451315552,-7.272520065307617,25.951520919799805,-38.94417572021485,-0.3822980225086212,1.4383459091186523,-0.052695274353027344,988.2140502929688,0,13.0,1,1
0.36,0.06143093,-0.15122853,9.775036,7.283658487722278e-05,0.0007474985904991628,0.00013279367703944445,-7.557610511779785,26.052980422973636,-38.36729049682617,-0.3671472668647766,1.4265334606170654,-0.0523681640625,988.2116088867188,0,13.0,1,1
0.4,0.073384285,-0.14169551,9.756099,0.0007385527133010327,-0.00045091082574799657,-0.00013355357805266976,-7.068521976470947,25.82589530944824,-38.04444885253906,-0.3853786885738373,1.4193426370620728,-0.03308296203613281,988.2090454101562,0,13.0,1,1
0.44,0.07338807,-0.13454579,9.782139,-0.00019358942518010736,-0.0003177468897774816,-0.0005330431158654392,-7.6604390144348145,26.06209373474121,-38.42896270751953,-0.3847922682762146,1.4165788888931274,-0.08004283905029297,988.1756591796876,0,13.0,1,1
0.48,0.06861210000000001,-0.15122877,9.782139,0.00020584760932251808,0.000747522572055459,-4.2706960812211037e-07,-7.138686180114746,26.02387809753418,-38.50712585449219,-0.365623950958252,1.4379823207855225,-0.06551837921142578,988.1859130859376,0,13.0,1,1
0.52,0.0733957,-0.13931252,9.779772,0.00020581093849614265,0.0014133182121440768,0.000665346859022975,-7.509756565093994,25.04430961608887,-38.46961212158203,-0.3841061294078827,1.416242599487305,-0.060412406921386726,988.1909790039062,0,13.0,1,1
0.56,0.06622979,-0.15599556,9.765569000000001,-0.00019369955407455564,0.00034806056646630173,-4.586181603372097e-07,-7.813079833984375,26.34034919738769,-38.03680419921875,-0.3739244043827057,1.4281901121139526,-0.04114723205566406,988.1856079101562,0,13.0,1,1
0.6,0.0638437,-0.1512291,9.770304,0.0006052114185877143,0.00021490862127393484,0.00026584166334941983,-7.710113525390625,26.437150955200195,-38.67420959472656,-0.35901111364364624,1.4254190921783447,-0.045500755310058594,988.1751098632812,0,13.0,1,1
0.64,0.061457574,-0.158379,9.775038,7.254286902025342e-05,-0.0005840330850332974,-4.900502972304821e-07,-7.3310813903808585,25.31731605529785,-39.0520133972168,-0.3728835880756378,1.4322431087493896,-0.049866676330566406,988.2105712890624,0,13.0,1,1
0.68,0.06863111,-0.14646272,9.772672,0.0002056642551906407,0.0016796578420326116,-0.00026682153111323714,-7.007650852203369,25.092863082885746,-38.24188995361328,-0.3724120557308197,1.4103974103927612,-0.04002094268798828,988.1903076171876,0,13.0,1,1
0.72,0.07580462,-0.14407958,9.789242,0.00047194346552714716,0.00034808437339961534,-0.00013367936480790377,-6.897595405578612,25.98562431335449,-37.54124450683594,-0.3720929920673369,1.4027825593948364,-0.05857753753662109,988.2155151367188,0,13.0,1,1
0.76,0.07102865,-0.14884622,9.763203,-0.0005933569627813995,0.001413353835232556,0.00013262080028653145,-7.401658535003662,25.197546005249023,-37.417457580566406,-0.36677801609039307,1.4144972562789917,-0.044022560119628906,988.1974487304688,0,13.0,1,1
0.8,0.071032405,-0.14646302,9.772673,0.001004501711577177,8.17804830148816e-05,0.0006652368465438485,-7.5487542152404785,25.849985122680664,-37.43296813964844,-0.3706585466861725,1.4069072008132937,-0.038895606994628906,988.1974487304688,0,13.0,1,1
0.84,0.08298576,-0.15361293,9.767939,0.0003386756288819015,-0.0009834771044552326,-0.0001337265712209046,-7.412579536437987,25.76735877990723,-38.3729248046875,-0.38393634557724,1.4087042808532717,-0.05741691589355469,988.2050170898438,0,13.0,1,1
0.88,0.06626025,-0.13693006,9.772673,-0.0001939931535162032,0.0003481082385405898,-0.0002669001114554703,-7.65796947479248,25.22107124328613,-37.61029052734375,-0.3689705431461334,1.3868639469146729,-0.06650829315185547,988.19970703125,0,13.0,1,1
0.92,0.06865394,-0.14884658,9.76794,0.0006049179355613887,0.00048127211630344385,0.0003988737880717963,-7.246760845184326,26.290945053100586,-37.73625946044922,-0.368344247341156,1.407764911651611,-0.04244041442871094,988.21240234375,0,13.0,1,1
0.96,0.05447054,-0.14164187,9.772469000000001,-6.0908321756869555e-05,-0.0003176695317961276,-0.0006664054817520082,-7.247740268707275,25.921186447143555,-37.56050109863281,-0.3510148525238037,1.376189351081848,-0.03710460662841797,988.1973266601562,0,13.0,1,1
1.0,0.059164077,-0.15117286,9.777194999999999,0.00047703780001029367,0.00021409959299489856,0.0009337675292044877,-7.909415245056152,25.881147384643555,-37.61016845703125,-0.3644074499607086,1.3878686428070068,-0.04620361328125,988.2020874023438,0,13.0,1,1
1.04,0.06863743,-0.15117083,9.784288,0.0011527767637744546,0.0007496373145841062,-0.00012492045061662793,-7.749845027923584,25.87263298034668,-37.788230895996094,-0.3684364855289459,1.3898693323135376,-0.07422828674316406,988.2122192382812,0,13.0,1,1
1.08,0.07572090599999999,-0.13686903,9.779547,0.0003546604420989752,-0.0005820770747959614,8.593779057264328e-06,-7.356274604797362,25.0299015045166,-38.33845520019531,-0.3722618222236633,1.3767805099487305,-0.050070762634277344,988.2046508789062,0,13.0,1,1
1.12,0.06607503,-0.15593313,9.77007,-0.0011078929528594015,-0.0003676807973533869,-3.0072347726672888e-05,-7.733241558074951,25.78291893005371,-37.93950271606445,-0.3610936105251312,1.4021406173706057,-0.044869422912597656,988.2197265625,0,13.0,1,1
1.16,0.07793829,-0.15354772,9.765327000000001,-0.00030811416218057275,-0.00143307913094759,0.0006360737024806441,-7.918815612792969,26.452436447143555,-38.64294052124024,-0.3552011549472809,1.3892426490783691,-0.03020191192626953,988.1893310546876,0,13.0,1,1
1.2,0.06590253,-0.14639576,9.770054,9.219121420755981e-05,0.00016468105604872108,0.0009027458727359774,-7.371899604797362,25.48937797546387,-38.36293029785156,-0.3591445088386536,1.376412868499756,-0.04395771026611328,988.186767578125,0,13.0,1,1
1.24,0.06820616,-0.15354346,9.762945,0.0002261804766021669,0.00029770407127216464,-0.0005616351845674217,-7.201515197753906,26.01738929748535,-37.95817565917969,-0.3628980815410614,1.3829292058944702,-0.02933788299560547,988.1915893554688,0,13.0,1,1
1.28,0.06334013,-0.14400829999999998,9.770039,-3.9304082747548825e-05,-0.0009008523775264619,-2.8647074941545728e-05,-7.433313846588135,26.5907039642334,-38.26394271850586,-0.3571760654449463,1.3606818914413452,-0.04310894012451172,988.2344360351562,0,13.0,1,1
1.32,0.07759327,-0.14162292,9.762929,0.00022784312022849923,0.00029743410414084787,0.00023802503710612652,-7.39263391494751,26.312726974487305,-38.253944396972656,-0.3705539107322693,1.3621808290481567,-0.02846240997314453,988.1988525390624,0,13.0,1,1
1.36,0.06555751,-0.15115388,9.760553,-3.764132270589471e-05,3.098341403529048e-05,0.00023838138440623882,-7.001700878143311,24.99283790588379,-37.852027893066406,-0.3648526668548584,1.353924036026001,-0.018523216247558597,988.2014770507812,0,13.0,1,1
1.4,0.072640985,-0.1487685,9.765281,-0.00016996805788949132,0.0005634800181724131,-2.7578265871852643e-05,-7.1089582443237305,25.10345268249512,-38.38086700439453,-0.3591870367527008,1.3600538969039917,-0.02753734588623047,988.2115478515624,0,13.0,1,1
1.44,0.0701648,-0.13923325,9.786577000000001,0.00023033731849864125,0.0005633450928144157,-2.722191857174039e-05,-7.3724427223205575,25.857667922973636,-38.46138000488281,-0.34882766008377075,1.356642246246338,-0.06495952606201172,988.1986694335938,0,13.0,1,1
1.48,0.07007855,-0.13684781,9.769999,0.0002319999621249736,0.0002967592445202172,-0.00029282522154971957,-7.839955806732178,25.525243759155273,-38.36988830566406,-0.3569389879703522,1.3371771574020386,-0.04059791564941406,988.1937866210938,0,13.0,1,1
1.52,0.07477206,-0.15114541,9.774726,0.00023283140035346153,0.0004297823761589825,-0.0002924688742496073,-7.787482261657715,26.1535587310791,-37.95283508300781,-0.3659321367740631,1.3531270027160645,-0.05439376831054688,988.1809692382812,0,13.0,1,1
1.56,0.07707572,-0.14876004,9.767616,0.00023283140035346153,0.0004297823761589825,-0.0002924688742496073,-7.787482261657715,26.1535587310791,-37.95283508300781,-0.3559414744377136,1.35127055644989,-0.025743484497070312,988.1809692382812,0,13.0,1,1
1.6,0.06742987,-0.14875789,9.784180000000001,0.00023283140035346153,0.0004297823761589825,-0.0002924688742496073,-7.99422550201416,26.90836906433105,-38.27307891845703,-0.3548712134361267,1.3522542715072632,-0.06785297393798828,988.1809692382812,0,13.0,1,1
1.64,0.0697335,-0.14160599,9.772335,0.00010050478158518672,0.000962279096711427,0.0001073612365871668,-7.392090320587157,25.944433212280273,-38.155494689941406,-0.3632085621356964,1.334277629852295,-0.04368877410888672,988.2113037109376,0,13.0,1,1
1.68,0.06964725,-0.15828674,9.774694,-0.00029813760193064814,-0.0005025931750424206,0.00010771764209493996,-7.35736083984375,25.7664852142334,-38.53535461425781,-0.3477717638015747,1.3402546644210815,-0.02427959442138672,988.1861572265624,0,13.0,1,1
1.72,0.060001373,-0.15590133,9.777054,-3.0158960726112127e-05,0.00016292656073346734,0.0001084301038645208,-7.607178211212157,25.321691513061523,-38.2398796081543,-0.34177762269973755,1.341613531112671,-0.033293724060058594,988.196044921875,0,13.0,1,1
1.76,0.071864665,-0.13921626,9.774678999999999,0.00037014606641605496,-0.0006361560663208365,-2.4371431209146976e-05,-7.450652122497559,25.31022834777832,-38.263328552246094,-0.3596702814102173,1.3139724731445312,-0.037525177001953125,988.1957397460938,0,13.0,1,1
1.8,0.074168295,-0.14636408,9.765202,-0.0004279700224287808,-0.0005031331093050541,-0.0002903310232795775,-7.332442760467528,25.84206199645996,-37.85075759887695,-0.3491432070732117,1.3098528385162354,-0.03225994110107422,988.2007446289062,0,13.0,1,1
1.84,0.076471925,-0.14159541,9.769928,-0.001625560224056244,0.0002956794924102724,0.0007752887904644012,-7.229476451873778,25.93886375427246,-38.4881591796875,-0.35739171504974365,1.3157236576080322,-0.0412445068359375,988.197998046875,0,13.0,1,1
1.88,0.06443617,-0.15112637,9.791225,0.0006389562622644008,-0.0007697188993915915,-2.3302447516471148e-05,-7.585709571838379,25.86852836608887,-38.198204040527344,-0.34658852219581604,1.3172464370727541,-0.06448554992675781,988.2080688476562,0,13.0,1,1
1.92,0.0667398,-0.14874096,9.77228,0.0010392614640295506,-0.00023722200421616435,-0.0004224200383760035,-7.625304222106934,25.40993309020996,-38.01129913330078,-0.3309566378593445,1.3089967966079712,-0.02141761779785156,988.185302734375,0,13.0,1,1
1.96,0.07274628,-0.15592091,9.777125999999999,-0.0004246446187607944,-0.0005036728689447045,0.00037688383599743247,-6.863706588745117,25.54382133483887,-38.444427490234375,-0.35012027621269226,1.3100589513778689,-0.030517578125,988.1954345703124,0,13.0,1,1
2.0,0.06793219,-0.14638694,9.772388000000001,0.0004832002450712025,-0.0012961140600964427,-0.0004179684328846634,-7.783214569091798,25.52583885192871,-38.609619140625,-0.3485383689403534,1.30178964138031,-0.04425621032714844,988.1878051757812,0,13.0,1,1
2.04,0.06311813,-0.15353592,9.781855,0.0008784231613390148,-0.0010291081853210926,-0.00041979009984061117,-7.902647495269775,25.624670028686523,-38.52001190185547,-0.3378015160560608,1.312245488166809,-0.05323505401611328,988.1953735351562,0,13.0,1,1
2.08,0.06308389,-0.1487685,9.781852,-0.0004528258577920497,-0.00023021409288048744,-2.017489168792963e-05,-7.842020511627197,25.89206504821777,-38.391029357910156,-0.3405386805534363,1.2870639562606812,-0.03351402282714844,988.172607421875,0,13.0,1,1
2.12,0.07738903,-0.14400117,9.774747,-0.000985127640888095,-0.0015618470497429369,-0.00028634927002713084,-7.519538402557372,26.510107040405273,-38.47689056396485,-0.3443770706653595,1.2899365425109863,-0.01906108856201172,988.2105712890624,0,13.0,1,1
2.16,0.07974467,-0.1440003,9.777111,-0.0005853236070834099,-0.0008961109560914338,0.0007790557574480772,-7.33771276473999,25.67971229553223,-38.84124374389648,-0.34785231947898865,1.2716823816299438,-0.03749656677246094,988.2125244140624,0,13.0,1,1
2.2,0.07254073,-0.14638276,9.767638999999999,-0.00031867792131379247,-0.0007630066247656941,0.0001134074409492314,-7.096782207489014,25.1152400970459,-38.99930953979492,-0.34199684858322144,1.291388750076294,-0.02277851104736328,988.2127685546876,0,13.0,1,1
2.24,0.07250649,-0.14161535,9.774737,-0.0004515053587965667,0.00043536134762689466,0.00011354900198057295,-7.2685279846191415,25.111970901489254,-38.20280456542969,-0.3410787582397461,1.2686458826065063,-0.036525726318359375,988.21533203125,0,13.0,1,1
2.28,0.06291261,-0.14399779999999998,9.779469,0.0007472459110431372,0.0003021497395820916,0.0002468483871780336,-7.808950424194336,25.60671806335449,-37.99451065063477,-0.3305457830429077,1.2792700529098509,-0.04553794860839844,988.1973266601562,0,13.0,1,1
2.32,0.06287837,-0.14399697,9.765263000000001,-0.00018452940275892613,-0.00023053563199937344,0.0001138318912126124,-7.898761749267577,25.89146614074707,-38.15130233764648,-0.3245347738265991,1.266021966934204,-0.011931419372558594,988.1998291015624,0,13.0,1,1
2.36,0.07240373,-0.14399613,9.769993,0.0006147481617517768,-0.0006300630629993974,-1.9184488337486986e-05,-7.412036895751952,25.39906883239746,-38.27447891235352,-0.3374919891357422,1.2668794393539429,-0.025643348693847656,988.2124633789062,0,13.0,1,1
2.4,0.06519979,-0.15114512,9.76999,0.00048192060785368085,-9.74848517216742e-05,0.00011411489685997368,-7.670848846435548,25.05135536193848,-38.21424865722656,-0.3268071115016937,1.2629506587982178,-0.03936290740966797,988.2174072265624,0,13.0,1,1
2.44,0.069945395,-0.13922788,9.767619999999999,-0.00071617093635723,0.00016877742018550634,-0.0004183754208497703,-7.880635738372803,25.80322074890137,-38.3798828125,-0.3307139873504639,1.244601488113403,-0.0294036865234375,988.1820678710938,0,13.0,1,1
2.48,0.07230103,-0.13684373,9.777086,-5.0051079597324126e-05,-9.75920702330768e-05,-1.8760154489427805e-05,-7.683429718017577,25.51378059387207,-38.393333435058594,-0.32940176129341125,1.254988193511963,-0.03365421295166016,988.1820678710938,0,13.0,1,1
2.52,0.06748697,-0.14160945,9.788917999999999,-0.0003160369233228266,-0.0006302773836068809,-1.861853525042534e-05,-7.372740745544434,25.22553062438965,-38.8862533569336,-0.33315545320510864,1.2318457365036009,-0.028426170349121094,988.1892700195312,0,13.0,1,1
2.56,0.06506282,-0.14875849,9.758142,-0.00071518070762977,-0.0002308571129105985,-1.847714884206653e-05,-7.622122764587402,25.51879692077637,-38.86498260498047,-0.3178378045558929,1.2516093254089355,-0.008999824523925781,988.1968994140624,0,13.0,1,1
2.6,0.07219827,-0.14637433,9.769974000000001,0.0008830448496155442,0.00016856304137036204,-0.00015149364480748773,-7.289560317993164,25.30318260192871,-38.51869201660156,-0.3260766863822937,1.252697229385376,-0.027482986450195312,988.1968994140624,0,13.0,1,1
2.64,0.076943815,-0.15352334,9.769972000000001,0.00046089832903817296,-0.0006587306270375848,-0.0004572750767692924,-7.693103790283202,25.87322807312012,-38.02795791625977,-0.3248037397861481,1.2584384679794312,-0.041225433349609375,988.1744384765624,0,13.0,1,1
2.68,0.06973988,-0.1559058,9.781805,0.0005943866563029588,0.00014016340719535947,-0.0005902915727347137,-7.493940353393555,26.32331657409668,-38.392921447753906,-0.3193880915641785,1.2545262575149536,-0.0265655517578125,988.2020874023438,0,13.0,1,1
2.72,0.07926518,-0.13922198,9.760496,-7.107324199751021e-05,0.0009390575578436255,0.00020879774820059535,-7.541006565093994,25.9632625579834,-38.51856994628906,-0.3325062394142151,1.221775770187378,-0.021330833435058597,988.1917724609376,0,13.0,1,1
2.76,0.07206124,-0.13445456,9.767594,-0.00020390079589560628,-0.0003925755154341459,7.578125223517418e-05,-7.938355445861816,25.43285942077637,-37.964393615722656,-0.3311794698238373,1.2179311513900757,-0.0019292831420898442,988.201904296875,0,13.0,1,1
2.8,0.06963712,-0.13922031,9.7746935,0.0007285345927812159,-0.001058418769389391,-5.7235127314925194e-05,-7.224367618560791,25.57499122619629,-38.62162780761719,-0.3202085494995117,1.2138835191726685,-0.03931808471679688,988.1968994140624,0,13.0,1,1
2.84,0.060043275,-0.13921948,9.784158999999999,-0.0002032406046055257,6.791087798774242e-06,7.606419967487453e-05,-7.403585910797119,25.670278549194336,-38.13768005371094,-0.3095350861549377,1.2146117687225342,-0.038840293884277344,988.20166015625,0,13.0,1,1
2.88,0.07673836,-0.14398523,9.777054,6.340508116409184e-05,-0.000259578344412148,-0.0001901101786643267,-7.425734519958496,25.38580894470215,-37.57873153686523,-0.3225454092025757,1.2199395895004272,-0.024137496948242188,988.2197875976562,0,13.0,1,1
2.92,0.07228744,-0.14160998,9.769983,-0.000602054235059768,-0.0009254216565750539,0.00034266302827745676,-7.009853839874268,25.3537654876709,-37.56395721435547,-0.31642746925354004,1.2112234830856323,-0.018934249877929688,988.1965942382812,0,13.0,1,1
2.96,0.06785837,-0.14400186,9.758179,-0.000602054235059768,-0.0009254216565750539,0.00034266302827745676,-6.884035110473633,25.89296531677246,-37.53791046142578,-0.3114140033721924,1.197763204574585,-0.004340171813964844,988.1965942382812,0,13.0,1,1
3.0,0.07263312,-0.13685192,9.762913000000001,0.0007298550917766987,-0.0003928434452973306,0.0002096465323120356,-7.631934642791747,25.772329330444336,-37.80052947998047,-0.32011678814888,1.2029844522476196,-0.02752208709716797,988.2066650390624,0,13.0,1,1
3.04,0.058288604,-0.14400162,9.760544,-0.0002125702449120581,0.0002768770209513605,0.00020786805544048548,-8.111348152160645,25.639955520629886,-38.488746643066406,-0.30014026165008545,1.2037709951400757,-0.017599105834960938,988.1889038085938,0,13.0,1,1
3.08,0.07023305,-0.13446839,9.772381,-0.0002125702449120581,0.0002768770209513605,0.00020786805544048548,-8.111348152160645,25.639955520629886,-38.488746643066406,-0.30362290143966675,1.1900304555892944,-0.031314849853515625,988.1889038085938,0,13.0,1,1
3.12,0.077397645,-0.14638461,9.77238,-0.0004787882207892835,-0.0006552444538101554,-0.0004578796215355396,-7.477772235870361,25.495546340942386,-38.26998901367188,-0.3214117884635925,1.1909607648849487,-0.01666545867919922,988.17919921875,0,13.0,1,1
3.16,0.0654431,-0.14638446,9.758177,0.0007196821388788521,-0.00012262060772627592,0.000207930919714272,-7.116567611694336,25.09608268737793,-37.99433898925781,-0.3058677911758423,1.1821143627166748,-0.006730079650878906,988.1640014648438,0,13.0,1,1
3.2,0.07499763,-0.14400108,9.77948,0.0004534151521511376,-0.00038894446333870286,7.479399209842086e-05,-7.249423027038574,25.39349174499512,-38.60714721679688,-0.3141741156578064,1.1779632568359375,-0.03466224670410156,988.196533203125,0,13.0,1,1
3.24,0.06782284400000001,-0.14161767,9.772378999999999,-7.91677157394588e-05,-0.00012263652752153575,0.00020797288743779066,-7.533534049987793,25.86471366882324,-38.206016540527344,-0.30379921197891235,1.1596498489379885,-0.02001190185546875,988.1914672851562,0,13.0,1,1
3.28,0.06542787,-0.15591721,9.765276,0.00018719705985859042,0.0009426191099919381,0.0011400994844734669,-7.167083740234375,25.20729637145996,-38.76290893554688,-0.3073923587799072,1.1888116598129272,-0.010069847106933594,988.211669921875,0,13.0,1,1
3.32,0.06781271,-0.13446762,9.755808,5.408813012763858e-05,-0.0011879159137606619,0.0006074886186979711,-7.784873962402344,25.41844749450684,-37.83323669433594,-0.3011203110218048,1.155943751335144,0.01882457733154297,988.1887817382812,0,13.0,1,1
3.36,0.07497731,-0.14161737,9.779478,-0.0004784948541782797,-0.00025581827503629034,7.487775292247534e-05,-7.419508934020996,25.497617721557614,-38.58702850341797,-0.3096987009048462,1.1659237146377563,-0.02330875396728516,988.1838989257812,0,13.0,1,1
3.4,0.07258236400000001,-0.13446738,9.774744,-0.0004784459597431123,0.00027680554194375867,0.00020805670646950603,-7.348366260528564,25.66940498352051,-38.30010986328125,-0.30370527505874634,1.14710533618927,-0.027540206909179688,988.1987915039062,0,13.0,1,1
3.44,0.07018736,-0.14638366,9.774744,-0.0002120810677297413,0.0002767976257018745,7.491977885365486e-05,-7.315158367156982,25.48997688293457,-38.6026611328125,-0.3028112053871155,1.1618736982345579,-0.022337913513183597,988.1810913085938,0,13.0,1,1
3.48,0.067792416,-0.14638354,9.77711,-0.00034519011387601495,1.0473828297108412e-05,-0.00019137514755129811,-7.025777339935303,25.18110466003418,-38.0133056640625,-0.3015766739845276,1.1435452699661257,-0.01715564727783203,988.1834716796876,0,13.0,1,1
3.52,0.07734692,-0.15114991,9.781844,-7.882533827796578e-05,1.046591205522418e-05,-0.0003245121333748102,-7.302684783935548,26.13389778137207,-38.796234130859375,-0.3102053999900818,1.1632847785949707,-0.0072422027587890625,988.19384765625,0,13.0,1,1
3.56,0.065392375,-0.13923343,9.758172,0.00045385531848296523,0.0012088792864233255,0.0006076144054532051,-7.398881912231445,25.780614852905273,-39.06867218017578,-0.2953216433525085,1.139861822128296,0.002688407897949219,988.1884765625,0,13.0,1,1
3.6,0.06777716,-0.13923329999999998,9.767641000000001,-7.872754940763116e-05,0.00014360790373757482,-0.0001913122832775116,-7.315158367156982,25.489973068237305,-38.6026611328125,-0.2884197235107422,1.1335020065307615,-0.00608062744140625,988.1987915039062,0,13.0,1,1
3.64,0.07972163,-0.14638299999999999,9.779475999999999,-0.00021183647913858292,-0.0010548215359449387,-0.0005907650338485838,-7.99039363861084,25.5425968170166,-38.65565490722656,-0.30238479375839233,1.1408079862594604,-0.02478122711181641,988.196044921875,0,13.0,1,1
3.68,0.07254684,-0.15353270000000002,9.77474,-0.00021178770111873746,0.0009425397147424519,-5.8112433180212975e-05,-7.662259578704834,25.42848014831543,-38.776527404785156,-0.29683929681777954,1.1411707401275637,-0.019582748413085938,988.2113037109376,0,13.0,1,1
3.72,0.06776196,-0.14161621,9.772373,-0.00047805468784645194,0.0006762159173376857,-0.00019124941900372505,-7.413421154022218,25.503507614135746,-38.89624786376953,-0.2957144379615784,1.1176626682281494,-0.004904747009277344,988.1707763671876,0,13.0,1,1
3.76,0.07253671,-0.14876594,9.765271,-0.00021168991224840283,-0.00012273972970433533,-0.0001912284642457962,-7.312955379486084,25.22907066345215,-39.28059387207031,-0.3039851784706116,1.1129642724990845,-0.013872146606445312,988.1881103515624,0,13.0,1,1
3.8,0.07492155,-0.13923271,9.772372,-0.001410062424838543,-0.0005222214967943729,0.0007408980745822191,-7.783214569091798,25.52583885192871,-38.609619140625,-0.29791468381881714,1.1088179349899292,-0.013425827026367188,988.2088012695312,0,13.0,1,1
3.84,0.07969630000000001,-0.15353222,9.762903,0.000986829400062561,-0.00012275559129193422,7.512932643294333e-05,-7.325674533843994,25.5855770111084,-38.76060485839844,-0.2966265082359314,1.1191294193267822,-0.008264541625976562,988.2138061523438,0,13.0,1,1
3.88,0.07013154,-0.12969936,9.774738000000001,0.0003210885333828628,-0.0005222373874858022,-0.00019116559997200966,-7.334805965423584,25.57674217224121,-38.296775817871094,-0.28125572204589844,1.1055456399917605,-0.017309188842773438,988.2062377929688,0,13.0,1,1
3.92,0.07449335,-0.14637198,9.7747,0.0003211374278180301,0.00027670228155329823,0.00020832929294556382,-7.299234867095947,25.662633895874023,-38.15331268310547,-0.2893231213092804,1.1105390787124634,-0.0073299407958984375,988.180908203125,0,13.0,1,1
3.96,0.07208189,-0.15590458,9.769964,-0.00034312548814341426,-0.0002561772125773132,7.582560647279023e-05,-7.498261451721191,25.31846809387207,-38.4874267578125,-0.2930675446987152,1.111083984375,-0.016359329223632812,988.20068359375,0,13.0,1,1
4.0,0.060110807,-0.13683785,9.774696,0.000322192208841443,0.0008110761991702019,-0.0009873969247564671,-7.071183681488037,24.92844200134277,-38.91533660888672,-0.2730318307876587,1.1022416353225708,-0.025407791137695312,988.1881103515624,0,13.0,1,1
4.04,0.076818556,-0.15352024,9.772327,0.00045555783435702324,0.00027841090923175216,0.0006105873035266995,-7.777669429779053,25.90002250671387,-39.01728820800781,-0.29550641775131226,1.0934684276580808,-0.015515327453613281,988.1783447265624,0,13.0,1,1
4.08,0.06484747,-0.13683678,9.7675905,0.00032260781154036516,-0.0005205705529078841,0.00021120259771123528,-7.454101085662843,25.78148460388184,-38.90624237060547,-0.2898885607719421,1.0750536918640137,0.0038423538208007812,988.1986694335938,0,13.0,1,1
4.12,0.06960568,-0.14398609,9.767588,0.0003228156128898263,0.0006778170936740935,0.00021129165543243292,-7.397902965545653,26.150373458862305,-39.24442672729492,-0.2841113209724426,1.0850131511688232,0.009019851684570312,988.213623046875,0,13.0,1,1
4.16,0.07436398,-0.14398552,9.779423,0.00012908497592434287,0.00028722645947709685,-0.00012052716920152307,-7.1686058044433585,25.20582389831543,-38.68560409545898,-0.29727017879486084,1.0709524154663086,-0.023657798767089844,988.213623046875,0,13.0,1,1
4.2,0.0647828,-0.14398505,9.753382,-3.657245542854071e-06,-0.00024547276552766556,0.0009449145873077213,-7.611606121063232,25.423185348510746,-38.70703887939453,-0.2809736728668213,1.0740436315536501,0.019611358642578125,988.1910400390624,0,13.0,1,1
4.24,0.08149052,-0.15351765,9.772317,-3.657245542854071e-06,-0.00024547276552766556,0.0009449145873077213,-7.611606121063232,25.423185348510746,-38.70703887939453,-0.2896583080291748,1.0861177444458008,-0.01329803466796875,988.1910400390624,0,13.0,1,1
4.28,0.064739645,-0.13683410000000001,9.760479,-0.0004029231495223939,-0.0006449803477153183,1.2898060958832502e-05,-7.341597557067871,25.412919998168945,-39.20995330810547,-0.28378963470458984,1.0579056739807131,0.006079673767089844,988.180419921875,0,13.0,1,1
4.32,0.05276856,-0.13921691,9.786516,-0.0004029231495223939,-0.0006449803477153183,1.2898060958832502e-05,-7.439998149871826,25.320539474487305,-38.80446243286133,-0.25397735834121704,1.0533232688903809,-0.017133712768554688,988.180419921875,0,13.0,1,1
4.36,0.057526827,-0.13683306,9.760475,-0.00026955740759149194,2.07755365408957e-05,0.0005456189392134547,-7.066863059997559,25.933290481567386,-38.82083129882813,-0.2529381513595581,1.0489038228988647,-0.002491950988769531,988.170654296875,0,13.0,1,1
4.4,0.0718447,-0.14636566,9.753372,-0.00013598374789580703,-0.0005119236302562059,0.0008121129358187318,-7.4751338958740225,25.972700119018555,-39.222129821777344,-0.2752748429775238,1.06848406791687,0.016877174377441406,988.1904907226562,0,13.0,1,1
4.44,0.0646534,-0.15351494,9.760471,-2.617889549583197e-06,-0.0006451152730733156,-0.00011990353232249619,-7.240971565246582,25.66470146179199,-38.47035217285156,-0.26925599575042725,1.0548324584960938,0.0030841827392578125,988.2032470703124,0,13.0,1,1
4.48,0.06702173,-0.13444825,9.7675705,0.00026390579296275973,2.064072759822011e-05,-0.00011981447460129856,-7.530788898468018,25.23552131652832,-38.785499572753906,-0.2680513858795166,1.0409387350082395,0.003514289855957031,988.1954345703124,0,13.0,1,1
4.52,0.06939006,-0.15113063,9.765202,-0.00013536022743210196,-0.00037886691279709334,-0.00011972541688010095,-8.127815246582031,25.83558464050293,-39.03654479980469,-0.2717467546463013,1.041557550430298,0.003919601440429688,988.2059326171876,0,13.0,1,1
4.56,0.05980894,-0.14398028,9.758099000000001,0.0003974793362431228,-0.0003789005568251014,0.00027983749168924993,-7.732423305511475,25.62646293640137,-39.23920440673828,-0.2703989744186401,1.0323837995529177,0.004353523254394531,988.1904907226562,0,13.0,1,1
4.6,0.07651666,-0.15351285,9.750995,-0.00013494462473317978,0.00015369738684967158,0.00027992654941044753,-7.5790791511535645,25.50613212585449,-38.408973693847656,-0.2791919112205505,1.0374636650085451,0.009511947631835938,988.18798828125,0,13.0,1,1
4.64,0.057375878,-0.13921265,9.772297,-1.5787663869559763e-06,0.0010857691522687674,0.00041317360592074687,-7.760660171508789,25.33609962463379,-38.37104034423828,-0.25411856174468994,1.0239510536193848,-0.009039878845214844,988.1956176757812,0,13.0,1,1
4.68,0.06930381,-0.1606616,9.769928,-1.370848622173071e-06,0.00015362986596301198,0.0002801047230605036,-7.47374963760376,25.868261337280273,-38.60035705566406,-0.26284050941467285,1.0434249639511108,0.010310173034667969,988.1981811523438,0,13.0,1,1
4.72,0.059722632000000005,-0.13444503,9.772293,0.00013199489330872893,-0.0005121934809722006,0.00014703586930409074,-7.661823272705077,26.16653633117676,-39.05073547363281,-0.25661396980285645,1.0010838508605957,0.005985260009765625,988.1907348632812,0,13.0,1,1
4.76,0.06448093,-0.14874424,9.765189999999999,0.00013220269465818998,-0.00024591138935647905,0.0002802828385028988,-7.48937463760376,26.327733993530273,-38.62483215332031,-0.2746955156326294,1.0206921100616455,-0.007817268371582031,988.1983032226562,0,13.0,1,1
4.8,0.064459324,-0.13682725,9.767555,0.00039872637717053294,0.0005530025227926672,0.00028037192532792693,-6.975391387939452,25.75593376159668,-39.44042205810547,-0.25483864545822144,1.002709984779358,0.001996040344238281,988.1932983398438,0,13.0,1,1
4.84,0.07160747,-0.14159335,9.772287,0.0010647240560501814,0.0005529688787646592,-0.0005184866604395211,-7.153087139129639,25.852693557739254,-39.033782958984375,-0.2677741050720215,1.0030707120895386,-0.0023193359375,988.2083129882812,0,13.0,1,1
4.88,0.07158589,-0.15589239,9.76045,-0.0010655950754880905,-0.0003791705239564181,1.4234217815101147e-05,-7.9152283668518075,26.08709526062012,-38.69910049438477,-0.2616071701049805,1.0080646276474001,0.02651596069335937,988.1931762695312,0,13.0,1,1
4.92,0.062004685,-0.14874210000000002,9.760447000000001,-0.00013328174827620387,-0.0010449939873069523,0.000413797126384452,-7.562176704406737,26.04855918884277,-38.1353759765625,-0.2604185938835144,1.003280520439148,0.01749420166015625,988.1909790039062,0,13.0,1,1
4.96,0.07871246,-0.14159168,9.777016,-0.0007988636498339473,0.00028655165806412697,-0.0007845352520234883,-7.335648059844972,25.31289482116699,-38.82009506225586,-0.2689791321754456,0.9941959977149964,-0.010515213012695312,988.1981811523438,0,13.0,1,1
5.0,0.06435153,-0.13682462,9.77228,-0.00013286602916195991,0.0008191497181542218,1.4501449186354874e-05,-7.2789063453674325,25.31349372863769,-39.05982971191406,-0.2536153197288513,0.9758464097976683,-0.01961231231689453,988.1854248046876,0,13.0,1,1
5.04,0.06671983,-0.14635722,9.765177,0.0003999735345132649,-0.0003793054784182459,0.00014774856390431523,-7.671934604644775,25.78793525695801,-38.41114807128906,-0.2574405372142792,0.9908676147460938,0.00916290283203125,988.1981811523438,0,13.0,1,1
5.08,0.061918437,-0.15350650000000002,9.784111,0.000400181335862726,0.0005527663161046803,-0.00038479414070025086,-7.445107460021973,25.68440818786621,-38.670997619628906,-0.25661057233810425,0.9866125583648682,-0.009390830993652344,988.200927734375,0,13.0,1,1
5.12,0.07145649,-0.13920629999999998,9.772274000000001,-0.0003985583898611367,0.00028641673270612955,-0.00025154714239761233,-7.620600700378418,25.5202693939209,-38.94228744506836,-0.25531724095344543,0.9726626873016356,0.009950637817382812,988.2031860351562,0,13.0,1,1
5.16,0.071434915,-0.15827198,9.795944,-0.00013203459093347192,-0.0005125646712258458,-0.0005177739658392966,-7.590573787689209,25.231977462768555,-38.39115905761719,-0.2542576193809509,0.9874221682548524,-0.02280139923095703,988.2057495117188,0,13.0,1,1
5.2,0.061853766,-0.14158852,9.779371000000001,-0.00026498473016545177,0.0005526651511900127,-0.00038452696753665805,-7.669731616973878,25.52703666687012,-39.08908081054688,-0.24856573343276975,0.9733612537384032,0.0012722015380859375,988.1906127929688,0,13.0,1,1
5.24,0.07139182,-0.13920473,9.777002,-0.0006642506341449916,1.999962842091918e-05,0.00014819385251030326,-7.542827129364014,25.32965660095215,-38.86613464355469,-0.2519276738166809,0.9594316482543944,-0.003064155578613281,988.1856079101562,0,13.0,1,1
5.28,0.06659043,-0.14158751,9.777000000000001,-0.0005308848922140896,-0.0006458237767219543,0.00041459884960204363,-7.958707809448242,25.36169624328613,-38.88090896606445,-0.2459354847669601,0.959836721420288,0.006793022155761719,988.2083129882812,0,13.0,1,1
5.32,0.06417894,-0.14397020000000002,9.765162,-0.0003975190338678658,1.993216574192047e-05,-0.0005174176185391842,-7.591958522796631,25.3364200592041,-39.01293182373047,-0.2353108376264572,0.9555844664573668,0.016637802124023438,988.2059326171876,0,13.0,1,1
5.36,0.07371699999999999,-0.13681991,9.772262,-0.00013099535135552287,0.0002862143446691334,-0.0003841706202365458,-7.313093662261963,25.123159408569336,-38.58151245117188,-0.2533186078071594,0.946624517440796,-0.011399269104003906,988.1884765625,0,13.0,1,1
5.4,0.05935606400000001,-0.14635243,9.762791,0.0002686863881535828,1.986470306292176e-05,-0.0006503974436782299,-7.519836902618407,25.877973556518555,-38.901763916015625,-0.2379574924707413,0.9521795511245728,0.007886886596679688,988.17333984375,0,13.0,1,1
5.44,0.073673904,-0.14635192,9.776992,0.0004020521300844848,0.0002861468237824738,-0.0007834662101231514,-7.6758198738098145,25.52114295959473,-38.77986145019531,-0.2564060091972351,0.9385176301002502,-0.005963325500488281,988.1754150390624,0,13.0,1,1
5.48,0.06943872599999999,-0.14636529999999998,9.769941000000001,-0.0001303718308918178,0.0009519026498310268,-0.0006502193282358347,-7.93846321105957,26.53920555114746,-38.33705139160156,-0.25123387575149536,0.9435847997665404,0.0133056640625,988.1934814453124,0,13.0,1,1
5.52,0.06465179,-0.13444872,9.774675,-0.0009311450994573534,-0.0001130643649958074,-0.0002515279338695109,-7.69394588470459,25.609384536743164,-38.55127716064453,-0.2406671047210693,0.9245457053184508,-0.0004949569702148439,988.20849609375,0,13.0,1,1
5.56,0.064644516,-0.15589799,9.769939,-0.0010731229558587074,0.0005570243229158223,-0.000252468278631568,-7.690901756286621,25.61232948303223,-38.70588684082031,-0.23933483660221103,0.9394429922103882,0.00460052490234375,988.2059326171876,0,13.0,1,1
5.6,0.062247395999999997,-0.13444836,9.7817745,-0.0010731229558587074,0.0005570243229158223,-0.000252468278631568,-8.075096130371094,25.463476181030273,-38.94591522216797,-0.2434496283531189,0.9209309816360474,-0.013988494873046877,988.2059326171876,0,13.0,1,1
5.64,0.06940991,-0.15589763,9.774672500000001,0.00012536800932139158,-0.00024193455465137959,1.3877346646040676e-05,-7.892673969268799,25.89735221862793,-38.46052551269531,-0.2472306340932846,0.9359465241432191,0.014760017395019531,988.1884765625,0,13.0,1,1
5.68,0.069402754,-0.15113093,9.765203,0.0002675228170119226,0.0006739599630236626,-8.703680941835046e-05,-7.841340065002441,25.629682540893555,-38.991661071777344,-0.23644568026065824,0.9177448153495787,0.0150909423828125,988.2007446289062,0,13.0,1,1
5.72,0.05983585,-0.15113075,9.7675705,0.00040081975748762483,-0.00025816820561885834,0.00031249652965925634,-7.399860858917236,25.41084861755371,-38.892913818359375,-0.2306753247976303,0.9179651737213136,0.015467643737792969,988.180419921875,0,13.0,1,1
5.76,0.07177818,-0.14636405,9.7699375,1.41531927511096e-06,-0.0001250214409083128,-8.69475188665092e-05,-7.793730735778809,25.62144660949707,-38.76755905151367,-0.2487589865922928,0.9143322110176086,0.001567840576171875,988.1986694335938,0,13.0,1,1
5.8,0.06460127,-0.13683076,9.7581,0.0008004324627108872,8.125207386910915e-06,0.00017939822282642126,-7.270455360412598,25.58470726013184,-38.92303085327149,-0.2332011014223099,0.9102509021759032,0.006644248962402344,988.1837158203124,0,13.0,1,1
5.84,0.06459409,-0.14398039999999998,9.767569,0.00013471214333549142,-0.00012504408368840814,-8.688797242939471e-05,-7.902647018432617,25.624670028686523,-38.52001190185547,-0.22253182530403134,0.8966600298881531,0.01644611358642578,988.1864013671876,0,13.0,1,1
5.88,0.066976726,-0.16066317,9.767567,1.6238191165030003e-06,-0.00012505537597462538,0.0005789315328001977,-7.649242401123048,25.70411491394043,-38.87165069580078,-0.24006858468055725,0.9019599556922911,0.012067794799804688,988.2091064453124,0,13.0,1,1
5.92,0.05979985,-0.14398004,9.774668,-0.00039778061909601087,-0.0009240142535418273,-0.0003531443071551621,-7.44358491897583,25.685880661010746,-38.74830627441406,-0.22464260458946228,0.897786021232605,0.007672309875488281,988.1837158203124,0,13.0,1,1
5.96,0.08130178,-0.13206346,9.765198,0.0005343945813365282,8.080096449702976e-06,-0.00035311450483277435,-7.148958206176758,25.119054794311523,-38.99148941040039,-0.24283717572689054,0.8702901005744934,0.0032339096069335933,988.19384765625,0,13.0,1,1
6.0,0.07651478,-0.14159639,9.767565,0.0005344638484530151,8.068745955824852e-06,0.0009784947615116837,-7.366354942321777,25.863561630249023,-38.770599365234375,-0.24174511432647705,0.8806383013725281,0.008287429809570312,988.1962280273438,0,13.0,1,1
6.04,0.06216812,-0.1439795,9.750994,0.0006676912889815867,0.00040753127541393036,4.641892155632377e-05,-7.517473220825195,26.14328956604004,-38.45574188232422,-0.22670775651931765,0.8721343874931335,0.036988258361816406,988.2113647460938,0,13.0,1,1
6.08,0.06455082,-0.14874585,9.772298,0.0006677609053440393,0.0005406779237091541,-8.670933311805129e-05,-7.798839569091798,25.985315322875977,-38.63409423828125,-0.23026965558528897,0.8869333863258362,0.02312660217285156,988.2266845703124,0,13.0,1,1
6.12,0.07171333,-0.14636241,9.76993,-0.0013295388780534267,8.034927304834127e-06,4.647840978577733e-05,-7.907074928283691,25.72616767883301,-38.98717498779297,-0.2334631383419037,0.8808209300041199,-6.103515625e-05,988.2217407226562,0,13.0,1,1
6.16,0.06931621,-0.13921247,9.774664,0.000268425967078656,8.023693226277828e-06,0.0005791399744339287,-7.419508934020996,25.497617721557614,-38.58702850341797,-0.2327314019203186,0.8644852042198181,-0.009367942810058594,988.2066040039062,0,13.0,1,1
6.2,0.069308996,-0.15351189999999998,9.774664,0.0006679692887701094,-0.0007909352425485848,-0.00021977786673232916,-7.864574909210205,26.08180046081543,-38.629615783691406,-0.2314745932817459,0.8701879978179932,0.005139350891113281,988.188720703125,0,13.0,1,1
6.24,0.07169169,-0.14636193,9.772295,0.00013540690997615457,0.00027431698981672525,-8.659012382850051e-05,-7.085287094116211,25.38939476013184,-39.01712036132813,-0.2209693193435669,0.8566069006919861,0.010187149047851562,988.2040405273438,0,13.0,1,1
6.28,0.07407439,-0.15351151,9.755724,-0.00039715523598715663,-0.0006577998865395784,0.00017975544324144718,-7.535354614257812,25.23110008239746,-38.55358123779297,-0.21968358755111692,0.8668959736824036,0.03417396545410156,988.2294921875,0,13.0,1,1
6.32,0.06689745,-0.15827794,9.769928,0.0005350197316147387,-0.00039149521035142243,0.0005792590673081577,-8.012404441833496,25.364049911499023,-38.79579162597656,-0.2327409237623215,0.872355043888092,0.02028751373291016,988.1812744140624,0,13.0,1,1
6.36,0.071670055,-0.14636137,9.767559,0.00013561540981754658,-0.0005246645305305718,0.00017981504788622257,-7.301054954528809,25.02902412414551,-38.500877380371094,-0.22201240062713626,0.8493719696998596,0.006386756896972656,988.2222290039062,0,13.0,1,1
6.4,0.06210327,-0.15112779999999998,9.760457,0.00026884285034611816,7.955939508974552e-06,-0.00021962897153571248,-7.3673338890075675,25.49379539489746,-38.59484481811523,-0.21613730490207672,0.8455802798271179,0.02087974548339844,988.2020874023438,0,13.0,1,1
6.44,0.0764932,-0.14636244,9.777031,0.0005352281150408089,-0.00039152911631390447,-8.644134504720569e-05,-7.903733253479004,26.36124992370605,-38.71691513061523,-0.23430754244327545,0.8417237401008606,0.016437530517578125,988.19189453125,0,13.0,1,1
6.48,0.064597785,-0.1535136,9.772302999999999,2.6658526621758938e-06,0.0002742493525147438,0.00017990433843806386,-8.052105903625487,26.01178932189941,-38.98154067993164,-0.21420873701572415,0.8469412922859192,0.016750335693359375,988.2118530273438,0,13.0,1,1
6.52,0.062205315,-0.14398039999999998,9.769936,0.00026795343728736043,-0.00039137346902862186,-0.0006194839370436965,-7.548371315002441,24.95547294616699,-38.45846176147461,-0.2077975571155548,0.8316335082054138,0.02191638946533203,988.1642456054688,0,13.0,1,1
6.56,0.059812903,-0.15828003,9.762833,0.00026795343728736043,-0.00039137346902862186,-0.0006194839370436965,-7.548371315002441,24.95547294616699,-38.45846176147461,-0.21692897379398346,0.8488110303878784,0.017322540283203125,988.1642456054688,0,13.0,1,1
6.6,0.062200278,-0.13921373,9.7652,0.0004011359415017069,0.0008070440962910652,-8.684175554662943e-05,-7.530788898468018,25.23551750183105,-38.785499572753906,-0.215867280960083,0.8162767291069031,0.02234649658203125,988.2147827148438,0,13.0,1,1
6.64,0.08131695,-0.16304649999999998,9.760466000000001,1.6865669749677181e-06,-0.0007908552652224897,0.0007121163653209804,-7.7500061988830575,25.34641456604004,-38.91217803955078,-0.21964797377586365,0.831547737121582,0.032095909118652344,988.2072143554688,0,13.0,1,1
6.68,0.06458515,-0.14398016,9.769934,0.00040118471952155227,-0.00039138534339144826,-8.682068437337875e-05,-7.916207313537598,25.717329025268555,-38.523345947265625,-0.2089870274066925,0.8084626793861389,0.01345062255859375,988.2072143554688,0,13.0,1,1
6.72,0.07175231,-0.15589656,9.7652,-0.0001314224791713059,0.0006738741649314762,-0.00035312614636495715,-7.9402828216552725,25.90559196472168,-38.68461990356445,-0.2132120430469513,0.8187717199325562,0.013733863830566406,988.1845092773438,0,13.0,1,1
6.76,0.062190145,-0.15112986,9.772300999999999,-0.00013139803195372224,0.0013396600261330605,0.0007121477974578737,-7.743077278137207,25.61614799499512,-38.69807434082031,-0.2127516269683838,0.8291906118392944,0.014006614685058594,988.1946411132812,0,13.0,1,1
6.8,0.06696743,-0.15589638,9.7652,0.0006675738259218633,0.0006738663651049138,0.00017952657071873546,-7.316542625427246,25.59441947937012,-39.22443389892578,-0.20706310868263245,0.8160218596458435,0.014266014099121094,988.1617431640624,0,13.0,1,1
6.84,0.07174468,-0.12968023,9.767565,0.0002681246842257678,0.00040754640940576786,-0.0002199367736466229,-7.725791931152344,25.26406288146973,-39.44997787475586,-0.2108193337917328,0.7790151834487915,0.01926136016845703,988.210205078125,0,13.0,1,1
6.88,0.06935227,-0.14874639,9.762831,0.0006676229531876742,0.000274384452495724,4.638952668756247e-05,-7.325376033782959,26.21771812438965,-38.33573532104492,-0.21014627814292908,0.7897509932518005,0.02897930145263672,988.1946411132812,0,13.0,1,1
6.92,0.069349706,-0.1439798,9.767566,0.0008008051081560553,0.0010733281960710883,0.0008453476475551723,-7.81500768661499,26.813085556030273,-38.75702667236328,-0.22391395270824432,0.8002953529357909,0.015035629272460938,988.2174682617188,0,13.0,1,1
6.96,0.066957235,-0.13682993,9.765198,0.0008008051081560553,0.0010733281960710883,0.0008453476475551723,-7.011536598205566,24.82607078552246,-38.610599517822266,-0.20372141897678372,0.7821856141090393,0.010568618774414062,988.2174682617188,0,13.0,1,1
7.0,0.064564824,-0.12253018,9.753361,0.00040135596645995975,0.0009401661809533834,-0.0004862213390879333,-7.5826659202575675,25.87148475646973,-38.35280990600586,-0.2023521214723587,0.7691400647163391,0.03922843933105469,988.2125244140624,0,13.0,1,1
7.04,0.06456226,-0.14397962,9.784134,0.0005345625686459243,-0.0002582632005214691,4.643131978809834e-05,-7.570192337036133,26.51540184020996,-38.54637908935547,-0.19661107659339905,0.7702261805534363,0.01581096649169922,988.19970703125,0,13.0,1,1
7.08,0.06455976,-0.1582792,9.777034,0.00026827136753126984,-0.0003914250119123608,-0.0007525056716986,-7.761203289031982,25.70439720153809,-38.469486236572266,-0.19066275656223294,0.7951000928878784,0.02553749084472656,988.1776123046876,0,13.0,1,1
7.12,0.06933701,-0.14636277,9.758094999999999,1.97970075532794e-06,-0.0002582711167633533,0.0003127681848127395,-7.46116828918457,25.40583610534668,-38.42126846313477,-0.20404334366321564,0.7910391092300415,0.02108097076416016,988.1953735351562,0,13.0,1,1
7.16,0.07411429,-0.14397945,9.769931,-0.0003479409497231245,-0.00015383149730041623,-0.0005286275409162045,-7.496739387512207,25.3199405670166,-38.56472778320313,-0.21236789226531985,0.7729924321174622,0.007136344909667969,988.2157592773438,0,13.0,1,1
7.2,0.07172185,-0.14636268,9.777032,0.00018471525982022285,-0.000819625158328563,4.014815203845501e-06,-7.445948600769043,25.420564651489254,-39.19432067871094,-0.19640740752220154,0.7738317847251892,0.01687908172607422,988.1823120117188,0,13.0,1,1
7.24,0.0669395,-0.14397933,9.76993,-0.00048105011228472,-0.001219102879986167,-0.0007949224673211576,-7.07270622253418,24.92697334289551,-38.83802795410156,-0.19552811980247495,0.7605085372924805,0.03133583068847656,988.1551513671876,0,13.0,1,1
7.28,0.06693703,-0.1582789,9.762830000000001,-0.00021470966748893258,-0.0002870012540370226,-0.0006617540493607521,-7.530788898468018,25.23552131652832,-38.785499572753906,-0.19921524822711945,0.7661790251731873,0.026859283447265625,988.1631469726562,0,13.0,1,1
7.32,0.06454456,-0.14636247,9.772297,5.163054447621107e-05,0.000378784432541579,-0.000395427574403584,-7.850769996643066,24.988710403442386,-38.95270538330078,-0.19363772869110107,0.7529308795928955,-0.0013027191162109375,988.1678466796876,0,13.0,1,1
7.36,0.05976221,-0.14159583,9.774664,0.0004511288134381175,0.0007782542961649598,0.0002703724312596023,-8.010883331298826,25.36551856994629,-38.87309265136719,-0.18794408440589905,0.7539151310920715,0.022620201110839844,988.2108764648438,0,13.0,1,1
7.4,0.06931931,-0.13444598,9.772297,-0.0007472680881619452,-2.0697363652288917e-05,-0.0001290908548980951,-7.540326118469237,25.70088768005371,-39.11919403076172,-0.19230584800243375,0.7405639290809631,0.02759552001953125,988.2062377929688,0,13.0,1,1
7.44,0.06463152,-0.14636464,9.765203,-0.00048092799261212354,0.0010445620864629743,4.077563062310219e-06,-8.177083969116211,25.736440658569336,-38.4842643737793,-0.1912228912115097,0.7462259531021118,0.032576560974121094,988.183349609375,0,13.0,1,1
7.48,0.07180247,-0.13206495,9.774673,-0.0003479716833680868,-0.0002869844320230186,-0.00066179852001369,-7.33771276473999,25.67971229553223,-38.84123992919922,-0.19038502871990204,0.7278564572334291,0.013898849487304688,988.1783447265624,0,13.0,1,1
7.52,0.05985424,-0.14874788,9.7699375,-0.0007481225766241549,-0.000286874535959214,-0.0006620887434110045,-7.543668270111084,25.06580924987793,-39.38945770263672,-0.17907372117042542,0.7369618415832521,0.03317451477050781,988.2189331054688,0,13.0,1,1
7.56,0.057465613,-0.15351458,9.762836,0.0007166028954088688,-0.00042003049748018384,-0.0005289360415190458,-7.17814302444458,25.67119407653809,-39.01930236816406,-0.17848163843154907,0.749381422996521,0.02382755279541016,988.1810913085938,0,13.0,1,1
7.6,0.069416404,-0.14398144,9.760469,-8.235708810389042e-05,-0.0006863443413749338,-0.00012946745846420527,-7.510842800140381,25.780893325805664,-38.6665153503418,-0.18723902106285092,0.745326817035675,0.04302024841308594,988.2113037109376,0,13.0,1,1
7.64,0.06702775,-0.13921492,9.767572,-0.0007481593638658524,-2.0552717614918947e-05,-0.0006621043430641294,-6.9749860763549805,25.28172874450684,-38.64289474487305,-0.19067336618900302,0.7177248597145081,0.033791542053222656,988.186279296875,0,13.0,1,1
7.68,0.071808815,-0.15589781,9.769939,-0.0008813292952254415,-0.0008194983238354325,-0.0002626358764246106,-7.5026893615722665,25.419965744018555,-38.95458984375,-0.1942533403635025,0.7326840162277222,0.015111923217773438,988.1936645507812,0,13.0,1,1
7.72,0.06942019,-0.14159829999999998,9.769939,-0.0010144993430003524,-0.0006863384041935205,-0.0007952728774398565,-7.393229961395264,25.048452377319336,-39.10368728637695,-0.1880790889263153,0.7273070812225342,0.015444755554199219,988.1942138671876,0,13.0,1,1
7.76,0.062251747,-0.1535147,9.7865095,0.0003170674899592996,0.0006452429224736989,0.0002699853794183582,-7.800361156463622,25.98384666442871,-38.55678939819336,-0.1828061640262604,0.7352461814880371,-0.012862205505371094,988.1764526367188,0,13.0,1,1
7.8,0.076592475,-0.13444848,9.760471,0.00045021343976259226,-0.001352124148979783,3.6642886698246002e-06,-7.409834384918213,25.138166427612305,-38.95240783691406,-0.19587844610214236,0.7079131007194519,0.0489044189453125,988.1994018554688,0,13.0,1,1
7.84,0.0598644,-0.14398159,9.774673,5.071505438536406e-05,-0.0002868566662073136,0.00040312766213901336,-7.578397750854492,25.24376106262207,-39.00959777832031,-0.17535623908042908,0.7121326923370361,0.020822525024414062,988.2014770507812,0,13.0,1,1
7.88,0.07181519,-0.16066463,9.758102000000001,5.071505438536406e-05,-0.0002868566662073136,0.00040312766213901336,-7.578397750854492,25.24376106262207,-39.00959777832031,-0.18915213644504547,0.7245332598686218,0.02567291259765625,988.2014770507812,0,13.0,1,1
7.92,0.07420635,-0.14874826,9.760469,-0.0002156130503863096,-0.0006863285088911653,-0.0009284570114687084,-7.310890674591064,24.86225700378418,-39.25944519042969,-0.18747463822364807,0.7065508961677551,0.02590274810791016,988.2116088867188,0,13.0,1,1
7.96,0.07898742,-0.14159842,9.765205,0.00045016477815806877,-0.0009526424109935759,-0.000395830487832427,-7.462552547454834,25.51027488708496,-39.04304504394531,-0.19129621982574466,0.7079251408576965,0.021370887756347656,988.1943359375,0,13.0,1,1
8.0,0.07659876,-0.15113159,9.762838,-0.00021563749760389328,-0.0008194824331440033,-0.0002626777277328074,-7.499783039093018,25.31699562072754,-38.410118103027344,-0.18963997066020968,0.7090311646461487,0.03579902648925781,988.1991577148438,0,13.0,1,1
8.04,0.07182026,-0.14159854,9.76994,-0.0006151235429570079,-0.0017515860963612795,-0.00039584096521139145,-7.6960105895996085,25.9762020111084,-38.57242202758789,-0.18853133916854856,0.6861195564270021,0.03129291534423828,988.212158203125,0,13.0,1,1
8.08,0.06943160000000001,-0.13921525,9.777041,-0.0006151354173198342,-0.00015368883032351732,0.0004031014686916024,-7.074771404266357,25.293790817260746,-38.85917663574219,-0.17812389135360718,0.6683435440063477,0.012558937072753906,988.1995239257812,0,13.0,1,1
8.12,0.069432855,-0.14874835,9.767572999999999,0.0005832734750583768,0.00037894485285505647,-0.00012953556142747402,-7.52385950088501,25.505258560180664,-38.57139587402344,-0.18701675534248352,0.6979776620864868,0.017505645751953125,988.179443359375,0,13.0,1,1
8.16,0.069434136,-0.153515,9.765205,-0.0007483181543648242,0.0009115787106566133,-0.00012954080011695626,-7.785279273986816,25.89266014099121,-38.63076400756836,-0.16719698905944824,0.699367344379425,0.02716827392578125,988.194580078125,0,13.0,1,1
8.2,0.06704551,-0.13206555,9.760471,-0.0002156983828172088,-0.000553156656678766,3.6118435673415665e-06,-7.26839017868042,25.217885971069336,-38.90188598632813,-0.1657547950744629,0.6720091700553894,0.04631519317626953,988.2200317382812,0,13.0,1,1
8.24,0.06943673,-0.14398195,9.762838,5.060515832155943e-05,-0.0005531546776182951,0.0001367646036669612,-7.00889778137207,25.303224563598636,-39.56274032592773,-0.16491205990314484,0.6688624620437622,0.04649448394775391,988.1871337890624,0,13.0,1,1
8.28,0.064658165,-0.15113176,9.767574,5.060515832155943e-05,-0.0005531546776182951,0.0001367646036669612,-7.641633033752441,25.71147727966309,-39.25817108154297,-0.16872823238372806,0.6655615568161011,0.01827430725097656,988.1871337890624,0,13.0,1,1
8.32,0.07660895599999999,-0.15113188,9.758104,0.00031690846662968397,-0.00028683681739494205,0.0008025490678846836,-8.07716178894043,25.83028984069824,-38.96706008911133,-0.18253791332244876,0.6765494346618652,0.032660484313964844,988.1845703125,0,13.0,1,1
8.36,0.059880853,-0.15589844,9.767574,0.0003168843686580658,0.0006452728412114084,-0.0001295669935643673,-7.580899238586426,24.87252616882324,-38.756534576416016,-0.16269320249557495,0.6826924681663513,0.023380279541015625,988.2074584960938,0,13.0,1,1
8.4,0.06466198,-0.14398207,9.758104,0.00018371385522186762,0.00011264294153079389,0.00026990158949047327,-7.8384337425231925,25.526716232299805,-38.44718933105469,-0.1711391806602478,0.6649951934814453,0.047245025634765625,988.1947631835938,0,13.0,1,1
8.44,0.0577178,-0.1511374,9.767595,-0.0002157718408852816,-0.0006863026646897197,-0.0006622093496844172,-7.742236137390138,25.88000297546387,-38.17475128173828,-0.16029179096221924,0.6741637587547302,0.02383518218994141,988.1900634765624,0,13.0,1,1
8.48,0.0696775,-0.13922127,9.753391,0.000184486445505172,-0.0001544589758850634,-0.0005296734743751585,-7.6998958587646475,25.70940971374512,-38.941139221191406,-0.16456221044063568,0.6532432436943054,0.047608375549316406,988.2005004882812,0,13.0,1,1
8.52,0.07207751,-0.14398806,9.772331,-0.00021586782531812787,-0.0004206319572404027,0.0002688969543669373,-7.720630168914795,26.532758712768555,-38.8321533203125,-0.1776626706123352,0.6434844136238098,0.02894115447998047,988.1801147460938,0,13.0,1,1
8.56,0.06969777,-0.15590475,9.781801,-0.0002159656141884625,-0.00015430012717843056,-0.00039693474536761636,-7.37589168548584,26.32892799377441,-39.10430145263672,-0.17246423661708832,0.6559720039367676,0.010099411010742188,988.19775390625,0,13.0,1,1
8.6,0.06253818,-0.14398862,9.772333,-0.0004823791678063572,0.0006446634652093053,0.00013565522385761142,-7.662802696228027,25.79677391052246,-38.87498474121094,-0.15746714174747467,0.6525550484657288,0.02448272705078125,988.1878051757812,0,13.0,1,1
8.64,0.06254834,-0.14875542,9.753395,-8.300336776301265e-05,-0.0004205843433737755,-0.00026386062381789094,-7.935173988342285,25.54172325134277,-38.81808471679688,-0.1567559838294983,0.6397894620895386,0.04832744598388672,988.1952514648438,0,13.0,1,1
8.68,0.06255847,-0.14160587,9.758131,0.000574801757466048,0.0010213088244199753,0.0003469178918749094,-7.7295169830322275,25.52348899841309,-38.694740295410156,-0.16115784645080564,0.6317332983016968,0.03429126739501953,988.1780395507812,0,13.0,1,1
8.72,0.06734842,-0.1487559,9.758132000000002,0.00017522991402074695,0.0011544824810698626,0.0006131918635219336,-7.666825771331787,25.42406272888184,-38.54461288452149,-0.1649802178144455,0.6475515365600586,0.02499485015869141,988.2080078125,0,13.0,1,1
8.76,0.064968705,-0.14398961,9.753397999999999,-0.00035749952076002955,-0.00031023885821923614,0.00034683413105085487,-7.354316711425781,25.76942253112793,-38.6899642944336,-0.16427548229694364,0.63006591796875,0.048831939697265625,988.1859130859376,0,13.0,1,1
8.8,0.06258893,-0.14637311,9.753399,0.0003081922768615186,8.925088332034647e-05,0.001145739806815982,-7.465298175811768,26.13947105407715,-38.46356201171875,-0.15384778380393982,0.6315808892250061,0.044264793395996094,988.1854248046876,0,13.0,1,1
8.84,0.06976879,-0.13922353,9.758135000000001,-0.0004908530390821396,-0.0007096809567883612,-0.00031903950730338687,-7.376465320587157,25.48495674133301,-38.131019592285156,-0.15790772438049314,0.613707959651947,0.04444694519042969,988.2135009765624,0,13.0,1,1
8.88,0.06260922599999999,-0.15590669,9.774706,-0.000490951060783118,0.0007550722220912576,0.00021355034550651908,-7.412579536437987,25.76735496520996,-38.37292861938477,-0.15255466103553772,0.6387820839881897,0.0209503173828125,988.19091796875,0,13.0,1,1
8.92,0.07217902,-0.13922398,9.760504,-9.157467866316438e-05,0.0003556142619345337,8.035049540922046e-05,-7.361926555633545,25.762060165405273,-38.30344009399414,-0.16164398193359375,0.6114891767501831,0.03059101104736328,988.2090454101562,0,13.0,1,1
8.96,0.060239583,-0.14875741,9.777075,-0.0008906204602681099,0.00102142000105232,-5.2849354688078165e-05,-7.209286212921143,25.483800888061523,-38.69559860229492,-0.1511845886707306,0.6223850250244141,0.01655864715576172,988.1934814453124,0,13.0,1,1
9.0,0.05546999,-0.13922457,9.769975,-0.0004912441945634782,-4.382769111543894e-05,0.0008792143780738115,-7.742236137390138,25.8799991607666,-38.17475128173828,-0.15012720227241516,0.5999642610549927,0.03566455841064453,988.1861572265624,0,13.0,1,1
9.04,0.06264979,-0.14399137,9.767609,-0.0008908160380087793,-0.0007096015615388751,-0.0003192490548826754,-7.94539213180542,26.26946449279785,-38.55115509033203,-0.14924882352352142,0.6015383005142212,0.03582286834716797,988.1937866210938,0,13.0,1,1
9.08,0.067439795,-0.13207520000000003,9.753406,0.00017434993060305715,-0.00017695390852168202,0.0007459725602529942,-7.094961643218994,25.74884605407715,-38.65174102783203,-0.1629505753517151,0.5935930013656616,0.04071235656738281,988.2112426757812,0,13.0,1,1
9.12,0.057890265999999996,-0.14160858,9.784181,4.109396832063794e-05,-4.378007724881172e-05,0.0004796147695742548,-7.446629524230957,25.68293571472168,-38.593692779541016,-0.14311310648918152,0.6050016283988953,0.017181396484375,988.2090454101562,0,13.0,1,1
9.16,0.060290366,-0.14399208,9.769979,0.0007067858823575079,0.0008883413393050431,0.00021325697889551518,-8.027189254760742,26.08736991882324,-38.29694366455078,-0.15219125151634216,0.5924454927444458,0.02205848693847656,988.1918334960938,0,13.0,1,1
9.2,0.06269038,-0.15114214,9.7723465,4.0898506995290525e-05,0.0002225674979854375,0.00047953095054253936,-7.449673175811768,25.679990768432614,-38.43908309936523,-0.13727125525474548,0.5941497683525085,0.02220439910888672,988.1868286132812,0,13.0,1,1
9.24,0.06270057,-0.14875908,9.7699795,-9.235733887180686e-05,0.000888373120687902,-0.00045261654304340476,-7.212191581726074,25.586774826049805,-39.24006652832031,-0.1460777074098587,0.5862137675285339,0.04129314422607422,988.1943969726562,0,13.0,1,1
9.28,0.0627107,-0.1535259,9.755777,-9.245512774214149e-05,-0.00031003245385363703,-0.0005858163931407034,-7.474728107452393,25.49849510192871,-38.424598693847656,-0.14540919661521912,0.5880235433578491,0.0366973876953125,988.1943969726562,0,13.0,1,1
9.32,0.053161263,-0.17020907,9.765247,0.00030692090513184667,-4.370071110315621e-05,-0.0004527004784904421,-7.683972358703612,25.88207054138184,-38.49178695678711,-0.1403270810842514,0.6133823394775391,0.02737712860107422,988.1692504882812,0,13.0,1,1
9.36,0.06990069,-0.13922684,9.777084,0.00030682311626151204,0.001554210321046412,0.0004793632833752781,-7.604975700378418,25.06078910827637,-38.91780853271485,-0.14902327954769135,0.5768641233444214,0.013321876525878906,988.1845092773438,0,13.0,1,1
9.4,0.067852736,-0.15115155,9.758179,-0.0006253802566789091,-0.00044314272236078983,0.0004793213738594204,-7.900444507598878,25.36376762390137,-39.19794464111328,-0.15763260424137115,0.5833607316017151,0.05607414245605469,988.2071533203124,0,13.0,1,1
9.44,0.06104493,-0.13209425,9.760578,0.0007061013602651657,-0.00030996892019174993,-5.335238529369235e-05,-7.163060665130615,25.580007553100586,-39.0932731628418,-0.1337759494781494,0.5567577481269836,0.037201881408691406,988.1692504882812,0,13.0,1,1
9.48,0.06825146,-0.15354456,9.755848,-0.00022557779448106885,-0.0005845348350703716,0.00033882551360875374,-7.507798194885254,25.78383445739746,-38.82112503051758,-0.14696869254112244,0.5853109955787659,0.04688644409179688,988.1818237304688,0,13.0,1,1
9.52,0.06350845,-0.14401244,9.767686999999999,-0.00022557779448106885,-0.0005845348350703716,0.00033882551360875374,-7.507798194885254,25.78383445739746,-38.82112503051758,-0.14168186485767365,0.5693573355674744,0.04222679138183594,988.1818237304688,0,13.0,1,1
9.56,0.05876544,-0.14639656,9.779525999999999,0.00017354130977764726,-5.1845534471794956e-05,0.00047183138667605823,-7.7776689529418945,25.90002250671387,-39.01728820800781,-0.14104270935058594,0.5759373903274536,0.01868438720703125,988.1898193359376,0,13.0,1,1
9.6,0.046852708,-0.15831386,9.75349,0.00017354130977764726,-5.1845534471794956e-05,0.00047183138667605823,-7.111428260803223,25.944475173950195,-39.19953918457031,-0.12131038308143614,0.5966182947158813,0.061431884765625,988.1898193359376,0,13.0,1,1
9.64,0.06600872,-0.14163186,9.758227999999999,-0.0002262871130369604,0.00021452791406773033,0.00020536361262202263,-7.1571102142333975,25.479982376098636,-38.70341491699219,-0.14492464065551758,0.5555542707443237,0.033148765563964844,988.1798706054688,0,13.0,1,1
9.68,0.07082534,-0.13924943,9.7677,0.0005719514447264372,0.001146748661994934,7.190171163529158e-05,-7.444564342498778,25.316118240356445,-38.572547912597656,-0.14884106814861298,0.5577462315559387,0.028528213500976562,988.174560546875,0,13.0,1,1
9.72,0.06369236,-0.14878346,9.760602,0.0007047547842375934,-0.0007174049387685955,-0.00019456620793789625,-7.300619125366211,25.76707649230957,-38.77508544921875,-0.14339342713356018,0.5501942038536072,0.03338050842285156,988.1898193359376,0,13.0,1,1
9.76,0.056559473,-0.14640106,9.772442,0.00017176842084154487,8.160030120052397e-05,0.0007373874541372062,-7.504892349243164,25.680864334106445,-38.27665710449219,-0.13322916626930234,0.5616172552108765,0.024033546447753903,988.1847534179688,0,13.0,1,1
9.8,0.073325574,-0.15355177,9.770078999999999,-0.00022805988555774093,0.0002148157509509474,0.00020460376981645825,-7.6142144203186035,26.158300399780273,-38.826637268066406,-0.1469515562057495,0.5584320425987244,0.03837108612060547,988.1876831054688,0,13.0,1,1
9.84,0.059022963,-0.14401968,9.772449,-0.0004947303677909076,0.0002148733765352517,-0.00019502197392284867,-7.610084533691406,25.424665451049805,-38.78434753417969,-0.13175515830516815,0.5459840297698975,0.03849411010742188,988.19287109375,0,13.0,1,1
9.88,0.06622946,-0.13210411,9.758247,0.0008364944369532168,0.0003480888262856752,0.0007369315717369317,-7.646198749542236,25.70705986022949,-39.02626037597656,-0.14515213668346405,0.5288950800895691,0.03388023376464844,988.1802978515624,0,13.0,1,1
9.92,0.06626624,-0.14163817,9.762986999999999,3.71921923942864e-05,-0.0009834329830482602,-6.21679937466979e-05,-7.711933612823486,25.80354118347168,-39.02177429199219,-0.13043469190597534,0.53559809923172,0.038726806640625,988.1953735351562,0,13.0,1,1
9.96,0.05913335,-0.14163907,9.760622,-9.632034925743936e-05,0.0007476776372641325,-6.231997394934297e-05,-7.468341827392577,26.136518478393555,-38.30895233154297,-0.12975171208381653,0.5422649383544922,0.03411197662353516,988.1978759765624,0,13.0,1,1
10.0,0.05678016,-0.14402322,9.760626,-9.667495032772422e-05,0.00034826152841560537,0.0004701598372776061,-7.0196895599365225,25.186994552612305,-38.32252502441406,-0.13388526439666748,0.5347333550453186,0.04369163513183594,988.200439453125,0,13.0,1,1
10.04,0.068766505,-0.15832384,9.765364,-9.702943498268725e-05,8.200318552553654e-05,-6.262387614697218e-05,-7.466575622558594,25.1375675201416,-38.71267700195313,-0.13803261518478396,0.5316917300224304,0.03907966613769531,988.1881103515624,0,13.0,1,1
10.08,0.061633527,-0.13210858,9.767735,-0.000496857741381973,-5.109718767926097e-05,0.00033669802360236645,-7.8800926208496085,25.4349308013916,-38.28143310546875,-0.13238443434238434,0.5193970799446106,0.01078510284423828,988.1832275390624,0,13.0,1,1
10.12,0.056890547,-0.14402594,9.767737,0.0008343669469468296,-0.0007168293232098223,-0.0008618755964562298,-7.8165831565856925,25.17904853820801,-39.43101119995117,-0.13144585490226746,0.5263198018074036,0.03456401824951172,988.1655883789062,0,13.0,1,1
10.16,0.06409705,-0.14402689,9.770107000000001,0.000301380583550781,-0.0009830876952037217,-0.001128343166783452,-7.860987663269043,25.71645164489746,-38.68577194213867,-0.13086113333702087,0.5186131000518799,0.044147491455078125,988.17333984375,0,13.0,1,1
10.2,0.06891364,-0.13926117,9.774846,-0.0009031792869791386,0.0007625934667885302,-5.565729225054383e-05,-7.4787211418151855,26.338045120239254,-39.16596984863281,-0.13488227128982544,0.5156221985816956,0.03953075408935547,988.1959838867188,0,13.0,1,1
10.24,0.059390843,-0.14164539,9.753544,-0.0005040600663051009,-0.0003026125486940145,0.00021050666691735387,-7.209828853607178,25.852094650268555,-38.79405212402344,-0.12463530153036118,0.5127223730087279,0.0538482666015625,988.178466796875,0,13.0,1,1
10.28,0.06898719,-0.15117939,9.765385,-0.00010494072921574116,9.691884042695163e-05,7.719680434092878e-05,-7.037134647369385,25.01286125183105,-38.69457244873047,-0.1331954449415207,0.5242424011230469,0.030282974243164062,988.1934814453124,0,13.0,1,1
10.32,0.06663412,-0.14164717,9.767754,0.00016102066729217768,-0.0008351291762664914,-0.00018927105702459807,-7.193522930145264,25.1302433013916,-39.370201110839844,-0.12799225747585294,0.5117442607879639,0.011457443237304688,988.1912231445312,0,13.0,1,1
10.36,0.05950117,-0.15118124,9.758289,-0.0006382818100973964,0.0004965077969245614,0.0002100507845170796,-7.4655961990356445,25.5073299407959,-38.88843536376953,-0.12269137054681778,0.5042750239372253,0.049434661865234375,988.168701171875,0,13.0,1,1
10.4,0.06887555,-0.14402683,9.760639,-0.00023916258942335844,-0.00016922433860599995,-0.0001895749592222273,-7.493695735931396,25.322885513305664,-38.71934127807617,-0.13591143488883972,0.5014636516571045,0.05429744720458984,988.1788940429688,0,13.0,1,1
10.44,0.07846314,-0.14641084,9.75354,0.00029390945564955473,0.000363335944712162,0.0003432453377172351,-7.569947242736816,25.51497459411621,-38.872802734375,-0.14505672454833984,0.5083781480789185,0.04492378234863281,988.1485595703124,0,13.0,1,1
10.48,0.07371122,-0.12972845,9.770113,0.0008348959963768722,0.00022305574384517968,-5.7775410823524e-05,-7.443042278289795,25.31759452819824,-38.64985275268555,-0.14933255314826965,0.4913630485534668,0.04502391815185547,988.1791381835938,0,13.0,1,1
10.52,0.07134923,-0.13449575,9.763014,-0.00023063679691404102,0.00035625745658762753,-0.00019104871898889544,-7.740033149719237,25.619096755981445,-38.852684020996094,-0.138917475938797,0.4937312602996826,0.030910491943359375,988.1817016601562,0,13.0,1,1
10.56,0.07854688,-0.14879610000000001,9.772486,0.0004348836373537779,-0.00030948861967772245,-0.00032432202715426683,-7.5634541511535645,25.04665946960449,-38.38449096679688,-0.13385991752147675,0.495820939540863,0.031006813049316406,988.1815185546876,0,13.0,1,1
10.6,0.06184551,-0.14641352,9.75355,-0.0004974912153556943,0.0014216083800420165,7.503642700612545e-05,-7.590137958526611,25.970029830932614,-38.66535949707031,-0.12828496098518372,0.5027058720588684,0.05951118469238281,988.161376953125,0,13.0,1,1
10.64,0.07143304,-0.14164765,9.7677555,0.00016802933532744646,-0.0005757171311415732,0.0006075528799556197,-7.846448421478271,25.99355888366699,-38.85820007324219,-0.12752008438110352,0.485688865184784,0.03593730926513672,988.1740112304688,0,13.0,1,1
10.68,0.069071054,-0.14641483,9.763024,0.0003009182401001453,-0.0003093575360253453,0.0002079637488350272,-7.723130702972412,26.16152000427246,-38.57908630371094,-0.13137465715408325,0.497442901134491,0.0312957763671875,988.2125244140624,0,13.0,1,1
10.72,0.061929255999999995,-0.14403231,9.777229,3.433320671319961e-05,-0.00017615588149055839,0.0002078482648357749,-7.774082660675049,25.534677505493164,-39.07344818115234,-0.13099700212478638,0.4898532629013062,0.02665996551513672,988.1895141601562,0,13.0,1,1
10.76,0.06673699599999999,-0.15118285,9.760662,-0.0006317256484180689,0.0007559934165328741,0.00047404880751855666,-7.665846824645996,25.7938289642334,-38.72037124633789,-0.12584500014781952,0.4874130487442017,0.04094791412353516,988.1818237304688,0,13.0,1,1
10.8,0.059595227,-0.14403369,9.760664,0.0003001106670126319,0.00022340528084896505,0.0003407754993531853,-7.499646186828612,25.422910690307614,-39.10919952392578,-0.1201476901769638,0.4704177379608154,0.0599822998046875,988.1795043945312,0,13.0,1,1
10.84,0.07635248,-0.15356739,9.777237,3.352563362568617e-05,-0.000575498619582504,-0.0005914454814046621,-8.113956451416017,26.37506675720215,-38.60834503173828,-0.13361649215221405,0.4868562817573547,0.031668663024902344,988.1669921875,0,13.0,1,1
10.88,0.07877028,-0.13450189,9.765404,0.0002995722461491823,-0.00044229699415154755,0.00047370279207825666,-7.691582202911378,25.87470817565918,-38.105262756347656,-0.13285380601882935,0.4748408794403076,0.017551422119140625,988.1771850585938,0,13.0,1,1
10.92,0.07162851,-0.14165248,9.767775,0.0002995722461491823,-0.00044229699415154755,0.00047370279207825666,-7.6633453369140625,26.16506004333496,-38.973426818847656,-0.1320783495903015,0.4720767140388489,0.03658294677734375,988.1771850585938,0,13.0,1,1
10.96,0.06687662,-0.13450332,9.763042,-0.00023332878481596708,-0.00017593742813915014,-0.00019220227841287849,-6.998381614685059,25.207616806030273,-39.4047966003418,-0.11699309945106505,0.4646919965744018,0.0461416244506836,988.1749877929688,0,13.0,1,1
11.0,0.06212473,-0.1726364,9.751208,-0.0003667557612061501,-0.0005753675359301269,0.00020715617574751377,-7.632776737213135,25.508485794067386,-38.32384490966797,-0.12079077214002608,0.4953334331512451,0.06990623474121094,988.1847534179688,0,13.0,1,1
11.04,0.0669325,-0.14403774,9.767782,-0.00036729394923895603,-0.00044212222564965487,0.0004732412926387042,-7.670710563659668,25.157270431518555,-38.913330078125,-0.12017211318016052,0.4593903422355652,0.0368499755859375,988.1826171875,0,13.0,1,1
11.08,0.06935033,-0.15118827,9.770151,-0.00023440527729690078,0.0002237111621070653,7.365219062194228e-05,-8.089879989624022,26.18679618835449,-38.44706726074219,-0.11463011801242827,0.4605188965797424,0.05117225646972656,988.1627197265624,0,13.0,1,1
11.12,0.06698835,-0.13927262,9.777256,0.00043111527338624,0.00035691281664185226,-0.00019277911633253095,-7.927266120910644,26.18122291564941,-38.77973937988281,-0.11872461438179015,0.459276020526886,0.022808074951171875,988.165283203125,0,13.0,1,1
11.16,0.062236458,-0.14880641,9.75832,0.0008303198264911772,-0.001640412607230246,-0.0005923683056607842,-7.778350353240968,26.162397384643555,-38.41666030883789,-0.12233167141675948,0.4570350050926209,0.06549358367919922,988.1981811523438,0,13.0,1,1
11.2,0.06943411,-0.13450737,9.763058000000001,3.110303077846765e-05,-0.0009745791321620344,-0.00032616767566651106,-7.760904788970947,26.336530685424805,-38.04461669921875,-0.11209650337696077,0.4355277419090271,0.04189872741699219,988.1754150390624,0,13.0,1,1
11.24,0.06946206,-0.15595756,9.741755,-0.00010232394561171532,-0.0005750616546720266,7.319072028622031e-05,-7.385864734649657,26.056241989135746,-39.16378784179688,-0.1209939494729042,0.4711000919342041,0.06091976165771485,988.147705078125,0,13.0,1,1
11.28,0.06710005,-0.13212551,9.767796,0.0006963545456528664,0.0004902455257251859,-0.00019324058666825292,-7.2945313453674325,25.77297019958496,-39.08430480957031,-0.11575378477573395,0.4405994415283203,0.02310371398925781,988.1552734375,0,13.0,1,1
11.32,0.064738065,-0.14642592,9.767799,0.0006960853934288025,0.00035713132820092136,-6.0198013670742505e-05,-7.51252555847168,25.25319862365723,-39.713157653808594,-0.10538356006145476,0.4522814750671386,0.02792072296142578,988.1806640625,0,13.0,1,1
11.36,0.07432514400000001,-0.1488098,9.763067,-0.0005026053404435514,-0.0008412464521825314,0.0007386343204416335,-7.758159637451173,25.70734214782715,-38.62409973144531,-0.11881541460752487,0.454707145690918,0.04693317413330078,988.1781616210938,0,13.0,1,1
11.4,0.071962714,-0.14166065,9.767805000000001,0.00029607291799038654,-0.00030857097590342164,0.00020588713232427838,-7.746120929718018,25.61320304870605,-38.54346466064453,-0.11847777664661407,0.4332065582275391,0.03280353546142578,988.1934814453124,0,13.0,1,1
11.44,0.06721073400000001,-0.14881118,9.755971,-0.00036564725451171404,0.0007526236586272718,-0.0003280314849689603,-7.365674495697021,25.601186752319336,-39.3712272644043,-0.12266019731760025,0.449626624584198,0.04235172271728516,988.1605224609376,0,13.0,1,1
11.48,0.081578076,-0.13927878,9.760708000000001,0.00016671698540449142,-0.00017943850252777338,0.00020448560826480389,-7.493557929992676,25.42880439758301,-39.418418884277344,-0.12671606242656708,0.4283612966537476,0.032950401306152344,988.18115234375,0,13.0,1,1
11.52,0.06965643,-0.15834557,9.755975999999999,0.00016644806601107118,-0.0009783424902707338,-0.0001951033482328057,-7.592501640319824,25.70471382141113,-39.11138153076172,-0.1111077219247818,0.4532214999198914,0.04726696014404297,988.1884765625,0,13.0,1,1
11.56,0.06968433,-0.14404665,9.774917,-0.00010013673454523088,-0.00017935122014023364,-6.206065881997347e-05,-7.62364387512207,25.51732063293457,-38.78767776489258,-0.1108093038201332,0.4331362247467041,0.03309440612792969,988.1508178710938,0,13.0,1,1
11.6,0.07449207,-0.15358044,9.753614,3.275251947343349e-05,8.700831676833333e-05,-0.00019533373415470123,-7.736147880554199,25.88589286804199,-38.483970642089844,-0.12031779438257215,0.454554557800293,0.0615692138671875,988.1934814453124,0,13.0,1,1
11.64,0.072129965,-0.14643134,9.75835,0.00016564165707677605,0.0011523155262693765,-0.0001954490435309708,-7.4652976989746085,26.139467239379886,-38.46356201171875,-0.10537987947463988,0.4281870126724243,0.04270744323730469,988.1608276367188,0,13.0,1,1
11.68,0.07454783,-0.13928218,9.763088,-0.00010094314347952604,-4.606237052939832e-05,0.0007365413475781679,-6.970963478088379,25.654436111450195,-38.97325897216797,-0.123786598443985,0.4167159199714661,0.042763710021972656,988.1839599609376,0,13.0,1,1
11.72,0.06501606,-0.15596576,9.767825,0.0005690036923624575,0.00029612216167151933,0.0007027860265225173,-7.025639533996582,25.28701591491699,-38.71238327026367,-0.10448795557022096,0.4429509043693543,0.033359527587890625,988.1990966796876,0,13.0,1,1
11.76,0.06982377,-0.14881666,9.767828,0.00016926130047068,0.000961955520324409,0.00043635503971017897,-7.601633071899414,25.69587516784668,-38.64754867553711,-0.1089138686656952,0.4263771176338196,0.04762744903564453,988.161376953125,0,13.0,1,1
11.8,0.07702139,-0.13928424,9.753627,-0.00023048155708238482,0.0002962094731628895,0.0007025557570159434,-7.647858142852782,25.599668502807614,-38.2498779296875,-0.1176665425300598,0.4097472429275513,0.06663227081298828,988.1639404296876,0,13.0,1,1
11.84,0.07465935,-0.14881797,9.758364,0.00016872346168383956,-0.000502694514580071,-0.0004959810758009553,-7.368855476379394,25.49232292175293,-38.517539978027344,-0.12188801169395448,0.4266135692596436,0.04775428771972656,988.1563720703124,0,13.0,1,1
11.88,0.060347855,-0.13690226,9.758366,0.0008342445944435893,0.00016313884407281876,-0.0006292540347203612,-7.071971893310548,26.297163009643555,-38.68737030029297,-0.09793817251920699,0.4007107019424439,0.03834152221679688,988.1663818359376,0,13.0,1,1
11.92,0.06276559999999999,-0.14881934,9.770205,3.5027798730880015e-05,0.0009621301433071494,0.0005690521211363375,-7.417551040649414,26.23714256286621,-38.93854141235352,-0.10171210765838624,0.4129124879837036,0.03840160369873047,988.161376953125,0,13.0,1,1
11.96,0.06996322,-0.14882006,9.765472,0.0007005488150753081,-0.0009020374272949994,0.00030262104701250786,-7.777669429779053,25.90002250671387,-39.01728820800781,-0.11067430675029756,0.4203575253486633,0.033722877502441406,988.1715087890624,0,13.0,1,1
12.0,0.07238102,-0.14405425,9.767843,-0.0003649833961389959,-0.0006356779485940932,3.6189972888678306e-05,-7.598153114318848,26.436872482299805,-39.07636642456055,-0.1100711226463318,0.4129176139831543,0.03853034973144531,988.1968383789062,0,13.0,1,1
12.04,0.07001901,-0.15358792,9.758377000000001,-0.0004984103725291789,0.0002964712912216782,-9.708316065371037e-05,-7.57244873046875,25.14373588562012,-38.61973571777344,-0.1046362817287445,0.4106406569480896,0.04332542419433594,988.2070922851562,0,13.0,1,1
12.08,0.07004693,-0.13452242,9.744175,0.00016711052739992738,-0.00010295884567312895,-9.719835361465812e-05,-7.114227294921875,24.941102981567386,-39.37135314941406,-0.10916951298713684,0.3942738175392151,0.057582855224609375,988.179443359375,0,13.0,1,1
12.12,0.06768489,-0.14882279999999998,9.760749,0.0004328888026066125,-0.00010287159238941967,3.572914283722639e-05,-8.075234413146973,25.35755729675293,-38.24683380126953,-0.1132567971944809,0.4007711410522461,0.04819297790527344,988.15673828125,0,13.0,1,1
12.16,0.0724926,-0.14882351,9.760752,0.0004328888026066125,-0.00010287159238941967,3.572914283722639e-05,-8.075234413146973,25.35755729675293,-38.24683380126953,-0.10835598409175873,0.3998879194259644,0.052948951721191406,988.15673828125,0,13.0,1,1
12.2,0.060570955,-0.14405762,9.774958,0.00043261988321319217,0.0008292776765301825,3.5613891668617725e-05,-7.822915077209473,26.17358207702637,-38.795372009277344,-0.09334233403205873,0.3973624110221863,0.03881168365478516,988.2051391601562,0,13.0,1,1
12.24,0.0749383,-0.14405824,9.7607565,-0.00036659621400758624,-0.00036910019116476184,-0.0003639750648289919,-7.4480133056640625,25.78738212585449,-39.2154655456543,-0.10731549561023712,0.4048052430152893,0.05306720733642578,988.1669311523438,0,13.0,1,1
12.28,0.060626745,-0.16312517,9.758392,-0.00036659621400758624,-0.00036910019116476184,-0.0003639750648289919,-7.407333374023437,25.50940132141113,-39.205467224121094,-0.10197840631008148,0.40254196524620056,0.024718284606933597,988.1669311523438,0,13.0,1,1
12.32,0.06065464,-0.16074263,9.767863,3.23397689498961e-05,-0.00010269705671817064,0.0005679000751115383,-7.731581687927246,25.890310287475586,-38.71588897705078,-0.10111258924007416,0.39454531669616705,0.02953338623046875,988.17236328125,0,13.0,1,1
12.36,0.07222268,-0.15120013,9.75836,-0.00023424491519108412,0.00042997836135327816,0.00043462699977681035,-7.673158168792725,26.41860008239746,-37.908973693847656,-0.10997893661260603,0.3983672857284546,0.05326557159423828,988.1775512695312,0,13.0,1,1
12.4,0.06267449,-0.14405055,9.767828999999999,0.0006985709187574685,-0.0006354004726745187,-9.770051110535859e-05,-7.369398593902588,25.86060905456543,-38.61599349975586,-0.0954873338341713,0.3869099020957947,0.03911018371582031,988.1622924804688,0,13.0,1,1
12.44,0.06746572,-0.14166756,9.767831,0.0004405981162562967,0.0008224182529374957,0.0009674043394625188,-7.6080193519592285,25.057844161987305,-38.76319885253906,-0.09990185499191284,0.3754492402076721,0.02968883514404297,988.20068359375,0,13.0,1,1
12.48,0.060307442999999995,-0.15358426,9.7773,0.0005736460443586111,0.0008224362973123789,0.00043472534161992366,-7.977376937866211,25.818227767944336,-38.75077819824219,-0.09496847540140152,0.3876202404499054,0.02500629425048828,988.1753540039062,0,13.0,1,1
12.52,0.07226837,-0.14405139,9.763098,-9.22537874430418e-05,0.0009556121658533813,3.520428435876965e-05,-7.5950026512146,25.33347511291504,-38.85831832885742,-0.10894395411014557,0.3808267414569855,0.04399204254150391,988.1876831054688,0,13.0,1,1
12.56,0.06511009,-0.15596808,9.7631,0.0007065837271511555,0.0004229982441756874,3.515719436109066e-05,-7.121837615966798,24.93373680114746,-38.98482894897461,-0.09472019225358964,0.39353299140930176,0.05349922180175781,988.1780395507812,0,13.0,1,1
12.6,0.06751144,-0.15358509,9.755999000000001,0.0011059474200010302,0.0012219635536894202,0.00016826792852953076,-7.356137275695801,25.13581657409668,-39.03752899169922,-0.10405229032039642,0.39144551753997797,0.04881477355957031,988.1653442382812,0,13.0,1,1
12.64,0.053183435999999994,-0.15120204,9.760735,0.000306889764033258,0.0013551394222304225,-9.809515904635192e-05,-7.621281147003174,25.782644271850586,-38.34165954589844,-0.08906807005405426,0.3753322064876557,0.04412269592285156,988.1702270507812,0,13.0,1,1
12.68,0.06514436,-0.12736960000000003,9.760735,0.0008394112810492517,-0.0006422116421163082,-9.814242366701363e-05,-7.357223033905028,25.87239646911621,-39.23442840576172,-0.09354710578918456,0.36383676528930653,0.03943538665771485,988.1731567382812,0,13.0,1,1
12.72,0.05798608,-0.15835245,9.777307,4.035362508147955e-05,0.0005562276346608996,0.0004344422195572406,-7.4128780364990225,25.135217666625977,-38.79779815673828,-0.07920610159635544,0.3810047209262848,0.03000926971435547,988.1856079101562,0,13.0,1,1
12.76,0.07233691,-0.16073604,9.760736,-9.291456080973148e-05,0.0013551930896937847,0.00030123707256279886,-6.945364952087402,25.467641830444336,-38.8892936706543,-0.09801532328128816,0.3883971571922302,0.04899692535400391,988.1608276367188,0,13.0,1,1
12.8,0.06517863,-0.13213702,9.770207000000001,0.00017329130787402391,0.00015678946510888636,0.0003011898952536285,-7.6397056579589835,25.23874473571777,-38.53794860839844,-0.09741362929344176,0.35781329870224,0.04430866241455078,988.15283203125,0,13.0,1,1
12.84,0.06996983,-0.15120347,9.763106,0.0003063392359763384,2.3649452487006783e-05,0.00016798474825918674,-7.844383716583253,25.62673759460449,-38.83705139160156,-0.10665526986122133,0.3698081076145172,0.04909515380859375,988.2084350585938,0,13.0,1,1
12.88,0.060421645999999996,-0.15358706,9.770209,-0.0006258764769881964,0.00015682537923566997,-0.00023153616348281503,-7.131075859069824,26.03124046325684,-38.893653869628906,-0.08234568685293198,0.38186791539192205,0.034941673278808594,988.1988525390624,0,13.0,1,1
12.92,0.04848358,-0.14643754,9.767843,-0.0004928285488858818,0.0002900010731536895,3.4732511267065995e-05,-7.762587547302246,25.80883598327637,-39.09126281738281,-0.07217681407928468,0.3658824563026428,0.04918384552001953,988.18603515625,0,13.0,1,1
12.96,0.058054626,-0.14643772,9.767843,0.0007054826710373162,0.0001568610605318099,0.00030100115691311663,-7.8290038108825675,26.16769218444824,-38.48615264892578,-0.08628155291080475,0.34978681802749634,0.049223899841308594,988.1734619140624,0,13.0,1,1
13.0,0.06284585599999999,-0.13690497,9.760742,0.000439056777395308,0.00015687887207604945,-0.0002316778409294784,-7.139963626861572,25.0219783782959,-38.75624465942383,-0.08618985861539841,0.35260871052742004,0.03506183624267578,988.1837158203124,0,13.0,1,1
13.04,0.055687547000000004,-0.13213865,9.772581,0.0003057887079194188,0.0012221602955833075,0.0009666965343058107,-7.538260936737059,25.334074020385746,-39.09804916381836,-0.08612643927335739,0.3364255428314209,0.03983497619628906,988.1710815429688,0,13.0,1,1
13.08,0.07003844,-0.1535884,9.767847,0.0004388365196064114,0.001488494104705751,-0.0003649300779215992,-7.822372913360597,25.80529594421387,-38.696922302246094,-0.09579844027757643,0.3825490474700928,0.03039836883544922,988.1508178710938,0,13.0,1,1
13.12,0.07004982,-0.1369058,9.772583000000001,0.000705042271874845,0.0013553539756685493,0.00016765447799116373,-8.113412857055664,26.00677299499512,-38.50989151000977,-0.10030587017536163,0.3520311713218689,0.04464149475097656,988.1738891601562,0,13.0,1,1
13.16,0.06528145,-0.14167263,9.772583000000001,3.9142556488513947e-05,0.0001569504092913121,0.0001676072715781629,-7.753188133239746,25.23754692077637,-38.05848693847656,-0.08998279273509979,0.3408418297767639,0.04941272735595703,988.1762084960938,0,13.0,1,1
13.2,0.077242374,-0.14882274,9.75128,0.0008379799546673894,-0.0003756634541787207,3.4402182791382074e-05,-8.016672134399414,25.99176597595215,-38.13899993896485,-0.10854978859424592,0.34844696521759033,0.049454689025878906,988.1812744140624,0,13.0,1,1
13.24,0.070084095,-0.1512063,9.758383,0.00030223256908357143,0.00020671077072620392,-0.00039287027902901167,-7.409535884857178,25.77030372619629,-38.52753448486328,-0.10324591398239136,0.34164336323738104,0.035294532775878906,988.1636962890624,0,13.0,1,1
13.28,0.07009554,-0.14405672,9.772587,-0.0004968252032995224,-5.958729889243842e-05,-0.00025975954486057157,-7.5102996826171875,25.4126033782959,-38.56806182861328,-0.09783364832401276,0.34920209646224976,0.040069580078125,988.1688232421876,0,13.0,1,1
13.32,0.07488674,-0.14167376,9.772587,-9.74615104496479e-05,-0.00032588528119958937,-0.0009255965705960988,-7.28238582611084,24.572492599487305,-38.63101196289063,-0.10216612368822098,0.3377474546432495,0.011701583862304688,988.2068481445312,0,13.0,1,1
13.36,0.057880163,-0.14643352,9.763094,-0.0003638872876763344,-5.9551559388637536e-05,6.461923476308584e-06,-7.3678765296936035,25.86208534240723,-38.69329833984375,-0.08219510316848755,0.3498093783855438,0.04964733123779297,988.1742553710938,0,13.0,1,1
13.4,0.06504989,-0.14405026,9.760727000000001,-0.0007617579540237784,7.334613474085927e-05,-0.0003923246404156089,-7.6116065979003915,25.42318916320801,-38.70703887939453,-0.08669304847717285,0.33836230635643005,0.044952392578125,988.179443359375,0,13.0,1,1
13.44,0.07460949,-0.13928373,9.758359,-9.496079292148352e-05,0.00047265645116567617,0.0001407387899234891,-7.4451069831848145,25.68440818786621,-38.670997619628906,-0.0958116203546524,0.3409342765808105,0.04026317596435547,988.1844482421876,0,13.0,1,1
13.48,0.06027007,-0.1559666,9.77493,-0.0008939084364101291,-0.00045944913290441036,-0.0005250509129837155,-7.290646076202393,26.039758682250977,-38.71559143066406,-0.0905291736125946,0.34835076332092285,0.030836105346679688,988.1716918945312,0,13.0,1,1
13.52,0.06504989,-0.15120007,9.770195,0.0001713550882413983,0.00047265645116567617,0.0008065284928306937,-7.154066562652588,25.48293113708496,-38.85802459716797,-0.0851157009601593,0.34169119596481323,0.026140213012695312,988.1742553710938,0,13.0,1,1
13.56,0.07221958,-0.13451715,9.763094,-0.0004944346146658063,-0.000992080895230174,0.0001407387899234891,-7.751230239868164,25.97707939147949,-38.40999603271485,-0.09418965131044388,0.31536591053009033,0.05459403991699219,988.1996459960938,0,13.0,1,1
13.6,0.055490255,-0.14881684,9.760727000000001,-0.0018260140204802155,0.000605814391747117,-0.00012557709123939276,-7.691582679748535,25.87470054626465,-38.105262756347656,-0.08410976082086563,0.33245596289634705,0.04516410827636719,988.1870727539062,0,13.0,1,1
13.64,0.057880163,-0.14166700000000002,9.770195,-0.0018260140204802155,0.000605814391747117,-0.00012557709123939276,-7.505434989929199,26.04915428161621,-38.37510681152344,-0.07375939190387726,0.3164145946502685,0.030994415283203125,988.1870727539062,0,13.0,1,1
13.68,0.06027007,-0.14881684,9.777297,0.0001713550882413983,-0.0005926070734858513,-0.00039189285598695284,-8.025666236877441,26.08884239196777,-38.374244689941406,-0.08754440397024155,0.32878434658050537,0.02629852294921875,988.1900634765624,0,13.0,1,1
13.72,0.06504989,-0.14166700000000002,9.760727000000001,-0.00022811873350292447,0.0003394985105842352,-0.00012557697482407093,-7.6522865295410165,25.7011661529541,-38.71703720092773,-0.08723220229148865,0.3271285891532898,0.045266151428222656,988.2050170898438,0,13.0,1,1
13.76,0.06265998,-0.14643355,9.75836,0.0001713550882413983,-5.9975311160087585e-05,-0.0002587349154055118,-7.593480110168457,25.33494758605957,-38.93562316894531,-0.07735919207334517,0.3206614851951599,0.05476665496826172,988.1923828125,0,13.0,1,1
13.8,0.06982967,-0.14166696,9.767828,3.819714765995741e-05,0.000605814391747117,0.0001407387899234891,-7.561495780944824,25.78618431091309,-38.73600387573242,-0.08630897104740143,0.31861281394958496,0.04533481597900391,988.1824951171876,0,13.0,1,1
13.84,0.067439795,-0.14166696,9.763094,-9.496079292148352e-05,-0.0007257650140672923,-0.00039189285598695284,-7.471684455871582,25.50144004821777,-38.57920837402344,-0.08101879060268402,0.316761314868927,0.045368194580078125,988.1973876953124,0,13.0,1,1
13.88,0.06504989,-0.1559666,9.763094,-0.00036127667408436537,7.318262942135334e-05,0.0009396864334121345,-7.506712436676025,25.04725456237793,-38.62422180175781,-0.08517687767744064,0.3244258165359497,0.040668487548828125,988.2280883789062,0,13.0,1,1
13.92,0.055490255,-0.15120007,9.774929,-0.0006275925552472472,-0.00019313325174152848,-0.0003918929724022746,-7.370240211486816,25.596769332885746,-39.13931274414063,-0.06588702648878098,0.3127961158752441,0.04070568084716797,988.1900634765624,0,13.0,1,1
13.96,0.06265998,-0.14643355,9.760727000000001,-0.0004944346146658063,0.0007389720994979142,0.0005402126116678119,-7.236406326293945,25.66912651062012,-38.70226287841797,-0.0799127072095871,0.3110280632972717,0.05020427703857422,988.1903686523438,0,13.0,1,1
14.0,0.053100377000000004,-0.1392837,9.777297,-9.496079292148352e-05,-5.9975311160087585e-05,7.580849342048167e-06,-7.4330692291259775,25.59027671813965,-38.59036254882813,-0.06969420611858368,0.30919042229652405,0.036032676696777344,988.1802978515624,0,13.0,1,1
14.04,0.06265998,-0.14405026,9.772561999999999,-9.496079292148352e-05,-0.00019313325174152848,0.0006733705522492527,-7.548914909362793,25.32375907897949,-38.55691528320313,-0.08808595687150955,0.3072970509529114,0.026597976684570312,988.2030639648438,0,13.0,1,1
14.08,0.067439765,-0.1392837,9.765461,-0.0008939084364101291,-0.000992080895230174,-0.0006582087371498346,-7.480135440826416,25.23022270202637,-38.71601104736328,-0.08291314542293549,0.3011093735694885,0.03608989715576172,988.1779174804688,0,13.0,1,1
14.12,0.057880163,-0.15358333,9.765461,0.000970302731730044,7.318262942135334e-05,-0.00012557709123939276,-7.513886451721191,25.777944564819336,-38.51190185546875,-0.0773513987660408,0.31257063150405884,0.03613853454589844,988.2056884765624,0,13.0,1,1
14.16,0.067439795,-0.15358333,9.760727000000001,-0.00022811873350292447,-0.00032629119232296944,7.580849342048167e-06,-7.616852760314941,25.68114280700684,-37.8745002746582,-0.08649829030036926,0.311862587928772,0.05982398986816406,988.1859130859376,0,13.0,1,1
14.2,0.06982970000000001,-0.14166696,9.774929,0.0004376709694042802,7.318262942135334e-05,-0.00012557697482407093,-7.815198421478271,25.074602127075195,-38.809242248535156,-0.07701251655817032,0.3007367849349976,0.02670764923095703,988.18310546875,0,13.0,1,1
14.24,0.06982967,-0.14643355,9.772561999999999,0.0004376709694042802,0.0006058141589164734,-0.00012557709123939276,-7.581144332885742,25.87295341491699,-38.43011474609375,-0.08631829917430878,0.2993509769439697,0.02673053741455078,988.2138061523438,0,13.0,1,1
14.28,0.06265998,-0.14405026,9.760727000000001,0.0001713550882413983,0.00047265645116567617,-0.0005250507965683936,-7.949277400970459,26.00267219543457,-38.91986846923828,-0.0859326422214508,0.2972040772438049,0.05517005920410156,988.2188110351562,0,13.0,1,1
14.32,0.067834616,-0.15359302,9.756027,-0.001160224317573011,0.0002063406282104552,-0.0005250507965683936,-8.181511878967285,25.837934494018555,-38.9514274597168,-0.07557656615972519,0.3050647974014282,0.059932708740234375,988.2063598632812,0,13.0,1,1
14.36,0.05630374,-0.13215376,9.775004,-0.00022811873350292447,-0.0008589229546487331,0.0005402126116678119,-8.048519134521483,25.64644432067871,-39.03770065307617,-0.061764586716890335,0.2794174551963806,0.045683860778808594,988.1934814453124,0,13.0,1,1
14.4,0.06828502,-0.13453783,9.758436999999999,-0.0007603145204484463,0.0006052986136637628,-0.00026161206187680364,-7.487309455871582,25.96091651916504,-38.60369110107422,-0.08506478369235992,0.2822948098182678,0.05044364929199219,988.221435546875,0,13.0,1,1
14.44,0.073096514,-0.14407171,9.75844,0.00017148526967503133,-0.0007262311992235483,-0.0003949010279029608,-7.4441285133361825,26.05417442321777,-38.84675598144531,-0.08425280451774597,0.2997974157333374,0.04573249816894531,988.1962890625,0,13.0,1,1
14.48,0.070738316,-0.14168920000000002,9.770278999999999,0.0003043371543753892,-0.00045986560871824617,-0.0003950321697629988,-7.698809623718263,24.97282600402832,-38.74423599243164,-0.08384260535240172,0.2839825749397278,0.04101848602294922,988.1937255859376,0,13.0,1,1
14.52,0.07315996,-0.16075625,9.767914,-0.0006280739326030017,-0.0007261318969540298,-0.00039516302058473235,-7.988030433654785,25.80791664123535,-38.20964050292969,-0.08800143003463745,0.310810923576355,0.04104137420654297,988.1988525390624,0,13.0,1,1
14.56,0.07558155,-0.14645733,9.763183,-9.574784780852497e-05,7.286533946171403e-05,0.0006699694786220789,-8.062759399414062,26.00147819519043,-38.44039916992188,-0.08759427815675735,0.2897445261478424,0.04580211639404297,988.203857421875,0,13.0,1,1
14.6,0.06844354,-0.14645813,9.7560835,-0.000495527870953083,-0.0005928747123107313,-0.0001291093067266047,-7.48151969909668,25.33466911315918,-39.3377799987793,-0.08691094815731049,0.2737331986427307,0.060028076171875,988.1964721679688,0,13.0,1,1
14.64,0.07325506,-0.14884217,9.751352,-0.0004958333447575568,0.0002061225823126733,0.0002702336350921541,-7.501168251037598,25.42143821716309,-39.03189468383789,-0.08648394793272017,0.2910563349723816,0.05531501770019531,988.1715087890624,0,13.0,1,1
14.68,0.07567671,-0.14407642,9.775027,0.00016965091344900432,-0.00019330170471221209,3.7867575883865365e-06,-7.913705825805664,26.08856773376465,-38.776405334472656,-0.08645844459533691,0.2753257155418396,0.03165912628173828,988.1691284179688,0,13.0,1,1
14.72,0.07809830000000001,-0.14646043,9.767928999999999,-0.0003632863226812333,0.0011383274104446173,-0.00012950226664543152,-7.325674533843994,25.585580825805664,-38.76060485839844,-0.08083167672157288,0.2878544628620148,0.04588508605957031,988.1766967773438,0,13.0,1,1
14.76,0.07574013,-0.1369281,9.758463,-0.00041197711834684014,-0.000927273533307016,0.0002210910897701979,-7.485787391662598,25.96238899230957,-38.68099212646485,-0.08059696853160858,0.2720713019371033,0.05537128448486328,988.1741333007812,0,13.0,1,1
14.8,0.07099205,-0.14407875,9.756098,0.0006529809325002134,4.8816436901688576e-06,-0.00044482952216640115,-7.528287887573242,25.60676002502441,-39.03855895996094,-0.07540024071931839,0.2849204540252685,0.05065441131591797,988.1791381835938,0,13.0,1,1
14.84,0.07341364,-0.14646278,9.756102,-0.0004125889972783625,-0.00012822664575651288,-0.00017864484107121823,-7.657693386077881,25.432905197143555,-39.008445739746094,-0.07981494069099426,0.2737077474594116,0.04593944549560547,988.20458984375,0,13.0,1,1
14.88,0.07344538,-0.14646359,9.7608385,-0.0006792103522457182,0.000670770590659231,0.00022069804253987968,-7.210127353668213,25.21996116638184,-39.21892166137695,-0.07452106475830078,0.2662925124168396,0.04123592376708984,988.2174072265624,0,13.0,1,1
14.92,0.07347709,-0.1369312,9.763209,0.00011943181743845344,-0.0001281274599023163,-0.0008446963620372118,-7.658917427062987,26.063566207885746,-38.50626754760742,-0.08350943773984909,0.26470184326171875,0.04598712921142578,988.1870727539062,0,13.0,1,1
14.96,0.06394917,-0.16076477,9.767946,0.00011943181743845344,-0.0001281274599023163,-0.0008446963620372118,-7.658917427062987,26.063566207885746,-38.50626754760742,-0.06920500844717026,0.2829154133796692,0.05546665191650391,988.1870727539062,0,13.0,1,1
15.0,0.06159097,-0.14646591,9.779785,-0.000280348293017596,-0.00012807780876755712,0.00022043602075427768,-7.5469560623168945,26.06328392028809,-38.90842819213867,-0.06386987119913101,0.2721221446990967,0.03654193878173828,988.197021484375,0,13.0,1,1
15.04,0.05923283,-0.14646669,9.775053,0.0010506201069802046,-0.0002611365634948015,0.0003533320850692689,-7.905691146850586,25.62172508239746,-38.36540222167969,-0.06348007917404175,0.2708168029785156,0.02708721160888672,988.1820678710938,0,13.0,1,1
15.08,0.07121402,-0.15123399,9.765587,0.0005176828126423062,0.0004047027905471623,-0.0003125887014903128,-7.0913753509521475,25.383501052856445,-38.70790100097656,-0.07724485546350479,0.2788119316101074,0.04130744934082031,988.194580078125,0,13.0,1,1
15.12,0.06407601,-0.14885147,9.756122,-0.0005478861858136952,-0.0009268269059248268,-4.640384577214718e-05,-7.422117233276367,26.232725143432614,-38.70662307739258,-0.05249527096748352,0.26270440220832825,0.069732666015625,988.21240234375,0,13.0,1,1
15.16,0.06649768,-0.14646907,9.760859,-0.0009476654813624918,-0.0013262510765343904,0.0006192549481056631,-7.391409873962402,25.68206214904785,-38.75611877441406,-0.06655998528003693,0.2608281970024109,0.04134559631347656,988.1996459960938,0,13.0,1,1
15.2,0.07369909,-0.15361957,9.758495,-0.0004153396585024893,-0.00012778007658198476,-0.00017982377903535962,-7.528287887573242,25.60675621032715,-39.03855895996094,-0.07589445263147354,0.2691149711608887,0.05082511901855469,988.1826171875,0,13.0,1,1
15.24,0.06895095,-0.14647059,9.767965,0.0005164599861018361,0.0005380593356676401,0.0002195190172642469,-7.5519585609436035,25.32081413269043,-38.402305603027344,-0.07529200613498688,0.2676517963409424,0.027169227600097656,988.2001953125,0,13.0,1,1
15.28,0.07137263,-0.13932152,9.765602000000001,-0.00014963519060984254,-0.0003939967136830092,-0.00031324359588325024,-7.740033149719237,25.619096755981445,-38.852684020996094,-0.07037345319986342,0.2518706321716309,0.05085372924804688,988.2205200195312,0,13.0,1,1
15.32,0.06662512,-0.14647217,9.765605,-1.678272383287549e-05,0.0006713163456879556,0.00021925714099779725,-7.710549831390381,25.6991024017334,-38.400001525878906,-0.07455100119113922,0.2600094377994537,0.05560302734375,988.227783203125,0,13.0,1,1
15.36,0.069046766,-0.14647295,9.765608,-1.7091224435716867e-05,-0.0005270550027489662,0.000352282979292795,-7.398338794708253,25.41232109069824,-38.97022247314453,-0.0599028542637825,0.2536474168300629,0.0556182861328125,988.1953735351562,0,13.0,1,1
15.4,0.059518874000000006,-0.13694055,9.753775,0.000257091480307281,-0.00013139372458681464,8.480169344693421e-05,-7.441083908081055,26.05711936950684,-39.001365661621094,-0.0642058476805687,0.2569587230682373,0.05089664459228516,988.225830078125,0,13.0,1,1
15.44,0.07150012,-0.14647453,9.7585125,-0.0004090036964043975,-0.0002645020140334964,-0.0003148032119497657,-7.671796798706055,25.89385414123535,-39.1102294921875,-0.06374263018369675,0.2553134858608246,0.04617691040039063,988.2105712890624,0,13.0,1,1
15.48,0.069141984,-0.15362503,9.775085,-0.0005424680421128869,-0.0002644523628987372,0.0006171711720526217,-7.369398593902588,25.86060905456543,-38.615989685058594,-0.06840963661670685,0.2635533809661865,0.04145431518554688,988.2537841796876,0,13.0,1,1
15.52,0.078733325,-0.14170946,9.765619000000001,0.00012301560491323468,0.00040138693293556566,-0.0012471710797399282,-7.854058265686035,25.986188888549805,-38.47167205810547,-0.08216899633407593,0.23285111784935,0.05093955993652344,988.2205810546876,0,13.0,1,1
15.56,0.07398528,-0.15124337,9.751419,0.00012270978186279535,-0.0002643530606292188,8.42773006297648e-05,-7.333146572113037,25.68412971496582,-39.073158264160156,-0.07231594622135162,0.2416992485523224,0.06515026092529297,988.2079467773438,0,13.0,1,1
15.6,0.066847265,-0.13932778,9.779829,-0.00014391157310456038,-0.00026430338039062917,-0.00018216966418549416,-7.429045677185059,25.962987899780273,-38.92072677612305,-0.07162138819694519,0.2402174174785614,0.022551536560058597,988.2137451171876,0,13.0,1,1
15.64,0.07643863599999999,-0.13456197,9.760894,0.0003884139005094767,-0.0005305695813149214,0.0007498047780245543,-7.829301834106445,25.535554885864254,-38.91102600097656,-0.07610829919576645,0.2342153936624527,0.04149818420410156,988.2031860351562,0,13.0,1,1
15.68,0.076470375,-0.15362893,9.763264,-0.00027768174186348915,0.0001352696563117206,-0.00018243183149024844,-7.5748114585876465,24.87841606140137,-39.06575775146485,-0.0707474872469902,0.2518533766269684,0.04624462127685547,988.2208862304688,0,13.0,1,1
15.72,0.07411218,-0.14171343,9.772736,-0.0005446091527119278,-0.0007967365090735258,-0.0008484838181175293,-7.1655616760253915,25.20876884460449,-38.84021377563477,-0.0601002648472786,0.2448149621486664,0.03679370880126953,988.223876953125,0,13.0,1,1
15.76,0.05980453,-0.15124722,9.768003,-0.0005446091527119278,-0.0007967365090735258,-0.0008484838181175293,-7.1655616760253915,25.20876884460449,-38.84021377563477,-0.054862212389707565,0.2535231411457062,0.046268463134765625,988.223876953125,0,13.0,1,1
15.8,0.07417565599999999,-0.15363134,9.75617,-0.0001454412704333663,-0.0006635289173573256,0.0006161225028336048,-7.432526111602782,25.221986770629886,-38.49191284179688,-0.06422460079193115,0.25197380781173706,0.046280860900878906,988.2137451171876,0,13.0,1,1
15.84,0.059867977999999995,-0.14886554,9.760908,-0.0002789051504805684,0.00013546831905841827,-0.00044927216367796063,-7.3923888206481925,25.312299728393555,-38.58036422729492,-0.058994006365537636,0.2458237707614899,0.04629039764404297,988.1935424804688,0,13.0,1,1
15.88,0.06706944,-0.1417165,9.768013,-0.0004123694961890578,-0.00013079779455438256,0.00034954436705447733,-7.5906805992126465,26.338319778442386,-38.76381301879883,-0.058403093367815025,0.22999103367328644,0.060505867004394524,988.2366333007812,0,13.0,1,1
15.92,0.074270874,-0.14886709,9.768016000000001,-0.0006789908511564137,-0.0009296957869082687,-0.00044953433098271484,-7.479156494140625,25.59998893737793,-38.89176940917969,-0.0725536197423935,0.22841480374336245,0.04631328582763672,988.2416381835938,0,13.0,1,1
15.96,0.05757329,-0.14886789,9.75855,-0.00014666467905044556,0.0004019331536255777,-0.00044966541463509197,-7.632638454437256,25.61440086364746,-39.022926330566406,-0.05811658501625061,0.23657606542110446,0.051056861877441406,988.2339477539062,0,13.0,1,1
16.0,0.059994936,-0.1369523,9.770389999999999,-0.00014697096776217222,0.0005351409199647605,8.283526403829455e-05,-7.721907615661621,25.530858993530273,-39.08126449584961,-0.04838047176599503,0.2305384576320648,0.03212738037109375,988.2139282226562,0,13.0,1,1
16.04,0.060026705,-0.1393363,9.765657000000001,0.0006516706198453902,2.558634150773287e-06,0.0002158620918635279,-7.772805690765381,26.53658103942871,-38.82433319091797,-0.06664889305830002,0.2293808162212372,0.04160308837890625,988.2240600585938,0,13.0,1,1
16.08,0.072007954,-0.14648695,9.760925,-0.00041389872785657644,-0.0005300234770402311,0.0002157310082111508,-7.503232955932617,25.788259506225586,-39.05303955078125,-0.057066019624471664,0.22309261560440066,0.055816650390625,988.22412109375,0,13.0,1,1
16.12,0.072039664,-0.14887099,9.777498,-0.0008136780234053731,-0.00039681582711637015,-0.0001838739262893796,-7.9197940826416025,26.082674026489254,-38.467185974121094,-0.06616441905498505,0.22638510167598724,0.04162311553955078,988.2291259765624,0,13.0,1,1
16.16,0.07685119,-0.13695539999999998,9.7704,-0.00028135243337601423,-0.00026360820629633963,-0.0005834788898937403,-7.648262977600098,26.07387351989746,-39.047401428222656,-0.06107277050614358,0.22016677260398865,0.036896705627441406,988.2094116210938,0,13.0,1,1
16.2,0.06493342,-0.14172275,9.765669,-1.5342258848249912e-05,0.0005353891174308956,-0.00045045203296467667,-7.958707809448242,25.3617000579834,-38.88090515136719,-0.055654577910900116,0.2190544605255127,0.03216743469238281,988.2171020507812,0,13.0,1,1
16.24,0.07452476,-0.1417235,9.772774,0.00026359857292845845,-0.0007518632337450981,0.00014869275037199262,-7.345620632171631,25.040212631225586,-38.87958908081055,-0.06513489782810211,0.22218848764896396,0.027444839477539062,988.2520751953124,0,13.0,1,1
16.28,0.06771532,-0.16079849999999998,9.765705,0.00026359857292845845,-0.0007518632337450981,0.00014869275037199262,-7.649785041809082,26.07240104675293,-38.97010040283203,-0.05523256212472916,0.24492482841014865,0.04638671875,988.2520751953124,0,13.0,1,1
16.32,0.06331575,-0.13935842,9.761005,-0.0005356553592719138,0.0003134499420411885,-0.00038407009560614813,-7.929086208343506,25.547616958618164,-39.12730407714844,-0.04672185331583023,0.2101687639951706,0.06053733825683594,988.2323608398438,0,13.0,1,1
16.36,0.06576395,-0.15604277,9.761011,0.00013095233589410782,0.001904014032334089,0.0008084672153927387,-7.7708778381347665,26.06384468078613,-38.10411071777344,-0.060999535024166114,0.22310930490493772,0.06054115295410156,988.2297973632812,0,13.0,1,1
16.4,0.07060209,-0.14174457,9.777586,-0.00026986689772456884,0.0005726529634557664,0.0001421007327735424,-7.677341938018799,25.519670486450195,-38.70255661010742,-0.06594626605510713,0.2170579433441162,0.03213977813720703,988.2221069335938,0,13.0,1,1
16.44,0.06588054,-0.14174597,9.761022,-0.00027042895089834934,0.0005727442330680788,-0.0003907718928530812,-7.836475372314452,26.2662410736084,-38.7987060546875,-0.05110987648367882,0.2205997109413147,0.04634571075439453,988.2246704101562,0,13.0,1,1
16.48,0.06593889,-0.14413066,9.761027,-0.00013783317990601065,-0.0003592701395973563,0.0005410928279161453,-7.834846973419189,25.1613712310791,-38.50334930419922,-0.045732513070106506,0.21474754810333246,0.046347618103027344,988.2196655273438,0,13.0,1,1
16.52,0.061217427000000005,-0.14174883,9.765766000000001,0.0003942364128306508,-0.0008918106323108078,-0.0006575695006176829,-7.69394588470459,25.609384536743164,-38.55127716064453,-0.05979301780462265,0.21834054589271545,0.04635143280029297,988.222412109375,0,13.0,1,1
16.56,0.06366563,-0.14175023,9.768139,0.0002605166519060731,-0.0004922455991618335,7.979222573339939e-06,-7.86707592010498,25.710561752319336,-38.37655258178711,-0.04983901977539063,0.20246517658233645,0.036887168884277344,988.2046508789062,0,13.0,1,1
16.6,0.07806337,-0.1560513,9.763411,-0.0012047828640788796,-0.00035899638896808034,-0.0001254195231013,-8.022079467773438,25.723501205444336,-38.4304084777832,-0.0637575015425682,0.2202401161193848,0.04162406921386719,988.2098999023438,0,13.0,1,1
16.64,0.07334185,-0.14175309,9.770516,-6.923684850335121e-06,-0.000358905119355768,0.00040697131771594286,-8.001888275146483,25.2684383392334,-38.63784408569336,-0.07304301857948302,0.2048807144165039,0.04636096954345703,988.2327880859376,0,13.0,1,1
16.68,0.07101029,-0.14890434,9.770522,-0.00014064356219023466,0.00030697585316374903,-0.0002590593066997826,-7.325131416320801,25.2172908782959,-38.66215133666992,-0.058684196323156364,0.21289853751659396,0.036895751953125,988.1973876953124,0,13.0,1,1
16.72,0.07345852,-0.15605558,9.765792999999999,-8.04755836725235e-06,0.0004402249469421804,0.00014017370995134115,-7.426981449127197,25.59617042541504,-38.89958190917969,-0.06801413744688034,0.20725873112678528,0.05109977722167969,988.2326049804688,0,13.0,1,1
16.76,0.0782966,-0.14175738,9.753962,0.0006571798585355282,0.0008397900382988155,-0.0007921727374196053,-7.8322081565856925,25.638525009155273,-39.45549011230469,-0.06800837069749832,0.20147687196731567,0.051100730895996094,988.2200317382812,0,13.0,1,1
16.8,0.06401551,-0.1465254,9.765803,0.00025714398361742496,0.000573565426748246,-0.0001266239560209215,-7.728973865509032,25.155202865600586,-38.596290588378906,-0.0488576665520668,0.20951128005981445,0.03690147399902344,988.218017578125,0,13.0,1,1
16.84,0.06407383,-0.15844329,9.772911,-0.00014289189130067825,-0.00035844888770952815,-0.000393180875107646,-7.81824254989624,25.07165718078613,-38.65462875366211,-0.04869738593697548,0.20860344171524048,0.04163551330566406,988.2052612304688,0,13.0,1,1
16.88,0.07130188,-0.14652826,9.772916,-0.00014345406088978052,0.0008400638471357523,-0.0009260533843189477,-7.6842708587646475,25.249929428100586,-38.91665649414063,-0.05330162867903709,0.21682235598564148,0.04163837432861328,988.2128295898438,0,13.0,1,1
16.92,0.0713602,-0.14891301,9.756350999999999,0.00012229988351464272,-9.195055463351308e-05,5.811220034956933e-06,-7.523721694946289,25.61117744445801,-39.27047348022461,-0.06265154480934143,0.2054376006126404,0.04637432098388672,988.2154541015624,0,13.0,1,1
16.96,0.069028586,-0.1417646,9.761091,-0.00014457828365266323,0.00030761450761929154,0.0002718862670008093,-7.134418487548827,25.39616203308105,-39.16391372680664,-0.05777173861861229,0.19521602988243106,0.04637432098388672,988.2026977539062,0,13.0,1,1
17.0,0.06908691,-0.1512991,9.768196000000001,-0.0008109299233183265,4.1389779653400176e-05,5.329493433237077e-06,-7.836911678314209,25.528188705444336,-38.524497985839844,-0.05721389502286911,0.21289598941802976,0.04164409637451172,988.1978759765624,0,13.0,1,1
17.04,0.06914526,-0.14415072,9.780039,0.0002537715481594205,-0.00035799265606328845,0.00040456236456520855,-7.306569576263428,25.867101669311523,-39.164939880371094,-0.04278689995408058,0.19314058125019076,0.03217124938964844,988.220458984375,0,13.0,1,1
17.08,0.06681365,-0.14176886,9.775310000000001,-1.3106502592563627e-05,0.0007073621382005513,-0.0006609419360756874,-7.513748645782472,25.88386344909668,-39.21098327636719,-0.052190400660038,0.1870548129081726,0.04164314270019531,988.2130737304688,0,13.0,1,1
17.12,0.06687197,-0.14177029,9.763479,-1.3668672181665896e-05,-0.00035781017504632473,-0.0002617090358398855,-7.877454280853271,25.91208457946777,-39.23357391357422,-0.0521819032728672,0.19561845064163208,0.04637718200683594,988.2156982421876,0,13.0,1,1
17.16,0.07409999,-0.14177172,9.763485000000001,-1.4230608940124512e-05,0.0008407026180066168,-0.0005282658385112882,-7.498804569244385,25.68675804138184,-38.58587646484375,-0.06122882664203644,0.19916795194149015,0.05584526062011719,988.243408203125,0,13.0,1,1
17.2,0.069378525,-0.13938986,9.772959,0.0002515232190489769,-0.000357627694029361,0.00027044088346883655,-7.342821598052978,26.0435848236084,-38.70777893066406,-0.056468416005373,0.18857212364673612,0.022704124450683597,988.2132568359376,0,13.0,1,1
17.24,0.07660657,-0.15369089,9.7705965,-0.00014851288869976997,0.0007077271002344787,0.00013704202137887478,-7.430025100708008,25.593225479125977,-38.744972229003906,-0.060896053910255425,0.20154841244220734,0.032174110412597656,988.2588500976562,0,13.0,1,1
17.28,0.06807721,-0.13697465,9.7752075,-0.0006817067041993141,-0.0004906030953861773,0.00013680104166269302,-7.762289047241211,26.44096946716309,-38.66638946533203,-0.054406989365816116,0.1816218793392181,0.027565956115722656,988.2210083007812,0,13.0,1,1
17.32,0.07046836599999999,-0.15604086,9.772839999999999,0.0009190173586830496,0.00017472740728408098,0.0005374873289838433,-7.858487129211426,26.087690353393555,-38.93883514404297,-0.05418095737695694,0.1854383647441864,0.03703880310058594,988.2487182617188,0,13.0,1,1
17.36,0.05852014,-0.14174129,9.756269,0.00026318174786865706,3.995344741269946e-05,9.121664334088564e-06,-7.505733966827393,25.41702079772949,-38.79997634887695,-0.04441244527697563,0.17985844612121582,0.03704261779785156,988.198486328125,0,13.0,1,1
17.4,0.07286081,-0.14650793,9.777575,0.0009289594599977137,0.0004394293064251542,-0.00012404145672917366,-7.865553855895996,25.71203422546387,-38.453857421875,-0.05827669426798821,0.18846333026885986,0.03231143951416016,988.2236328125,0,13.0,1,1
17.44,0.06330246,-0.13935806,9.779942,0.0002631577663123608,-0.0011584640014916658,0.0005417429492808878,-7.0661821365356445,25.67091941833496,-39.42145538330078,-0.04362336546182632,0.19213519990444186,0.03705024719238281,988.2261962890624,0,13.0,1,1
17.48,0.07525325,-0.13697479999999998,9.770472999999999,-0.0002694866852834821,0.00043943320633843536,0.0009412115323357283,-7.55706787109375,25.6846866607666,-38.268836975097656,-0.052910611033439636,0.18613556027412412,0.060727119445800774,988.2289428710938,0,13.0,1,1
17.52,0.07286465,-0.15365775,9.7657385,-0.0005358145572245121,-9.319651871919632e-05,0.0002754165616352111,-7.6803855895996085,25.51672554016113,-38.54794692993164,-0.057208433747291565,0.19457440078258514,0.06073093414306641,988.213623046875,0,13.0,1,1
17.56,0.06330627,-0.14650805,9.758637,-0.0005358145572245121,-9.319651871919632e-05,0.0002754165616352111,-7.508778095245361,25.41407585144043,-38.64537048339844,-0.05220155417919159,0.18882548809051514,0.03232574462890625,988.213623046875,0,13.0,1,1
17.6,0.07525706,-0.146508,9.765739,-0.0002695106668397784,-0.00022635248024016621,9.095529094338415e-06,-7.649242877960205,25.70411491394043,-38.87165069580078,-0.05264855921268463,0.19251927733421328,0.037067413330078125,988.2238159179688,0,13.0,1,1
17.64,0.060918927000000005,-0.14174147,9.7704735,0.0011952141067013144,0.0009720709058456123,-0.00025722559075802565,-7.2083067893981925,25.85357093811035,-38.87135314941406,-0.03359150141477585,0.17261406779289246,0.041805267333984375,988.2162475585938,0,13.0,1,1
17.68,0.07047981,-0.15604122,9.7752075,-0.00013638951350003478,0.0009720748639665543,0.0005417114589363337,-7.980420112609862,25.815282821655273,-38.596168518066406,-0.04776829108595848,0.1953604221343994,0.03707408905029297,988.2391357421876,0,13.0,1,1
17.72,0.068091154,-0.14412482,9.756269,-0.0005358757916837932,0.0003062872565351426,0.0002753903390839696,-7.797317028045653,25.98678779602051,-38.711402893066406,-0.047302283346652985,0.16548460721969604,0.07021903991699219,988.2188720703124,0,13.0,1,1
17.76,0.06331265,-0.1488914,9.758637,-0.0001228924957104027,-0.00025988108245655894,0.000362814636901021,-7.288581371307372,25.672941207885746,-38.6944465637207,-0.05178989842534065,0.18818262219429016,0.04654884338378906,988.223876953125,0,13.0,1,1
17.8,0.06809372,-0.136975,9.761003500000001,0.0004097273922525346,-0.0005261949845589697,-0.00030298024648800487,-7.276405334472656,25.684728622436523,-39.312889099121094,-0.051434800028800964,0.17774637043476105,0.04181861877441406,988.23193359375,0,13.0,1,1
17.84,0.08482426400000001,-0.13697512,9.7728405,0.00014339917106553912,-0.00025987712433561677,0.00036280418862588704,-7.58130407333374,25.34673118591309,-39.55406188964844,-0.06577593088150024,0.1674363911151886,0.04182147979736328,988.2213745117188,0,13.0,1,1
17.88,0.06809622,-0.13935842,9.770475,-0.00025608710711821914,0.0006722304387949407,9.648303966969252e-05,-7.572011947631836,25.88178825378418,-38.893943786621094,-0.05023883283138275,0.17119833827018738,0.03235149383544922,988.2293701171876,0,13.0,1,1
17.92,0.075267196,-0.144125,9.751536999999999,0.0010754803661257026,-0.0011919786920771005,-0.00016983813839033246,-7.961453437805176,25.99088859558105,-38.30142593383789,-0.05529103800654411,0.18005436658859253,0.06549549102783203,988.2193603515624,0,13.0,1,1
17.96,0.065708876,-0.15127482,9.751536,0.0010754682589322329,0.0005390764563344419,-0.0003030012594535947,-7.8269386291503915,25.80087471008301,-38.465003967285156,-0.04083657637238503,0.17930647730827332,0.0560293197631836,988.2294921875,0,13.0,1,1
18.0,0.068100035,-0.14650835,9.763372,0.00014335004379972816,0.0005390783189795911,0.0004959412035532296,-7.8584861755371085,26.087690353393555,-38.93883514404297,-0.05016696453094482,0.1879982352256775,0.02762413024902344,988.2217407226562,0,13.0,1,1
18.04,0.08005082599999999,-0.14889167,9.758638000000001,-0.0002561357687227428,0.00013960659271106124,-0.0005693276179954411,-7.467799186706543,25.76823234558105,-38.21050262451172,-0.05910517275333405,0.1770213544368744,0.051299095153808594,988.1940307617188,0,13.0,1,1
18.08,0.070492476,-0.15842475,9.770474,0.00040964182699099183,-0.00012670725118368864,0.00036277278559282417,-7.580164909362793,26.24271583557129,-38.605873107910156,-0.04961802810430527,0.19096480309963226,0.051301002502441406,988.2069702148438,0,13.0,1,1
18.12,0.07049373,-0.14412512,9.761005,0.0002764713135547936,0.0006722423131577671,-3.670627484098077e-05,-7.561495780944824,25.78618431091309,-38.736000061035156,-0.05447612702846527,0.16139544546604154,0.05130290985107422,988.1994018554688,0,13.0,1,1
18.16,0.06571522,-0.15127502,9.744436,0.0001433013821952045,0.000805402232799679,-0.0004361853934824466,-7.5259246826171875,25.8720760345459,-38.5925407409668,-0.030464116483926777,0.18379193544387815,0.06550884246826172,988.2018432617188,0,13.0,1,1
18.2,0.06093669,-0.13220884,9.770475,0.0002764473319984972,0.00013961450895294547,-3.6716810427606106e-05,-7.650764942169189,25.7026424407959,-38.794342041015625,-0.04473121836781502,0.1737930327653885,0.03710460662841797,988.2120971679688,0,13.0,1,1
18.24,0.07049754,-0.15365832,9.782311,0.00040959258330985904,0.0002727744868025184,-0.00030303781386464834,-7.466575622558594,25.137563705444336,-38.71267700195313,-0.044137340039014816,0.17322349548339844,0.03710460662841797,988.2147216796876,0,13.0,1,1
18.28,0.060073912,-0.12980436,9.758560000000001,-0.00012305116979405284,-0.0009256450575776398,9.643065277487041e-05,-7.448992729187013,25.41761589050293,-39.039710998535156,-0.03374093025922775,0.15313421189785004,0.05138874053955078,988.2146606445312,0,13.0,1,1
18.32,0.057650982999999996,-0.14648648,9.758556,0.0002791207516565919,0.0014734558062627912,0.0001005997182801366,-7.396954536437987,25.30788230895996,-38.34844970703125,-0.03841593861579895,0.16647596657276156,0.060862541198730476,988.2196655273438,0,13.0,1,1
18.36,0.06717759,-0.15363555,9.779860000000001,-0.00011701555922627449,-0.00012498145224526525,0.0002351879957132041,-7.604975700378418,25.06078910827637,-38.91780853271485,-0.04278859868645668,0.1699073761701584,0.01825714111328125,988.20458984375,0,13.0,1,1
18.4,0.06953448,-0.15601800000000002,9.779856,-0.0009156452724710108,-0.0003913489344995469,0.00010216631926596165,-7.335104942321777,24.94460868835449,-38.72164535522461,-0.047268182039260864,0.18328791856765747,0.027730941772460938,988.2201538085938,0,13.0,1,1
18.44,0.07906109,-0.15125062,9.758549,0.0005494100041687489,-0.00012508465442806482,0.0006349344039335848,-7.721608638763428,26.16299247741699,-38.656394958496094,-0.04702253267168999,0.1676655411720276,0.05614185333251953,988.2172241210938,0,13.0,1,1
18.48,0.071858376,-0.16078295,9.775116,-0.0013144833501428366,0.0005406533600762486,-0.0004301927983760834,-7.786258220672607,25.52289390563965,-38.45500946044922,-0.05615084990859032,0.1903662234544754,0.0466766357421875,988.20751953125,0,13.0,1,1
18.52,0.06465566,-0.14648248,9.768011,0.0001508902059867978,0.00014107621973380446,0.00023586960742250082,-7.451194763183594,25.67851829528809,-38.361778259277344,-0.03647208586335182,0.16543184220790866,0.04194831848144531,988.22021484375,0,13.0,1,1
18.56,0.059842885,-0.13456525,9.768007,0.0001508902059867978,0.00014107621973380446,0.00023586960742250082,-7.451194763183594,25.67851829528809,-38.361778259277344,-0.03608908876776695,0.16018640995025635,0.02301216125488281,988.22021484375,0,13.0,1,1
18.6,0.062199800000000006,-0.14886414,9.751434,0.0012164716608822346,-0.0007910808781161903,-0.00042978383135050535,-7.320810317993164,26.22213554382324,-38.567649841308594,-0.045226868242025375,0.16403672099113464,0.051423072814941406,988.202392578125,0,13.0,1,1
18.64,0.06933650400000001,-0.15362985,9.772736,-0.0006474213441833854,-0.0005248166853561997,-0.00029648956842720514,-7.216214656829834,25.21406364440918,-38.909706115722656,-0.04529764503240585,0.16327106952667236,0.03722381591796875,988.2227783203124,0,13.0,1,1
18.68,0.066913605,-0.13932942,9.760897,0.0005513184005394578,0.0004072373267263174,-0.0004295111866667866,-7.637747287750244,25.97826957702637,-38.889461517333984,-0.04045548290014267,0.15778249502182007,0.051430702209472656,988.2000732421876,0,13.0,1,1
18.72,0.066880584,-0.13456203,9.760894,0.00015216274186968803,0.0006735015194863081,0.00023641480947844681,-7.487309455871582,25.96091651916504,-38.60369110107422,-0.04023401066660881,0.13796038925647736,0.05616950988769531,988.2229614257812,0,13.0,1,1
18.76,0.07162744,-0.14886086,9.760891,0.00028563884552568197,-0.0006581295165233313,0.0006360249826684594,-7.505733013153076,25.41701316833496,-38.79998016357422,-0.05394385755062103,0.15614204108715055,0.04670238494873047,988.192626953125,0,13.0,1,1
18.8,0.062034785999999995,-0.14409349999999999,9.760887,0.0005522725405171514,-0.00012554938439279795,-0.0008285761578008533,-7.620301723480225,26.152402877807614,-38.51741790771485,-0.03913789242506027,0.1553943157196045,0.032502174377441406,988.2055053710938,0,13.0,1,1
18.84,0.062001824000000004,-0.15124254,9.751416,0.0001531168818473816,0.00014071480836719275,0.00010366580681875348,-7.617258071899414,26.15534782409668,-38.67202758789063,-0.034025609493255615,0.16418179869651794,0.07038021087646484,988.1906127929688,0,13.0,1,1
