Timestamp,Ax,Ay,Az,Gx,Gy,Gz,Mx,My,Mz,LiAx,LiAy,LiAz,P,Value,Type,GroupType
0.0,0.038477987000000005,-0.15644118,9.768872,0.0007330172811634839,0.002553324215114117,0.000625062151812017,2.964054822921753,25.67453765869141,-14.456216812133787,-0.5456686615943909,3.070448398590088,-0.3978204727172852,989.89306640625,0,0.0,0
0.04,0.057552785,-0.15644011,9.771235,0.003195946104824543,0.0019365510670468207,-0.00024121763999573886,2.8486454486846924,26.14607238769531,-14.696977615356445,-0.5731014609336853,3.083525419235229,-0.424290657043457,989.7493286132812,0,0.0,0
0.08,0.04071659,-0.15405414,9.773591999999999,0.000932689115870744,-0.0004603611305356025,2.528168261051178e-05,2.871742486953736,25.58805084228516,-14.359949111938475,-0.5478628277778625,3.0582304000854488,-0.4222774505615233,989.7670288085938,0,0.0,0
0.12,0.047839463,-0.1516698,9.778322,0.0005337177426554263,-6.096886500017719e-05,2.5496963644400242e-05,2.8401942253112797,25.87486267089844,-14.833772659301758,-0.5560483932495117,3.051621913909912,-0.4201526641845703,989.7997436523438,0,0.0,0
0.16,0.045402585999999995,-0.16120175,9.7830515,-0.0002666207146830857,-0.0009909484069794416,0.00042879703687503934,2.8991382122039795,25.61456298828125,-15.751436233520508,-0.5495417714118958,3.054513692855835,-0.4180030822753906,989.8120727539062,0,0.0,0
0.2,0.04296577,-0.16120055,9.761744,-0.0002661683247424662,-0.0007247059256769718,-0.0005031146574765444,2.9230763912200928,25.32038116455078,-14.891084671020508,-0.5289438962936401,3.0383267402648926,-0.3921985626220703,989.79443359375,0,0.0,0
0.24,0.040528953,-0.15881613,9.768841,5.994806997478008e-07,-0.0005916213849559426,0.0001628687314223498,2.8613643646240234,25.789566040039066,-15.21696662902832,-0.5372045040130615,3.036205053329468,-0.4042091369628906,989.8270263671876,0,0.0,0
0.28,0.042871952000000005,-0.14928189,9.775938,-0.0002652641269378364,-0.00032537890365347266,-0.0003695691702887416,3.27626633644104,25.38775634765625,-15.026437759399414,-0.5357531309127808,3.0215039253234863,-0.3963460922241211,989.8168334960938,0,0.0,0
0.32,0.04760486,-0.15404728,9.764097999999999,0.0002678196760825813,0.00034033739939332014,-0.00023621751461178067,2.881853580474853,25.96664810180664,-14.999532699584961,-0.539886474609375,3.0180852413177486,-0.3857965469360352,989.8117065429688,0,0.0,0
0.36,0.03560844,-0.1468963,9.778296000000001,0.0004014298901893199,0.00060657988069579,0.0005629239021800458,3.044031858444214,25.2230224609375,-15.057992935180664,-0.5238946080207825,3.0066230297088623,-0.3978633880615233,989.8114624023438,0,0.0,0
0.4,0.045121133,-0.14689520000000003,9.766456,0.0005350399878807366,-0.0008582309237681329,-0.00023582990979775786,3.067702293395996,25.508960723876953,-15.694250106811525,-0.5367642641067505,3.00923752784729,-0.3956775665283203,989.828857421875,0,0.0,0
0.44,0.04985404,-0.14927727,9.761718,0.0002691762638278305,-0.0007251463830471039,3.0679715564474463e-05,2.828294277191162,26.074913024902344,-15.613489151000975,-0.5399395227432251,3.0070905685424805,-0.38875484466552734,989.8339233398438,0,0.0,0
0.48,0.037857592,-0.16357577,9.759346,0.00026962830452248454,-0.00032574596116319304,-0.00036860036198049773,2.5462470054626465,26.17931365966797,-15.19120979309082,-0.5244783163070679,2.9954936504364014,-0.3866252899169922,989.7908325195312,0,0.0,0
0.52,0.044980407,-0.15404159,9.775912,0.00040323851862922316,7.365446072071791e-05,3.1067291274666786e-05,2.7199203968048096,25.70984649658203,-15.267488479614258,-0.5326069593429565,2.983558654785156,-0.39858531951904297,989.816162109375,0,0.0,0
0.56,0.04254359,-0.15642366,9.768806,4.216737579554319e-06,-0.0005922086420468986,-0.00023505487479269502,2.5022246837615967,25.82221221923828,-15.471475601196287,-0.5168076753616333,2.97670841217041,-0.38223934173583984,989.7933349609376,0,0.0,0
0.6,0.04488662,-0.15165594,9.761700999999999,0.0006704587140120566,7.350770465563983e-05,0.0002977707190439105,2.711905241012573,26.17668914794922,-15.678495407104492,-0.5345472693443298,2.960057258605957,-0.3847599029541016,989.8236694335938,0,0.0,0
0.64,0.037669957000000004,-0.1659545,9.75933,0.0005377528141252698,-0.00019288156181573868,-0.000634141149930656,3.122485637664795,24.770034790039066,-15.58247184753418,-0.5333837270736694,2.986417531967163,-0.37312984466552734,989.8184814453124,0,0.0,0
0.68,0.049572557,-0.15165368,9.780629,0.0013371524401009085,0.000605992681812495,-0.00010131558519788086,3.093163013458252,25.21625518798828,-14.911203384399414,-0.5369004011154175,2.9460353851318364,-0.3946361541748047,989.8156127929688,0,0.0,0
0.72,0.04713577,-0.15641907,9.782992,0.000938130950089544,0.0003396033425815404,-0.00023427966516464951,2.871199607849121,25.956336975097656,-14.458398818969727,-0.5306112766265869,2.9531397819519043,-0.3971452713012695,989.8080444335938,0,0.0,0
0.76,0.044698954000000006,-0.15641788,9.771152,0.0008054251666180791,-0.000858891464304179,0.0001653878134675324,3.3305063247680664,25.017120361328125,-15.01310920715332,-0.5100852847099304,2.945897340774536,-0.371246337890625,989.8255004882812,0,0.0,0
0.8,0.044652015,-0.14926696,9.768781,0.000273245561402291,-6.001726433169097e-05,0.00016558164497837424,2.781090259552002,25.608943939208984,-15.040060043334961,-0.5325671434402466,2.933485984802246,-0.3689050674438477,989.81787109375,0,0.0,0
0.84,0.05177486,-0.16118220000000003,9.764042,-0.00012577633606269956,0.0003393832012079656,0.00016577536007389426,2.9756879806518555,26.05461120605469,-15.17310905456543,-0.5214437246322632,2.958824157714844,-0.371185302734375,989.8125610351562,0,0.0,0
0.88,0.044558227,-0.16833082,9.775874,-0.0014564513694494965,-0.00032655333052389324,-0.00010015288717113437,3.121262550354004,25.40069580078125,-15.080293655395508,-0.5285829305648804,2.93235182762146,-0.3911495208740233,989.8298950195312,0,0.0,0
0.92,0.04451129,-0.14449695,9.761666,-0.0014564513694494965,-0.00032655333052389324,-0.00010015288717113437,3.121262550354004,25.40069580078125,-15.080293655395508,-0.5138242244720459,2.8952443599700928,-0.36635684967041016,989.8298950195312,0,0.0,0
0.96,0.046854317,-0.15402889,9.7521925,0.00040821201400831336,0.00033916300162672997,-9.99592011794448e-05,2.861907482147217,25.42127990722656,-15.11851692199707,-0.5219137668609619,2.906710147857666,-0.3214445114135742,989.8248291015624,0,0.0,0
1.0,0.049197257,-0.15879425,9.778228,0.0002755062305368483,-6.038423452991992e-05,-9.976539877243341e-05,2.718153476715088,26.70880126953125,-14.863763809204102,-0.5297698974609375,2.8990144729614262,-0.3711891174316406,989.8220825195312,0,0.0,0
1.04,0.053930193,-0.16117641,9.766387,0.00027595838764682407,-0.0007262473809532821,3.3586344216018915e-05,3.045308351516724,26.22492218017578,-14.808881759643555,-0.5186800956726074,2.900716543197632,-0.3546276092529297,989.8245239257812,0,0.0,0
1.08,0.03635198,-0.14923915,9.768678,0.00014325248776003718,-0.0003268469008617103,-9.937779395841062e-05,3.125009298324585,25.56157684326172,-14.012502670288086,-0.5069011449813843,2.8784513473510738,-0.35691165924072266,989.8499145507812,0,0.0,0
1.12,0.05539253400000001,-0.14685395,9.771037,-0.00011881330283358692,0.0011372005101293323,0.0003019174037035554,2.931390285491944,25.48567199707031,-14.055208206176758,-0.5152342319488525,2.8657712936401367,-0.3592948913574219,989.8394165039062,0,0.0,0
1.16,0.043364346,-0.14446881,9.7781315,-6.319952080957592e-05,-0.00011210773664060979,-0.00030802167020738125,2.9030237197875977,25.881351470947266,-15.382726669311525,-0.4991298913955689,2.8579323291778564,-0.3664112091064453,989.8241577148438,0,0.0,0
1.2,0.036115944,-0.15876654,9.763921,7.071663276292384e-05,-0.0005117047112435101,0.00035809300607070327,2.8281564712524414,25.968994140625,-14.91441535949707,-0.497582733631134,2.8593595027923584,-0.3450641632080078,989.8267822265624,0,0.0,0
1.24,0.05037665400000001,-0.17306426,9.761546000000001,0.00020463301916606724,2.0803885490749966e-05,9.210215648636222e-05,3.0407423973083496,26.22050476074219,-14.576963424682615,-0.5202475786209106,2.8703212738037114,-0.3426780700683594,989.8240966796876,0,0.0,0
1.28,0.04551816,-0.15161282,9.7710085,7.223364082165062e-05,0.00042015465442091227,-0.00017388875130563974,2.717855453491211,26.07666015625,-15.288637161254885,-0.5093573927879333,2.833810567855835,-0.3545551300048828,989.8163452148438,0,0.0,0
1.32,0.040659666000000004,-0.15637746,9.7639,0.0007387815276160836,0.0009526631911285223,-4.04057209379971e-05,2.468878746032715,25.89571762084961,-14.46983528137207,-0.5030861496925354,2.8303751945495605,-0.3474102020263672,989.8238525390624,0,0.0,0
1.36,0.042970895999999995,-0.15637553,9.763892,-0.0004588813462760299,-0.00024588129599578684,-0.00030639662872999907,2.594399690628052,25.80278396606445,-14.868661880493164,-0.5013623237609863,2.845876216888428,-0.3260221481323242,989.8339233398438,0,0.0,0
1.4,0.033332586000000004,-0.151607,9.761517999999999,-5.864907871000469e-05,-0.00037916234578005964,9.340231190435588e-05,3.0606353282928467,25.13330841064453,-15.20927619934082,-0.4810215532779694,2.8135476112365723,-0.3235569000244141,989.8311157226562,0,0.0,0
1.44,0.040423572000000005,-0.1611382,9.761511,-0.0007236804813146591,0.0008191358647309244,0.0004932011943310499,2.842940330505371,25.24567031860352,-15.41325569152832,-0.4982132315635681,2.824840545654297,-0.3544120788574219,989.8287963867188,0,0.0,0
1.48,0.04273483,-0.14683667,9.768605,0.001540762954391539,-0.0007788824150338769,0.0002272103156428784,2.54679012298584,25.811023712158203,-15.09276008605957,-0.4905450344085693,2.783817768096924,-0.336578369140625,989.8435668945312,0,0.0,0
1.52,0.04504603,-0.15636775,9.759129,0.0003430999640841037,-0.0007790056406520308,0.0004938512574881315,2.8725616931915283,25.43159103393555,-15.659650802612305,-0.49430197477340704,2.789806842803955,-0.3152666091918945,989.8662109375,0,0.0,0
1.56,0.033017844,-0.16113243,9.76859,-0.00018877335241995752,1.981902642000932e-05,0.0003610183484852314,2.4870049953460693,25.80747985839844,-14.698419570922852,-0.4978451728820801,2.7912137508392334,-0.3366127014160156,989.81298828125,0,0.0,0
1.6,0.032939166,-0.14921412,9.754380000000001,0.0004777747963089496,0.001351275248453021,-3.813041257672012e-05,2.99990177154541,25.97225952148437,-15.710908889770508,-0.4922701418399811,2.772681474685669,-0.3164606094360352,989.8055419921876,0,0.0,0
1.64,0.04003018,-0.15397874,9.756739999999999,0.0007448489777743816,0.0005522044957615434,9.535261779092252e-05,3.160994052886963,25.96521759033203,-15.966279983520508,-0.4955117106437683,2.7692995071411133,-0.3235940933227539,989.8307495117188,0,0.0,0
1.68,0.04473126,-0.15874332,9.768569,0.0010119235375896096,-0.00038002422661520535,-0.00043695420026779175,3.2134370803833012,25.38127136230469,-14.477487564086914,-0.4835793673992157,2.7664475440979004,-0.32006072998046875,989.8128662109376,0,0.0,0
1.72,0.042262673,-0.1492083,9.780397,0.0011458398075774312,1.9326458641444333e-05,9.600265184417368e-05,3.2627058029174805,25.48042297363281,-15.02977180480957,-0.4827168881893158,2.7432098388671875,-0.3283405303955078,989.8428344726562,0,0.0,0
1.76,0.03740418,-0.1492064,9.759086,-0.00023392401635646817,9.780470281839372e-05,-0.00021049601491540668,3.3269190788269043,25.38246917724609,-14.956949234008787,-0.4718980491161346,2.748913288116455,-0.2880449295043945,989.822998046875,0,0.0,0
1.8,0.0373255,-0.15635425,9.756711,0.00016630836762487888,0.0004971553571522236,-0.0006096448050811888,3.4899387359619136,24.902687072753906,-14.492090225219727,-0.4750553071498871,2.7356557846069336,-0.30931758880615234,989.82763671875,0,0.0,0
1.84,0.044416547,-0.16350219,9.759071,0.0005665406351909041,-3.559949982445687e-05,5.6469900300726295e-05,3.703343391418457,24.997737884521484,-15.454347610473633,-0.5020573735237122,2.736565589904785,-0.3163566589355469,989.820068359375,0,0.0,0
1.88,0.03238836,-0.16588357,9.775634,0.00016782514285296202,-0.00016888057871256024,-0.0002095209201797843,3.507521629333496,25.182735443115234,-14.819124221801758,-0.4756354987621307,2.7233901023864746,-0.3126630783081055,989.8525390625,0,0.0,0
1.92,0.049039005999999996,-0.15634856,9.777994999999999,-9.773229976417497e-05,-3.584574733395129e-05,0.00032343587372452015,3.7328271865844727,25.077735900878906,-15.001668930053713,-0.4890983998775482,2.704939365386963,-0.31149959564208984,989.8421020507812,0,0.0,0
1.96,0.032230972999999996,-0.13728029,9.756682000000001,0.00016934191808104518,-0.00043544260552152986,-0.0002088708570227027,3.921474933624268,25.62342834472656,-15.524572372436525,-0.4589368402957916,2.6864144802093506,-0.2758665084838867,989.8497924804688,0,0.0,0
2.0,0.046491712000000004,-0.15634462,9.770878999999999,-0.0004956894554197788,0.00023022390087135136,-0.00020854582544416192,3.87524938583374,25.52722549438477,-15.126901626586914,-0.4858172833919525,2.6968884468078613,-0.30661582946777344,989.8090209960938,0,0.0,0
2.04,0.049672067,-0.15159747,9.780419,0.0004371745744720101,-0.00030253094155341387,-0.00020822091028094286,4.212921142578125,24.947738647460934,-14.914072036743164,-0.4843592643737793,2.6880872249603267,-0.3231296539306641,989.8469848632812,0,0.0,0
2.08,0.050514935999999996,-0.17783418,9.771028,-0.0006463070749305189,0.0002357115736231208,0.0003222945670131594,4.329714775085448,24.37175750732422,-14.051538467407227,-0.479232132434845,2.6840569972991943,-0.29116344451904297,989.833740234375,0,0.0,0
2.12,0.04333633,-0.15161797,9.789964999999999,-0.0006463070749305189,0.0002357115736231208,0.0003222945670131594,4.329714775085448,24.37175750732422,-14.051538467407227,-0.4642118811607361,2.6560018062591557,-0.3042173385620117,989.833740234375,0,0.0,0
2.16,0.036157787000000004,-0.15161774,9.773394999999999,0.0001506632543168962,0.0010349801741540432,-0.0006106584332883357,4.341753005981444,24.277626037597656,-13.970903396606445,-0.4582303464412689,2.6520376205444336,-0.2829179763793945,989.839111328125,0,0.0,0
2.2,0.04092869,-0.16353389999999998,9.77576,-0.0007812711992301048,0.00010284683958161622,-7.795335841365159e-05,5.218461990356445,23.307842254638672,-14.588140487670898,-0.4704003632068634,2.65273666381836,-0.2887086868286133,989.8312377929688,0,0.0,0
2.24,0.055259228,-0.13731757,9.780494000000001,-0.0007812711992301048,0.00010284683958161622,-7.795335841365159e-05,5.218461990356445,23.307842254638672,-14.588140487670898,-0.4934223294258118,2.6195409297943115,-0.3111371994018555,989.8312377929688,0,0.0,0
2.28,0.048080683,-0.15876687,9.768657000000001,1.7761776689440012e-05,0.00036914885276928544,-0.0006105484790168703,5.044353008270264,23.03925323486328,-14.237661361694336,-0.4779175221920013,2.6247072219848637,-0.2802896499633789,989.8259887695312,0,0.0,0
2.32,0.05046168,-0.15638337,9.771024,-0.0007811003015376627,0.0010349246440455315,-7.788013317622243e-05,5.631299018859862,23.27284812927246,-14.418756484985352,-0.466459333896637,2.6201751232147217,-0.2825202941894531,989.866455078125,0,0.0,0
2.36,0.040893227000000004,-0.13970026,9.766288000000001,-0.0006478566792793572,-0.0008293004939332603,0.0001884724770206958,5.789614677429199,22.682735443115234,-13.022905349731445,-0.4551810026168823,2.592402458190918,-0.2565145492553711,989.8257446289062,0,0.0,0
2.4,0.040884316000000004,-0.15876627,9.785226,0.0006838080589659513,-3.0366660212166607e-05,0.00018850911874324083,6.08424186706543,22.115909576416016,-13.266092300415039,-0.4680861830711365,2.61224365234375,-0.3015336990356445,989.8334350585938,0,0.0,0
2.44,0.038485587,-0.15876606,9.766287,0.0005507358000613749,0.000502251205034554,-0.0003440859727561474,6.14973258972168,23.019859313964844,-12.944162368774414,-0.4663791954517365,2.593825340270996,-0.2802343368530273,989.843505859375,0,0.0,0
2.48,0.050426215,-0.17068222,9.768653,0.0005508213653229177,-0.0006961841136217117,-7.773344987072049e-05,6.209517955780028,23.023401260375977,-13.338502883911133,-0.4648320376873016,2.598873376846313,-0.27779483795166016,989.8359985351562,0,0.0,0
2.52,0.04563752,-0.16114885,9.76155,-0.00011479732347652317,-0.0005630539963021874,5.549780325964093e-05,7.0813865661621085,21.837360382080078,-12.32567024230957,-0.4583512246608734,2.5802764892578125,-0.2564697265625,989.8330688476562,0,0.0,0
2.56,0.036069065,-0.15161547,9.766283999999999,-0.00011479732347652317,-0.0005630539963021874,5.549780325964093e-05,7.30973482131958,21.735309600830078,-12.662824630737305,-0.4423796236515045,2.5664124488830566,-0.2588205337524414,989.8330688476562,0,0.0,0
2.6,0.045619785999999996,-0.15638188,9.754447,0.0001516041229479015,0.0005021956749260426,0.00045500823762267833,7.090816020965576,22.478334426879886,-12.364633560180664,-0.4646616876125336,2.566974878311157,-0.2564783096313477,989.827880859375,0,0.0,0
2.64,0.043220997000000004,-0.15161511,9.771016,0.0004180054529570043,-0.00029676585108973086,-0.00034390261862427,8.02815055847168,21.77594375610352,-12.85289192199707,-0.4627289175987244,2.5387609004974365,-0.2777585983276367,989.84033203125,0,0.0,0
2.68,0.036042422000000005,-0.14446506,9.766282,-0.0002476986846886575,-0.0006962534971535206,5.560778663493693e-05,8.051547050476074,21.85004997253418,-12.09099006652832,-0.44692647457122797,2.524569034576416,-0.2516574859619141,989.8479614257812,0,0.0,0
2.72,0.045593142999999996,-0.15876451,9.773383,-0.0007802447653375566,0.0009016278199851512,0.0003219603095203638,8.030376434326174,21.935344696044922,-11.707796096801758,-0.4453708827495575,2.539192676544189,-0.2492876052856445,989.8377685546876,0,0.0,0
2.76,0.038414538,-0.16353083,9.768647,1.8788210581988096e-05,0.0005021401448175311,0.0005883128615096211,8.174322128295897,22.38630485534668,-11.910333633422852,-0.4527057111263275,2.5206894874572754,-0.2599773406982422,989.8577880859376,0,0.0,0
2.8,0.04557538,-0.16591388,9.752075999999999,-0.0001142840483225882,-3.0505500035360456e-05,-0.00021059811115264893,9.007467269897461,22.217771530151367,-11.259012222290039,-0.456583321094513,2.520791530609131,-0.23984432220458984,989.8173217773438,0,0.0,0
2.84,0.047956407,-0.15399727,9.778114,1.895945752039552e-05,-0.00029683526372537017,0.00032207032199949026,9.072362899780273,21.85744285583496,-11.786821365356445,-0.4444868266582489,2.4783194065093994,-0.2552528381347656,989.8346557617188,0,0.0,0
2.88,0.047947555999999995,-0.14923054,9.787582,1.9045022781938314e-05,0.00010262464638799428,-0.000210524769499898,9.544004440307617,21.456233978271484,-11.836023330688475,-0.4430552423000336,2.487780809402466,-0.2670383453369141,989.839599609375,0,0.0,0
2.92,0.050328553,-0.14446375,9.775746,-0.0005135012906976044,0.00023576871899422255,-0.0008762778015807271,9.903985977172852,21.68743896484375,-11.058198928833008,-0.4509016275405884,2.4785964488983154,-0.2694568634033203,989.857177734375,0,0.0,0
2.96,0.047929794000000005,-0.15399662,9.768642999999999,-0.00024709972785785794,0.0001025968958856538,0.0008548120968043804,9.833982467651367,22.411636352539066,-10.396928787231444,-0.4541404247283936,2.450135946273804,-0.2481670379638672,989.8624877929688,0,0.0,0
3.0,0.05031082,-0.14684656,9.759172999999999,-0.0011791198048740625,0.000368898909073323,-0.0004767306381836533,10.350765228271484,22.84321212768555,-11.040704727172852,-0.4534534215927124,2.454904317855835,-0.24698352813720706,989.831787109375,0,0.0,0
3.04,0.04791203,-0.15876272,9.7828455,0.00015254499157890677,0.0007683588191866875,-0.0003435360267758369,10.805259704589844,22.900005340576172,-11.037080764770508,-0.4269390404224396,2.4506607055664062,-0.2435464859008789,989.8294067382812,0,0.0,0
3.08,0.043123364000000004,-0.16114584,9.766273,0.00041894655441865325,0.00010255523375235498,-0.0003434993559494614,10.665200233459473,22.715839385986328,-10.465829849243164,-0.4394689798355103,2.445983409881592,-0.2364683151245117,989.8240356445312,0,0.0,0
3.12,0.052674115,-0.16114566,9.77811,-0.0003799156402237713,-0.0006964062340557575,0.00045548487105406815,10.516284942626953,22.73466873168945,-10.82890510559082,-0.4521147012710571,2.4369451999664307,-0.25790977478027344,989.8490600585938,0,0.0,0
3.16,0.050275325999999995,-0.15399557,9.775741,0.0004191174521110952,-0.00043010435183532536,-0.0006097418372519313,11.330057144165039,22.86473846435547,-11.269853591918945,-0.4408959150314331,2.4279298782348637,-0.24148941040039065,989.8567504882812,0,0.0,0
3.2,0.050266445,-0.168295,9.75917,0.0002860451932065189,0.00010251357161905617,0.0004555582127068191,11.182281494140623,23.77954864501953,-10.684736251831056,-0.4449293911457062,2.446863889694214,-0.23556232452392575,989.8388671875,0,0.0,0
3.24,0.045477748,-0.1516118,9.756801,0.0002861307584680617,0.00036881555570289487,-7.70369078963995e-05,11.232528686523438,24.248462677001953,-11.412775039672852,-0.4338454902172089,2.404287338256836,-0.21438217163085935,989.8160400390624,0,0.0,0
3.28,0.04307902,-0.14207843,9.787574000000001,-0.00023543834686279297,0.000924022460822016,0.0005420355009846388,11.48259162902832,23.69282150268555,-12.034669876098633,-0.43254977464675903,2.380537748336792,-0.24524497985839844,989.8566284179688,0,0.0,0
3.32,0.045460016,-0.15637797,9.771003,-0.00023535266518592837,0.0005245347856543958,0.0002757562615443021,11.314760208129885,25.16861343383789,-11.941194534301758,-0.4213579595088959,2.39042329788208,-0.21461868286132807,989.831298828125,0,0.0,0
3.36,0.045451134000000004,-0.14446136,9.761533,3.104878851445392e-05,0.0002582049346528948,9.47705120779574e-06,10.934993743896484,24.91825866699219,-11.714052200317385,-0.4195602536201477,2.366962432861328,-0.207672119140625,989.8211669921876,0,0.0,0
3.4,0.045442283,-0.14446113,9.766267,0.00043060793541371817,-0.0002744406519923359,0.0002758296031970531,11.184375762939453,24.62499237060547,-11.735322952270508,-0.43250608444213867,2.3622517585754395,-0.23381805419921875,989.8311157226562,0,0.0,0
3.44,0.04782328,-0.15399402,9.778102,-0.0003682539099827409,0.0007908089901320636,9.550421964377163e-06,10.606563568115234,24.40023422241211,-12.018060684204102,-0.4213774502277374,2.357635259628296,-0.23631763458251956,989.8134155273438,0,0.0,0
3.48,0.052594244000000005,-0.16591018,9.775734,-0.00023501052055507896,0.000125005331938155,-0.0006562027265317737,10.78607940673828,24.93708801269531,-12.07713508605957,-0.4241644442081451,2.348330497741699,-0.21042251586914065,989.83349609375,0,0.0,0
3.52,0.047805547999999996,-0.1373106,9.775733,-0.000234925071708858,-0.0008071140036918223,-0.0003898500581271946,11.02524185180664,25.371562957763672,-11.83146858215332,-0.4179364740848541,2.319746971130371,-0.2176504135131836,989.8258056640624,0,0.0,0
3.56,0.041050255,-0.13964543,9.751881,-0.0006343132117763162,0.0007907673134468496,0.00027597625739872456,10.83564567565918,25.66837310791016,-12.204545974731445,-0.4140587151050568,2.3245816230773926,-0.1915740966796875,989.8408813476562,0,0.0,0
3.6,0.031430095,-0.14679378,9.766078,-9.689619037089871e-05,-0.0006747468723915517,0.00027802708791568875,10.532567024230957,25.963985443115234,-12.098154067993164,-0.4172450602054596,2.320192813873291,-0.2178335189819336,989.8430786132812,0,0.0,0
3.64,0.055268526,-0.13964245,9.773173,-9.011464862851426e-05,0.0006583306239917874,0.000824613613076508,10.852251052856444,25.57865905761719,-12.35582160949707,-0.4196382462978363,2.287114381790161,-0.2003650665283203,989.8380126953124,0,0.0,0
3.68,0.04086852,-0.1610905,9.773168,-9.011464862851426e-05,0.0006583306239917874,0.000824613613076508,10.852251052856444,25.57865905761719,-12.35582160949707,-0.40924909710884094,2.3064465522766118,-0.19931983947753906,989.8380126953124,0,0.0,0
3.72,0.026468515,-0.16585556,9.768428,0.00017736887093633413,-0.0012060700682923198,-0.0005064653232693672,9.93235969543457,26.455188751220703,-11.495515823364258,-0.4062657058238983,2.29729437828064,-0.2150201797485352,989.8223266601562,0,0.0,0
3.76,0.04552716,-0.15632096,9.768422,0.00017736887093633413,-0.0012060700682923198,-0.0005064653232693672,9.93235969543457,26.455188751220703,-11.495515823364258,-0.4053744673728943,2.292271852493286,-0.20439624786376956,989.8223266601562,0,0.0,0
3.8,0.04785648,-0.14678636,9.77552,-0.00048783689271658664,-0.00014090137847233564,2.6416731998324394e-05,10.097175598144533,26.18871307373047,-12.506120681762695,-0.4178012311458588,2.2688007354736333,-0.2212209701538086,989.8451538085938,0,0.0,0
3.84,0.045405984,-0.15393472,9.766045,-8.719530160306022e-05,-0.0005405647680163382,0.00029323305352590984,10.429738998413086,25.97309875488281,-12.159830093383787,-0.4159383773803711,2.278620481491089,-0.19069480895996094,989.7942504882812,0,0.0,0
3.88,0.045345425999999994,-0.15631652,9.775508,-8.719530160306022e-05,-0.0005405647680163382,0.00029323305352590984,10.429738998413086,25.97309875488281,-12.159830093383787,-0.40477702021598816,2.250149965286255,-0.1980295181274414,989.7942504882812,0,0.0,0
3.92,0.04289493,-0.14916518,9.766033,-0.0002191854873672128,-0.00027443846920505166,0.00042689146357588465,10.9506196975708,24.458778381347656,-11.689577102661133,-0.4068062603473663,2.2407374382019043,-0.2042875289916992,989.8323974609376,0,0.0,0
3.96,0.035664678,-0.15631357,9.763661,-0.0002191854873672128,-0.00027443846920505166,0.00042689146357588465,11.05831241607666,25.086219787597656,-11.434953689575195,-0.3962032198905945,2.240965843200684,-0.1937894821166992,989.8323974609376,0,0.0,0
4.0,0.052333415,-0.13009593,9.758922,-8.544360025553034e-05,-0.0005408491124399006,0.00016082581714726985,10.708711624145508,24.65349578857422,-11.355756759643555,-0.4278193414211273,2.207706928253174,-0.19167232513427732,989.8222045898438,0,0.0,0
4.04,0.054662764,-0.13962760000000002,9.775485,-8.485977741656825e-05,-8.312136742461007e-06,0.000960023608058691,10.697513580322266,25.011478424072266,-10.91307258605957,-0.41172632575035095,2.2033517360687256,-0.20383644104003906,989.8218994140624,0,0.0,0
4.08,0.03787285,-0.14915922,9.773112,4.888210241915658e-05,-8.406927918258589e-06,0.00016132628661580384,10.581369400024414,24.11281967163086,-11.304498672485352,-0.3863548040390015,2.1989612579345703,-0.1686687469482422,989.8014526367188,0,0.0,0
4.12,0.0402022,-0.15630761,9.775475,-8.369201532332227e-05,0.000390972156310454,0.00029473446193151176,11.220598220825195,23.23625183105469,-11.120756149291992,-0.37460821866989136,2.189425230026245,-0.17601299285888672,989.78369140625,0,0.0,0
4.16,0.037751675,-0.16107264,9.758899000000001,-0.0006157398456707598,-0.0008075441583059727,0.0005613005487248302,11.225162506103516,23.240671157836914,-11.352670669555664,-0.38205841183662415,2.204010009765625,-0.17869949340820312,989.8240966796876,0,0.0,0
4.2,0.040080994,-0.14438826,9.758892999999999,0.0005832655588164926,-0.0014734286814928055,0.0002952349314000457,11.418783187866213,23.316570281982425,-11.309965133666992,-0.3895148038864136,2.1761274337768555,-0.17675018310546875,989.8114624023438,0,0.0,0
4.24,0.042410314000000005,-0.16345295,9.784927,0.0009833232033997774,-0.00040825991891324515,-0.0005034625064581633,10.786590576171877,23.356534957885746,-10.906946182250977,-0.3833902180194855,2.180786371231079,-0.1936025619506836,989.7935791015624,0,0.0,0
4.28,0.03756991,-0.14915179999999997,9.780187,-0.0011466199066489935,0.0007900667260400951,-0.00023689636145718398,10.38038444519043,23.02912902832031,-11.287099838256836,-0.3856668174266815,2.162394523620605,-0.19538402557373047,989.796142578125,0,0.0,0
4.32,0.042289138,-0.15630016,9.768346000000001,0.0004518593195825815,-0.0005416075000539422,0.00016282769502140582,10.48193645477295,22.018112182617188,-11.474542617797852,-0.3890300095081329,2.1531808376312256,-0.17920494079589844,989.8007202148438,0,0.0,0
4.36,0.039838642,-0.14914885,9.765972,0.00018612726125866172,0.0011893510818481445,0.0001630779297556728,9.98773956298828,22.60906219482422,-11.663919448852539,-0.3677607774734497,2.1343133449554443,-0.16298580169677734,989.8517456054688,0,0.0,0
4.4,0.037388235,-0.14914736,9.770700999999999,-0.000345920561812818,-0.0006749549647793174,-0.00023614565725438297,9.655719757080078,22.45638465881348,-11.911760330200195,-0.3813594281673432,2.1342766284942627,-0.1809024810791016,989.8237915039062,0,0.0,0
4.44,0.04688725,-0.15629569,9.782532000000002,-0.00021217879839241505,-0.0008082076674327254,-0.0005022112745791674,9.285926818847656,22.47871398925781,-11.625131607055664,-0.3840764760971069,2.1398541927337646,-0.17429637908935547,989.7931518554688,0,0.0,0
4.48,0.044436752999999996,-0.14676109,9.768322999999999,0.0011199844302609565,-0.0002756706962827593,0.00029698657453991473,8.950565338134766,21.690954208374023,-12.143232345581055,-0.3864818513393402,2.1163034439086914,-0.1713390350341797,989.8006591796876,0,0.0,0
4.52,0.045327245999999995,-0.17061579,9.758936,-0.0008768007392063737,-9.449528988625387e-06,0.00029723686748184264,8.782001495361326,21.796550750732425,-12.200418472290039,-0.3664692938327789,2.130535125732422,-0.1324462890625,989.803466796875,0,0.0,0
4.56,0.039105833,-0.15872258,9.773226,-0.0006099010352045298,-9.544378372083884e-06,-0.0005014606285840273,8.385768890380861,21.7418270111084,-12.521081924438475,-0.3566478788852692,2.0929713249206543,-0.1581583023071289,989.7905883789062,0,0.0,0
4.6,0.04151222,-0.16587290000000002,9.780330000000001,-0.000354575808160007,-0.00014091812772676351,-0.0005061707925051451,8.22231388092041,21.483551025390625,-12.711732864379885,-0.3797414600849152,2.102574825286865,-0.17138671875,989.8159790039062,0,0.0,0
4.64,0.04391861,-0.15395686,9.770862,0.000437407405115664,0.0006591601413674653,-0.0005091556813567877,7.6151771545410165,21.70501518249512,-12.323198318481445,-0.3737581074237824,2.0742635726928706,-0.1600189208984375,989.8004150390624,0,0.0,0
4.68,0.060664415,-0.15634054,9.777965,-0.00049501599278301,-6.5779850046965285e-06,0.0004228137258905917,7.0138607025146475,22.512493133544922,-13.740488052368164,-0.3904414772987366,2.0650858879089355,-0.1902942657470703,989.8002319335938,0,0.0,0
4.72,0.039171785,-0.1634908,9.761395,-0.00038821229827590287,-0.0001267761399503797,-0.00028961521456949413,6.771951198577881,22.70720672607422,-13.406667709350586,-0.36989188194274897,2.075054407119751,-0.15056419372558594,989.8179321289062,0,0.0,0
4.76,0.053527683,-0.14919153,9.773232,1.1102616554126145e-05,0.0001395655272062868,-0.0002896833175327629,5.705890655517577,22.973373413085934,-13.488916397094727,-0.3633391559123993,2.032460927963257,-0.15815162658691406,989.8031005859376,0,0.0,0
4.8,0.0463745,-0.14680865,9.766133,0.00041041741496883333,6.4334240050811795e-06,-0.0004229094192851335,5.313543319702148,23.185441970825195,-13.44087028503418,-0.35692524909973145,2.042426586151123,-0.12790393829345706,989.8179321289062,0,0.0,0
4.84,0.04639095,-0.163492,9.780337,-0.0003886889026034624,0.00013961715740151703,-0.0002898195816669613,4.927283763885498,23.40340232849121,-13.702035903930664,-0.35532593727111816,2.0475208759307857,-0.15919208526611328,989.7799072265624,0,0.0,0
4.88,0.03684789,-0.16825897,9.770871000000001,0.00027694166055880487,0.00027280094218440354,-0.00028988774283789104,5.018755435943604,23.22604751586914,-14.321634292602539,-0.368256151676178,2.0244176387786865,-0.1479663848876953,989.7824096679688,0,0.0,0
4.92,0.04881388,-0.15634298,9.775607,0.00027694166055880487,0.00027280094218440354,-0.00028988774283789104,5.018755435943604,23.22604751586914,-14.321634292602539,-0.35790371894836426,2.0201253890991206,-0.14237403869628906,989.7824096679688,0,0.0,0
4.96,0.046440452,-0.14681026,9.77324,-0.00038916608900763084,0.001204958069138229,-2.3708067601546645e-05,4.776845455169678,23.42076110839844,-13.987810134887695,-0.3557871878147125,1.9921391010284424,-0.1396656036376953,989.7769165039062,0,0.0,0
5.0,0.05123675,-0.15634379,9.770876,-0.0003893248795066029,-0.0007923853117972612,-2.37761705648154e-05,5.0197343826293945,23.595808029174805,-14.497385025024414,-0.3586325943470001,2.0068087577819824,-0.12364482879638672,989.8101806640624,0,0.0,0
5.04,0.056033015,-0.16349399,9.775611,-0.0003893248795066029,-0.0007923853117972612,-2.37761705648154e-05,5.0197343826293945,23.595808029174805,-14.497385025024414,-0.3767518699169159,1.9929566383361816,-0.1417255401611328,989.8101806640624,0,0.0,0
5.08,0.044100046,-0.1491948,9.759043,0.000675779883749783,-0.0009255174081772567,-0.0009559498867020012,4.247077465057373,23.92581367492676,-14.320650100708008,-0.3415737748146057,1.9791773557662964,-0.11155033111572266,989.8048095703124,0,0.0,0
5.12,0.036946774,-0.15157843,9.756677,0.0001428300456609577,0.00013979780487716198,-0.000556612154468894,3.9631035327911377,24.502952575683594,-14.618597030639648,-0.3491741716861725,1.9661122560501096,-0.11848831176757812,989.8197631835938,0,0.0,0
5.16,0.046522915,-0.16587853,9.754311999999999,0.0001428300456609577,0.00013979780487716198,-0.000556612154468894,3.9631035327911377,24.502952575683594,-14.618597030639648,-0.3675389885902405,1.9949162006378172,-0.11760711669921875,989.8197631835938,0,0.0,0
5.2,0.04414946,-0.15396252,9.761415,0.0010747765190899372,0.0006724553531967102,-2.4048698833212256e-05,4.25069522857666,24.772727966308594,-15.448541641235352,-0.3470816016197205,1.957344651222229,-0.13482284545898438,989.8146362304688,0,0.0,0
5.24,0.048945785,-0.15157959,9.754313,-0.0001238036493305117,6.69145856591058e-06,-0.0005567484768107533,4.21262264251709,24.31560516357422,-15.33894157409668,-0.3550020456314087,1.9392391443252563,-0.10950088500976562,989.8045043945312,0,0.0,0
5.28,0.039402664,-0.15158007,9.763784,0.0004086692060809583,0.00013987519196234643,0.00024213097640313208,3.408279657363892,24.82650756835937,-14.936952590942385,-0.3426554203033447,1.9257845878601076,-0.14006423950195312,989.8095703125,0,0.0,0
5.32,0.048978746,-0.16349685,9.766152,-0.00025727952015586203,-0.0013248365139588716,-0.0004237268294673413,3.999791145324707,25.06452178955078,-15.349969863891602,-0.34676340222358704,1.9451247453689573,-0.12027835845947266,989.7867431640624,0,0.0,0
5.36,0.04660541,-0.15396413,9.76142,0.00027519321884028614,0.00027308473363518715,-0.0001574790512677282,3.816145181655884,25.26130676269531,-15.333185195922852,-0.3394279181957245,1.9131256341934204,-0.1178302764892578,989.802001953125,0,0.0,0
5.4,0.04662183,-0.15396455,9.775625,0.000541349989362061,-0.0007921530050225557,-2.4389330064877868e-05,3.264227867126465,25.481895446777344,-15.107072830200195,-0.3371890485286713,1.90902841091156,-0.11141300201416016,989.7844848632812,0,0.0,0
5.44,0.051418185,-0.14919838,9.775625999999999,8.559523848816752e-06,-0.0003926533681806177,0.00024185847723856568,3.7124750614166264,25.006576538085934,-15.918176651000975,-0.3452081680297852,1.8907692432403564,-0.13345813751220706,989.8221435546876,0,0.0,0
5.48,0.08250338,-0.12059948,9.794566,0.00040787432226352404,-0.0003926275239791721,0.0006412641378119588,3.125529289245605,24.772979736328125,-15.737077713012695,-0.3206062912940979,1.886469483375549,-0.11845779418945312,989.8095703125,0,0.0,0
5.52,0.021817923,-0.16109216,9.763705999999999,-0.0002580744039732963,-0.00025944379740394646,-0.0004240675771143288,2.5589656829833984,25.82280731201172,-15.711206436157227,-0.147207573056221,1.996833324432373,-0.031617164611816406,989.7916259765624,0,0.0,0
5.56,-0.03175491,-0.2134999,9.751778999999999,0.0005407143617048861,-0.0006588917458429933,-0.0008236094145104289,2.806282520294189,25.8963623046875,-15.753618240356445,-0.22374869883060453,2.0406289100646973,-0.0905160903930664,989.7966918945312,0,0.0,0
5.6,0.080510855,-0.111017525,9.758875999999999,-0.00037774711381644016,0.0005395362386479974,0.0003874324902426451,2.463066577911377,26.101661682128906,-15.558774948120115,-0.46653628349304205,1.7600823640823364,-0.1323690414428711,989.7916259765624,0,0.0,0
5.64,0.07089168,-0.12531564,9.765972,-0.0002440147945890203,-0.0009252941817976533,-0.0008107427274808288,2.2924375534057617,26.574073791503906,-15.637109756469727,-0.3411255478858948,1.8846182823181152,-0.10234546661376953,989.783935546875,0,0.0,0
5.68,0.020644099,-0.15868011,9.7754345,2.2875596187077466e-05,0.001205139560624957,-0.0005441806279122829,2.0979771614074707,26.23432922363281,-16.20313835144043,-0.2445254474878311,1.8949873447418213,-0.09131145477294922,989.8291625976562,0,0.0,0
5.72,0.042093545,-0.16582853,9.782531,-0.0006423394661396742,0.001071888254955411,0.00025501337950117886,1.7315263748168943,26.891742706298828,-15.646242141723633,-0.31958699226379395,1.857355237007141,-0.1133575439453125,989.8265991210938,0,0.0,0
5.76,0.039644032999999995,-0.15867713,9.770688999999999,-0.0006417647236958146,0.0006723211263306439,-0.00014421422383747995,1.891096115112305,26.88322448730469,-15.824304580688475,-0.3512190282344818,1.83950936794281,-0.12131977081298828,989.8192749023438,0,0.0,0
5.8,0.053923845,-0.15629244,9.768317,0.0010898631298914552,-0.0005261935293674469,-0.0009429155616089703,2.2172720432281494,26.029582977294922,-15.593664169311525,-0.36381834745407104,1.8071415424346924,-0.1292562484741211,989.8088989257812,0,0.0,0
5.84,0.06342387,-0.15629104,9.775413,2.517421671655029e-05,-0.0002599709841888398,-0.00014372175792232156,2.2914586067199707,26.204307556152344,-15.46135139465332,-0.35167962312698364,1.8034453392028809,-0.117431640625,989.796142578125,0,0.0,0
5.88,0.046634912,-0.16105604,9.780142,-0.00010740933066699654,-0.000393222231650725,0.0002559983404353261,1.5986714363098145,27.18914794921875,-16.259050369262695,-0.3031732738018036,1.8133131265640257,-0.10718059539794922,989.796142578125,0,0.0,0
5.92,0.03223592,-0.16343787,9.765933,-0.0011720983311533928,-0.0006596313323825598,-0.0004095449985470623,1.7697057723999023,26.24252319335937,-15.383188247680664,-0.30096104741096497,1.8093315362930296,-0.1008892059326172,989.8139038085938,0,0.0,0
5.96,0.03934601,-0.14913678,9.773028,-0.0002394181356066838,-0.0011923563433811069,-0.0002761409559752792,1.4501595497131348,26.73377227783203,-15.824602127075195,-0.3281030356884003,1.7767784595489502,-0.1183004379272461,989.8139038085938,0,0.0,0
6.0,0.056015699999999995,-0.15390182,9.777758,-0.0003720014356076717,0.0008049194002524017,0.00012357920059002936,1.1621637344360352,26.938194274902344,-15.792181015014648,-0.34576448798179626,1.7682445049285889,-0.1073465347290039,989.7734985351562,0,0.0,0
6.04,0.046396494,-0.15390041,9.782487,-0.00010511094296816736,-0.00012727943249046805,-0.0008082803105935454,1.3723859786987305,26.92438507080078,-15.900751113891602,-0.3062700033187866,1.7738251686096191,-0.11531639099121095,989.811279296875,0,0.0,0
6.08,0.041557074,-0.15151569,9.773013,-0.0006371680647134781,0.0008047329029068352,-0.00014224424376152456,1.328662395477295,27.19941711425781,-15.756135940551758,-0.29547756910324097,1.7607141733169556,-0.085479736328125,989.7938232421876,0,0.0,0
6.12,0.053447008,-0.13959774,9.768272999999999,0.00016235372459050268,0.00053832377307117,-0.0008077877573668957,1.347874641418457,26.374595642089844,-15.787817001342773,-0.32751163840293884,1.752247929573059,-0.1029682159423828,989.8011474609376,0,0.0,0
6.16,0.04621765,-0.15866259,9.763534,0.00029666104819625616,-0.0007934421300888063,-0.000674137263558805,1.2339868545532229,26.84760284423828,-16.105886459350586,-0.2913043797016144,1.7445284128189087,-0.09136104583740234,989.8037109375,0,0.0,0
6.2,0.055717647,-0.14436147,9.756427,0.00029666104819625616,-0.0007934421300888063,-0.000674137263558805,1.2339868545532229,26.84760284423828,-16.105886459350586,-0.3289415538311005,1.7260472774505615,-0.09065818786621094,989.8037109375,0,0.0,0
6.24,0.041318655,-0.15389302,9.775358,3.091977850999683e-05,0.0006712018512189387,-0.00014125931193120778,1.495842456817627,27.198265075683594,-16.320722579956055,-0.28917044401168823,1.7271387577056885,-0.0892343521118164,989.7860107421876,0,0.0,0
6.28,0.04364893,-0.14197520000000002,9.758782,-0.00036797940265387297,-0.00012783909915015101,-0.0005404868861660361,1.24135160446167,27.85540008544922,-16.165990829467773,-0.2831644117832184,1.7092945575714111,-0.07364463806152344,989.8059692382812,0,0.0,0
6.32,0.034029722000000005,-0.15627345,9.761144,0.0005652752006426454,0.00027144819614477456,-0.0001405205111950636,1.20121431350708,27.76508712768555,-16.07753562927246,-0.3002871572971344,1.7019726037979126,-0.08110332489013672,989.8011474609376,0,0.0,0
6.36,0.036359996,-0.17057160000000002,9.763506,0.0005652752006426454,0.00027144819614477456,-0.0001405205111950636,1.20121431350708,27.76508712768555,-16.07753562927246,-0.3233315348625183,1.7121989727020264,-0.08989429473876953,989.8011474609376,0,0.0,0
6.4,0.041080177,-0.15150395,9.765868,0.000965323532000184,0.0006708287401124835,0.0006586732924915849,1.0445506572723389,27.670635223388672,-15.355005264282227,-0.3024377822875977,1.7040125131607056,-0.09800434112548828,989.8187255859376,0,0.0,0
6.44,0.038630664,-0.14435267,9.765862,0.00016695049998816103,-0.000927159853745252,-0.0008058178937062621,1.3105361461639404,27.28765869140625,-15.527555465698242,-0.2819010317325592,1.6768236160278318,-0.06353187561035156,989.8009643554688,0,0.0,0
6.48,0.038571,-0.16580066,9.765857,3.436718543525785e-05,-0.00012830542982555926,-6.623915396630764e-06,0.9242768287658693,27.505615234375,-15.788721084594727,-0.2849408090114593,1.697136640548706,-0.0716409683227539,989.8008422851562,0,0.0,0
6.52,0.042821497,-0.14916337,9.766027000000001,-9.82160127023235e-05,-0.0006610305281355977,-0.0004058514896314591,1.2764878273010254,27.20323944091797,-15.748323440551758,-0.29472342133522034,1.6746783256530762,-0.08468151092529297,989.8133544921876,0,0.0,0
6.56,0.045227885,-0.16108018,9.770762,0.0005499861435964704,-0.0009244912071153524,-0.0005465468857437372,1.419889211654663,28.02248764038086,-16.049310684204098,-0.2826691567897797,1.6674346923828125,-0.06380462646484375,989.8133544921876,0,0.0,0
6.6,0.047634304,-0.13963106,9.76603,0.0005499861435964704,-0.0009244912071153524,-0.0005465468857437372,1.419889211654663,28.02248764038086,-16.049310684204098,-0.3153233230113983,1.6398693323135376,-0.08214378356933594,989.8133544921876,0,0.0,0
6.64,0.04287097,-0.15154788,9.758929,0.0008161431178450584,-0.00012551783584058285,-0.00014714113785885274,1.3692355155944824,28.02777862548828,-16.118799209594727,-0.3041229248046875,1.651548981666565,-0.07548999786376953,989.798095703125,0,0.0,0
6.68,0.050057203,-0.1515483,9.770767999999999,-0.00011612162052188069,0.0009397714748047293,-0.0009461570298299193,0.9096312522888184,28.334857940673828,-15.988958358764648,-0.3028356432914734,1.6341655254364014,-0.1026620864868164,989.7853393554688,0,0.0,0
6.72,0.038124204,-0.15154865,9.770769,1.6877296729944643e-05,0.0002740075869951397,-0.00014727746020071208,1.331599235534668,28.30870819091797,-16.283403396606445,-0.2734335958957672,1.6301684379577637,-0.08782958984375,989.7930297851562,0,0.0,0
6.76,0.047700285999999995,-0.14678255,9.770769999999999,0.000815665815025568,7.717581866018007e-06,-0.0006799774710088968,1.0430290699005127,27.66916275024414,-15.277704238891602,-0.2811533212661743,1.603787183761597,-0.06701183319091797,989.8133544921876,0,0.0,0
6.8,0.047716796,-0.1586993,9.770772000000001,-0.00011659869051072749,0.0001409013639204204,-0.0005468876333907247,1.0251784324645996,27.96923828125,-16.447275161743164,-0.2949748635292053,1.6190285682678225,-0.07589149475097656,989.8056640625,0,0.0,0
6.84,0.035783798,-0.15154990000000002,9.773141,0.00028271612245589495,0.0013393486151471734,-1.4324032235890629e-05,1.4139394760131836,28.12251281738281,-16.439165115356445,-0.2651523053646088,1.601715087890625,-0.060489654541015625,989.8004150390624,0,0.0,0
6.88,0.040580094,-0.13725063,9.770775,0.0005488728638738394,0.00027411096380092204,-0.0010796557180583477,0.8966135978698729,28.05922698974609,-15.893838882446287,-0.291659414768219,1.5851809978485107,-0.08708572387695312,989.7777099609376,0,0.0,0
6.92,0.042986453,-0.15155068,9.768409,0.00014924012066330758,-0.0002584950707387179,-0.0004139340890105814,1.099907636642456,27.775676727294922,-16.216516494750973,-0.2904954552650452,1.5858222246170044,-0.08644390106201172,989.80029296875,0,0.0,0
6.96,0.040613085,-0.15870097,9.758942999999999,-0.0006498665316030383,-0.0010574167827144263,0.00011862942483276127,1.1388211250305176,28.49665069580078,-15.802789688110352,-0.2890699505805969,1.5872306823730469,-0.07573986053466797,989.8029174804688,0,0.0,0
7.0,0.04540941,-0.15631807,9.773147,1.576401700731367e-05,-0.00012528549996204672,-0.00014775461750105023,1.4529595375061035,27.737144470214844,-15.652788162231445,-0.2781126499176025,1.5792723894119265,-0.06506633758544922,989.7827758789062,0,0.0,0
7.04,0.050205707999999995,-0.15155193,9.7707815,-0.0003838688135147095,-0.00039157550781965256,-0.0009467704221606256,1.5582890510559082,28.099262237548828,-15.844175338745115,-0.2864811420440674,1.5619125366210938,-0.049691200256347656,989.8004150390624,0,0.0,0
7.08,0.040662587,-0.15870216,9.76368,-0.00025086989626288414,0.0008068718016147614,0.0007842146442271769,1.2301549911499023,28.21337890625,-15.723306655883787,-0.2891800403594971,1.5594713687896729,-0.06684207916259766,989.805419921875,0,0.0,0
7.12,0.043069005,-0.16585246,9.770783999999999,-0.00011787110997829585,7.94994684838457e-06,0.00011835680925287308,1.3220312595367432,27.56181335449219,-15.545366287231445,-0.27860549092292786,1.5516308546066284,-0.05148506164550781,989.8179931640624,0,0.0,0
7.16,0.05025518,-0.16346958,9.777887,-0.00025118805933743715,0.0005406076088547707,-0.0002811851736623794,1.1108598709106443,28.41812515258789,-16.33277702331543,-0.292294979095459,1.5524249076843262,-0.07457160949707031,989.80029296875,0,0.0,0
7.2,0.043102025999999995,-0.16108665,9.770787,-0.00011818904022220522,8.00154793978436e-06,0.0003845363389700651,1.2201814651489258,27.940692901611328,-15.782793045043945,-0.28128695487976074,1.5495073795318604,-0.06397056579589844,989.8178100585938,0,0.0,0
7.24,0.045508385,-0.15155393,9.770789,0.00028112565632909536,0.00014118535909801722,0.00025131029542535543,1.4074151515960691,27.37856674194336,-15.855737686157227,-0.2750134170055389,1.5226422548294067,-0.04862594604492188,989.807861328125,0,0.0,0
7.28,0.05030474,-0.14917108,9.751852,-0.00025166524574160576,-0.00039142058813013136,0.0005175579572096467,1.2964329719543457,27.74860763549805,-15.629339218139648,-0.282356470823288,1.5207399129867554,-0.05169486999511719,989.8104858398438,0,0.0,0
7.32,0.043151497999999996,-0.14917147,9.758956,-2.856834908016026e-05,-0.0005395542248152196,0.00025947141693905,1.5859522819519043,27.545654296875,-15.73906135559082,-0.2717562913894653,1.516722559928894,-0.04163932800292969,989.7948608398438,0,0.0,0
7.36,0.04316801,-0.15632173,9.768426,0.0005037455121055245,0.0002594449615571648,-0.000406454608310014,1.6862802505493164,27.165298461914066,-15.424325942993164,-0.2505472302436829,1.4961001873016355,-0.04004573822021485,989.8050537109376,0,0.0,0
7.4,0.038404673,-0.15870538,9.761325999999999,0.0005037455121055245,0.0002594449615571648,-0.000406454608310014,1.6862802505493164,27.165298461914066,-15.424325942993164,-0.2593665719032288,1.4924473762512207,-0.03952217102050781,989.8050537109376,0,0.0,0
7.44,0.045590907,-0.15632257,9.773164,0.0007699022535234691,0.0001263128942809999,0.0006587407551705838,1.774569034576416,26.87908172607422,-15.19023323059082,-0.26796814799308777,1.5040731430053709,-0.052677154541015625,989.8080444335938,0,0.0,0
7.48,0.040653825,-0.15155211,9.773149,0.00037026937934570014,0.0006589704426005483,0.000525514711625874,1.4277663230895996,27.449729919433594,-14.939226150512695,-0.2523750960826874,1.487151265144348,-0.04689979553222656,989.8101806640624,0,0.0,0
7.52,0.033316314,-0.15869784,9.763665,0.00023695241543464365,0.0005258383462205528,0.0002591306692920625,1.957129955291748,27.41887664794922,-15.40391731262207,-0.279375433921814,1.4840208292007446,-0.06469917297363281,989.8046264648438,0,0.0,0
7.56,0.04048857,-0.16108117,9.775501,-0.0006923658074811102,0.00012591203267220408,0.0007929569110274316,1.4343974590301514,27.08733367919922,-15.149999618530273,-0.25411778688430786,1.4860010147094729,-0.058909416198730476,989.8097534179688,0,0.0,0
7.6,0.03571129,-0.16108125,9.766032000000001,0.00024012752692215142,-0.0005399406072683632,-0.0008047720766626297,1.5116276741027832,27.26500701904297,-15.172296524047852,-0.2434555292129517,1.4880592823028564,-0.05314159393310547,989.8147583007812,0,0.0,0
7.64,0.03810373,-0.14916489,9.761298,-2.6212685042992238e-05,0.0005253268755041064,0.0007931127911433578,1.7885658740997314,27.52447509765625,-15.46110725402832,-0.2470013797283173,1.4423837661743164,-0.033164024353027344,989.8097534179688,0,0.0,0
7.68,0.033326507000000005,-0.14439839,9.756564,-0.0006920266896486282,-7.3009759944397965e-06,-0.00027216126909479504,1.5326595306396484,27.07379531860352,-14.856409072875975,-0.23110665380954745,1.44889497756958,-0.027357101440429688,989.8075561523438,0,0.0,0
7.72,0.050058305,-0.15631488,9.768400999999999,-0.0009583672508597373,-0.000539928674697876,0.00039361798553727567,1.5740213394165041,26.53343963623047,-15.447042465209961,-0.2826119661331177,1.4370657205581665,-0.05480384826660156,989.8178100585938,0,0.0,0
7.76,0.028551757,-0.15393165,9.782604,0.0007726617623120546,0.0006584966322407126,0.0001272916852030903,2.4133925437927246,26.476715087890625,-15.804018020629885,-0.2480894476175308,1.4347684383392334,-0.0680532455444336,989.8173217773438,0,0.0,0
7.8,0.04050377,-0.14439857,9.768400999999999,0.0007726371986791493,0.00039218479651026433,-5.87682006880641e-06,2.0661535263061523,26.309310913085934,-15.278810501098633,-0.246773824095726,1.4083653688430786,-0.05285835266113281,989.81005859375,0,0.0,0
7.84,0.047676027,-0.14678198,9.763667,-0.00015949286171235144,0.00012587282981257886,-0.0004053611191920936,2.2301511764526367,26.19929504394531,-14.989702224731445,-0.2502453625202179,1.4107789993286133,-0.023496627807617188,989.799560546875,0,0.0,0
7.88,0.033339142999999995,-0.14678198,9.7613,0.00010679868864826858,-0.0004067549016326666,0.00026041813543997705,2.1177854537963867,26.67378234863281,-15.385072708129885,-0.2438748478889465,1.4030730724334717,-0.03193378448486328,989.7897338867188,0,0.0,0
7.92,0.05007097,-0.16108176,9.770767999999999,-0.000958489370532334,-0.0005399089423008263,0.0003935655986424536,2.893049955368042,25.60866928100586,-15.442216873168945,-0.2613585889339447,1.4008276462554932,-0.04993247985839844,989.7822265625,0,0.0,0
7.96,0.040513932999999995,-0.16108176,9.773136000000001,0.0007725395262241364,-0.0008062207489274442,-0.0004053925513289869,3.182867288589477,26.03784942626953,-15.127069473266602,-0.2506491839885712,1.4131729602813718,-0.06325149536132812,989.8073120117188,0,0.0,0
8.0,0.042906344000000006,-0.15631533,9.773136000000001,0.0013051468413323164,0.0005253625568002462,0.0005267026135697961,3.1467528343200684,26.32025146484375,-15.368982315063475,-0.2442956566810608,1.391633152961731,-0.038623809814453125,989.8075561523438,0,0.0,0
8.04,0.0500786,-0.16346517,9.770769999999999,-0.00042593097896315163,-0.0008062128908932209,-0.0002722555655054748,3.302299976348877,25.939022064208984,-15.216676712036133,-0.26638102531433105,1.3906707763671875,-0.05146312713623047,989.8375244140624,0,0.0,0
8.08,0.026182175,-0.14439905,9.763668,0.0005061503034085035,-0.0004067351983394474,-5.950045306235552e-06,3.2044425010681152,25.478351593017575,-14.712732315063475,-0.2273920476436615,1.3644816875457764,-0.02688217163085937,989.8248291015624,0,0.0,0
8.12,0.038134158,-0.161082,9.763668,-2.6505818823352453e-05,0.0015906379558146,-0.00027227640384808183,3.8185088634490967,25.526626586914066,-14.887170791625975,-0.24131980538368225,1.3799463510513306,-0.031157493591308594,989.8097534179688,0,0.0,0
8.16,0.0500862,-0.14916572,9.758935000000001,0.00010662744170986116,0.0001259045529877767,0.0007929765852168202,3.514451026916504,25.452476501464844,-14.605020523071287,-0.2491870075464249,1.363642692565918,-0.025547027587890625,989.8047485351562,0,0.0,0
8.2,0.03335941,-0.16108212,9.768403,0.0009055507835000752,-0.0008061969419941306,-5.981535650789738e-06,4.117702007293701,24.96421813964844,-15.362268447875975,-0.2337199151515961,1.3565198183059692,-0.03411197662353516,989.78955078125,0,0.0,0
8.24,0.04531145,-0.15631568,9.763669,-0.0005592108936980367,0.0007917021284811199,0.0010592715116217732,4.055010795593262,25.06364440917969,-15.512395858764648,-0.2277616113424301,1.3445605039596558,-0.019001007080078125,989.7971801757812,0,0.0,0
8.28,0.0405342,-0.16346559,9.756568,-0.000559235573746264,-0.0004067152622155845,0.000792945153079927,4.438769340515137,24.474449157714844,-14.998167037963867,-0.240538626909256,1.3516663312911987,-0.01809024810791016,989.8198852539062,0,0.0,0
8.32,0.038146853,-0.15154925,9.756568,-0.00015978599549271166,-0.0004067113331984729,-0.00027232890715822583,4.554614543914795,24.740966796875,-15.031610488891602,-0.22495408356189728,1.3305535316467283,-0.031441688537597656,989.8045654296876,0,0.0,0
8.36,0.05487871,-0.16108242,9.761302,0.00037282120320014656,-0.00014039143570698798,0.0003934504056815058,4.6071953773498535,24.262939453125,-14.241899490356445,-0.2414198368787765,1.3347208499908447,-0.011229515075683594,989.7919921875,0,0.0,0
8.4,0.045321642999999995,-0.13963297,9.782607,0.0009054284309968351,-0.0014719669707119465,-0.0005386657430790365,4.334418296813965,24.48209381103516,-14.98253059387207,-0.23107565939426425,1.317111253738403,-0.04395866394042969,989.7969360351562,0,0.0,0
8.44,0.05249387,-0.15631598,9.770772000000001,0.000372772425180301,-0.0012056470150128007,-0.00027236033929511905,4.802474498748778,24.44622802734375,-14.975576400756836,-0.2390084713697433,1.3200302124023438,-0.01946735382080078,989.8223266601562,0,0.0,0
8.48,0.04705006,-0.14676657,9.768344,0.00010643186396919192,-0.0005398534121923149,0.000526576885022223,4.640839576721191,24.821563720703125,-14.818658828735352,-0.24671803414821625,1.303858757019043,-0.01386260986328125,989.8172607421876,0,0.0,0
8.52,0.039856225,-0.16344893,9.775443,0.0005074674263596535,0.0001256828400073573,0.00012777227675542235,4.329171657562257,24.740047454833984,-14.149991989135742,-0.2360433340072632,1.3018851280212402,-0.04618644714355469,989.79443359375,0,0.0,0
8.56,0.051781684,-0.16344833,9.765971,0.0005123616429045796,0.000391204230254516,-0.00026960409013554454,4.429882526397705,23.46518325805664,-14.860757827758787,-0.2398233115673065,1.3045530319213867,-0.04062557220458984,989.8193359375,0,0.0,0
8.6,0.049367666,-0.14914808,9.763602,-0.00015319595695473254,0.0005243244231678544,-3.188557457178831e-06,4.568580627441406,24.17409896850586,-14.230752944946287,-0.2433092296123505,1.2930961847305298,-0.020880699157714844,989.7991943359376,0,0.0,0
8.64,0.020664722,-0.15391400000000002,9.770702,0.00011335217277519405,-0.00040781882125884295,0.0002632269461173564,5.345803260803223,23.84851455688477,-14.639406204223633,-0.18459567427635196,1.276774287223816,-0.015334129333496094,989.8167724609376,0,0.0,0
8.68,0.056489199999999996,-0.1682131,9.754128999999999,-0.0005522051360458137,-8.382736268686129e-06,-0.0004024633090011776,5.484447479248047,22.92486000061035,-14.760690689086914,-0.2409123629331589,1.2842302322387695,-0.009790420532226562,989.7814331054688,0,0.0,0
8.72,0.058854997,-0.16106269,9.768331,-1.9341270672157407e-05,0.0002578954736236483,0.00039658386958763,5.615674018859863,23.73232650756836,-14.443239212036133,-0.2590518593788147,1.2822396755218506,-0.037403106689453125,989.7966918945312,0,0.0,0
8.76,0.042101562,-0.14437917,9.754125,0.0003805970482062549,-0.0008074434008449316,-0.00013584893895313144,5.937283515930176,22.874267578125,-13.980680465698242,-0.22801512479782104,1.2487510442733765,-0.007854461669921875,989.7964477539062,0,0.0,0
8.8,0.051637113,-0.15629497,9.768327000000001,0.0003805970482062549,-0.0008074434008449316,-0.00013584893895313144,5.937283515930176,22.874267578125,-13.980680465698242,-0.22728899121284485,1.2504310607910156,-0.016961097717285156,989.7964477539062,0,0.0,0
8.84,0.04444328,-0.15867767,9.758855,0.00039358122739940876,5.726524977944791e-05,-0.00041392742423340684,5.845812797546388,23.05162048339844,-13.361089706420898,-0.2159995287656784,1.2454434633255005,-0.02530097961425781,989.8037109375,0,0.0,0
8.88,0.039639384,-0.15391055,9.758853,0.00039358122739940876,5.726524977944791e-05,-0.00041392742423340684,5.845812797546388,23.05162048339844,-13.361089706420898,-0.2106248140335083,1.2373579740524292,-0.01544952392578125,989.8037109375,0,0.0,0
8.92,0.05395472,-0.15629321,9.765952,-5.6605867939651935e-06,0.00032354344148188835,0.0002519616682548076,6.083836555480957,22.590118408203125,-14.063623428344727,-0.24289388954639435,1.2404996156692505,-0.028921127319335938,989.8089599609376,0,0.0,0
8.96,0.037201285,-0.14675948,9.780152000000001,0.0003942778566852212,0.00019031006377190351,0.0011842662934213875,6.8353233337402335,22.34540557861328,-13.857172012329102,-0.2128412872552872,1.226149082183838,-0.02783679962158203,989.805908203125,0,0.0,0
9.0,0.05629641,-0.15152547,9.770682,0.0003942778566852212,0.00019031006377190351,0.0011842662934213875,6.8353233337402335,22.34540557861328,-13.857172012329102,-0.2267052382230759,1.2278234958648682,-0.008551597595214844,989.805908203125,0,0.0,0
9.04,0.03237331,-0.14437506,9.761211,-4.963841092830989e-06,0.001122377929277718,-0.0004135295748710632,7.148237705230713,22.21656036376953,-13.204988479614258,-0.19714243710041046,1.2070279121398926,-0.007825851440429688,989.8291015625,0,0.0,0
9.08,0.049078524000000005,-0.17059052,9.7635765,-0.0001378894230583683,0.0003233926254324615,0.00038551766192540526,7.744720458984375,21.98478889465332,-13.052392959594727,-0.2101770043373108,1.2246489524841309,-0.030798912048339844,989.81103515625,0,0.0,0
9.12,0.04188472,-0.14199057,9.768309,0.0005281323101371528,-7.61189148761332e-05,0.0005187753122299911,7.692002296447754,22.35689926147461,-13.143022537231445,-0.21862825751304624,1.198943018913269,-0.025328636169433597,989.8139038085938,0,0.0,0
9.16,0.04903036400000001,-0.15867296,9.751737,0.00012912308739032596,-0.0011414578184485435,0.00038581635453738267,7.8980650901794425,21.864459991455078,-12.22215461730957,-0.22107696533203125,1.1987744569778442,-0.005311012268066406,989.8184814453124,0,0.0,0
9.2,0.06334567,-0.15867236,9.76357,-3.802714445555466e-06,-0.0008751795976422727,-0.0004130317829549313,8.389355659484862,21.376483917236328,-12.577241897583008,-0.2293649464845657,1.1877206563949585,-0.014089584350585938,989.79833984375,0,0.0,0
9.24,0.044202328,-0.15628847,9.777771000000001,-3.802714445555466e-06,-0.0008751795976422727,-0.0004130317829549313,8.389355659484862,21.376483917236328,-12.577241897583008,-0.2050514668226242,1.1844632625579834,-0.018472671508789062,989.79833984375,0,0.0,0
9.28,0.05373785,-0.1515213,9.775400999999999,-3.3382173114659963e-06,0.0004563244292512536,-0.000412832829169929,8.537729263305664,21.72594451904297,-12.312616348266602,-0.2375852763652801,1.1780747175216677,-0.031986236572265625,989.8107299804688,0,0.0,0
9.32,0.034594536,-0.14675418,9.761194999999999,-3.3382173114659963e-06,0.0004563244292512536,-0.000412832829169929,8.537729263305664,21.72594451904297,-12.312616348266602,-0.2173966318368912,1.1673569679260254,-0.017142295837402344,989.8107299804688,0,0.0,0
9.36,0.044130057,-0.16343653,9.780130999999999,0.0006626838585361838,0.00018997072766069323,0.00038621452404186135,8.742843627929688,22.076000213623047,-12.287721633911133,-0.21619322896003726,1.191238284111023,-0.02087116241455078,989.8106079101562,0,0.0,0
9.4,0.03932616,-0.14675298,9.7753935,-0.0001360315509373322,0.0009888807544484737,0.00011999820708297193,9.282286643981934,21.21149444580078,-12.320261001586914,-0.21027997136116028,1.1469217538833618,-0.02968311309814453,989.815673828125,0,0.0,0
9.44,0.03427136,-0.16342917,9.770635,-0.0008015889907255769,0.00018989533418789503,0.00025325565366074443,9.320657730102539,22.300758361816406,-12.00499153137207,-0.2091764360666275,1.1551789045333862,-0.029008865356445312,989.8056030273438,0,0.0,0
9.48,0.036371112000000004,-0.1586555,9.758773,0.00026390678249299526,0.0008556473767384888,0.0005196710117161274,9.328128814697266,22.202207565307614,-11.692438125610352,-0.2033085972070694,1.1442204713821411,0.004781723022460938,989.818115234375,0,0.0,0
9.52,0.048276186,-0.1538879,9.772971,-5.448845968203386e-06,-7.357865979429333e-05,0.0006602862849831581,9.837706565856934,22.152210235595703,-11.152162551879883,-0.22661614418029785,1.1363078355789185,-0.018561363220214844,989.8334350585938,0,0.0,0
9.56,0.045841843,-0.17056975,9.768233,0.00026309033273719246,0.0005918501410633327,0.00012860735296271741,10.029804229736328,22.226638793945312,-11.03215217590332,-0.2052081972360611,1.155555009841919,-0.003376960754394531,989.8079223632812,0,0.0,0
9.6,0.0434075,-0.15150239999999998,9.775331,-0.0002691132540348917,-0.0011392725864425304,0.00012879091082140803,10.350902557373047,22.949129104614254,-11.739778518676758,-0.19499389827251434,1.128800868988037,-0.003072738647460937,989.8055419921876,0,0.0,0
9.64,0.03858328,-0.15865117,9.768226,-0.00040184290264733136,-0.000873026205226779,-0.00013734144158661368,10.597101211547852,22.54700088500977,-10.90736198425293,-0.19407851994037628,1.122321844100952,-0.007145881652832031,989.7850341796876,0,0.0,0
9.68,0.04092872,-0.15626678,9.76822,-0.001200362341478467,0.0004584837006404996,-0.0006697896751575173,11.189156532287598,22.416725158691406,-11.221925735473633,-0.19807609915733335,1.1163061857223509,-0.011271476745605469,989.8076782226562,0,0.0,0
9.72,0.036104500000000005,-0.1681821,9.787154,-1.5126111065910661e-06,0.0009910458466038108,-0.0008027641451917589,10.157442092895508,23.39944839477539,-10.658540725708008,-0.19227054715156555,1.1214423179626465,-0.015088081359863281,989.8079223632812,0,0.0,0
9.76,0.038449973,-0.15626463,9.768212,-1.0842027222679462e-06,0.0008578184060752393,0.000395840936107561,10.263017654418944,22.761138916015625,-11.176347732543944,-0.20085400342941284,1.1060914993286133,-0.009770393371582031,989.8053588867188,0,0.0,0
9.8,0.038405537999999996,-0.15388021,9.7753105,0.0003988179087173193,0.00045827508438378567,0.0009286561980843543,10.612075805664062,23.56215667724609,-11.35399055480957,-0.17183998227119446,1.0984750986099243,0.0047149658203125,989.7947387695312,0,0.0,0
9.84,0.035971223999999996,-0.16102901,9.768205,-0.0001333857944700867,0.000458205526228994,-3.2657990232110023e-06,11.00678825378418,23.615406036376953,-10.956026077270508,-0.18013034760951996,1.0925556421279907,0.0005731582641601562,989.8380126953124,0,0.0,0
9.88,0.040706575,-0.15149474,9.770567999999999,-0.0003992733836639673,-0.0003408116172067821,0.0011953392531722786,10.869909286499023,23.540102005004886,-11.238466262817383,-0.2025124430656433,1.0821814537048342,-0.008332252502441406,989.8329467773438,0,0.0,0
9.92,0.045441955,-0.1514937,9.777664999999999,0.0013322080485522747,-0.0010066707618534565,-0.00026921468088403344,11.667078018188475,23.75988578796387,-11.528131484985352,-0.2013377845287323,1.0718882083892822,-0.03145790100097656,989.8126220703124,0,0.0,0
9.96,0.040617733999999996,-0.14195949,9.775294,0.0005336886970326303,-7.463479414582254e-05,0.0007962323725223541,11.560770034790039,23.028003692626953,-11.160989761352539,-0.1859971433877945,1.0565425157546997,-0.002484321594238281,989.8124389648438,0,0.0,0
10.0,0.035793513,-0.15387478,9.770556,-0.0003979886241722852,5.845367559231818e-05,-0.0006683214451186359,11.084997177124023,24.16284942626953,-11.154077529907227,-0.17064766585826874,1.0603498220443726,0.007539749145507811,989.8148803710938,0,0.0,0
10.04,0.047698617,-0.16340682,9.775286999999999,1.9133753994537983e-06,0.0001915420580189675,0.0006634414894506335,11.536992073059082,23.84840583801269,-10.897394180297852,-0.18889786303043365,1.0782256126403809,-0.0013570785522460938,989.8074951171876,0,0.0,0
10.08,0.026145011,-0.15863916,9.758711,0.0006685595726594329,-7.491289579775184e-05,-1.98112684302032e-06,10.97926139831543,24.274932861328125,-11.760217666625975,-0.15875592827796936,1.0554426908493042,0.004189491271972656,989.8126220703124,0,0.0,0
10.12,0.038050115,-0.15625479999999997,9.765808999999999,0.0006685595726594329,-7.491289579775184e-05,-1.98112684302032e-06,10.97926139831543,24.274932861328125,-11.760217666625975,-0.18706005811691284,1.057244896888733,-0.014469146728515625,989.8126220703124,0,0.0,0
10.16,0.03800565,-0.15625373,9.770539,0.00013678424875251952,0.0013896854361519215,-1.6140402294695375e-06,11.204025268554688,24.53822326660156,-12.041215896606445,-0.17661389708518982,1.048920512199402,0.005247116088867188,989.8377075195312,0,0.0,0
10.2,0.03318143,-0.15863588,9.763433000000001,0.00013678424875251952,0.0013896854361519215,-1.6140402294695375e-06,11.204025268554688,24.53822326660156,-12.041215896606445,-0.16702164709568024,1.0271828174591064,0.014960289001464844,989.8377075195312,0,0.0,0
10.24,0.0259673,-0.1634014,9.761063,-0.0001286751648876816,-0.00020834886527154597,0.0009308585431426764,11.63292121887207,24.78181457519531,-12.121561050415039,-0.1752072125673294,1.0375434160232544,0.006300926208496094,989.8021850585938,0,0.0,0
10.28,0.037872374,-0.1419507,9.763425999999999,-0.0001286751648876816,-0.00020834886527154597,0.0009308585431426764,11.63292121887207,24.78181457519531,-12.121561050415039,-0.17942805588245392,1.0297755002975464,-0.0076236724853515625,989.8021850585938,0,0.0,0
10.32,0.030658215,-0.1610159,9.784726,-0.0002627976064104587,0.0002875981153920293,0.0004871167475357652,11.288726806640625,24.617351531982425,-11.750955581665039,-0.1735762655735016,1.0194380283355713,-0.02131175994873047,989.7944946289062,0,0.0,0
10.36,0.04017341,-0.15624827,9.76105,0.00013753279927186668,2.1143205231055614e-05,0.00035432586446404457,10.622079849243164,25.047103881835934,-12.366235733032227,-0.18626226484775546,1.0111107826232908,0.0031261444091796875,989.7994384765624,0,0.0,0
10.4,0.037739098,-0.15148064,9.772882000000001,0.00027111879899166524,-0.0009110319660976527,-0.00017812236910685897,10.94855499267578,24.82559967041016,-11.710721969604492,-0.18000349402427673,1.005909085273743,-0.001129150390625,989.7964477539062,0,0.0,0
10.44,0.038220227,-0.15387568,9.76109,0.00027111879899166524,-0.0009110319660976527,-0.00017812236910685897,10.94855499267578,24.82559967041016,-11.710721969604492,-0.17449310421943665,1.0173357725143433,0.00386810302734375,989.7964477539062,0,0.0,0
10.48,0.041122675,-0.15388829,9.765872,0.00012629646516870707,0.0002894348290283233,-0.0005800974322482944,10.683547973632812,25.578338623046875,-11.713930130004885,-0.16444891691207886,1.0046237707138062,0.013956069946289062,989.8016357421876,0,0.0,0
10.52,0.036340296,-0.15865472,9.780074,0.00012629646516870707,0.0002894348290283233,-0.0005800974322482944,10.683547973632812,25.578338623046875,-11.713930130004885,-0.17838053405284882,0.997141420841217,-0.0094757080078125,989.8016357421876,0,0.0,0
10.56,0.036337733,-0.14435506,9.770605999999999,-6.812460924265906e-06,0.00015626891399733722,-4.7444715164601796e-05,10.805046081542967,25.11269378662109,-11.782392501831055,-0.17245879769325256,0.9842731952667236,0.000701904296875,989.8419799804688,0,0.0,0
10.6,0.031555474,-0.1586546,9.768238,-6.812460924265906e-06,0.00015626891399733722,-4.7444715164601796e-05,10.805046081542967,25.11269378662109,-11.782392501831055,-0.15297356247901914,0.9958601593971252,0.02460956573486328,989.8419799804688,0,0.0,0
10.64,0.036332667,-0.1467382,9.758769000000001,0.006118502002209425,-0.0030395295470952988,-0.00031373964156955486,10.536153793334961,25.59864044189453,-12.154314041137695,-0.16518431901931765,0.9836713671684264,0.015395164489746094,989.8778076171876,0,0.0,0
10.68,0.02916044,-0.14912137,9.76587,0.006118502002209425,-0.0030395295470952988,-0.00031373964156955486,10.313457489013672,24.96853256225586,-11.852174758911133,-0.16930857300758362,0.9773257374763488,-0.002997398376464844,989.8778076171876,0,0.0,0
10.72,0.029157937000000002,-0.163421,9.784808,-0.0038683195598423477,0.001354678301140666,0.00021890262723900375,10.03144073486328,26.285194396972656,-12.501638412475586,-0.16459080576896667,0.9846801161766052,-0.01662158966064453,990.0274047851562,0,0.0,0
10.76,0.036325097,-0.15388781,9.775338,-0.003468820825219155,0.0020204640459269285,-0.00031371868681162596,10.129566192626953,26.165740966796875,-11.508966445922852,-0.1540517508983612,0.950526237487793,0.007525444030761719,989.7708129882812,0,0.0,0
10.8,0.033932626,-0.14673789999999998,9.772971,-0.0008056376245804131,-0.0006426986074075103,-0.0004468660918064416,10.558165550231934,25.77719116210937,-12.014184951782227,-0.1578879952430725,0.9497789144515992,0.02219676971435547,989.6688232421876,0,0.0,0
10.84,0.043489754000000005,-0.14673784,9.7564,-0.0006724554696120322,2.3087231966201216e-05,-0.000446855672635138,11.017770767211914,25.47011566162109,-12.144025802612305,-0.1706608086824417,0.9347366094589232,0.017932891845703125,989.7455444335938,0,0.0,0
10.88,0.050656855,-0.14912108,9.770603999999999,-0.0008055888465605676,-0.001441654283553362,0.00021894450765103102,10.367048263549805,26.072528839111328,-12.309953689575195,-0.18849752843379972,0.948764979839325,0.004155158996582031,989.793701171875,0,0.0,0
10.92,0.043484688,-0.14435443,9.768235,0.0005260150064714253,-0.0010421843035146594,-0.0001805188367143273,10.376041412353516,25.97544860839844,-12.074705123901367,-0.15892596542835236,0.9292714595794678,-0.004881858825683594,989.8114624023438,0,0.0,0
10.96,0.041092217,-0.1562708,9.763501,-0.00027290830621495843,0.00028939114417880774,0.0006184392841532826,9.98521614074707,26.18899154663086,-12.103963851928713,-0.16723138093948364,0.9363611936569214,0.00044727325439453125,989.7835083007812,0,0.0,0
11.0,0.036309898,-0.158654,9.770602,0.0005260639009065926,0.00015622927458025515,-0.0007131296442821622,9.690045356750488,27.124107360839844,-11.959222793579102,-0.15257364511489868,0.9384009838104248,0.005402565002441406,989.8365478515624,0,0.0,0
11.04,0.045866965999999995,-0.14673755,9.7564,-0.00013970148575026542,0.0002893832279369235,8.582844748161733e-05,9.895404815673828,26.47373962402344,-12.260751724243164,-0.1662694215774536,0.9382580518722534,0.020002365112304688,989.8009033203124,0,0.0,0
11.08,0.03869468,-0.14673749,9.761134,0.000659270619507879,0.000822011090349406,8.583892486058177e-05,10.041414260864258,26.557880401611328,-12.442140579223633,-0.1648242175579071,0.918610692024231,0.0015048980712890625,989.8339233398438,0,0.0,0
11.12,0.048251808,-0.15865383,9.772969,-0.0005391262820921838,-0.0015748359728604555,0.0006184811936691402,10.338948249816896,25.88808441162109,-12.140863418579102,-0.173316091299057,0.918216347694397,0.006656646728515625,989.8115234375,0,0.0,0
11.16,0.060198724,-0.16103706,9.772969,-0.0006722600082866848,0.00015621338388882575,0.00035217576078139246,9.811542510986328,26.658462524414066,-12.027685165405273,-0.19579437375068665,0.9246447086334229,0.0025491714477539067,989.8109130859376,0,0.0,0
11.2,0.041077018,-0.14673725,9.770602,-0.0008053932688198984,0.00028936733724549413,-0.0003136033774353564,9.549419403076172,26.887928009033203,-13.309450149536133,-0.1569274663925171,0.9033082723617554,0.016935348510742188,989.8033447265624,0,0.0,0
11.24,0.038684547,-0.15388712,9.7635,0.00025989458663389087,-0.002107479609549045,-0.00044675089884549385,9.821218490600586,26.299007415771484,-12.393060684204102,-0.15034529566764832,0.9007903337478638,0.01751422882080078,989.79833984375,0,0.0,0
11.28,0.038681983999999996,-0.153887,9.765866,-6.396974640665576e-06,-0.0002432723995298147,-0.00031358248088508844,9.87285041809082,26.66347503662109,-12.499330520629885,-0.15925344824790955,0.898270845413208,-0.0012226104736328125,989.8009033203124,0,0.0,0
11.32,0.045849204000000005,-0.14912042,9.765866,0.000526259478647262,-0.00037643424002453685,-4.725615144707263e-05,10.041711807250977,27.19001770019531,-12.017274856567385,-0.16313259303569794,0.8837523460388184,0.013367652893066406,989.8336181640624,0,0.0,0
11.36,0.04584664,-0.14673701,9.7706,-0.0004058218910358846,-0.00037643822724930937,-4.724570317193866e-05,9.783039093017578,26.948223114013672,-12.656122207641602,-0.15738731622695926,0.8691810369491577,0.02322483062744141,989.8285522460938,0,0.0,0
11.4,0.036284506,-0.15627018,9.768233,-0.0005389553843997419,-0.0005096001550555228,-4.7235196689143784e-05,9.647682189941406,26.8743896484375,-13.015863418579102,-0.13764894008636475,0.8739283084869385,0.028324127197265625,989.8186645507812,0,0.0,0
11.44,0.050461352,-0.1514996,9.772953,0.00012685898400377482,0.000821975350845605,0.0006185649544931947,9.12677001953125,27.17645263671875,-12.414377212524414,-0.16997253894805908,0.8783819675445557,0.00978851318359375,989.8361206054688,0,0.0,0
11.48,0.0408929,-0.15626594,9.780053,-0.0004049908020533621,-0.0005097310640849173,0.0002194263797719032,9.28231716156006,26.79522705078125,-12.26207160949707,-0.17768684029579165,0.8748379945755005,-0.004132270812988281,989.8184204101562,0,0.0,0
11.52,0.20100743,-0.29449588,9.789521,0.0029247859492897987,-0.00210776086896658,-0.004573904443532229,8.916547775268555,27.190265655517575,-12.305810928344727,-0.13850924372673035,0.8694077730178833,-0.008457183837890625,989.8033447265624,0,0.0,0
11.56,0.122131795,-0.018035352,10.452337,-0.0021351303439587355,-0.0007761953165754676,8.665994391776621e-05,9.009540557861328,27.01438140869141,-13.002702713012695,-0.8480525612831116,0.98301100730896,-0.1854286193847656,989.83837890625,0,0.0,0
11.6,-0.04278031,-0.6710534,9.481784,-0.10985981673002244,-0.03939201310276985,0.035240396857261665,9.315961837768556,27.35385131835937,-12.838834762573242,-0.006728619337081909,1.2260088920593262,-0.17787742614746094,989.7472534179688,0,0.0,0
11.64,-0.5613979,0.4204884,9.867637,-0.14820921421051025,0.3259933590888977,0.07145939767360687,9.688117980957033,27.59683990478516,-12.679449081420898,0.08929862082004547,0.5745419263839722,1.1988258361816406,989.6635131835938,0,0.0,0
11.68,0.08864653,-1.1739248,10.01677,-0.9170629978179932,-0.21595950424671173,-0.4133686423301697,8.03089714050293,29.88969421386719,-11.172517776489258,-0.33185794949531555,1.2481482028961182,0.4382848739624024,989.7542114257812,0,0.0,0
11.72,0.34435713,-0.9832622,9.8250265,-0.9170629978179932,-0.21595950424671173,-0.4133686423301697,8.03089714050293,29.88969421386719,-11.172517776489258,-0.4342498183250427,0.33108943700790405,0.12254142761230467,989.7542114257812,0,0.0,0
11.76,0.4949121,-0.9427462999999999,10.002564,-0.8410297632217407,0.04596217349171639,-0.33507171273231506,7.5374040603637695,30.63857269287109,-10.139497756958008,-0.3337253630161285,-0.002454578876495361,-0.1556377410888672,989.7723388671876,0,0.0,0
11.8,0.10056939999999999,-2.0700369999999997,9.204817,-0.9665975570678712,0.02572215348482132,-0.17807844281196594,7.218019008636475,31.656036376953125,-9.456960678100586,-0.5651296973228455,0.6087404489517212,0.3196859359741211,989.7774047851562,0,0.0,0
11.84,0.54508233,-2.4585109,9.2853,-1.2558165788650513,0.045030038803815835,-0.33240845799446106,6.587808132171631,32.85582733154297,-7.582427978515625,-0.6584253907203674,1.371166110038757,0.09406852722167967,989.8154907226562,0,0.0,0
11.88,-0.5542815,-2.19635,9.233222,-1.067397952079773,-0.06668948382139206,0.08171277493238449,6.389538764953612,34.30216217041016,-5.942850112915039,0.24036313593387604,-0.984684944152832,0.6660480499267578,989.8206787109376,0,0.0,0
11.92,-0.25794253,-3.242609,8.949157000000001,-0.641558825969696,0.013604735024273396,0.20634861290454865,5.898003578186035,35.79056167602539,-5.261341094970703,0.2446177750825882,1.3362412452697754,0.4709281921386719,989.8382568359376,0,0.0,0
11.96,0.119653106,-3.3951387000000004,9.361049000000001,-0.2932175099849701,0.17539162933826447,-0.3077741265296936,5.236328125,35.750526428222656,-5.311004638671875,-0.4378228783607483,1.0647516250610352,-0.12911605834960938,989.8103637695312,0,0.0,0
12.0,0.016878426000000002,-3.1925597000000003,9.214282,-0.4371612071990967,-0.054172679781913764,-0.11722507327795027,5.2530927658081055,36.18703079223633,-4.338335037231444,-0.06168113648891449,0.9386873245239258,0.2596855163574219,989.8428344726562,0,0.0,0
12.04,-0.32249653,-3.101995,8.968091000000001,-0.4479469060897827,-0.022614264860749245,0.06253817677497864,4.837808609008789,37.48334884643555,-3.5033664703369136,0.14987961947917938,0.6599729061126709,0.6439332962036133,989.8306884765624,0,0.0,0
12.08,0.50440073,-3.5190685,9.266358,-0.3797699511051178,-0.010763220489025116,0.03524082899093628,5.287738800048828,37.53572082519531,-3.2678260803222656,-0.4884241819381714,0.8743793964385986,0.2214288711547852,989.815185546875,0,0.0,0
12.12,0.23672277,-3.4142040000000002,9.032003999999999,-0.12623712420463562,0.056747842580080025,-0.17794498801231384,4.893325805664063,38.11460876464844,-3.24091911315918,-0.40716221928596497,0.7143652439117432,0.23837852478027344,989.794677734375,0,0.0,0
12.16,0.09331977,-3.4904685,8.679291000000001,-0.24914181232452395,-0.04059062898159027,0.11819830536842345,4.621796131134033,38.12340545654297,-2.6607036590576167,-0.2320272922515869,0.7925868034362793,0.7672901153564453,989.8251342773438,0,0.0,0
12.2,-0.035743773,-3.3021896,8.984658,-0.08748800307512282,-0.13167066872119906,0.3528226315975189,4.8281331062316895,37.84280395507813,-3.1379871368408203,-0.14597387611865995,0.7895393371582031,0.6816949844360352,989.8327026367188,0,0.0,0
12.24,-0.16480738,-3.0257292000000002,9.574092,0.3679122626781464,-0.14551912248134613,0.3967647552490233,5.4687767028808585,38.07404708862305,-3.4042072296142583,0.00019443780183792117,0.6774709224700928,-0.060452461242675774,989.8275756835938,0,0.0,0
12.28,0.045495093,-3.0090458,9.086447999999999,0.5403518676757812,-0.09385385364294052,0.26014477014541626,5.784168720245361,37.89613723754883,-4.828115463256836,-0.10007677972316742,0.7597708702087402,0.2863101959228516,989.80224609375,0,0.0,0
12.32,0.06460547400000001,-2.8279166,9.195338000000001,0.2764329016208649,-0.014225411228835584,0.04562736675143242,5.814035415649414,37.081626892089844,-5.400930404663086,-0.1267891824245453,0.8051948547363281,0.6354179382324219,989.81494140625,0,0.0,0
12.36,-0.10986629,-2.5395392999999995,9.912599,0.4725746512413025,-0.005570159293711186,0.00887581892311573,5.431905746459961,36.56595230102539,-5.619810104370117,0.1300913393497467,0.6773916482925415,-0.2042818069458008,989.7996826171876,0,0.0,0
12.4,0.107400626,-2.5729002999999997,9.356286,0.549273669719696,-0.033000707626342766,0.0015521679306402802,5.4266357421875,36.40360641479492,-6.6102943420410165,-0.07799243927001953,0.7267830371856691,0.2721881866455078,989.8302612304688,0,0.0,0
12.44,0.2696874,-2.5085464,9.410712,0.12729626893997192,0.08044984191656113,-0.17980889976024628,5.068880558013916,36.33180236816406,-6.24302864074707,-0.3794734477996826,0.7699891328811646,0.2368202209472656,989.8196411132812,0,0.0,0
12.48,0.109538615,-2.5180786,9.600085,0.11651061475276947,0.026521075516939163,-0.12387889623641968,5.205896377563477,36.51302337646485,-6.659666061401367,-0.1505405753850937,0.8265213966369629,0.1491241455078125,989.7794189453124,0,0.0,0
12.52,-0.11274764,-2.4060639999999998,9.086400999999999,0.11837556213140488,-0.09145698696374893,0.11766991764307022,5.198966979980469,36.2432861328125,-6.873767852783202,0.07878579944372177,0.6146243810653687,-0.053772926330566406,989.7666625976562,0,0.0,0
12.56,0.26244152,-2.0914705000000002,10.246327,0.09467369318008424,-0.11262913048267365,0.10368844121694563,4.557781219482422,36.38032531738281,-6.7059993743896475,-0.11892244219779967,0.2432529926300049,-0.9538068771362304,989.7841796875,0,0.0,0
12.6,0.18593934,-2.7873874,8.643728999999999,0.23235926032066345,-0.3806761205196381,0.02113062329590321,4.321554660797118,37.055137634277344,-7.478925704956055,-0.16374482214450836,1.2199156284332275,0.972315788269043,989.9925537109376,0,0.0,0
12.64,0.29106963,-2.310731,10.161103,-0.28043171763420105,0.4459683299064636,-0.08606141805648804,4.7484941482543945,36.55919647216797,-7.2077579498291025,-0.2396905124187469,0.6359125375747681,-0.3933095932006836,989.7939453125,0,0.0,0
12.68,0.013815641000000002,-2.496626,8.541935,0.2054618299007416,-0.21875613927841187,-0.009628649801015854,4.1669559478759775,36.59386825561523,-6.735252380371094,-0.1549246311187744,0.8703901767730713,1.4641427993774414,989.7080078125,0,0.0,0
12.72,0.15957427,-2.1915658,10.298396,-0.12969645857810974,0.2811187207698822,0.059613581746816635,3.77819561958313,36.440589904785156,-6.7433624267578125,-0.09838025271892548,0.5397799015045166,-1.1314001083374023,989.7714233398438,0,0.0,0
12.76,0.30055308,-2.3822272,9.147935,0.3785676956176758,-0.5525831580162048,0.09476738423109056,3.7446892261505127,35.98788452148437,-6.865678787231445,-0.10234013199806212,0.7768595218658447,0.7497377395629883,989.872802734375,0,0.0,0
12.8,0.2670691,-2.2797457999999997,9.751567999999999,-0.11664649844169615,0.22066496312618256,-0.12893785536289215,3.4424281120300293,36.12704086303711,-8.058992385864258,-0.2843766808509827,0.6503852605819702,-0.2562122344970703,989.750732421875,0,0.0,0
12.84,0.049562632999999995,-2.398909,9.195273,-0.11957548558712006,0.18977221846580505,0.010878197848796844,3.7128424644470215,35.64256286621094,-7.764375686645508,-0.08537980914115906,0.728377103805542,0.403254508972168,989.7733764648438,0,0.0,0
12.88,0.29091728,-2.3178772999999997,9.609532000000002,-0.11957548558712006,0.18977221846580505,0.010878197848796844,3.7128424644470215,35.64256286621094,-7.764375686645508,-0.2532618045806885,0.6876152753829956,0.09348392486572266,989.7733764648438,0,0.0,0
12.92,0.12598872,-2.3345594,9.455661,-0.0070565296337008485,0.02758578397333622,0.03977368026971817,2.781594753265381,36.350852966308594,-7.585336685180664,-0.07318893074989319,0.6865599155426025,0.27719688415527344,989.7755737304688,0,0.0,0
12.96,0.17376137,-2.3393254,9.507736999999999,-0.0070565296337008485,0.02758578397333622,0.03977368026971817,2.781594753265381,36.350852966308594,-7.585336685180664,-0.0824117362499237,0.7101259231567383,0.2211008071899414,989.7755737304688,0,0.0,0
13.0,0.18568546,-2.3202583999999997,9.446187,0.019974777474999428,-0.02674269862473011,0.006750614382326603,2.9583115577697754,35.88433074951172,-7.816221237182617,-0.15423867106437686,0.6911712884902954,0.154815673828125,989.7933349609376,0,0.0,0
13.04,0.19282985,-2.298808,9.588218,0.004262384492903948,0.004016746301203965,-0.0033692838624119763,2.8503739833831787,36.25731658935547,-7.744428634643555,-0.10713083297014236,0.6784135103225708,0.11795520782470705,989.778076171875,0,0.0,0
13.08,0.20475394,-2.3750725,9.339658,0.02796474099159241,-0.02780803851783276,0.0064845080487430104,2.7514305114746094,36.5332260131836,-7.437387466430664,-0.19658762216567996,0.7076456546783447,0.2420034408569336,989.8033447265624,1,1.0,1
13.12,0.17126992,-2.3035736,9.424876,0.08402472734451294,-0.08067182451486588,0.0821184292435646,2.5774590969085693,36.37055587768555,-7.7859859466552725,-0.0937712863087654,0.6780258417129517,0.15090656280517578,989.8082275390624,1,1.0,1
13.16,0.20709309,-2.2130084,10.059283,0.08202759921550751,-0.1326034665107727,0.06454168260097504,3.030433177947998,36.425872802734375,-7.7050533294677725,-0.2147197276353836,0.5759015083312988,-0.3534212112426758,989.8036499023438,1,1.0,1
13.2,0.042164475,-2.4608687999999996,9.001142,0.08202759921550751,-0.1326034665107727,0.06454168260097504,3.030433177947998,36.425872802734375,-7.7050533294677725,-0.09809712320566176,0.6841733455657959,0.5276594161987305,989.8036499023438,1,1.0,1
13.24,0.13534525,-2.410819,9.708932,-0.3331586122512817,0.4141430258750916,-0.017483500763773918,3.0751361846923833,36.520606994628906,-8.025423049926758,-0.20514997839927676,0.6579593420028687,-0.015900611877441406,989.8439331054688,1,1.0,1
13.28,0.116200686,-2.568115,9.964589,-0.031955108046531684,0.01094072125852108,0.02406187914311886,3.886270761489868,36.17351913452149,-7.514230728149414,-0.15033161640167236,0.6003400087356567,-0.304682731628418,989.8335571289062,1,1.0,1
13.32,0.061207533,-2.7945256,9.332543,-0.2390154600143433,-0.019685644656419757,0.08558095246553421,3.600231647491455,37.11747741699219,-7.83332633972168,-0.09007976204156876,0.6064524650573729,-0.11043357849121094,989.8360595703124,1,1.0,1
13.36,-0.06548267599999999,-3.0114036,8.899343,-0.8278396725654602,-0.03286831825971604,0.13405054807662964,3.434351921081543,38.54083251953125,-5.196599960327148,0.11071203649044037,0.440549373626709,0.29111480712890625,989.8690795898438,1,1.0,1
13.4,-0.21798493,-2.894634,9.424903,-0.8012078404426575,-0.0465836301445961,0.15788593888282776,3.89411735534668,38.75997543334961,-4.2024898529052725,0.06778304278850555,0.4694912433624268,-0.3342399597167969,989.8259887695312,1,1.0,1
13.44,-0.7342101,-2.4918597,9.1100645,-0.522908627986908,-0.01648978888988495,0.042038138955831535,3.945068836212158,39.386817932128906,-3.7081298828125,0.10124264657497406,0.2197411060333252,0.1139068603515625,989.7849731445312,1,1.0,1
13.48,0.93632495,-4.608211,8.965664,-0.4679176211357117,-0.03632979094982147,0.09463411569595337,3.961971282958984,39.92924118041992,-3.4345378875732417,-0.994613230228424,1.4187076091766355,0.27188777923583984,989.87646484375,1,1.0,1
13.52,0.39620084,-3.4833032999999998,9.183447,-0.18282642960548398,-0.41223466396331787,0.374798446893692,3.2683651447296143,41.070533752441406,-2.93252944946289,-0.3466130197048187,1.093200445175171,0.4268922805786133,989.8231201171876,1,1.0,1
13.56,0.94826186,-2.6372395,9.453307,-0.4270380437374115,-0.8520553708076477,0.3087521195411682,3.2842888832092285,41.24319076538086,-2.48318099975586,-0.2404389977455139,-0.7922701835632324,-0.3659849166870117,989.8231201171876,1,1.0,1
13.6,0.7522835999999999,-2.9160828999999997,9.803653,-0.433562695980072,-0.11249616742134094,0.3384464085102081,3.8435404300689697,40.818138122558594,-1.6976604461669922,-0.4178303480148315,0.11613774299621582,-1.111980438232422,989.9169921875,1,1.0,1
13.64,0.6758003,-4.1601534,11.209769,0.4510055482387543,0.15634970366954806,-0.351578027009964,2.1135787963867188,40.884864807128906,-2.97467041015625,-0.19558009505271912,1.346627712249756,-1.947490692138672,990.0413208007812,1,1.0,1
13.68,0.8383074,-3.2688076,11.141119999999999,0.32796767354011536,0.1548849642276764,-0.7842081189155579,0.894418478012085,40.27092742919922,-4.213581085205078,-0.6663968563079834,0.7906520366668701,-2.0760202407836914,989.9727172851562,1,1.0,1
13.72,0.071142495,-2.5299911,8.821261,0.7712505459785461,0.6302587985992432,-0.373282790184021,1.229703426361084,39.00582504272461,-6.269796371459961,-0.32067012786865234,-0.0015587806701660154,1.0844497680664062,989.9625244140624,1,1.0,1
13.76,-0.038799345,-2.2821298,8.286273,1.02544903755188,1.281134843826294,-0.1334652304649353,1.614938497543335,37.577491760253906,-9.478925704956056,-0.3506867289543152,0.17038178443908691,1.4934129714965818,989.9012451171876,1,1.0,1
13.8,0.60407794,-0.8974450999999999,9.619008000000001,1.1921628713607788,0.284447580575943,-0.053703617304563515,1.2957220077514648,35.541664123535156,-11.697126388549805,-0.8274804353713989,0.5917614698410034,-0.28253936767578125,989.7815551757812,1,1.0,1
13.84,0.7140071,-1.25732,11.621661,1.874064803123474,-0.621159553527832,-0.04038779810070992,-0.3193192481994629,32.7662353515625,-13.210458755493164,-0.7987370491027832,-0.0977621078491211,-1.2235231399536133,989.7362670898438,1,1.0,1
13.88,-1.1333933999999999,-1.9174879,9.801282,0.5768401622772217,-0.19092628359794614,-0.44705209136009216,-0.34689760208129883,31.793193817138672,-14.76594352722168,0.2915498614311218,0.9138234853744508,-0.523289680480957,989.8095092773438,1,1.0,1
13.92,-0.58372235,-1.10479,8.953822,-0.4406196177005768,1.5768785476684568,-0.6252173781394958,1.185399055480957,30.85755157470703,-15.024301528930664,0.005090951919555664,0.553150475025177,0.5197544097900391,989.931396484375,1,1.0,1
13.96,-0.08901897,-0.67818284,9.086386,0.6623276472091675,0.4604823589324951,-0.28180307149887085,0.9162926673889159,29.18471908569336,-17.27146339416504,-0.5734677910804749,0.017454206943511963,1.0145606994628906,989.7127075195312,1,1.0,1
14.0,-0.62436336,-1.6076612,10.7860365,0.4624577462673187,-0.630347490310669,-0.4477178454399109,-2.3908061981201167,25.61496734619141,-18.40059471130371,0.3041927218437195,1.2726566791534424,-1.3368911743164062,989.7560424804688,1,1.0,1
14.04,-0.13921960000000003,-0.79019666,10.568253,0.4624577462673187,-0.630347490310669,-0.4477178454399109,-2.3908061981201167,25.61496734619141,-18.40059471130371,-0.16013304889202118,0.5232427120208739,-1.029218673706055,989.7560424804688,1,1.0,1
14.08,-0.14161584,-0.26587522,9.706591,0.15965665876865387,0.05634798854589462,-0.1161545068025589,-2.1687054634094243,24.98080444335937,-19.55247688293457,-0.11198168992996216,0.7431597113609314,-0.302459716796875,989.7609252929688,1,1.0,1
14.12,-0.38778207,-0.44700417,9.323102,0.6620616316795349,0.2085475027561188,-0.11109448224306108,-1.8602728843688965,23.32089614868164,-20.118749618530273,-0.17423728108406067,0.3487340211868286,0.768040657043457,989.7938842773438,1,1.0,1
14.16,-0.22766498,-0.7186978,9.886497,0.6238453388214111,-0.22874318063259125,-0.20217448472976685,-2.8777990341186523,22.31602096557617,-20.903955459594727,0.3608471751213074,1.573357343673706,0.0017642974853515625,989.7709350585938,1,1.0,1
14.2,-0.026919544,0.022501945,11.036957000000001,0.21531686186790466,-0.6039823293685913,0.00888088159263134,-3.630157470703125,21.084625244140625,-20.56199073791504,0.27329075336456304,0.3365411758422852,-1.2756109237670898,989.7404174804688,1,1.0,1
14.24,0.38174736,0.27512962,11.081933,-0.04061264544725418,-0.6710938811302185,0.1859809756278992,-4.151367664337158,20.75455093383789,-20.3853816986084,0.1670185625553131,0.5233997702598572,-1.4011821746826172,989.780517578125,1,1.0,1
14.28,0.08300322,0.17979862,9.893597,0.7708519101142883,-0.7262213230133057,-0.1644907146692276,-5.614640712738037,20.596229553222656,-20.61253547668457,0.20765382051467896,0.8478276133537292,0.016239166259765625,989.8231811523438,1,1.0,1
14.32,-0.1822822,0.04633522,11.63349,0.5988118648529053,0.08284635841846466,-0.3786086738109589,-5.716979503631593,18.6044921875,-21.32704734802246,0.5332367420196533,1.0495742559432983,-1.5643663406372068,989.6585693359376,1,1.0,1
14.36,0.37933844,0.8209009,9.467497999999999,0.5430187582969666,0.04596160352230072,-0.15916432440280914,-5.902201175689697,17.167238235473633,-21.984251022338867,0.5223736763000488,1.331433653831482,-0.7979373931884766,989.711669921875,1,1.0,1
14.4,1.3878707000000001,1.4786858999999999,10.045095,1.314935326576233,-0.3708227574825287,0.1923726499080658,-6.302212238311768,15.739376068115234,-22.300966262817386,-0.5700968503952026,0.2629557847976685,0.5994758605957031,989.7984008789062,1,1.0,1
14.44,0.59441686,0.8828664,11.311548,1.1680622100830078,-0.9075825214385986,0.27919164299964905,-7.237727642059326,12.70391082763672,-22.59506416320801,0.677335262298584,1.9438252449035645,-2.1947021484375,989.6764526367188,1,1.0,1
14.48,1.5468872999999999,2.0792992,10.468722999999999,0.9097358584403992,-0.582011342048645,0.20502270758152008,-8.479610443115233,10.961540222167967,-22.30174446105957,0.16528630256652832,0.9017232656478882,-1.5953369140625,989.7367553710938,1,1.0,1
14.52,2.2112336,2.2532797,9.38454,1.0768518447875977,-0.5861396193504333,0.5068929195404053,-9.16275405883789,10.374658584594727,-22.39308357238769,-0.148978590965271,0.9635090827941896,-0.784672737121582,989.7693481445312,1,1.0,1
14.56,2.3187327,2.3795943,11.195446,1.4907091856002808,-1.2964041233062744,0.3598935902118683,-9.981582641601562,7.869557380676269,-22.19730567932129,0.12338805198669435,1.2871336936950684,-1.4166307449340818,989.6783447265624,1,1.0,1
14.6,2.4788103,2.8634014,9.886378,0.9136029481887816,-0.9256924390792848,0.21288742125034327,-11.744377136230467,6.429243087768555,-21.302499771118164,0.3351428508758545,1.5928127765655518,-2.269947052001953,989.619873046875,1,1.0,1
14.64,3.1264277000000003,3.5879187999999993,8.989205,1.4148099422454834,-0.9391414523124696,0.2282007783651352,-12.757911682128904,4.584816932678223,-21.346330642700195,-0.07307934761047362,0.8863725662231445,-0.5499162673950195,989.7643432617188,1,1.0,1
14.68,3.3916602,3.7213836000000002,9.479212,1.4262619018554688,-0.7312819957733154,0.1776009500026703,-15.622125625610352,1.1120967864990234,-19.93191719055176,-0.2717916965484619,1.267712116241455,-1.6954898834228516,989.6830444335938,1,1.0,1
14.72,3.4226828,4.1479917,8.624647999999999,1.1486281156539917,-0.507976233959198,0.07573531568050385,-15.561582565307615,-1.4653396606445312,-19.482492446899414,-0.10486793518066406,1.2943143844604492,-1.3803825378417969,989.6829223632812,1,1.0,1
14.76,3.4250263999999997,4.3720207,8.165405999999999,1.4261298179626465,-0.4512510001659393,-0.04690295085310936,-16.408754348754886,-3.154460906982422,-18.79120445251465,-0.08960533142089844,1.450908660888672,-1.0590567588806152,989.7080688476562,1,1.0,1
14.8,3.1549215,4.7247477,8.238786,1.5068238973617554,-0.6017194986343384,-0.1624838560819626,-17.08877944946289,-6.056997776031494,-17.5927677154541,0.2535309791564941,1.5477566719055176,-1.438178539276123,989.7333984375,1,1.0,1
14.84,2.5143814,4.6318007,7.7369330000000005,1.1955010890960691,-0.1409931182861328,-0.20695842802524567,-16.859235763549805,-8.001971244812013,-17.360357284545902,0.6415104866027832,1.8303680419921875,-1.7584805488586426,989.6951293945312,1,1.0,1
14.88,2.2920742,4.8891954,6.018340599999999,1.396303653717041,-0.1898621767759323,-0.28858402371406555,-17.391429901123047,-10.186758995056152,-15.995744705200195,1.1880435943603516,2.3570713996887207,-0.3066515922546387,989.695068359375,1,1.0,1
14.92,2.2275004000000003,5.377769,6.2195480000000005,1.4900473356246948,-0.1899954080581665,-0.1873838156461716,-17.09560775756836,-12.596503257751465,-15.669374465942385,1.1343722343444824,1.8130040168762207,-0.30438661575317383,989.669677734375,1,1.0,1
14.96,2.2895917999999997,5.6113315,5.7342677,1.121599793434143,-0.123416505753994,-0.04290725663304329,-17.86815643310547,-13.372844696044922,-15.11998176574707,1.2765133380889893,2.1139087677001958,-0.6874675750732422,989.62353515625,1,1.0,1
15.0,2.5333157,6.078455,4.787382599999999,1.157286524772644,-0.2335382252931595,0.0721413865685463,-18.136131286621094,-14.941656112670898,-13.52418327331543,1.1333184242248535,1.8314366340637207,0.03029108047485352,989.641357421875,1,1.0,1
15.04,2.244091,5.873494,3.8381300000000005,1.2996327877044678,-0.42302206158638,0.15603108704090118,-18.48606300354004,-17.218774795532227,-12.798128128051758,1.4849557876586914,2.202443599700928,0.4857068061828613,989.6387939453124,1,1.0,1
15.08,3.0207634,6.3525343,3.9517512000000004,1.0913742780685425,-0.2262146472930908,0.2202133983373642,-18.796100616455078,-18.40516471862793,-11.834100723266602,1.0254924297332764,1.7443318367004397,0.2369928359985352,989.6283569335938,1,1.0,1
15.12,3.2405877,6.331086,3.3031339999999996,0.7552840709686279,-0.07468099892139435,0.565758466720581,-19.409624099731445,-18.821725845336914,-11.561220169067385,0.9407558441162108,1.5215468406677246,0.5659632682800293,989.6334838867188,1,1.0,1
15.16,4.0196495,6.564647999999999,3.203707,0.7114754915237427,-0.14858371019363406,0.7389971017837524,-20.347639083862305,-17.85696029663086,-10.472330093383787,0.5886874198913574,1.487241268157959,0.22470593452453613,989.6409301757812,1,1.0,1
15.2,3.8212414,5.9020977,2.7610360000000003,0.8789886832237244,-0.4999876320362091,0.907974660396576,-21.71637725830078,-17.76938819885254,-9.650659561157227,1.2403388023376465,2.23636245727539,0.20059490203857425,989.6334838867188,1,1.0,1
15.24,4.992247,6.1714096,3.0900729,0.8668717741966248,-0.4308786988258362,0.9429954290390016,-22.65246391296387,-17.277355194091793,-7.841550827026367,0.6129021644592285,1.8576855659484863,-0.2864375114440918,989.66357421875,1,1.0,1
15.28,5.50603,5.9140167,1.807045,0.9065532684326172,-0.49266409873962397,1.2359431982040403,-24.350555419921875,-16.444999694824222,-6.3968353271484375,0.37979888916015625,1.52451753616333,0.2886316776275635,989.6610107421876,1,1.0,1
15.32,6.6268477,6.0879974,2.0129871,0.9576863646507264,-0.1725524216890335,1.3259581327438354,-25.12899971008301,-15.488754272460938,-5.486005783081055,-0.12907981872558594,1.368166446685791,0.6714417934417725,989.6832275390624,1,1.0,1
15.36,6.7749752999999995,6.528905,2.4698532,0.7475636005401611,-0.013961408287286758,1.4492624998092651,-25.588851928710934,-14.181246757507324,-5.029747009277344,-0.4601373672485352,0.2666478157043457,-0.4756786823272705,989.6705322265624,1,1.0,1
15.4,6.9876304000000005,5.2824516,2.6308187999999997,0.18190953135490415,1.099105715751648,1.0846763849258425,-25.392807006835934,-11.415506362915039,-6.684492111206055,0.12929582595825195,0.9453020095825196,-0.221221923828125,989.6526489257812,1,1.0,1
15.44,6.9449954,6.5884789999999995,2.597713,0.18190953135490415,1.099105715751648,1.0846763849258425,-25.392807006835934,-11.415506362915039,-6.684492111206055,0.13466119766235352,-0.22693109512329104,0.025443077087402344,989.6526489257812,1,1.0,1
15.48,6.923896000000001,5.7185717,2.3278894,0.3363731503486633,1.1210767030715942,0.9979908466339112,-24.4720458984375,-10.815925598144533,-8.093210220336914,0.09320497512817384,0.454981803894043,0.42933058738708496,989.7085571289062,1,1.0,1
15.52,6.462633599999999,5.623241,2.2142627,0.24195942282676694,1.1039000749588013,0.8151628971099854,-23.81313896179199,-10.567005157470703,-9.287088394165039,0.3363132476806641,0.2983551025390625,1.2892858982086182,989.70556640625,1,1.0,1
15.56,7.0959463000000005,4.9154077,2.9362583,-0.17336314916610718,1.2571653127670288,0.7632300853729248,-22.219066619873047,-9.547313690185547,-11.363039016723633,0.19093704223632807,0.245849609375,1.0758087635040283,989.690185546875,1,1.0,1
15.6,6.675312,3.8715319999999998,3.7458405,-0.5033283829689026,0.9012342691421508,0.7014448642730713,-21.23139953613281,-6.935973167419434,-12.899782180786133,0.3604822158813477,1.5091979503631592,0.39406752586364746,989.6979370117188,1,1.0,1
15.64,6.7207084,3.4639916,4.21928,-0.922509491443634,0.9217404127120972,0.6128948330879211,-19.64727783203125,-5.768667221069336,-13.212194442749025,0.1836996078491211,1.1181776523590088,0.38042783737182617,989.7128295898438,1,1.0,1
15.68,7.4520073,3.5950723,4.8489547,-1.1339643001556396,0.9359883069992064,0.6717507243156433,-18.59746551513672,-2.8884601593017583,-14.697267532348633,0.1840729713439941,1.2177064418792725,1.083024978637695,989.72802734375,1,1.0,1
15.72,8.374497,3.9549475,5.9165616,-1.215723156929016,0.6506308913230896,0.8481850624084473,-17.12679672241211,-0.5100908279418945,-15.601949691772461,-1.4920516014099119,-0.07109546661376953,-0.530156135559082,989.7357788085938,1,1.0,1
15.76,7.9705935,3.7142367,6.0846324,-1.1921541690826416,0.607487678527832,0.8677593469619751,-16.488569259643555,2.194743156433105,-15.935548782348633,-1.0399708747863772,-0.2081015110015869,-0.7826781272888184,989.733154296875,1,1.0,1
15.8,7.217763000000001,3.4878254,3.639311,-0.7992047667503357,0.6168087124824524,0.5051702260971069,-15.442371368408205,4.228034973144531,-16.292726516723633,-0.13076400756835938,0.23083901405334475,1.7583212852478027,989.720458984375,1,1.0,1
15.84,8.281257,3.7047043,4.3068610000000005,-0.3276924788951874,0.5656760931015015,0.3321981728076935,-14.111656188964846,5.315896034240723,-16.25349998474121,-1.1757402420043943,-0.7777795791625977,2.2053205966949463,989.7154541015624,1,1.0,1
15.88,7.5953436000000005,2.255671,4.858418,-0.4067881405353546,0.055814247578382485,0.2328623831272125,-14.363508224487305,6.450185775756836,-17.050909042358402,-0.9741063117980956,0.6737265586853027,0.9173822402954102,989.7278442382812,1,1.0,1
15.92,6.615473,2.4296507999999997,4.096178,-1.0431498289108276,0.6307902336120605,-0.08631716668605804,-13.233043670654295,7.824546813964844,-16.843622207641598,-0.15058135986328125,0.414729118347168,2.833315134048462,989.7049560546876,1,1.0,1
15.96,6.352572400000001,1.3333428999999999,6.03965,-1.0870919227600098,0.6550249457359314,-0.16567924618721008,-11.862052917480467,9.108634948730467,-17.591928482055664,0.575136661529541,0.8663200139999391,0.8762822151184082,989.7528076171876,1,1.0,1
16.0,7.4686449999999995,2.0602431,7.185374700000001,-1.0210453271865845,-0.23873119056224826,0.31688523292541504,-11.003467559814453,12.598560333251953,-16.850664138793945,-0.7250461578369141,0.2998279333114624,0.3119688034057617,989.7577514648438,1,1.0,1
16.04,6.8377,1.097399,7.0267715,-1.0210453271865845,-0.23873119056224826,0.31688523292541504,-11.168529510498047,13.865463256835938,-15.513643264770508,-0.3853158950805664,-0.07414078712463379,-0.6786570549011229,989.7577514648438,1,1.0,1
16.08,7.8796854000000005,1.4668073999999998,7.185372999999999,-1.0203795433044434,-0.10797013342380524,0.39025533199310297,-10.424568176269533,16.458209991455078,-15.241106033325195,-0.8481545448303223,0.29352521896362305,0.12942743301391602,989.7801513671876,1,1.0,1
16.12,7.2391806,0.5063466,6.962855,-1.1173183917999268,0.05967572703957558,0.5447186231613159,-10.237525939941406,18.529071807861328,-14.236337661743164,-0.5407590866088867,-0.4392197728157044,-0.4072041511535645,989.7371826171876,1,1.0,1
16.16,7.523567,-0.0751732,6.1367,-1.1804351806640625,0.08577465265989304,0.3411201238632202,-9.551828384399414,21.119747161865234,-13.646760940551758,-0.7978472709655762,0.7414699792861938,1.2934117317199707,989.7672119140624,1,1.0,1
16.2,7.0838137,-0.79015636,8.615161,-1.345816969871521,0.1792515069246292,0.34072068333625793,-9.061302185058594,22.42079162597656,-11.95085334777832,-0.10481071472167967,0.837164044380188,-2.228693008422852,989.7342529296876,1,1.0,1
16.24,7.112481,-1.6266868,7.280057000000001,-1.3856312036514282,-0.6231582760810852,0.30263760685920715,-9.085601806640623,24.029788970947266,-9.962686538696287,0.26300477981567383,1.3213891983032229,-1.2504515647888184,989.7139282226562,1,1.0,1
16.28,7.8915777,-0.5804273,5.438372,-0.6708392500877379,-0.684943437576294,0.3942502737045288,-9.448165893554688,24.95399475097656,-9.037080764770508,-0.8506169319152832,-0.3232515156269073,0.9571208953857422,989.7342529296876,1,1.0,1
16.32,7.616728,-1.3073270000000001,5.024110299999999,0.09202270209789276,-1.0163736343383791,0.6234151124954224,-9.812253952026367,25.876724243164066,-8.034173965454103,0.28711605072021484,0.4899937510490418,1.1558599472045898,989.7640991210938,1,1.0,1
16.36,8.123375999999999,-2.1081083,6.7450660000000005,-0.24047257006168365,-1.0022588968276978,0.6842684149742126,-10.026308059692383,27.256309509277344,-7.5430240631103525,-0.5639595985412598,0.08492505550384521,-0.3364748954772949,989.766357421875,1,1.0,1
16.4,7.8102865,-3.2091827,7.549914,-0.6673767566680908,-0.8812184333801271,0.7385968565940857,-9.210149765014648,28.072002410888672,-5.714927673339844,-0.5029082298278809,0.6998279094696045,-1.6404647827148438,989.7509765625,1,1.0,1
16.44,8.794423,-2.0413637,6.4751577000000005,-1.4426221847534182,0.2246582806110382,0.9714901447296144,-7.980526447296143,31.32923889160156,-3.939441680908203,-1.3275203704833984,-0.2685046195983887,-1.149271011352539,989.7487182617188,1,1.0,1
16.48,7.780569,-2.6467035,5.147108,-0.8074586987495422,0.23038403689861295,1.1451281309127808,-5.481464862823486,32.510108947753906,-3.8547458648681636,-0.4550981521606445,-0.4825077056884766,0.446225643157959,989.779052734375,1,1.0,1
16.52,7.1567545,-3.6786617999999995,5.4927154,-0.14566035568714142,-0.5099743008613586,0.7011874914169312,-5.620246410369873,33.327842712402344,-3.0343799591064453,0.2757811546325684,0.6445167064666748,-0.11060285568237303,989.7635498046876,1,1.0,1
16.56,7.0180893,-4.0385356,4.8062214999999995,-0.4519231021404266,-0.7611102461814879,0.6009198427200317,-4.7195467948913565,33.696441650390625,-2.03997802734375,0.6652979850769043,0.4756031036376953,0.04545927047729492,989.7554931640624,1,1.0,1
16.6,6.563957,-4.684403,4.4369335,-0.6400748491287231,-0.5324781537055969,0.7153027057647705,-4.358969211578368,35.191917419433594,-0.4124088287353516,1.0402593612670898,0.7977712154388428,0.5438694953918457,989.7681884765624,1,1.0,1
16.64,7.213959700000001,-4.9608620000000005,4.9458776,-0.4439326822757721,-0.8294203877449036,0.6620397567749023,-3.161384105682373,36.36535263061523,0.4121665954589844,0.8082137107849121,0.9300222396850586,-0.5695099830627441,989.7529296875,1,1.0,1
16.68,7.763586999999999,-6.336012,4.877224,-0.3146357834339142,-1.0944046974182131,0.7750911116600037,-2.8400177955627437,36.507720947265625,1.201141357421875,-0.0010247230529785156,1.5525517463684082,-0.4878735542297363,989.7805786132812,1,1.0,1
16.72,8.344282000000002,-6.324095,5.940093,-0.6978639364242554,-0.4643014669418335,0.7318149209022522,-1.9196152687072756,38.42211151123047,2.6409473419189453,-0.4585795402526856,2.062967300415039,-1.8357062339782717,989.7880249023438,1,1.0,1
16.76,8.251025,-5.3755484000000004,5.9069476,-0.9442055821418762,-0.18560199439525604,0.8356783390045166,-0.565098762512207,39.1098747253418,4.239603042602538,-1.0871620178222656,0.09408283233642578,-2.2158052921295166,989.7652587890624,1,1.0,1
16.8,7.796892999999999,-5.785471,5.705731,-0.4998570680618286,-0.187732607126236,0.7624417543411255,1.0519537925720217,39.88592529296875,5.022790908813477,-0.3562440872192383,0.455223560333252,-2.0747528076171875,989.7902221679688,1,1.0,1
16.84,7.634328999999999,-5.7401876,4.79672,-0.2740207016468048,-0.043655794113874435,0.4853402674198151,2.0019237995147705,40.35366821289063,5.4649085998535165,-0.5917534828186035,0.2300601005554199,-1.3900182247161863,989.7901000976562,1,1.0,1
16.88,6.618570299999999,-5.8402843,3.7243730000000004,-0.008636434562504292,0.27725476026535034,0.42874833941459656,3.0136375427246094,41.56448364257813,5.161172866821289,0.4480233192443848,0.4507498741149902,-0.06638669967651367,989.7749633789062,1,1.0,1
16.92,6.685436200000001,-5.730652,3.3337800000000004,0.2587451934814453,0.4185352921485901,0.25804007053375244,3.7701256275177,42.06224822998047,4.861505508422852,0.1917104721069336,0.09463977813720703,0.7259373664855957,989.7799682617188,1,1.0,1
16.96,6.3507996,-5.8736477,3.7314653,0.2958967685699463,0.20907776057720184,0.3138335049152374,4.326311111450194,41.21394348144531,3.9786090850830083,0.6849803924560547,0.3606934547424317,0.6586644649505615,989.7947998046876,1,1.0,1
17.0,6.852627799999999,-5.742566,5.007383,-0.035666029900312424,0.1599423736333847,0.3561778664588928,5.343240261077881,40.95454406738281,3.9140682220458975,-0.006529808044433594,-0.0687723159790039,-0.6765365600585938,989.7842407226562,1,1.0,1
17.04,6.9816318,-5.733031700000001,5.182551,-0.2768145501613617,0.046225424855947495,0.4460597336292267,6.1732354164123535,41.889404296875,4.347341537475587,-0.2686738967895508,-0.13930273056030273,-1.2772860527038574,989.786865234375,1,1.0,1
17.08,6.592027000000001,-5.799762,4.810895400000001,0.027584971860051155,-0.13127419352531433,0.3428625464439392,6.926244258880615,41.64616775512695,4.476491928100586,-0.000995159149169922,-0.12657451629638672,-0.7452664375305176,989.8074951171876,1,1.0,1
17.12,6.6851826,-5.845043,4.8866415000000005,0.2323823720216751,-0.1162274330854416,0.2063758224248886,7.611589908599853,41.97214889526367,3.8899021148681636,0.030977249145507806,-0.026620864868164062,-0.8768243789672852,989.7948608398438,1,1.0,1
17.16,6.4246324999999995,-5.7473279999999995,4.6877923,0.09669491648674013,0.019194118678569797,0.14179444313049314,7.90263032913208,41.770668029785156,3.7028751373291016,0.0016880035400390625,-0.2930908203125,-0.5859918594360352,989.8097534179688,1,1.0,1
17.2,5.9203124,-6.066685700000001,4.126761,0.1417027860879898,0.17525514960289,0.03646672144532204,8.237396240234375,41.29415130615234,3.3712329864501958,0.6534266471862793,0.12552642822265625,0.18409347534179688,989.8068237304688,1,1.0,1
17.24,6.063656,-6.047618,4.7587985999999995,0.30602017045021057,0.12252452224493028,-0.052748896181583405,8.159866333007812,40.48434448242188,2.9686603546142583,0.6085906028747559,0.26039981842041016,-0.2929801940917969,989.819580078125,1,1.0,1
17.28,6.2117786,-6.0762160000000005,4.886623,0.16500641405582428,-0.02554718591272831,0.07681398838758469,8.162803649902344,41.5936279296875,2.4413928985595703,0.3623862266540527,0.13759708404541016,-0.6547374725341797,989.7941284179688,1,1.0,1
17.32,6.2475767,-6.121497,4.448686,0.17805637419223785,-0.03127305582165718,0.12142211198806765,8.379657745361326,41.21742248535156,2.1220531463623047,0.3491916656494141,0.3480334281921387,-0.06718111038208008,989.7939453125,1,1.0,1
17.36,6.491296299999999,-6.078597,4.7564178,0.34863218665122986,-0.17401844263076782,0.1493854820728302,8.253976821899414,40.78413772583008,1.396928787231445,0.06602001190185547,0.17524099349975586,-0.21610260009765625,989.8037109375,1,1.0,1
17.4,6.259425,-6.209676,4.737475,0.34863218665122986,-0.17401844263076782,0.1493854820728302,8.621406555175781,40.496482849121094,0.6642818450927734,0.18911027908325195,0.368436336517334,-0.4247779846191406,989.8037109375,1,1.0,1
17.44,6.0250998,-6.07621,4.3184705,0.2964352667331696,-0.17042334377765656,0.086801677942276,8.369768142700195,39.41808700561523,0.6121921539306641,0.5063128471374512,0.3772249221801758,0.027151107788085938,989.770751953125,1,1.0,1
17.48,6.082404,-5.988027,4.2829576,0.3891139924526215,-0.170956090092659,0.09159569442272186,8.088838577270508,39.9981689453125,0.15963172912597656,0.4679298400878906,0.20074796676635745,0.27957677841186523,989.78076171875,1,1.0,1
17.52,6.311782,-6.0118585,4.114881,0.2743273377418518,-0.10211237519979477,0.13447625935077667,8.458770751953125,40.08175659179688,-0.8260746002197266,0.29355478286743164,0.27115678787231445,0.34064292907714844,989.8034057617188,1,1.0,1
17.56,6.467072,-5.933209,4.041493,0.2507588565349579,-0.1120993047952652,0.13660700619220734,9.02269458770752,38.554771423339844,0.1001873016357422,-0.03055524826049805,0.14421701431274414,0.5854582786560059,989.7931518554688,1,1.0,1
17.6,6.084635,-6.2239676,4.311349400000001,0.12106353789567947,-0.019820930436253548,0.09239877760410307,9.170066833496094,38.114166259765625,-1.2824592590332031,0.34482383728027344,0.3918323516845703,0.3630099296569824,989.8106689453124,1,1.0,1
17.64,6.0774117,-6.1929836,4.690096400000001,0.04489771649241448,-0.06735840439796448,0.003183182096108794,8.68486213684082,38.60803985595703,-1.236589431762695,0.3614287376403809,0.24297571182250974,-0.09818029403686523,989.8310546875,1,1.0,1
17.68,6.2446513,-5.873623,4.2853,2.4001852580113336e-05,-0.08946270495653152,0.07309132069349289,8.915033340454102,39.13959503173828,-1.226177215576172,0.2404446601867676,0.051331520080566406,0.2444291114807129,989.813232421875,1,1.0,1
17.72,6.299566,-6.0118523,4.8628926,-0.019682858139276505,0.0006851413636468352,0.14006999135017395,9.023513793945312,38.3983154296875,-1.1995182037353516,0.15392446517944336,0.17081308364868164,-0.5456819534301758,989.80322265625,1,1.0,1
17.76,6.3186316,-5.852171,4.704285,-0.03512866795063019,-0.11183340847492218,0.10158755630254744,9.151939392089844,38.20240783691406,-1.053876876831055,0.155548095703125,0.029983043670654293,-0.382875919342041,989.8154907226562,1,1.0,1
17.8,6.1871339999999995,-5.9761,4.406013,0.04210345447063446,-0.06083399429917336,0.0958619862794876,8.929136276245117,38.67864227294922,-1.1243934631347656,0.22690200805664065,0.03781890869140625,0.10999727249145508,989.7749633789062,1,1.0,1
17.84,6.108214,-6.054747,4.806065,0.030119752511382106,-0.01862301118671894,0.02355744689702988,8.87543773651123,38.68099212646485,-1.0392704010009766,0.34244585037231445,0.1987886428833008,-0.256927490234375,989.7850341796876,1,1.0,1
17.88,6.218096,-5.9832472999999995,4.810794400000001,-0.06029397621750832,-0.03540099412202835,0.022226087749004364,9.631054878234863,37.7026481628418,-0.7905254364013672,0.14821910858154294,0.08205318450927734,-0.3643593788146973,989.7896728515624,1,1.0,1
17.92,6.664953999999999,-5.914130999999999,5.0664477,-0.006497656926512718,-0.050581086426973336,0.049257371574640274,8.554233551025389,39.064849853515625,-0.7042980194091797,-0.002702236175537109,0.2399492263793945,-0.7746028900146484,989.7921752929688,1,1.0,1
17.96,5.8045363,-5.8283315,3.5182924,0.070867620408535,-0.008503261022269726,0.017432842403650284,8.8055419921875,38.29884719848633,-0.005344390869140625,0.6415433883666992,-0.17934083938598633,1.3011195659637451,989.8048706054688,1,1.0,1
18.0,6.85365,-5.8307137,6.100905,0.16687501966953278,0.15248461067676544,-0.1992148905992508,9.054220199584961,37.84765625,-1.2490119934082031,-0.2813515663146973,-0.02056407928466797,-1.2558941841125488,989.8201904296876,1,1.0,1
18.04,6.3445477,-6.0785730000000004,5.1327147,-0.15523353219032288,-0.14605557918548584,-0.0366288423538208,9.186670303344727,38.024452209472656,-1.433736801147461,-0.2551860809326172,0.3327722549438477,-1.4487767219543457,989.9522094726562,1,1.0,1
18.08,5.9143124,-5.752063,3.5987625,-0.013552967458963394,0.2946971356868744,-0.08216864615678787,9.049654006958008,37.843238830566406,-1.0170974731445312,0.7561030387878418,-0.013682842254638672,1.1924710273742676,989.885986328125,1,1.0,1
18.12,6.284693700000001,-6.011839,4.635592,0.33638662099838257,-0.03260517865419388,0.050323735922575,9.08163833618164,38.294471740722656,-0.8174762725830078,0.24890708923339844,0.1559300422668457,0.14977073669433594,989.693115234375,1,1.0,1
18.16,6.265521,-5.992771,4.5337977,-0.06961144506931305,-0.11263318359851834,0.04273395612835884,8.938373565673828,37.581138610839844,-1.215566635131836,0.0918898582458496,0.1932697296142578,-0.1179218292236328,989.7461547851562,1,1.0,1
18.2,5.9523907,-6.119084,4.4249015,-0.05403144657611847,-0.08853168040513992,-0.003205317771062255,8.245449066162111,38.46005630493164,-1.314188003540039,0.5420413017272949,0.3163633346557617,0.13380050659179688,989.7866821289062,1,1.0,1
18.24,6.251075,-6.0881,4.77761,-0.019409867003560063,-0.05604122206568718,-0.07564302533864975,8.316156387329103,37.89379119873047,-0.7530574798583984,0.3210411071777344,0.289212703704834,-0.13135528564453125,989.8167724609376,1,1.0,1
18.28,6.2127833,-5.983234400000001,4.62137,-0.020075146108865738,-0.13060975074768064,-0.020115938037633896,7.9011173248291025,38.18967819213867,-0.2445087432861328,0.3140788078308105,0.27121925354003906,-0.3119025230407715,989.7941284179688,1,1.0,1
18.32,6.339394599999999,-5.8736024,4.4556603,0.03252275288105011,-0.050182439386844635,-0.008664132095873356,7.935303688049316,38.38001251220703,-0.7228202819824219,0.2218413352966309,0.11101150512695312,0.09897661209106444,989.7864379882812,1,1.0,1
18.36,6.243746,-5.890283599999999,4.3917413,0.01428063400089741,-0.006373562850058079,-0.018118128180503845,7.527437686920166,37.945220947265625,-0.32658958435058594,0.2819156646728516,0.12567138671875,-0.021525859832763672,989.7841186523438,1,1.0,1
18.4,6.2565565,-5.9022217,4.4533677,-0.0062246639281511315,-0.06989006698131561,-0.088824562728405,7.50031852722168,38.13053512573242,-0.3332538604736328,0.3259854316711426,0.17932891845703125,-0.10788202285766603,989.7836303710938,1,1.0,1
18.44,6.264643,-5.8498116,4.3871694,-0.0062246639281511315,-0.06989006698131561,-0.088824562728405,7.50031852722168,38.13053512573242,-0.3332538604736328,0.3523244857788086,0.1496424674987793,-0.03915262222290039,989.7836303710938,1,1.0,1
18.48,6.3722095,-5.887944999999999,4.488961,-0.04325554519891739,-0.02807649970054626,-0.09242752194404602,7.851686954498291,37.564308166503906,-0.8161754608154297,0.3729381561279297,0.17650651931762695,0.053774356842041016,989.7960815429688,1,1.0,1
18.52,6.408078,-5.873646,4.581283999999999,-0.04126053676009178,-0.09052718430757524,-0.09376011788845062,6.744265079498291,38.370826721191406,-0.3077945709228516,0.2389321327209473,0.2267928123474121,-0.3420701026916504,989.7908935546876,1,1.0,1
18.56,6.465456,-5.8212137,4.401378,-0.029010204598307613,-0.10157926380634308,-0.08803440630435944,6.65627384185791,39.2891845703125,-0.1170196533203125,0.31595468521118164,0.15819263458251953,0.027926921844482425,989.813720703125,0,0.0,0
18.6,6.584971400000001,-5.7711654,4.477131,-0.08866535127162932,-0.07241760939359665,-0.04688876867294312,6.465667724609375,38.00396728515625,0.7573986053466797,0.1697239875793457,0.08990240097045897,-0.11944580078125,989.8058471679688,0,0.0,0
18.64,6.6375694,-5.790232700000001,4.3185306,-0.058838170021772385,-0.10251127183437347,-0.06446570158004761,5.834455490112305,38.4136962890625,0.9846591949462892,0.13588523864746094,0.1382436752319336,-0.1458759307861328,989.8009033203124,0,0.0,0
18.68,6.4750767,-5.804532,4.297227400000001,-0.058838170021772385,-0.10251127183437347,-0.06446570158004761,5.834455490112305,38.4136962890625,0.9846591949462892,0.3031167984008789,0.1395854949951172,-0.11970376968383788,989.8009033203124,0,0.0,0
18.72,6.637610400000001,-5.7664003,4.415589,-0.1110362783074379,-0.06975438445806502,-0.08097737282514572,5.767060279846191,38.40278625488281,1.7655277252197266,0.3052558898925781,0.10456085205078124,-0.14371776580810547,989.8084106445312,0,0.0,0
18.76,6.558764,-5.7354183,4.48424,-0.11356647312641145,-0.10890280455350876,-0.0672621876001358,5.288488388061523,38.53425598144531,1.600627899169922,0.2381467819213867,0.06844520568847656,-0.4512710571289063,989.8104858398438,0,0.0,0
18.8,6.604191999999999,-5.709203,3.8521986000000004,-0.049784015864133835,-0.16216595470905304,-0.10934017598628998,5.035083770751953,38.45481872558594,1.952260971069336,0.2848110198974609,0.13087987899780273,0.07313013076782228,989.7852783203124,0,0.0,0
18.84,6.711757700000001,-5.70682,3.9729276,0.031175816431641582,-0.20237961411476132,-0.0958913043141365,4.60412073135376,38.57804870605469,2.011459350585937,0.19315719604492188,0.14706802368164062,-0.24620842933654785,989.8005981445312,0,0.0,0
18.88,6.9125304000000005,-5.752103,4.2356887,-0.07548388093709946,-0.2789453864097595,-0.08856771141290665,3.8670346736907963,38.99394226074219,2.3316612243652344,0.08184957504272461,0.20003461837768555,-0.5307912826538086,989.807861328125,0,0.0,0
18.92,6.4775887,-5.804535400000001,3.9397905,-0.05710828676819801,-0.3524485230445862,-0.1065441220998764,3.5499603748321533,38.6441650390625,2.7089252471923833,0.7954235076904297,0.41568946838378906,-0.1283550262451172,989.7849731445312,0,0.0,0
18.96,6.7428875,-5.680606,3.4474144,0.05248050019145012,-0.32115638256073,-0.17831633985042572,2.729533672332764,38.45619201660156,1.537614822387695,0.6965217590332031,0.35806751251220703,0.27851366996765137,989.8001098632812,0,0.0,0
19.0,7.256736999999999,-5.561442400000001,3.6249566,0.1635340452194214,-0.507311224937439,-0.0576753132045269,2.696730852127075,38.16141128540039,2.6376972198486333,0.11344623565673828,0.21146154403686526,0.031229019165039062,989.8026733398438,0,0.0,0
19.04,7.220909,-5.51616,3.3527297999999996,-0.039931505918502815,-0.3888005316257477,-0.023187493905425068,2.1016321182250977,38.28874206542969,3.10687255859375,0.1934475898742676,0.050952911376953125,0.08716154098510742,989.797607421875,0,0.0,0
19.08,6.671251299999999,-5.7878547,2.8272128,-0.09718961268663406,-0.2527131140232086,-0.09855497628450394,1.2918822765350342,38.53137969970703,3.2174549102783203,0.5176033973693848,0.2446479797363281,0.2219254970550537,989.7849731445312,0,0.0,0
19.12,6.4800797,-6.0333323,2.7680347000000003,-0.16829614341259005,-0.2278125584125519,-0.20814405381679532,1.3129143714904783,38.34017181396485,3.5333385467529297,1.0356454849243164,0.5523700714111328,0.2132735252380371,989.799560546875,0,0.0,0
19.16,7.2639875,-5.5757437,2.7680368,-0.3998579978942871,-0.21130093932151794,-0.056876711547374725,0.9052100181579591,38.43159103393555,5.053518295288086,0.656397819519043,0.2932834625244141,0.028696060180664062,989.7971801757812,0,0.0,0
