Timestamp,Ax,Ay,Az,Gx,Gy,Gz,Mx,My,Mz,LiAx,LiAy,LiAz,P,Value,Type,GroupType,Activities
0.0,0.028538077999999998,-0.14457405,9.766688,-0.0001370153040625155,0.0008793193846940994,0.00021039939019829035,-12.716142654418945,29.40826797485352,-42.73194122314453,-0.005560360848903656,0.006159380078315735,0.05350494384765625,989.9238891601562,0,13.0,1,1
0.04,0.030861974,-0.13980594,9.761948,-0.0001370153040625155,0.0008793193846940994,0.00021039939019829035,2.050025463104248,31.1663818359375,-36.10305786132813,-0.005706852301955223,1.1318197250366209,0.0003347396850585937,989.9238891601562,0,13.0,1,1
0.08,0.026016176000000002,-0.14218757,9.766677,0.0007236638921312988,0.0016828165389597414,-0.0002736569149419665,2.286963939666748,31.44145965576172,-37.00249481201172,-0.015475530177354813,1.137667536735535,-0.01821994781494141,989.7758178710938,0,13.0,1,1
0.12,0.014000743999999999,-0.1374194,9.773771,0.0007236638921312988,0.0016828165389597414,-0.0002736569149419665,2.286963939666748,31.44145965576172,-37.00249481201172,0.008659567683935165,1.1317410469055176,-0.008630752563476562,989.7758178710938,0,13.0,1,1
0.16,0.021104515,-0.13503453,9.785602,-7.464812370017171e-05,0.00021797603403683752,-0.0005397005006670952,1.9693446159362795,31.459964752197266,-36.72367858886719,-0.0009822472929954527,1.1148773431777954,-0.027304649353027344,989.8088989257812,0,13.0,1,1
0.2,0.02342847,-0.14694926,9.771393,0.0004592552431859076,0.0010167174041271212,-0.0005391554441303015,1.3432421684265137,31.505821228027344,-36.6298828125,0.003309076651930809,1.1220648288726809,-0.022327423095703125,989.813720703125,0,13.0,1,1
0.24,0.023362517000000003,-0.14694765,9.77612,6.041693268343806e-05,-0.0004481232317630201,-0.0002725671511143446,1.7365679740905762,31.663516998291016,-36.85368728637695,0.0036821365356445312,1.1147578954696655,-0.02680206298828125,989.8592529296876,0,13.0,1,1
0.28,0.02807635,-0.13979623,9.769013000000001,0.0008600005530752243,-0.0013803320471197367,0.0009261268423870207,1.2727804183959959,31.07166290283203,-37.517433166503906,-0.0055641476064920425,1.1160619258880615,-0.031182289123535163,989.8389282226562,0,13.0,1,1
0.32,0.020840645,-0.135028,9.780842999999999,0.0009937938302755356,0.0007500917417928576,0.0005269254324957728,1.924344539642334,30.73310089111328,-36.82817840576172,0.008815277367830276,1.10051167011261,-0.007382392883300781,989.8264770507812,0,13.0,1,1
0.36,0.008825213,-0.14932606,9.776102999999999,0.00032864016247913236,-0.00031527489772997797,0.0003940399037674069,2.078805446624756,31.08845138549805,-36.87277603149414,0.02337010577321053,1.1214641332626345,-0.011824607849121094,989.8441162109376,0,13.0,1,1
0.4,0.025488585,-0.13025826,9.780831,6.295990897342564e-05,-0.000315378129016608,0.0005274703726172447,1.4924030303955078,30.48656845092773,-36.59322738647461,-0.005349909886717796,1.1094030141830444,-0.02103710174560547,989.8187866210938,0,13.0,1,1
0.44,0.023032725,-0.14455625,9.783192999999999,6.359588587656617e-05,0.0006166242528706789,0.0006609008414670825,1.549877643585205,31.85735321044922,-36.68229675292969,-0.0006560422480106354,1.1150041818618774,-0.020638465881347656,989.8262329101562,0,13.0,1,1
0.48,0.020576894,-0.12787178,9.768983,0.0005968630430288613,0.00035020525683648884,0.0002616994897834957,1.6608595848083496,31.48731231689453,-36.90869903564453,0.008927285671234129,1.0805151462554932,-0.0015869140625,989.8187255859376,0,13.0,1,1
0.52,0.013341218,-0.14455304,9.780812,-0.00020144862355664367,0.0006164178485050797,0.00026197198894806206,1.0059762001037598,31.611099243164066,-36.04518127441406,0.008590053766965866,1.101291298866272,-0.015480995178222656,989.821044921875,0,13.0,1,1
0.56,0.00849539,-0.1421681,9.7737055,6.550276884809136e-05,0.00021684081002604216,0.0002622444299049676,1.7006983757019043,30.94548797607422,-37.422019958496094,0.018257047981023792,1.098344087600708,-0.015188217163085938,989.8388061523438,0,13.0,1,1
0.6,0.015599161,-0.15646625,9.776067,0.00012656819308176637,-0.00018232132424600425,0.00029877456836402416,1.963939189910889,31.19169998168945,-37.01508712768555,0.013390189036726952,1.1098084449768066,-0.014904022216796875,989.8185424804688,0,13.0,1,1
0.64,0.013143301000000001,-0.1469315,9.771326,-5.953887011855841e-06,0.00035020732320845127,3.2731157261878245e-05,2.1645941734313965,30.43099975585937,-36.3856201171875,0.01831977255642414,1.105726718902588,-0.00029468536376953125,989.8385620117188,0,13.0,1,1
0.68,0.015467286,-0.1421633,9.77132,0.0005273133865557611,-0.0001825276704039425,-0.0001001543423626572,1.5501227378845217,30.85692596435547,-37.00871276855469,0.008744286373257637,1.0884032249450684,-0.01419830322265625,989.8206787109376,0,13.0,1,1
0.72,0.013011426000000001,-0.14931154,9.776048,-0.0002709982800297439,8.368497947230935e-05,-0.0004993557231500745,1.8426861763000488,30.65692138671875,-37.273048400878906,0.00861447677016258,1.1012957096099854,-0.004589080810546875,989.7955932617188,0,13.0,1,1
0.76,0.012945473,-0.14216006,9.783144,0.00012911093654111028,-0.00031589210266247386,0.0006993382703512907,1.6680340766906738,30.756622314453125,-37.02101516723633,0.023359240964055058,1.0840485095977783,-0.023237228393554688,989.8258056640624,0,13.0,1,1
0.8,0.02482903,-0.146925,9.776036,0.0003960629110224545,-0.0001828372769523412,0.00030013680225238204,1.6429791450500488,30.57512664794922,-37.006534576416016,-0.010214928537607193,1.0765860080718994,-0.01823711395263672,989.8256225585938,0,13.0,1,1
0.84,0.017593324,-0.14692339999999998,9.783132,0.0003966983058489859,0.0007491651340387763,0.0003004092432092875,1.60892915725708,30.490707397460934,-37.227298736572266,0.018225740641355515,1.0736393928527832,-0.017948150634765625,989.8381958007812,0,13.0,1,1
0.88,0.015137464,-0.14692172,9.780759,-2.139538992196321e-06,0.0006159038748592137,0.00043383962474763393,1.8043684959411619,31.200218200683594,-36.83702850341797,0.008315587416291237,1.0754882097244265,0.0012769699096679688,989.8204345703124,0,13.0,1,1
0.92,0.022241235,-0.15406999,9.771284,-0.0002678199089132249,0.0011484324932098387,-9.851969662122428e-05,1.8183341026306152,30.63335418701172,-36.03616333007813,0.003283325582742691,1.0911765098571775,-0.007863998413085938,989.8056030273438,0,13.0,1,1
0.96,0.019551903,-0.14697143,9.792781,-0.0002671840484254062,0.0008820134680718184,0.000301226566080004,2.058859348297119,30.543079376220703,-36.99176025390625,-0.0036111269146204,1.0736126899719238,-0.026676177978515625,989.822998046875,0,13.0,1,1
1.0,0.026741922,-0.14220542,9.769109,-0.0002812875318340957,-0.0008465572027489543,-0.0005025181453675033,1.745126247406006,30.828384399414066,-36.34423828125,-0.008469399064779282,1.0801109075546265,-0.0027170181274414067,989.8204345703124,0,13.0,1,1
1.04,0.019592524,-0.14220586,9.780948,-0.0006885562906973064,0.0008857614593580365,-0.00010638512321747841,1.8887734413146973,30.647205352783203,-36.971641540527344,0.015589905902743341,1.0530233383178709,-0.0071468353271484375,989.800048828125,0,13.0,1,1
1.08,0.017222881000000002,-0.13982308,9.773848,-0.0002892781631089747,-0.0008452600450254978,-0.0009054165566340088,1.91991662979126,30.8345947265625,-37.29534530639648,0.015461349859833716,1.0501402616500854,-0.011610984802246094,989.8126831054688,0,13.0,1,1
1.12,0.0052936673,-0.13505699999999998,9.766747,0.0007757897838018835,0.0007526670233346523,2.6605208404362198e-05,1.8157038688659668,30.94815444946289,-37.97879028320313,0.02009334973990917,1.0503791570663452,-0.001720428466796875,989.83544921875,0,13.0,1,1
1.16,0.017263472,-0.14220735,9.776219000000001,0.0007757897838018835,0.0007526670233346523,2.6605208404362198e-05,1.8157038688659668,30.94815444946289,-37.97879028320313,0.010710086673498155,1.0581543445587158,-0.011026382446289062,989.83544921875,0,13.0,1,1
1.2,0.019673645,-0.13744137,9.773852999999999,0.0002429624291835353,-0.00044572271872311836,-0.00023979452089406547,1.783336162567139,31.39142990112305,-37.15291213989258,0.0011726077646017075,1.05506432056427,-0.010740280151367188,989.8051147460938,0,13.0,1,1
1.24,0.022083879,-0.14935824,9.773856,-2.354914613533765e-05,-0.0007120068185031414,-0.00010672042844817042,1.3894672393798828,31.60202407836914,-37.02755737304688,0.010594084858894348,1.0520776510238647,-0.005731582641601562,989.8303833007812,0,13.0,1,1
1.28,0.017324328,-0.13505903,9.769123,0.00010941321670543402,0.0003532885166350752,-0.00037312012864276767,1.6002326011657717,31.21992492675781,-37.03767395019531,0.0157201886177063,1.0396270751953125,0.00400543212890625,989.8202514648438,0,13.0,1,1
1.32,0.019734561,-0.1350595,9.764389999999999,0.0005086915916763246,-0.0005787853733636439,0.00015942781465128064,1.9740185737609863,30.35803985595703,-36.58293914794922,0.010968884453177452,1.0315413475036619,0.013777732849121094,989.817626953125,0,13.0,1,1
1.36,0.022144735,-0.1493597,9.78333,-0.0001572937035234645,-0.0008450695313513278,-0.00024012982612475756,1.893775463104248,31.389678955078125,-37.47776412963867,-0.003430187702178955,1.0379841327667236,-0.023815155029296875,989.8202514648438,0,13.0,1,1
1.4,0.024554967999999996,-0.14936024,9.776231,0.0002419844240648672,0.0006196995964273809,-0.0003733716439455748,1.8125205039978027,30.83929443359375,-37.12510299682617,0.0010901708155870438,1.0490226745605469,-0.004580497741699219,989.8201904296876,0,13.0,1,1
1.44,0.034134835,-0.13982758,9.76913,0.00010863090574275702,-0.00017921626567840576,-0.00037345546297729015,1.743741512298584,30.932830810546875,-36.96601104736328,-0.013182396069169044,1.0264157056808472,0.005209922790527344,989.8074951171876,0,13.0,1,1
1.48,0.024595528999999998,-0.1350615,9.766765,-0.0004241964197717607,0.00035344724892638624,-0.0005066972225904465,2.1326403617858887,31.19202041625977,-37.65697479248047,0.005817608907818793,1.027674674987793,0.014994621276855469,989.7998657226562,0,13.0,1,1
1.52,0.027005732,-0.13506198,9.780971000000001,-0.0010901819914579394,-0.00017915279022417963,0.0001590086321812123,2.324164867401123,30.42247772216797,-36.56368255615234,0.000859605148434639,1.0103241205215454,-0.013136863708496094,989.7973022460938,0,13.0,1,1
1.56,0.031805843,-0.13744578,9.780972,-0.00042458780808374286,0.00048666872316971416,-0.0006400228594429791,2.0281519889831543,31.09375,-36.94226837158203,-0.004339585080742836,1.0215661525726318,-0.012862205505371094,989.84228515625,0,13.0,1,1
1.6,0.024656415,-0.14459619,9.776239,-0.0005581369041465223,0.0007530481088906528,-0.00024071664665825665,2.0371460914611816,30.99666976928711,-36.7070198059082,-0.004313340410590172,1.0231645107269287,-0.007843971252441406,989.8401489257812,0,13.0,1,1
1.64,0.02467668,-0.14221337,9.773875,0.0005069310427643359,-0.0008448153967037798,0.0005581471486948429,2.0293745994567867,30.46308135986328,-37.44444274902344,0.005396448075771332,1.0105029344558716,0.011369705200195312,989.8095092773438,0,13.0,1,1
1.68,0.022307097999999997,-0.15174696,9.762039999999999,0.00024041956930886957,-4.583607005770318e-05,-0.00010772640234790742,1.866218090057373,30.836944580078125,-37.210227966308594,-0.003979602828621864,1.019562840461731,0.007100105285644531,989.8321533203124,0,13.0,1,1
1.72,0.02710718,-0.14698085,9.780978999999999,-0.0005587236373685299,-0.00044527812860906135,0.00029166362946853036,1.9575533866882324,30.553672790527344,-37.1307373046875,0.010414768010377884,1.0273789167404177,-0.006951332092285156,989.7893676757812,0,13.0,1,1
1.76,0.027127504,-0.1422148,9.764411,0.0005063443095423281,-0.0007115622283890842,-0.0005073678330518304,1.6583590507507324,31.11608123779297,-36.65563583374024,0.005719276145100594,0.99403715133667,0.00766754150390625,989.8143310546876,0,13.0,1,1
1.8,0.022367954,-0.1422154,9.764413000000001,-2.6483045076020065e-05,0.00022057506430428478,-0.00024113580002449453,1.653494358062744,30.479522705078125,-36.848594665527344,-0.00845605693757534,0.9923039674758912,0.0030841827392578125,989.7994384765624,0,13.0,1,1
1.84,0.036727667,-0.14698239999999999,9.778619,0.00023963725834619254,-0.0012441305443644526,-0.001173325115814805,1.427784442901611,31.058727264404297,-37.46357727050781,-0.013240404427051544,0.9984180927276612,0.0033817291259765625,989.8244018554688,0,13.0,1,1
1.88,0.010459065,-0.13983306,9.759683,-0.0005595061811618507,0.0010195861104875805,0.0006908021168783307,1.9073348045349119,31.29701995849609,-37.47443389892578,0.015343526378273962,0.9901777505874634,0.017887115478515625,989.8241577148438,0,13.0,1,1
1.92,0.026489556,-0.14458248,9.776189,-0.0006928596994839609,8.751240966375917e-05,0.00042440238757990295,1.5465359687805176,31.222270965576172,-36.95255661010742,-0.01811983250081539,0.991206169128418,0.004008293151855469,989.8244018554688,0,13.0,1,1
1.96,0.023357153,-0.14218098,9.769019,-0.00029358145548030734,-0.00044508758583106106,-0.0005077871028333902,2.0256514549255367,30.722511291503906,-36.68920516967773,0.007094968110322951,0.987787902355194,-0.005034446716308594,989.8244018554688,0,13.0,1,1
2.0,0.028098881000000003,-0.13741347,9.773749,-0.0010820345487445593,-0.0005795853212475778,0.00029800861375406384,2.1596226692199707,30.900787353515625,-36.95123291015625,0.007257472723722458,0.968084454536438,-0.004564285278320313,989.8213500976562,0,13.0,1,1
2.04,0.03284064,-0.14694563,9.764277,-0.00014956241648178548,0.000751934596337378,-0.000767097866628319,1.743741512298584,30.932830810546875,-36.96601104736328,-0.02165484055876732,0.993114173412323,0.009949684143066406,989.8240356445312,0,13.0,1,1
2.08,0.03280258,-0.13741156,9.783211999999999,-0.0004155114875175059,0.0007518751081079245,3.2006981200538576e-05,1.6684699058532717,31.49468231201172,-37.295223236083984,-0.00723932683467865,0.9771456718444824,-0.004109382629394531,989.854248046875,0,13.0,1,1
2.12,0.020815015,-0.1397939,9.761903,0.00016908504767343402,-0.00036009540781378746,-0.0001347742509096861,2.0137495994567867,30.92256164550781,-37.46891784667969,-0.002203820273280144,0.9692295789718628,0.015099525451660156,989.8062133789062,0,13.0,1,1
2.16,0.032726467,-0.14455965,9.773736,0.0005689254612661897,-0.000493312778417021,0.0003980146138928831,1.878257274627685,30.74281311035156,-37.12958526611328,-0.01152532733976841,0.9800128936767578,-0.013006210327148438,989.7935791015624,0,13.0,1,1
2.2,0.018348991999999998,-0.14932525,9.778467,-9.649776620790362e-05,-0.0006265302654355763,-0.00013446007505990565,2.0105690956115723,30.81369781494141,-36.615234375,0.012536633759737015,0.9671920537948608,0.0014781951904296875,989.8087158203124,0,13.0,1,1
2.24,0.030260473,-0.14217445,9.771361,0.00017018528888002038,-0.0002271160774398595,-1.144740963354707e-06,1.5490374565124512,31.593505859375,-37.20561981201172,0.003081627190113068,0.954242467880249,0.006505012512207031,989.81884765625,0,13.0,1,1
2.28,0.015882969,-0.14694008,9.773725500000001,-9.576400043442844e-05,0.0004386140499264002,-9.87667590379715e-07,1.8746705055236816,31.108154296875,-37.07342529296875,0.007543405517935753,0.9797443151474,0.006768226623535156,989.7986450195312,0,13.0,1,1
2.32,0.023014665,-0.13740599,9.780824,0.0013693398796021938,0.0011043441481888292,-0.00013398847659118474,1.8534998893737795,31.19345092773437,-36.69023513793945,0.0025266744196414948,0.9570616483688354,-0.016597747802734375,989.7833862304688,0,13.0,1,1
2.36,0.013417006,-0.13740504,9.761882,-9.503023466095328e-05,0.00017217913409695032,-0.000533304875716567,1.8128199577331543,31.47142791748047,-36.700233459472656,0.002303203567862511,0.9489979147911072,0.002617835998535156,989.8106689453124,0,13.0,1,1
2.4,0.030108272999999998,-0.1397874,9.783183,-0.00022782169980928305,0.0001721195294521749,-5.160982254892589e-07,2.290412425994873,30.970199584960934,-36.35957336425781,-0.007100651040673256,0.9455265998840332,-0.006559371948242188,989.816162109375,0,13.0,1,1
2.44,0.020510584,-0.14931956,9.778446,-0.00022782169980928305,0.0001721195294521749,-5.160982254892589e-07,2.0591578483581543,31.17522430419922,-36.56689453125,0.016857059672474858,0.9469053149223328,0.003191947937011719,989.816162109375,0,13.0,1,1
2.48,0.020472556,-0.13501903,9.768972999999999,-0.0004937707562930882,0.0004383759805932641,-0.00026667487691156566,2.2859854698181152,31.07169342041016,-36.82673645019531,0.007811905816197395,0.9289472699165344,0.027167320251464844,989.788330078125,0,13.0,1,1
2.52,0.018044591000000002,-0.14931777,9.773703999999999,0.00017238600412383676,-0.002224842319265008,0.0005324301309883595,1.8941807746887207,30.91547393798828,-36.68023681640625,0.007489902898669244,0.9587748050689696,0.008523941040039062,989.7984008789062,0,13.0,1,1
2.56,0.020396411,-0.1445503,9.783171000000001,3.9594655390828855e-05,0.0009708886500447989,0.00026627135230228305,2.2654948234558105,30.894615173339844,-37.04417037963867,-0.0018179621547460558,0.9406515955924988,-0.014836311340332031,989.7958984375,0,13.0,1,1
2.6,0.017968476,-0.13739946,9.773698,-0.0007589862798340619,0.00043819728307425976,-0.0005325190722942351,1.6117281913757324,31.49407958984375,-37.05548858642578,0.00757780484855175,0.9278268814086914,-0.0003614425659179688,989.7935791015624,0,13.0,1,1
2.64,0.01554051,-0.13739854,9.773694,4.0328421164304025e-05,-9.449406206840648e-05,-0.0005323619116097689,1.4641966819763184,31.408462524414066,-36.796791076660156,0.017576534301042557,0.9243815541267396,0.009387969970703123,989.8031005859376,0,13.0,1,1
2.68,0.020282269,-0.13978085,9.776057000000002,-0.0004919368657283485,-0.0008935010991990566,4.2701140046119685e-07,1.9084210395812988,30.56044006347656,-37.277530670166016,0.003638865426182747,0.9256360530853271,0.009672164916992188,989.8335571289062,0,13.0,1,1
2.72,0.017854333,-0.14216319,9.764218,0.00044053554302081466,-0.001293034409172833,0.0002669001114554703,1.90247106552124,30.66046524047852,-37.667388916015625,0.01319778524339199,0.9315832257270812,0.005228042602539063,989.7802124023438,0,13.0,1,1
2.76,0.024985969,-0.13739568,9.776050999999999,-0.00022488733520731333,-0.00022783057647757232,0.0006665312102995813,1.7005610466003418,30.839569091796875,-36.72294616699219,-0.00128115713596344,0.9089198112487792,-0.0039520263671875,989.8108520507812,0,13.0,1,1
2.8,0.024947912000000003,-0.13739485,9.771313000000001,-9.136268636211752e-05,0.0004378996673040092,0.00013405652134679258,1.7843165397644043,31.761188507080078,-37.32866668701172,0.004142187535762787,0.914870262145996,0.015273094177246094,989.778076171875,0,13.0,1,1
2.84,0.0296897,-0.13977718,9.768943,-0.0006236278568394482,-0.0007605813443660736,0.0002673716808203608,1.6749625205993652,31.02636337280273,-36.80691528320313,-0.000509992241859436,0.9020527601242064,0.010799407958984377,989.7826538085938,0,13.0,1,1
2.88,0.015312195,-0.14215949,9.787875999999999,-0.00022378697758540508,-0.000494325067847967,-0.00026510286261327565,1.8570876121521,30.828109741210934,-36.74639129638672,0.013593560084700584,0.9175022840499878,0.006353378295898438,989.8029174804688,0,13.0,1,1
2.92,0.027493536000000002,-0.1564649,9.780795,0.0004427360254339874,0.00017134557128883898,-0.0005311045097187161,1.6725993156433103,30.761043548583984,-37.2529296875,0.003946702927350998,0.9237455129623412,-0.0028543472290039067,989.8355712890624,0,13.0,1,1
2.96,0.025351703,-0.13978797,9.780819000000001,0.00017485563876107335,-0.0004941901424899697,0.00040033060940913856,1.870646953582764,30.73544692993164,-36.74305725097656,0.0084956344217062,0.9042387008666992,0.006972312927246094,989.7825317382812,0,13.0,1,1
3.0,0.02772504,-0.13502106,9.776083,-9.823468280956148e-05,3.934330743504688e-05,0.0004012048593722284,1.7256169319152832,31.02106857299805,-36.7374267578125,-0.0012764520943164823,0.8836919069290161,-0.00238037109375,989.822998046875,0,13.0,1,1
3.04,0.01575905,-0.14455369,9.768979,0.0004345562192611396,0.0015040547586977482,-0.0006639905623160303,1.9529862403869631,30.54925537109375,-36.89881896972656,0.027076954022049904,0.8992533683776855,0.012096405029296877,989.8128662109376,0,13.0,1,1
3.08,0.018132448,-0.14693663,9.780814,-9.791640331968665e-05,-9.386621968587859e-05,-0.00039760640356689686,1.913829326629639,30.82870483398437,-36.986122131347656,-0.0016911718994379046,0.9080517292022704,0.007784843444824219,989.822998046875,0,13.0,1,1
3.12,0.018115938,-0.13501984,9.76661,-0.00023091520415619013,3.9265862142201506e-05,-0.0001312223612330854,1.4527015686035156,31.134307861328125,-36.77897644042969,-0.0019062869250774386,0.9011647701263428,0.007947921752929688,989.7899780273438,0,13.0,1,1
3.16,0.030048937,-0.14216924,9.771342,-0.0006302301189862193,3.9240076148416854e-05,-0.0006637859623879193,1.5099859237670898,30.766616821289066,-36.920257568359375,0.00805281288921833,0.8963181972503662,0.01778697967529297,989.832763671875,0,13.0,1,1
3.2,0.027642548,-0.13501897,9.778443,0.0007015083101578058,-0.0004934175522066654,0.00013522981316782534,1.6237664222717283,31.39994812011719,-36.974853515625,0.003271332010626793,0.8660237789154053,0.003711700439453125,989.7971801757812,0,13.0,1,1
3.24,0.022846282000000002,-0.13978514,9.768971,3.587763058021665e-05,3.918841684935615e-05,2.140033757314086e-06,2.0963883399963383,31.36849975585937,-37.19981002807617,0.0033810026943683624,0.8768764138221741,0.02764415740966797,989.7874145507812,0,13.0,1,1
3.28,0.03477925,-0.13740149,9.773705,-9.712128667160867e-05,0.00030547846108675003,0.0002685240760911256,1.880321025848389,30.375991821289066,-37.10844421386719,-0.010981660336256029,0.8637660145759583,0.004242897033691406,989.8174438476562,0,13.0,1,1
3.32,0.037152678,-0.13978437,9.7618685,0.0007019852637313306,-0.000759810849558562,0.0002685922081582248,2.099975109100342,31.003158569335934,-37.25597381591797,-0.024625467136502262,0.8747668862342834,0.004487991333007813,989.7996826171876,0,13.0,1,1
3.36,0.015627026999999998,-0.13978395,9.780803,-0.00036311912117525935,-0.0010261526331305504,0.0001355023996438831,2.065926074981689,30.918739318847656,-37.47673797607422,0.004198277369141579,0.8693599700927734,0.00489044189453125,989.8123168945312,0,13.0,1,1
3.4,0.029949963,-0.14931664,9.773700999999999,-9.664410026744008e-05,-0.0006267045973800122,-0.0009296928765252233,1.1523680686950684,30.80073165893555,-37.25207138061523,0.003926347941160202,0.8724894523620605,0.000278472900390625,989.7997436523438,0,13.0,1,1
3.44,0.017983943,-0.1564661,9.780801,3.6672980058938265e-05,0.0009711649618111553,2.480810508131981e-06,1.7764067649841309,31.121692657470703,-37.36701202392578,0.013119617477059364,0.8784205317497253,0.019483566284179688,989.8125610351562,0,13.0,1,1
3.48,0.027527064,-0.14454934,9.766595,3.683188697323203e-05,0.0005716652958653867,0.00026886482373811305,1.4562888145446775,30.76896667480469,-36.83513641357422,-0.0061217714101076135,0.8603829741477966,0.015024185180664062,989.7971801757812,0,13.0,1,1
3.52,0.029900491,-0.15169868,9.778431,0.0005696227890439332,0.0004384815110825002,-0.001328962272964418,2.4943881034851074,30.424274444580078,-37.282875061035156,-0.0061374008655548104,0.8620032072067261,-0.008418083190917969,989.8174438476562,0,13.0,1,1
3.56,0.025104165,-0.14693177,9.771327000000001,0.00017030787421390414,0.0008379294886253773,-0.0006631043506786227,1.8270602226257324,31.116397857666016,-37.29752731323242,0.0026775989681482315,0.8468958139419556,0.01092815399169922,989.7971801757812,0,13.0,1,1
3.6,0.015528023,-0.14693135,9.778427,-0.0007616385701112449,0.0011042194673791528,0.00013591142487712204,1.6645846366882324,31.227886199951172,-37.66393280029297,0.007484767585992812,0.8500886559486389,0.011041641235351562,989.81494140625,0,13.0,1,1
3.64,0.025071144,-0.13501453,9.761855,0.00015701021766290069,0.0002014807832892984,-0.00016813780530355868,2.2140002250671387,30.63606262207031,-37.63697814941406,-0.0021669492125511174,0.83705735206604,0.03496551513671875,989.80224609375,0,13.0,1,1
3.68,0.020274878,-0.1469306,9.771322,0.00015716924099251628,-0.000996966497041285,-0.00030122758471407,1.775428295135498,30.75192642211914,-37.19125747680664,0.007462073117494583,0.8479663729667664,0.006803512573242188,989.7894897460938,0,13.0,1,1
3.72,0.01786846,-0.13501370000000001,9.776055,0.0009562757913954557,0.0006009030039422214,-0.00016800148296169937,1.800483226776123,30.93342590332031,-37.20573806762695,-0.0067699942737817756,0.820932149887085,-0.002437591552734375,989.83251953125,0,13.0,1,1
3.76,0.02741158,-0.14216319,9.785523,0.0002906452282331884,0.0006008771015331148,0.00023154049995355308,1.54319429397583,30.587188720703125,-37.222816467285156,-0.0076089538633823395,0.8299125432968141,0.002676963806152344,989.7894897460938,0,13.0,1,1
3.8,0.020225376,-0.15646246,9.7831545,0.0002906452282331884,0.0006008771015331148,0.00023154049995355308,1.54319429397583,30.587188720703125,-37.222816467285156,0.00210149958729744,0.8473256826400757,0.0027923583984375,989.7894897460938,0,13.0,1,1
3.84,0.024988651,-0.13024595,9.783153,-0.00037482642801478505,-0.00033128008362837136,-3.463905886746943e-05,2.238375186920166,31.079933166503906,-37.05083465576172,-0.002498297020792961,0.8134992122650146,-0.015777587890625,989.7996826171876,0,13.0,1,1
3.88,0.022582232999999997,-0.13739538,9.773683,-0.00037482642801478505,-0.00033128008362837136,-3.463905886746943e-05,2.238375186920166,31.079933166503906,-37.05083465576172,0.006782088428735733,0.8164535164833069,0.01275634765625,989.7996826171876,0,13.0,1,1
3.92,0.03235081,-0.14693362,9.768967,-0.000108192500192672,0.00046761592966504406,-0.00030081861768849194,1.5552315711975098,30.49305725097656,-37.142181396484375,-0.002477817237377167,0.8206272721290588,0.01784229278564453,989.7994995117188,0,13.0,1,1
3.96,0.015613973,-0.14693347,9.771334,-0.000108192500192672,0.00046761592966504406,-0.00030081861768849194,1.5552315711975098,30.49305725097656,-37.142181396484375,0.021321443840861317,0.8142527937889099,0.017952919006347656,989.7994995117188,0,13.0,1,1
4.0,0.02994579,-0.14931652,9.768966,0.00028936745366081595,0.0006010845536366105,0.0006304666167125107,1.8400778770446775,31.39202880859375,-37.39264297485352,-0.007931634783744812,0.8140962719917297,0.018291473388671875,989.7564697265624,0,13.0,1,1
4.04,0.017988712,-0.14693311,9.771333,0.00028936745366081595,0.0006010845536366105,0.0006304666167125107,1.8400778770446775,31.39202880859375,-37.39264297485352,0.00638224184513092,0.8025981187820435,0.02789402008056641,989.7564697265624,0,13.0,1,1
4.08,0.02037108,-0.13978305,9.776066,0.0009552299161441623,0.0011337045580148695,-3.529182868078351e-05,2.549607753753662,30.42339324951172,-37.4453010559082,0.006384016945958138,0.808567464351654,0.01393413543701172,989.8096313476562,0,13.0,1,1
4.12,0.034702897,-0.13739958,9.776065,-0.0005094346706755459,0.00020158715778961775,-0.00016841854085214436,1.986630916595459,31.107879638671875,-37.4755859375,-0.012730823829770088,0.7860338687896729,0.009433746337890623,989.799560546875,0,13.0,1,1
4.16,0.034695357,-0.13501614,9.778432,-0.0006424469756893814,-6.475239206338301e-05,-0.00016835608403198418,1.83964204788208,30.653972625732425,-37.11843872070313,-0.01270364597439766,0.79482102394104,0.014537811279296875,989.8046264648438,0,13.0,1,1
4.2,0.029908001,-0.13501588,9.776063,-0.0006424469756893814,-6.475239206338301e-05,-0.00016835608403198418,1.83964204788208,30.653972625732425,-37.11843872070313,-0.007914742454886436,0.7882580757141113,0.005189895629882813,989.8046264648438,0,13.0,1,1
4.24,0.013171136000000002,-0.14216563,9.771329,-0.0005091432831250131,0.0002015398640651256,0.0002311801363248378,2.0107073783874507,30.91961669921875,-37.31431198120117,0.006403796374797821,0.7930862307548523,0.014970779418945312,989.7819213867188,0,13.0,1,1
4.28,0.022723197999999997,-0.14693195,9.764225999999999,-0.0005091432831250131,0.0002015398640651256,0.0002311801363248378,2.0107073783874507,30.91961669921875,-37.31431198120117,0.0018697120249271395,0.8055933713912964,0.034027099609375,989.7819213867188,0,13.0,1,1
4.32,0.027495443999999997,-0.14454857,9.76896,0.00015679217176511884,-0.0005974313826300204,-0.0005677050212398171,2.0088858604431152,30.28600311279297,-37.66187286376953,-0.003255166113376617,0.7879665493965149,0.010575294494628906,989.7969970703124,0,13.0,1,1
4.36,0.03226769,-0.14216504,9.776061,0.0005563387530855834,0.00020150438649579883,-0.00030135796987451613,1.889209270477295,31.38526153564453,-37.245849609375,-0.012107174843549728,0.7735658884048462,0.015625953674316406,989.8094482421876,0,13.0,1,1
4.4,0.03226012,-0.14454815,9.766591,0.0002900958643294871,-0.0009969290113076568,0.0004976209020242095,1.8296675682067869,30.38129425048828,-37.17793273925781,-0.007271947339177132,0.7747304439544678,0.02059459686279297,989.7766723632812,0,13.0,1,1
4.44,0.029862642000000002,-0.14454797,9.773692,-0.0003756211954168976,-6.483514880528675e-05,-0.000434453395428136,1.833691120147705,30.75399780273437,-37.50829315185547,-0.011986972764134407,0.7730957269668579,0.015964508056640625,989.7840576171876,0,13.0,1,1
4.48,0.029855072000000003,-0.14931434,9.773692,0.00029024149989709264,0.00020146890892647207,-0.0005675801075994967,2.116579532623291,30.91344451904297,-37.4072494506836,-0.002608656883239746,0.7838231325149536,0.01146221160888672,989.7966918945312,0,13.0,1,1
4.52,0.03223741,-0.15169743,9.776058,2.3998378310352564e-05,0.00020145709277130663,-0.00030123305623419583,1.4533829689025881,30.87193298339844,-37.37960815429688,0.0020377933979034424,0.7788926362991333,0.016511917114257812,989.7965087890624,0,13.0,1,1
4.56,0.046569288,-0.13501424,9.77369,0.00029038725188001985,0.00046776121598668396,0.0006309037562459707,1.7528738975524902,30.941665649414066,-37.42984008789063,-0.02676650695502758,0.7608444690704346,0.02148532867431641,989.7840576171876,0,13.0,1,1
4.6,0.027442515,-0.14693055,9.783159,-0.0009079614537768066,0.0006009071948938072,0.0002314611338078976,2.1181015968322754,30.9149169921875,-37.48455429077149,0.0017512757331132887,0.7682570815086365,0.016884803771972656,989.8092651367188,0,13.0,1,1
4.64,0.03221476,-0.13978043,9.766587,-0.0010410465765744448,0.00046773746726103127,0.0007641240954399109,1.8262200355529783,30.8525505065918,-37.82084655761719,-0.0030205529183149338,0.760081946849823,0.01710033416748047,989.811767578125,0,13.0,1,1
4.68,0.029817282999999997,-0.13978031,9.771321,0.0001574478228576481,-6.490611849585548e-05,-0.00030110820080153644,2.007119655609131,31.28495788574219,-37.25815200805664,-0.012473398819565771,0.7522611618041992,0.0125579833984375,989.8121337890624,0,13.0,1,1
4.72,0.027419865,-0.15407977,9.759484,0.0009564682259224355,-0.0005975497188046576,0.0006310285534709692,1.9605956077575684,30.55661773681641,-37.28535079956055,0.0018403772264719012,0.7617282867431641,0.031795501708984375,989.8067016601562,0,13.0,1,1
4.76,0.029802203,-0.13263008,9.780789,0.0005570673965848981,0.0007340178126469253,-0.00016788780339993536,1.6303973197937012,31.03755187988281,-37.18562316894531,-0.0029376354068517685,0.7313914299011229,0.017699241638183594,989.7965087890624,0,13.0,1,1
4.8,0.013065338000000001,-0.13977972,9.780787,-0.0001086496631614864,-0.0007307312916964293,0.00023161721765063706,1.8475499153137207,31.293476104736328,-37.08009338378906,-0.0028361547738313675,0.7359125018119812,0.013274192810058594,989.8067016601562,0,13.0,1,1
4.84,0.020227492,-0.14454606,9.766583,2.4581269826740023e-05,0.0004676783864852041,0.00023164844606071708,1.7930121421813965,31.03197479248047,-37.51829528808594,0.0065222084522247314,0.7514435052871704,0.02769374847412109,989.7918701171876,0,13.0,1,1
4.88,0.017234385,-0.13738146,9.768896,-0.00037481979234144086,0.00046766657033003867,-0.00016779408906586468,1.7838797569274902,31.02313995361328,-37.05446243286133,-0.003041768446564675,0.7355432510375977,0.023056983947753903,989.7893676757812,0,13.0,1,1
4.92,0.021374792000000004,-0.14451563,9.773572,0.0008236746652983129,6.818086694693193e-05,-0.0005672367988154293,1.667491436004639,31.12491607666016,-37.11946868896485,-0.006765209138393402,0.7324985265731812,0.01861667633056641,989.827392578125,0,13.0,1,1
4.96,0.018929124,-0.1468975,9.785403,2.9721370083279908e-05,0.00046675844350829715,-2.428426523692906e-05,2.0437769889831543,30.63426971435547,-36.91778564453125,0.007666442543268205,0.7291390895843506,0.01882266998291016,989.7741088867188,0,13.0,1,1
5.0,0.016483366,-0.14212963,9.783030499999999,0.00016341703303623942,0.0003335131332278252,0.0007748939096927643,1.6499085426330566,30.84486389160156,-36.79243469238281,0.012188725173473358,0.7212324738502502,0.01901721954345703,989.8041381835938,0,13.0,1,1
5.04,0.018817455,-0.14451149,9.787761,0.000430271087680012,-0.0005986797623336315,-0.000290138996206224,1.3876471519470217,30.96841812133789,-37.3751220703125,0.00783395953476429,0.7178993225097656,0.0002813339233398437,989.8045654296876,0,13.0,1,1
5.08,0.016371727,-0.14689347,9.76645,0.00016449294344056398,-0.0008650829549878836,-0.0001567505532875657,1.437619686126709,31.225494384765625,-36.70500564575195,0.003015780821442604,0.7193171977996826,0.01942348480224609,989.8167724609376,0,13.0,1,1
5.12,0.0067563355,-0.1397422,9.766444,-0.00010128474968951197,0.00046640908112749463,0.0003761117986869067,1.4302849769592283,31.429962158203125,-37.71663665771485,0.012515086680650713,0.7062910795211792,0.0243682861328125,989.7914428710938,0,13.0,1,1
5.16,0.021039932999999997,-0.14689067,9.7830105,-6.265405681915581e-05,-1.7991827917285267e-05,0.0002540293789934367,1.748852252960205,30.56895446777344,-37.09947204589844,0.012964876368641852,0.7156169414520264,0.01992988586425781,989.7964477539062,0,13.0,1,1
5.2,0.018594205,-0.144506,9.768802,-6.211586878634989e-05,-0.0006838688859716058,-0.00014521402772516012,1.0144047737121582,31.46200942993164,-37.73141098022461,-0.0014621522277593613,0.7121639251708984,0.015401840209960938,989.7969970703124,0,13.0,1,1
5.24,0.013758600000000001,-0.14212139999999998,9.768796,-6.211586878634989e-05,-0.0006838688859716058,-0.00014521402772516012,1.0144047737121582,31.46200942993164,-37.73141098022461,0.01309792511165142,0.7102494239807129,0.024982452392578125,989.7969970703124,0,13.0,1,1
5.28,0.028042197,-0.15403643,9.766423,-0.0003278939111623913,0.0002481493283994496,-0.0008107729954645038,1.3765873908996582,31.43231201171875,-37.63151550292969,-0.005534235388040543,0.7116285562515259,0.02991485595703125,989.8092651367188,0,13.0,1,1
5.32,0.016036868,-0.14688516,9.77352,-0.00019366006017662582,-0.0010836046421900392,-1.136425998993218e-05,1.8994269371032717,30.65751647949219,-37.512779235839844,0.004231911152601242,0.7021292448043823,0.02072238922119141,989.801513671875,0,13.0,1,1
5.36,0.020760834,-0.13496745,9.766414,0.0006058255676180124,-0.00015158641326706856,-0.00014429178554564714,1.556210994720459,30.86281967163086,-37.31793594360352,0.004122845828533173,0.6894327402114868,0.03984546661376953,989.8117065429688,0,13.0,1,1
5.4,0.011145413,-0.13258275,9.778245,0.0006058255676180124,-0.00015158641326706856,-0.00014429178554564714,1.556210994720459,30.86281967163086,-37.31793594360352,0.01857252418994904,0.6831718683242798,0.020994186401367188,989.8117065429688,0,13.0,1,1
5.44,0.020649254,-0.14926443,9.764037,0.00020688978838734331,0.00038095796480774885,0.00025541268405504525,1.4618334770202637,31.14314270019531,-37.2428092956543,-0.0002975035458803177,0.6940866708755493,0.035391807556152344,989.7944946289062,0,13.0,1,1
5.48,0.0014742017,-0.1587961,9.782969,0.00034058556775562465,-0.0002849191077984869,0.000521959038451314,1.8902945518493648,30.648681640625,-37.0489501953125,0.009601820260286331,0.6953683495521545,0.011918067932128906,989.7865600585938,0,13.0,1,1
5.52,0.0157578,-0.13972858,9.773496000000002,-0.0007241398561745883,-0.0008176381816156209,-1.0442076018080117e-05,1.8367362022399905,30.75694274902344,-37.66290283203125,0.014276197180151941,0.6873157024383545,0.016839027404785156,989.78173828125,0,13.0,1,1
5.56,0.018091917,-0.1540268,9.771122,-0.000323590385960415,-1.8865161109715697e-05,0.00038949280860833824,1.7990994453430176,31.037872314453125,-37.8275146484375,0.009592074900865557,0.6966643333435059,0.017119407653808594,989.8043212890624,0,13.0,1,1
5.6,0.013256252,-0.14210904,9.773484,7.642150740139186e-05,-0.0001521103986306116,-0.0004092241870239377,1.8617911338806152,30.938446044921875,-37.67738723754883,0.014423815533518791,0.676157534122467,0.02666854858398437,989.8065795898438,0,13.0,1,1
5.64,0.010810553999999998,-0.13734111,9.771113,0.00021011740318499506,-0.00028535566525533795,-0.0004089938011020422,1.9711136817932131,30.46101379394531,-37.127403259277344,0.009700031951069832,0.6731250286102295,0.02683925628662109,989.7667846679688,0,13.0,1,1
5.68,0.022704244,-0.15402272,9.780577000000001,0.0007432871498167515,0.00011403077223803848,-9.289389709010719e-06,1.5797438621520996,31.0428466796875,-37.25511169433594,0.00504336878657341,0.6795269250869751,0.0033397674560546875,989.8218383789062,0,13.0,1,1
5.72,0.0059191585,-0.15402135,9.759267,7.803537300787866e-05,-0.0005518462276086211,-0.00014221674064174294,1.8973612785339355,31.02433776855469,-37.53392791748047,0.014750439673662187,0.6746227741241455,0.03201770782470703,989.8046264648438,0,13.0,1,1
5.76,0.015422881000000001,-0.13733697,9.76873,7.857321179471909e-05,-0.0002856177161447704,-0.0001419861800968647,1.4848237037658691,31.69145965576172,-37.27843856811523,0.00552634708583355,0.661950945854187,0.03692340850830078,989.7843627929688,0,13.0,1,1
5.8,0.017757058,-0.1349524,9.771092,7.911139982752502e-05,-0.0008183368481695652,0.00012456023250706494,1.975135326385498,30.833721160888672,-37.45777130126953,0.010361919179558754,0.6605852246284485,0.03699684143066406,989.7894287109376,0,13.0,1,1
5.84,0.017701209,-0.15401721,9.773454,0.0007454389706254004,0.0002468394231982529,-8.367147529497743e-06,1.5260467529296875,31.045196533203125,-37.16999053955078,0.015015225857496263,0.6700909733772278,0.013586044311523438,989.8017578125,0,13.0,1,1
5.88,0.013931453,-0.14212564,9.775914,-0.00018612857093103233,-1.9563784007914364e-05,-0.0008070842595770955,1.5963482856750488,30.953128814697266,-37.40638732910156,0.0008132755756378174,0.6540125012397766,-0.0005216598510742189,989.8017578125,0,13.0,1,1
5.92,0.024564862000000003,-0.14930183,9.76891,-0.0012584824580699205,0.0009136927546933293,-0.00014433322940021753,1.6409144401550293,30.94194412231445,-37.027679443359375,0.0029140040278434753,0.6586529016494751,0.02794837951660156,989.7869262695312,0,13.0,1,1
5.96,0.022204101,-0.1421527,9.766544999999999,0.00032399932388216257,-1.6637248336337507e-05,-0.0009471365483477713,1.9186930656433103,31.46526336669922,-36.79316711425781,0.002880828455090523,0.6464205980300903,0.028084754943847656,989.8173828125,0,13.0,1,1
6.0,0.012673646,-0.14215341,9.787854,0.001122665824368596,-1.659158442635089e-05,0.00011800654465332627,2.033942699432373,30.467498779296875,-37.676353454589844,0.012762503698468208,0.644757866859436,0.004496574401855469,989.8271484375,0,13.0,1,1
6.04,0.010312915,-0.13738754,9.768919,0.0003234370378777385,-0.0010818095179274678,-0.0006810616469010711,1.8104567527771,31.20610809326172,-37.14624786376953,0.013159723952412605,0.630588173866272,0.0426025390625,989.7869262695312,0,13.0,1,1
6.08,0.010342121,-0.1445381,9.773655999999999,-0.0004757917486131191,-0.0012149217072874308,0.0006503973854705691,1.8291258811950684,30.74958038330078,-37.27638244628906,0.013220876455307009,0.6337648630142212,0.028478622436523438,989.786865234375,0,13.0,1,1
6.12,0.012761146000000001,-0.14215553,9.773659,5.6558972573839135e-05,-0.0009485603077337147,0.00011764510418288408,2.383948802947998,30.42601776123047,-36.95802307128906,0.008508458733558655,0.6339301466941833,0.038176536560058594,989.8094482421876,0,13.0,1,1
6.16,0.024739861000000002,-0.13977298,9.78313,5.627771315630525e-05,0.00011674890993162991,-0.00028194926562719047,1.796597957611084,30.66663360595703,-37.57444763183594,0.00847511552274227,0.6277951002120972,0.024039268493652344,989.7793579101562,0,13.0,1,1
6.2,0.0223791,-0.14454022,9.7712965,0.00018915451073553413,-0.000149521350977011,-0.00041522769606672233,1.5616183280944824,31.131088256835934,-37.026527404785156,-0.0009918641299009325,0.6294912695884705,0.028923988342285163,989.7919311523438,0,13.0,1,1
6.24,0.00806886,-0.14454097,9.773666,0.0003220314392820001,0.00038315608981065447,-0.00014903230476193133,1.8677411079406736,30.838417053222656,-37.28752899169922,0.017936788499355316,0.635768711566925,0.01961612701416016,989.7869262695312,0,13.0,1,1
6.28,0.012877821999999999,-0.13500857,9.778402999999999,-0.0006103552877902986,-0.00121469353325665,0.00038347899680957204,2.3007683753967285,30.34836578369141,-37.32558059692383,0.013062531128525734,0.6039125323295593,0.010304450988769531,989.8123779296876,0,13.0,1,1
6.32,0.01051712,-0.14692566,9.76657,5.5153141147457056e-05,0.0006495632696896791,0.0002502005663700402,1.9208950996398928,31.2043571472168,-37.471099853515625,0.0176932904869318,0.624944806098938,0.02937602996826172,989.8072509765624,0,13.0,1,1
6.36,0.024885654,-0.13262668,9.771307,-0.00047775963321328163,0.00011697711306624116,-1.6235775547102094e-05,1.3775362968444824,30.589813232421875,-36.73553466796875,0.008056722581386566,0.602658748626709,0.03426456451416016,989.7870483398438,0,13.0,1,1
6.4,0.012965322,-0.13977724,9.776044,-0.00021172490960452706,0.0006496544228866696,-1.6356265405192968e-05,1.6017556190490725,31.221397399902344,-37.11498260498047,0.012599576264619827,0.6184393167495728,0.02495288848876953,989.8224487304688,0,13.0,1,1
6.44,0.029723822999999996,-0.15646091,9.79025,-0.00034516409505158663,-0.00014924751303624362,0.0002498390676919371,1.9700274467468264,31.197593688964844,-37.32430648803711,0.0029391199350357056,0.6181738376617432,0.020455360412597656,989.8046264648438,0,13.0,1,1
6.48,0.0010741353,-0.13501212,9.771316,-0.00034516409505158663,-0.00014924751303624362,0.0002498390676919371,1.9700274467468264,31.197593688964844,-37.32430648803711,0.026864742860198017,0.6022295951843262,0.03000164031982422,989.8046264648438,0,13.0,1,1
6.52,0.010662943000000001,-0.14692923,9.771317999999999,-0.0008780767675489187,0.00038342989864759147,-1.6597245121374726e-05,1.7232527732849119,30.75575256347656,-37.183441162109375,0.012523375451564787,0.6040859222412109,0.015932083129882812,989.8046264648438,0,13.0,1,1
6.56,0.008302212,-0.14216337,9.768953,-0.0008786391699686646,-0.0012143740896135569,-0.0002831541060004384,1.9002690315246584,30.92136383056641,-36.98945617675781,0.007141772657632828,0.59917813539505,0.020895004272460938,989.7996826171876,0,13.0,1,1
6.6,0.013111174,-0.14693066,9.776057000000002,-0.0002131306246155873,0.001315672299824655,-0.0008159064454957843,2.084052562713623,30.83049774169922,-37.70531463623047,0.011784039437770844,0.5915886163711548,0.02102375030517578,989.7869873046876,0,13.0,1,1
6.64,0.022699952000000002,-0.14454809,9.766592,-0.0002131306246155873,0.001315672299824655,-0.0008159064454957843,2.084052562713623,30.83049774169922,-37.70531463623047,0.002338293939828873,0.6138539314270021,0.04003143310546875,989.7869873046876,0,13.0,1,1
6.68,0.013169527,-0.14454879999999998,9.773696000000001,0.00045237818267196417,0.00011729655670933423,0.00024923670571297407,2.1663918495178223,30.644302368164066,-37.861083984375,0.011730533093214037,0.5967059731483461,0.02122402191162109,989.8148193359376,0,13.0,1,1
6.72,0.01797849,-0.1469329,9.773698,0.00010482089419383556,0.00028102088253945107,0.00018379429820925,1.4522962570190432,31.60851287841797,-37.576507568359375,0.01175248809158802,0.5919432640075684,0.016702651977539062,989.7899169921876,0,13.0,1,1
6.76,0.0036682189000000003,-0.14455032,9.771335,-0.0008275656145997344,-0.00038472318556159735,0.00018367383745498955,1.682030200958252,31.402019500732425,-37.291893005371094,0.01643039844930172,0.5936417579650879,0.031042098999023438,989.7919921875,0,13.0,1,1
6.8,0.027596474,-0.13740120000000003,9.776071,-0.0008275656145997344,-0.00038472318556159735,0.00018367383745498955,1.682030200958252,31.402019500732425,-37.291893005371094,-0.0025747735053300858,0.5827699899673462,0.035836219787597656,989.7919921875,0,13.0,1,1
6.84,0.00611645,-0.14455172,9.780808,-0.0002952152281068265,-0.0001183616041089408,-0.0007485522655770183,1.8280396461486816,31.48616027832031,-37.47328186035156,0.016903094947338104,0.5797008275985718,0.01703166961669922,989.8124389648438,0,13.0,1,1
6.88,0.022395223,-0.14215732,9.778399,0.0001039774651871994,-0.0010504215024411678,5.027488805353642e-05,1.7658915519714355,31.217300415039066,-37.52495574951172,-0.0020745005458593373,0.5719991326332092,0.02193832397460937,989.7919921875,0,13.0,1,1
6.92,0.024795263999999997,-0.14215761,9.787869,0.00024357181973755362,-0.00038606385351158684,0.0008482237462885678,1.520937442779541,31.40906524658203,-37.03652572631836,0.007920838892459871,0.5742126703262329,0.01731395721435547,989.7997436523438,0,13.0,1,1
6.96,0.010466039,-0.13977465,9.7713,0.00037719262763857836,-0.0007856128504499793,0.0001826323859859258,1.4658560752868652,31.515853881835934,-37.57317352294922,-0.0016462747007608414,0.5699030160903931,0.031703948974609375,989.809814453125,0,13.0,1,1
7.0,0.022425681,-0.15169129,9.766566000000001,0.00011077884119004011,1.3350698282010852e-05,-8.37253755889833e-05,1.6064591407775881,31.33173370361328,-38.04597473144531,0.0029889363795518875,0.5812682509422302,0.03656578063964844,989.7769775390624,0,13.0,1,1
7.04,0.010486305,-0.14215839,9.761832,-2.247688826173544e-05,0.0002796824846882373,-0.0004832411650568247,1.9661421775817869,30.93080139160156,-37.693016052246094,0.017571905627846718,0.5655553340911865,0.03662681579589844,989.7897338867188,0,13.0,1,1
7.08,0.027225792000000002,-0.13500878,9.766568,0.0010426888475194571,-0.0006524072960019113,0.00018250659923069182,1.5956673622131348,31.21550750732422,-36.805763244628906,-0.0062536150217056274,0.5581939220428467,0.027268409729003903,989.8051147460938,0,13.0,1,1
7.12,0.017676324,-0.13500902,9.771303,-2.267258241772652e-05,-0.000386075465939939,0.0005819385405629872,1.8511366844177248,30.928131103515625,-37.1362533569336,0.008098170161247253,0.555368185043335,0.022653579711914062,989.8076782226562,0,13.0,1,1
7.16,0.02485618,-0.14454237,9.780774000000001,-2.2770371288061145e-05,-0.00011974372318945825,-0.00048336701001971965,1.5797438621520996,31.0428466796875,-37.25511169433594,0.003201119601726532,0.5611428618431091,0.008607864379882812,989.81787109375,0,13.0,1,1
7.2,0.017696619,-0.1350095,9.76657,0.0009092374239116908,0.0002797460474539548,0.000581854663323611,2.003777980804444,30.649871826171875,-37.528411865234375,0.003220465034246445,0.5502273440361023,0.04654216766357422,989.7874145507812,0,13.0,1,1
7.24,0.015316874,-0.14215958,9.77604,0.0003765078727155924,-0.0009186596143990756,-8.397700730711222e-05,1.5145516395568848,30.771038055419922,-37.15217590332031,0.013168921694159508,0.5512237548828125,0.02302455902099609,989.8026123046876,0,13.0,1,1
7.28,0.020106792,-0.13500997,9.773675,0.0007758837891742588,-0.000386011932278052,0.0003154549340251833,1.2666926383972168,31.065773010253906,-37.20821380615234,0.00843673013150692,0.5449803471565247,0.013617515563964844,989.7572631835938,0,13.0,1,1
7.32,0.029676616,-0.14930996,9.785511999999999,0.00010999618098139763,0.00041295160190202296,-0.00021721876692026854,2.0698113441467285,31.185531616210934,-37.10802459716797,-0.005971955135464668,0.5469064712524414,0.008999824523925781,989.81787109375,0,13.0,1,1
7.36,0.010567516,-0.13977712,9.76184,0.00024305644910782578,-0.0006522961193695664,-0.00048357667401432986,2.0152735710144043,30.924030303955078,-37.54622650146485,0.007918387651443481,0.5478987693786621,0.032825469970703125,989.7977294921876,0,13.0,1,1
7.4,0.015357494,-0.14216062,9.761842,0.0003761163679882884,0.001078772940672934,-0.00035046052653342485,2.027310848236084,30.82989883422852,-37.4655876159668,0.017609279602766037,0.5355787873268127,0.04240703582763672,989.7779541015624,0,13.0,1,1
7.44,0.017757505,-0.14454415,9.783147,-2.3455126211047173e-05,-0.0005191062809899449,-0.0007499762577936053,1.4423232078552246,31.33583068847656,-37.6359977722168,0.008307699114084244,0.5422714948654175,0.01884937286376953,989.7978515625,0,13.0,1,1
7.48,0.022547482999999997,-0.14931098,9.757109,-0.00015671108849346638,-0.0007854063296690582,-0.00021738652139902118,1.5437674522399902,31.43115997314453,-38.19609832763672,-0.0010608360171318054,0.5407950282096863,0.033111572265625,989.7927856445312,0,13.0,1,1
7.52,0.022557616000000003,-0.13739479,9.780782,0.00010950712021440269,-0.00025275873485952616,0.00031520333141088486,1.7965989112854004,30.66663360595703,-37.57444763183594,0.012891383841633795,0.5335079431533813,0.02374362945556641,989.8080444335938,0,13.0,1,1
7.56,0.010618269,-0.15169469,9.771314,0.0006420408608391881,1.3573080650530756e-05,0.0003151614218950272,2.1041054725646973,30.26952362060547,-37.21367645263672,0.01789363473653793,0.5312584638595581,0.03803443908691406,989.80029296875,0,13.0,1,1
7.6,0.017798156000000002,-0.13739526,9.768948,0.0006419431883841753,1.3588942238129675e-05,-8.435430936515331e-05,1.6774630546569824,31.39759826660156,-37.059974670410156,-0.005825936794281006,0.5284686088562012,0.02394008636474609,989.7801513671876,0,13.0,1,1
7.64,0.013028443,-0.13977876,9.766582000000001,-0.0008229899685829878,0.0008125683525577188,-8.443824481219053e-05,2.167913913726806,30.645774841308594,-37.938385009765625,0.008083727210760117,0.5194603204727173,0.03830909729003906,989.79052734375,0,13.0,1,1
7.68,0.024988145,-0.13262919,9.7760515,-0.0008229899685829878,0.0008125683525577188,-8.443824481219053e-05,2.167913913726806,30.645774841308594,-37.938385009765625,0.0034237932413816448,0.5037724971771239,0.03362846374511719,989.79052734375,0,13.0,1,1
7.72,0.020218492,-0.14931244,9.7713175,0.00010901782661676407,-0.0009184690425172447,0.000314993696520105,2.1933741569519043,30.353065490722656,-37.15534210205078,0.008484620600938797,0.5392539501190186,0.03846263885498047,989.7958984375,0,13.0,1,1
7.76,0.005889236999999999,-0.14454618,9.771317999999999,-2.4335808120667928e-05,0.0005463002016767861,0.0004480677598621696,1.8415999412536619,31.393497467041016,-37.469947814941406,0.017681045457720757,0.5259157419204712,0.024405479431152344,989.8031005859376,0,13.0,1,1
7.8,0.010679126,-0.14931297,9.773686,-2.4335808120667928e-05,0.0005463002016767861,0.0004480677598621696,1.8415999412536619,31.393497467041016,-37.469947814941406,0.022530775517225262,0.5197681188583374,0.024457931518554688,989.8031005859376,0,13.0,1,1
7.84,0.03172499,-0.13976845,9.776011,-2.4335808120667928e-05,0.0005463002016767861,0.0004480677598621696,1.9132857322692869,31.19699859619141,-37.08457565307617,-0.010883806273341179,0.5072298645973206,0.01983642578125,989.8031005859376,0,13.0,1,1
7.88,0.014503776999999999,-0.14213964,9.766498,-0.0004239074187353253,-0.0002526316675357521,0.0004480258212424815,1.6043639183044434,30.486289978027344,-36.995384216308594,0.014139825478196144,0.5042920708656311,0.048439979553222656,989.813232421875,0,13.0,1,1
7.92,0.009696037,-0.1373724,9.773597,-0.0006880564615130423,-0.000119825461297296,-0.0006163090001791716,2.0167946815490723,30.925506591796875,-37.62352752685547,0.02363618649542332,0.4875396490097046,0.02012538909912109,989.803466796875,0,13.0,1,1
7.96,0.016837835,-0.13975504,9.764125,0.0005142540321685374,-0.00025318723055534065,0.00018845527665689588,1.9366583824157717,30.850799560546875,-38.14570236206055,0.00928865559399128,0.4981087744235992,0.029738426208496094,989.79052734375,0,13.0,1,1
8.0,0.0144200325,-0.1469042,9.778325,0.0005142540321685374,-0.00025318723055534065,0.00018845527665689588,1.9366583824157717,30.850799560546875,-38.14570236206055,-0.00039339251816272736,0.5110441446304321,0.025054931640625,989.79052734375,0,13.0,1,1
8.04,0.0024425983,-0.13498709,9.76412,-0.00015099794836714864,0.0004125151899643242,-0.0002107880136463791,1.977061748504639,30.360992431640625,-36.737548828125,0.028421498835086826,0.4834047853946686,0.04413509368896485,989.8111572265624,0,13.0,1,1
8.08,0.023923873999999998,-0.13021985,9.754649,-0.00015099794836714864,0.0004125151899643242,-0.0002107880136463791,1.977061748504639,30.360992431640625,-36.737548828125,-0.0052487533539533615,0.477464109659195,0.05838203430175781,989.8111572265624,0,13.0,1,1
8.12,0.019116133,-0.1397523,9.778317999999999,-0.00028361770091578364,0.00041242790757678455,-7.739951252005994e-05,2.0864157676696777,31.09581756591797,-37.25930404663086,-0.0005351006984710693,0.4926254451274872,0.030119895935058594,989.8309936523438,0,13.0,1,1
8.16,0.0047487915,-0.13975164,9.771214500000001,-0.00028361770091578364,0.00041242790757678455,-7.739951252005994e-05,2.0864157676696777,31.09581756591797,-37.25930404663086,0.018378634005784992,0.4867408275604248,0.02069377899169922,989.8309936523438,0,13.0,1,1
8.2,0.014280498,-0.13736764,9.773579,0.00038244103780016303,0.00027922625304199755,0.000322189589496702,1.861247539520264,31.30673217773437,-37.775840759277344,0.0036572087556123725,0.474513828754425,0.039730072021484375,989.8112182617188,0,13.0,1,1
8.24,0.019032389,-0.14690003,9.771208999999999,0.0001262559671886265,-7.641274714842439e-05,-0.0001301949960179627,2.4227023124694824,30.620777130126953,-37.668251037597656,0.003927487879991531,0.495801717042923,0.03035259246826172,989.7808837890624,0,13.0,1,1
8.28,0.016614556000000003,-0.14451605,9.780675,0.0002596829435788095,-0.0010085620451718569,0.00040255195926874876,2.0137495994567867,30.92256164550781,-37.46892166137695,0.013547543436288834,0.4885254800319672,0.020975112915039062,989.8038940429688,0,13.0,1,1
8.32,0.011806846000000001,-0.14451548,9.78304,-0.00040583772351965314,0.00032297373400069773,0.0006689831498079003,1.6395297050476074,31.04638671875,-37.649452209472656,0.008955642580986023,0.466746985912323,0.025806427001953125,989.8162841796876,0,13.0,1,1
8.36,0.018948674,-0.13259834,9.771201,-0.0006718848017044365,0.0005892460467293859,-0.00026300718309357757,1.4774584770202637,30.68367004394531,-37.21833038330078,0.0036214515566825867,0.4629099667072296,0.030675888061523438,989.8037109375,0,13.0,1,1
8.4,0.021310687000000002,-0.1278311,9.771198,0.000260489818174392,0.00018972843827214087,-0.0002628918155096472,1.8132033348083496,30.576919555664066,-37.725730895996094,-0.005763385444879532,0.4663397967815399,0.025989532470703125,989.798583984375,0,13.0,1,1
8.44,0.014113068999999999,-0.14213005,9.785399,0.00012760091340169308,5.6526885600760586e-05,-0.0006622505025006831,1.92016077041626,29.834171295166016,-37.62176513671875,0.0034857019782066345,0.4736311137676239,0.016599655151367188,989.8319702148438,0,13.0,1,1
8.48,0.014085143999999999,-0.13736284,9.7782955,0.0002610280062071979,0.00018964112678077072,-0.0001295033725909889,1.5999350547790527,30.58778381347656,-37.462547302246094,0.013077452778816223,0.4664885997772217,0.030884742736816406,989.8139038085938,0,13.0,1,1
8.52,0.018837035,-0.13974544,9.764089,0.0003944545169360936,-0.00020987633615732196,-0.00026254606200382113,1.815864086151123,31.4743766784668,-36.85483932495117,0.013028720393776894,0.46408227086067205,0.04043769836425781,989.8112182617188,0,13.0,1,1
8.56,0.016419232,-0.13736144,9.766455,0.0001284077879972756,0.0005890275933779776,0.00040335900848731404,1.848092555999756,30.92518615722656,-36.98163986206055,0.01251138374209404,0.470092236995697,0.03108978271484375,989.8163452148438,0,13.0,1,1
8.6,0.006831676,-0.15166041,9.773553,0.00012867682380601766,0.0008552998187951744,-0.0006617893814109267,1.33424711227417,31.60289764404297,-36.86512756347656,0.017145264893770218,0.4830049276351929,0.035872459411621094,989.80126953125,0,13.0,1,1
8.64,0.01875329,-0.13497677,9.775917999999999,-0.00027052784571424127,0.0004557823413051665,0.0005367474514059721,1.5055575370788574,30.86811447143555,-37.38742446899414,0.0025510601699352264,0.4614349007606506,0.0122833251953125,989.814208984375,0,13.0,1,1
8.68,0.006775915600000001,-0.142126,9.761712,0.00012921466259285808,0.0005888965679332613,-0.00012892700033262372,1.4996070861816406,30.9681396484375,-37.77728271484375,0.016825681552290916,0.4544892311096192,0.050232887268066406,989.8167724609376,0,13.0,1,1
8.72,0.023477316,-0.15165845,9.773545,-0.00040314806392416363,0.0004556950298137963,-0.00039512763032689685,1.8692622184753416,30.83988952636719,-37.36483383178711,0.0023293029516935353,0.4566013813018799,0.040854454040527344,989.814208984375,0,13.0,1,1
8.76,0.02344942,-0.15880755,9.752238,0.0006623844965361059,-0.00021013832883909342,-0.0007944860844872893,1.787466526031494,30.657798767089844,-37.110618591308594,-0.0026991032063961033,0.4673476815223694,0.05990791320800781,989.8270874023438,0,13.0,1,1
8.8,0.013861895,-0.14689043,9.756969999999999,-3.136170562356711e-06,0.000721923541277647,0.0001377347216475755,1.3267760276794434,31.701454162597656,-37.17768478393555,0.0022346284240484238,0.4568634629249573,0.04573631286621094,989.7990112304688,0,13.0,1,1
8.84,0.029919803,-0.14216605,9.773698,0.000529764627572149,-0.00034338358091190463,0.00013785003102384508,2.254542827606201,30.252166748046875,-36.92790603637695,-0.00901290401816368,0.4448134601116181,0.04092693328857422,989.7994995117188,0,13.0,1,1
8.88,0.010842413,-0.14216712,9.771335,-9.862164006335659e-06,0.0001890064886538312,-1.3629905879497528e-06,2.074920177459717,30.82165908813477,-37.24148941040039,0.005005469545722008,0.4377740621566773,0.031525611877441406,989.8193359375,0,13.0,1,1
8.92,0.025223702,-0.13978484,9.766604,0.0005162115558050573,0.0001900711067719385,0.0005284581566229463,1.978722095489502,30.46837615966797,-37.51393127441406,-0.014404689893126488,0.4347203671932221,0.031615257263183594,989.80419921875,0,13.0,1,1
8.96,0.015705943,-0.14455238,9.778443,0.0005154046812094748,-0.0002092717040795833,0.00039495437522418797,2.1535353660583496,30.89488983154297,-36.64201354980469,0.014283481985330582,0.4420846104621887,0.02221012115478516,989.8143310546876,0,13.0,1,1
9.0,0.020527601,-0.14455345,9.785548,0.0005154046812094748,-0.0002092717040795833,0.00039495437522418797,2.1535353660583496,30.89488983154297,-36.64201354980469,-0.005178125575184822,0.4455003440380096,0.017515182495117188,989.8143310546876,0,13.0,1,1
9.04,0.039688706000000004,-0.13740465,9.773717999999999,-0.00028394642868079245,0.001388689037412405,-0.00027100829174742097,1.4353938102722168,31.06609344482422,-37.85010147094727,-0.01959815248847008,0.4336811304092407,0.01284503936767578,989.8045043945312,0,13.0,1,1
9.08,0.030170977,-0.14455548,9.785558,0.00011512399942148477,-7.598279626108706e-05,0.00039460850530304015,1.3644118309020996,31.420528411865234,-37.01307678222656,-0.005056781694293022,0.4315759539604187,0.022373199462890625,989.8222045898438,0,13.0,1,1
9.12,0.023043096000000002,-0.1374067,9.7689905,0.00011472038750071079,-0.00020907519501633942,-0.0001381961046718061,2.1567158699035645,31.00375366210937,-37.49570083618164,-0.005236206576228142,0.4279768168926239,0.031943321228027344,989.812255859375,0,13.0,1,1
9.16,0.030254662,-0.13979098,9.757158,-1.8840928532881666e-05,-0.00020900971139781177,-0.0002715268055908382,1.852658748626709,30.92960357666016,-37.21355438232422,-0.004994584247469902,0.4258836209774017,0.04620552062988281,989.8375244140624,0,13.0,1,1
9.2,0.02312684,-0.14455858,9.776099,0.0005133873200975358,-0.0006084180204197763,-5.3839467000216246e-06,1.7905097007751465,30.660743713378906,-37.265228271484375,0.004558196291327477,0.4282248616218567,0.03206825256347656,989.8092651367188,0,13.0,1,1
9.24,0.023168683,-0.13979307,9.77847,0.0005133873200975358,-0.0006084180204197763,-5.3839467000216246e-06,1.7905097007751465,30.660743713378906,-37.265228271484375,-0.0051780566573143005,0.43193554878234863,0.027364730834960938,989.8092651367188,0,13.0,1,1
9.28,0.023210526000000002,-0.14456066,9.769006,-0.00028596367337740963,-7.572080357931554e-05,0.00026075902860611677,2.1482653617858887,30.7325439453125,-37.63249588012695,-0.0005217865109443665,0.4297100305557251,0.027425765991210938,989.79443359375,0,13.0,1,1
9.32,0.02086252,-0.14932820000000002,9.766643,-0.0002867706643883139,0.0009896737756207583,-5.902780685573816e-06,1.5548272132873535,30.96726226806641,-37.9397087097168,0.004097146913409233,0.4354695379734039,0.04173088073730469,989.8096313476562,0,13.0,1,1
9.36,0.028074026000000002,-0.15409586,9.764279,-0.0005534900701604785,-7.552429451607168e-05,-0.0002723915386013687,1.5321345329284668,31.05108642578125,-37.47920989990234,0.0040673911571502686,0.4334584772586823,0.05125236511230469,989.8126220703124,0,13.0,1,1
9.4,0.018556297,-0.15171358,9.761915,-0.0005534900701604785,-7.552429451607168e-05,-0.0002723915386013687,1.5321345329284668,31.05108642578125,-37.47920989990234,-0.0005815513432025909,0.42257192730903625,0.03708457946777344,989.8126220703124,0,13.0,1,1
9.44,0.020988107000000002,-0.13264832,9.778489,0.0007776859565638006,5.7699144235812134e-05,0.0003932251420337707,1.907878398895264,30.928730010986328,-37.37598419189453,-0.010468512773513794,0.4015744924545288,0.02293300628662109,989.8023681640624,0,13.0,1,1
9.48,0.025809765,-0.15648222,9.783228,0.000111492772703059,-0.0006080250022932888,0.00025989452842622995,1.5538477897644043,30.597496032714844,-37.763954162597656,-0.0011167917400598526,0.4278571009635925,0.02299404144287109,989.802490234375,0,13.0,1,1
9.52,0.018681913999999997,-0.13741699,9.764294,-0.00015522648754995316,0.00112309365067631,-0.00040606810944154864,1.7625479698181152,30.582218170166016,-37.79521942138672,-0.0014290940016508102,0.40173083543777466,0.0419921875,989.8202514648438,0,13.0,1,1
9.56,0.02589345,-0.14456782,9.773766499999999,-2.2875534341437746e-05,0.00019111906294710931,-6.940215826034546e-06,2.0047564506530757,31.01963806152344,-37.70417022705078,-0.006507115438580513,0.4031079113483429,0.02787685394287109,989.8353881835938,0,13.0,1,1
9.6,0.030715167999999998,-0.13503578,9.766668,0.00010987890709657222,0.0005906583974137902,0.0006586765521205963,1.8375773429870603,31.020793914794922,-37.13958740234375,-0.011180520057678223,0.3973173201084137,0.04210567474365234,989.83544921875,0,13.0,1,1
9.64,0.01880747,-0.13503677,9.769039999999999,0.00024263346858788282,-0.00020822376245632768,0.0003921877359971404,1.6620831489562988,30.856651306152344,-37.41087341308594,0.008080689236521721,0.3901398181915283,0.032695770263671875,989.8305053710938,0,13.0,1,1
9.68,0.023629129,-0.14695418,9.759576,-0.00029040189110673964,-0.0008739479817450048,-0.0002737748436629772,1.5707497596740725,31.139923095703125,-37.4903564453125,0.003410497680306434,0.4072973430156708,0.04221153259277344,989.797607421875,0,13.0,1,1
9.72,0.021281092999999997,-0.14218870000000003,9.778516999999999,-0.0002331698196940124,0.0009118028683587909,0.00023218011483550074,1.6449360847473145,31.31465148925781,-37.35804748535156,0.003286655992269516,0.4003628194332123,0.03279590606689453,989.8433837890624,0,13.0,1,1
9.76,0.018933058,-0.13980642,9.769052,0.000565374328289181,-0.0004197109956294298,9.884932660497725e-05,1.614473819732666,30.864887237548828,-37.63497543334961,0.012914000079035759,0.39713695645332336,0.05181217193603516,989.8277587890624,0,13.0,1,1
9.8,0.01844269,-0.13979438,9.764272,-0.00010081875370815395,-0.000552803510800004,9.86764207482338e-05,1.9846720695495603,30.36835479736328,-37.12406921386719,0.014240916818380356,0.3945711553096771,0.04723644256591797,989.8206176757812,0,13.0,1,1
9.84,0.020309925,-0.14931467,9.766591,-0.0010333277750760317,-0.0008190538501366973,-3.46544838976115e-05,1.880460262298584,30.48191070556641,-37.807518005371094,0.0046840887516736976,0.4022692143917084,0.04254913330078125,989.8280639648438,0,13.0,1,1
9.88,0.01313895,-0.14454815,9.764224,0.0008441736572422088,-2.217672772530932e-05,0.0003677925269585103,1.6047987937927246,31.22434234619141,-37.26959228515625,0.009419070556759834,0.401321679353714,0.05204296112060547,989.7877807617188,0,13.0,1,1
9.92,0.025087177999999998,-0.13739821,9.761857000000001,0.00031155403121374553,0.0003772950731217861,0.00010148185538128017,1.8367352485656736,30.75694274902344,-37.66290283203125,-0.005193065851926804,0.39952704310417175,0.04735374450683594,989.8359985351562,0,13.0,1,1
9.96,0.008356571,-0.14216474,9.75949,0.000577881874050945,0.0014425567351281645,-0.0005643027252517642,1.6901822090148926,31.04109191894531,-37.57996368408203,0.0230373814702034,0.4012380838394165,0.04743194580078125,989.8280639648438,0,13.0,1,1
10.0,0.01791495,-0.14693132,9.771325,0.0004447365354280919,-0.00015534067642875016,0.00036780824302695686,2.0619044303894043,30.54602813720703,-37.14636993408203,-0.0058043207973241815,0.4000805616378784,0.028524398803710938,989.8182373046876,0,13.0,1,1
10.04,0.013133853999999999,-0.14931455,9.773692,0.00031159081845544284,-2.2184643967193548e-05,0.00010149762965738772,1.4021859169006348,31.24551773071289,-37.54754638671875,0.00848306156694889,0.37453269958496094,0.04276943206787109,989.8182373046876,0,13.0,1,1
10.08,0.017912418,-0.15169773,9.771325,-0.00022102908405940982,0.0009099189192056656,-3.1655130442231894e-05,1.547217845916748,30.95989990234375,-37.553184509277344,0.00840260460972786,0.3957764506340027,0.033364295959472656,989.8534545898438,0,13.0,1,1
10.12,0.0131313205,-0.13978133,9.764223,-0.0007536482880823313,-2.2188631191966124e-05,0.000634139869362116,1.6515669822692869,30.95225524902344,-37.56881713867188,0.013002956286072731,0.38416749238967896,0.04761886596679688,989.80810546875,0,13.0,1,1
10.16,0.013130069,-0.13739806,9.780793,0.0004447854298632592,-2.2190668460098092e-05,-0.0001648025936447084,1.7930121421813965,31.03197479248047,-37.51829147338867,0.008146202191710472,0.37263375520706177,0.03346443176269531,989.8312377929688,0,13.0,1,1
10.2,0.027468204,-0.13263145,9.764223,0.0003116393636446446,0.00024412326456513256,-0.00016479735495522618,1.9273886680603027,30.736045837402344,-36.98279190063477,-0.015677610412240032,0.3707367777824402,0.03351020812988281,989.8082275390624,0,13.0,1,1
10.24,0.010737628,-0.13739792,9.768957,-0.00035413788282312453,0.00011096328671555966,-0.0008305818191729486,1.7643694877624512,31.2158203125,-37.447654724121094,0.003487883135676384,0.3638019561767578,0.03829669952392578,989.8212280273438,0,13.0,1,1
10.28,0.025075793,-0.14693105,9.764223,-0.001286231097765267,-0.0009543022024445237,0.0002346869732718915,1.7534174919128418,30.573375701904297,-37.33138656616211,0.0038596540689468384,0.3709551692008972,0.05255413055419922,989.7881469726562,0,13.0,1,1
10.32,0.017904788,-0.13263139,9.776059,-0.000220955625991337,-0.00015535653801634908,-0.0008305713417939843,1.9759764671325684,31.09756851196289,-36.9344482421875,0.008497662842273712,0.3736325800418854,0.02419662475585937,989.8285522460938,0,13.0,1,1
10.36,0.010733783,-0.14931428,9.766589999999999,0.0005780042265541853,-0.0005548323388211429,0.00010153948096558452,1.886302471160889,31.48823165893555,-37.79031372070313,0.008699050173163414,0.3814676403999329,0.04317283630371094,989.8084716796876,0,13.0,1,1
10.4,0.017902255,-0.13978109,9.766589999999999,0.00031170083093456924,0.0005104292067699133,0.0001015447487588972,1.5185742378234863,31.14374542236328,-37.4825439453125,-0.005653096362948418,0.3651353716850281,0.03848457336425781,989.8260498046876,0,13.0,1,1
10.44,0.015511066,-0.13739783,9.764222,-0.00022091895516496152,-0.0002885203284677118,-0.00043108174577355385,2.1982378959655757,30.9896240234375,-36.962379455566406,0.008473040536046028,0.3582668900489807,0.033799171447753906,989.816162109375,0,13.0,1,1
10.48,0.022679507999999998,-0.13978109,9.764222,-0.00022091895516496152,-0.0002885203284677118,-0.00043108174577355385,1.8987460136413572,30.919891357421875,-36.91215133666992,0.01305304653942585,0.3560687601566315,0.057520866394042976,989.816162109375,0,13.0,1,1
10.52,0.0155085325,-0.14454761,9.771322999999999,-0.0008866964490152894,0.0007767411880195142,-0.0008305503870360553,2.2876439094543457,31.17908096313477,-37.603118896484375,0.0036353487521409993,0.3638000190258026,0.03862285614013672,989.8516845703124,0,13.0,1,1
10.56,0.017897188999999997,-0.12786463,9.766589,0.0003117497253697365,0.00011094743967987596,-0.00029790797270834446,2.1551947593688965,31.002281188964844,-37.41839599609375,0.017927123233675957,0.33229321241378784,0.04342079162597656,989.828857421875,0,13.0,1,1
10.6,0.020285785,-0.13978097,9.764222,0.0003117497253697365,0.00011094743967987596,-0.00029790797270834446,2.1551947593688965,31.002281188964844,-37.41839599609375,-0.0012059919536113741,0.3597828447818756,0.0387115478515625,989.828857421875,0,13.0,1,1
10.64,0.0059451163,-0.14931408,9.768956,-0.00022085760429035875,-0.00028853034018538887,0.00010157620999962093,1.730863094329834,30.76311492919922,-37.56996536254883,0.013181710615754128,0.36179178953170776,0.03877067565917969,989.8265991210938,0,13.0,1,1
10.68,0.015503466,-0.14693072,9.768956,-0.00022085760429035875,-0.00028853034018538887,0.00010157620999962093,1.730863094329834,30.76311492919922,-37.56996536254883,0.017997384071350098,0.36083751916885376,0.04352474212646485,989.8265991210938,0,13.0,1,1
10.72,0.005942583,-0.14454743,9.768956,0.00031178639619611204,-2.221646900579799e-05,-0.00016473449068143964,1.7996420860290527,30.66957855224609,-37.72906112670898,0.012992147356271744,0.3395792245864868,0.03883838653564453,989.8240966796876,0,13.0,1,1
10.76,0.017890811,-0.13739759,9.764222,-8.767544204602018e-05,0.00024409742036368695,-0.0001647291937842965,1.6168370246887207,31.130210876464844,-37.1889533996582,-0.0013232734054327011,0.3423232138156891,0.034145355224609375,989.831787109375,0,13.0,1,1
10.8,0.023082912,-0.13502446,9.764259,-0.0006202947697602212,0.00011093751527369021,-0.0001647239550948143,2.0007338523864746,30.64692687988281,-37.373802185058594,-0.015529125928878784,0.3454334735870361,0.043648719787597656,989.819091796875,0,13.0,1,1
10.84,0.011570424,-0.13265184,9.759565,0.00030887554748915136,0.0006440458237193526,-0.000432297820225358,2.0403265953063965,31.10552978515625,-37.560707092285156,-0.0024112705141305928,0.3333907723426819,0.04835700988769531,989.8140869140624,0,13.0,1,1
10.88,0.018771887,-0.14218572,9.757201,0.00030887554748915136,0.0006440458237193526,-0.000432297820225358,2.0403265953063965,31.10552978515625,-37.560707092285156,-0.007319813594222069,0.34207212924957275,0.053109169006347656,989.8140869140624,0,13.0,1,1
10.92,0.023583382000000003,-0.1517196,9.783242,-9.042144665727393e-05,0.000511009362526238,-0.0009695594199001787,2.111172199249268,30.64517974853516,-37.69865417480469,-0.003121575340628624,0.35933661460876465,0.0389404296875,989.78173828125,0,13.0,1,1
10.96,0.009275675,-0.14457062,9.766675,0.0011076941154897213,0.0015763225965201855,-0.0005702166818082332,2.492567539215088,29.79066467285156,-37.63043975830078,0.016253313049674034,0.3469447791576385,0.029523849487304688,989.8319702148438,0,13.0,1,1
11.0,0.030816495,-0.14218804,9.778514,-0.0006236646440811455,-0.0013531023869290948,9.544214117340744e-05,1.93263578414917,30.47808837890625,-37.81533432006836,-0.007398510351777077,0.3365216851234436,0.015336036682128906,989.804443359375,0,13.0,1,1
11.04,0.01411888,-0.1374223,9.764314,-9.133833373198286e-05,-0.0005541052669286729,9.531123214401303e-05,1.9666838645935056,30.5625114440918,-37.59456634521485,0.007199428975582124,0.32978081703186035,0.043778419494628906,989.8167114257812,0,13.0,1,1
11.08,0.016540527,-0.15410605,9.776153,-0.0004911180003546177,0.00011173408711329104,-3.79777338821441e-05,1.9219813346862795,30.46778106689453,-37.27420043945313,0.006556609645485878,0.3468433618545532,0.04381561279296875,989.8271484375,0,13.0,1,1
11.12,0.016572207,-0.14219043,9.78089,-0.0004914240562357007,0.0007775734411552547,9.50491230469197e-05,2.0227456092834477,30.825481414794922,-37.23367309570313,0.006028316915035248,0.32585275173187256,0.02017784118652344,989.8195190429688,0,13.0,1,1
11.16,0.026163517999999997,-0.1302748,9.778525,0.00017406020197086036,0.00037814915413036937,-0.0008371875155717133,1.9213004112243648,30.73015594482422,-36.6735725402832,0.0013347901403903961,0.31344181299209595,0.02022933959960937,989.804443359375,0,13.0,1,1
11.2,0.021415412,-0.14219195,9.773793,-0.0004901576321572065,0.00031846025376580656,-0.00019248874741606412,1.7518954277038574,30.5718994140625,-37.25408172607422,0.0011471733450889587,0.3220157325267792,0.0391836166381836,989.8096313476562,0,13.0,1,1
11.24,0.02383706,-0.14219278,9.773797,-0.0007567789871245622,0.0005848256987519562,7.369613740593195e-05,1.6214032173156738,31.13462829589844,-37.42086791992188,-0.013188259676098824,0.32852935791015625,0.02976703643798828,989.83251953125,0,13.0,1,1
11.28,0.028648555,-0.1421935,9.766698,-0.00022445268405135718,-0.00021407224994618448,-0.0001927509147208184,1.362049579620361,31.15521240234375,-37.45909118652344,-0.017939599230885506,0.3230116665363312,0.04398345947265625,989.8097534179688,0,13.0,1,1
11.32,0.016730726,-0.14934418,9.77617,0.0001747156638884917,-8.086470188573003e-05,0.00047290790826082224,1.8626313209533687,31.20229339599609,-37.15406036376953,0.005993219092488289,0.33556604385375977,0.029808998107910163,989.799560546875,0,13.0,1,1
11.36,0.01198262,-0.13027868,9.759603,0.0007070419378578662,0.00045181665336713206,-0.0001930127327796072,1.7391753196716309,30.92841339111328,-36.73409271240234,-0.00864366255700588,0.3148144483566284,0.05350875854492188,989.8072509765624,0,13.0,1,1
11.4,0.019184053,-0.14934573,9.7761755,-9.221116488333791e-05,-8.076551603153348e-05,0.0007389619713649154,2.0136122703552246,30.81664276123047,-36.76984405517578,0.0059182196855545035,0.33136194944381714,0.03934478759765625,989.8073120117188,0,13.0,1,1
11.44,0.023995577999999997,-0.14219663,9.764342,0.00017379831115249544,-0.000613347627222538,-6.011684308759868e-05,2.6065096855163574,30.950218200683594,-36.56108856201172,-0.003282999619841576,0.3208160996437073,0.058300018310546875,989.8251953125,0,13.0,1,1
11.48,0.014467657,-0.12789777,9.766713000000001,-0.00035913891042582685,-0.0010127718560397623,0.00047238398110494023,1.765754222869873,31.11138153076172,-36.82587814331055,0.01114125922322273,0.28576552867889404,0.03938770294189453,989.832763671875,0,13.0,1,1
11.52,0.02166906,-0.15411457,9.757247,-0.00035944438423030084,-0.00048009050078690047,0.00020593719091266396,2.1853585243225098,30.819908142089844,-37.56634140014648,-0.003297232091426849,0.3360975384712219,0.048890113830566406,989.8123779296876,0,13.0,1,1
11.56,0.024090707000000003,-0.12789926,9.754883,-0.000492907827720046,5.259086901787669e-05,7.264834130182862e-05,1.81404447555542,30.84076690673828,-37.20240783691406,-0.003786968067288399,0.29551485180854803,0.058398246765136726,989.8225708007812,0,13.0,1,1
11.6,0.016952693,-0.15888277,9.776191,0.00017257583385799083,0.00151737779378891,-0.00046011453378014266,1.2576980590820312,31.16284942626953,-37.443458557128906,0.010644229128956795,0.3225937485694885,0.030014991760253906,989.8148803710938,0,13.0,1,1
11.64,0.007424772,-0.1422005,9.771459,-0.00022750928474124516,0.0008516874513588847,0.00033857120433822274,2.080167293548584,30.563705444335934,-38.07402801513672,0.005425566807389259,0.3160358667373657,0.03477764129638672,989.8175659179688,0,13.0,1,1
11.68,0.014626175,-0.14220133,9.771461500000001,-0.00022750928474124516,0.0008516874513588847,0.00033857120433822274,2.080167293548584,30.563705444335934,-38.07402801513672,0.000567510724067688,0.3007245659828186,0.04426193237304688,989.8175659179688,0,13.0,1,1
11.72,0.028997332,-0.15173522,9.764363000000001,-0.0002278147585457191,5.278932803776115e-05,0.0007379141170531511,1.769479274749756,30.85195159912109,-37.58111572265625,-0.008674433454871178,0.3179079294204712,0.044289588928222656,989.8202514648438,0,13.0,1,1
11.76,0.014689623999999998,-0.13981959,9.776202,-0.00049443612806499,-8.031897596083581e-05,0.00020515138749033213,1.9100813865661619,30.66783142089844,-38.05390930175781,-0.013760486617684364,0.3066339194774628,0.039580345153808594,989.8204956054688,0,13.0,1,1
11.8,0.013761431000000001,-0.14218011,9.764281,-0.00049443612806499,-8.031897596083581e-05,0.00020515138749033213,1.1754956245422363,31.45496368408203,-37.98677444458008,0.0018803179264068606,0.29541438817977905,0.030221939086914062,989.8204956054688,0,13.0,1,1
11.84,0.032874316,-0.1445632,9.78085,-9.526776557322592e-05,-0.00021342726540751755,-0.00032761154579930013,1.4208550453186035,30.78898620605469,-37.67768096923828,0.001987520605325699,0.2985278964042664,0.030249595642089844,989.7977905273438,0,13.0,1,1
11.88,-0.010150254000000001,-0.14217976,9.797421,-0.0003508832305669784,-0.0007474412559531629,7.326196646317841e-05,2.00834321975708,30.654296875,-37.76032638549805,0.03084967471659184,0.30126696825027466,0.05868721008300781,989.80517578125,0,13.0,1,1
11.92,0.008962631,-0.14694616,9.754811,-0.00021654204465448854,-0.0008807912236079575,-0.0009914945112541318,2.08655309677124,31.20173645019531,-37.95838165283203,0.006990326568484306,0.30434876680374146,0.06344795227050781,989.82568359375,0,13.0,1,1
11.96,0.018515885,-0.13741294,9.776114,-0.0003496389836072922,5.13044506078586e-05,-5.93627046328038e-05,1.2918848991394043,31.35318756103516,-37.921775817871094,0.002516757696866989,0.2933613955974579,0.04453468322753906,989.7952270507812,0,13.0,1,1
12.0,0.023289293,-0.13979605,9.776114,0.0004493698943406344,-0.0012802849523723125,0.0007396111031994224,1.704720973968506,31.318199157714844,-37.75238800048828,-0.0026508215814828877,0.28703176975250244,0.025620460510253903,989.8027954101562,0,13.0,1,1
12.04,0.01850313,-0.14456242,9.7666445,-8.320086635649204e-05,0.0007170743774622679,-0.0005919421091675757,2.207070827484131,30.36632537841797,-37.85108184814453,0.002330819144845009,0.2903076410293579,0.04931640625,989.8030395507812,0,13.0,1,1
12.08,0.018496811000000002,-0.14217901,9.757175,-0.00021629733964800835,0.00031759048579260707,7.387396181002259e-05,2.1032633781433105,30.00567626953125,-37.73699951171875,0.011730222031474112,0.2889706492424011,0.05407142639160156,989.8154907226562,0,13.0,1,1
12.12,0.018490463000000002,-0.14217883,9.773746000000001,5.0141014071414254e-05,-8.190322841983289e-05,-5.9231504565104835e-05,2.054728984832764,31.27671813964844,-37.03404998779297,0.002319803461432457,0.2863641977310181,0.030439376831054688,989.7802734375,0,13.0,1,1
12.16,0.018484116000000002,-0.1493285,9.773745,5.020201570005156e-05,-0.0004813869018107652,-5.92053693253547e-05,1.8968195915222168,31.39262390136719,-37.63237762451172,0.0071779657155275345,0.2942378520965576,0.035198211669921875,989.7807006835938,0,13.0,1,1
12.2,0.008918166,-0.13741198,9.776111,5.020201570005156e-05,-0.0004813869018107652,-5.92053693253547e-05,1.8968195915222168,31.39262390136719,-37.63237762451172,0.01694951206445694,0.2696381211280823,0.03047466278076172,989.7807006835938,0,13.0,1,1
12.24,0.016081572,-0.1517115,9.773744,-8.289481047540903e-05,-0.00021508097415789962,-0.00019233705825172362,1.6814866065979004,31.77030944824219,-37.39034271240234,0.021579882130026817,0.2917707562446594,0.0494375228881836,989.8310546875,0,13.0,1,1
12.28,0.013685286000000001,-0.13264510000000002,9.771376,-0.0004823075141757728,-0.0007477226317860186,7.400489994324744e-05,2.268676280975342,31.00347900390625,-37.897857666015625,0.002735227346420288,0.2804015576839447,0.03999519348144531,989.7953491210938,0,13.0,1,1
12.32,0.006509244399999999,-0.1397948,9.75954,-0.0006153432186692952,0.00045067898463457823,0.0007398469606414437,1.861247539520264,31.30673217773437,-37.77583312988281,0.016722099855542183,0.27891749143600464,0.035282135009765625,989.8111572265624,0,13.0,1,1
12.36,0.02562213,-0.1445612,9.766641,-0.0002158083952963352,0.00031751109054312115,0.0007398732705041766,1.7448592185974119,31.40850830078125,-37.8408432006836,-0.007150337100028993,0.2771370410919189,0.03057384490966797,989.8085327148438,0,13.0,1,1
12.4,0.020835996000000002,-0.14694425,9.780842999999999,-8.258933667093514e-05,-0.0008809202117845416,-5.9048266848549254e-05,2.1947894096374507,31.46088409423828,-37.60530090332031,0.012272140011191368,0.28914692997932434,0.02587127685546875,989.8162841796876,0,13.0,1,1
12.44,0.011270046,-0.14932743,9.773741000000001,-8.252821862697601e-05,0.0001843333448050544,0.00020729383686557407,2.380200862884521,30.2651481628418,-38.02581024169922,0.017156317830085754,0.2931324243545532,0.04008388519287109,989.8035888671876,0,13.0,1,1
12.48,0.016043514,-0.14217743,9.77374,-0.0002156251575797796,-0.00034830829827114934,0.0006067937938496469,2.059976100921631,31.018760681152344,-37.86659240722656,0.007769232615828514,0.2725767493247986,0.035369873046875,989.7882690429688,0,13.0,1,1
12.52,0.016037166000000002,-0.14456055,9.76427,0.00045022577978670597,-0.0004814761923626065,-0.00032528556766919786,2.4272685050964355,30.62519836425781,-37.90016174316406,-0.0017580632120370865,0.285554438829422,0.030653953552246094,989.8162231445312,0,13.0,1,1
12.56,0.011251032,-0.14456043,9.787942,0.0005834447219967843,-0.0003483281470835209,-0.00032525943242944777,2.3796591758728027,30.63343811035156,-38.124267578125,0.007568433880805968,0.2604457139968872,0.02593708038330078,989.7908325195312,0,13.0,1,1
12.6,0.023194164,-0.15171012,9.766637,0.0003171899588778615,0.001515873009338975,-0.0003252332971896976,1.9131255149841309,30.6707763671875,-38.20852279663086,0.0073955077677965156,0.2732649147510529,0.03542613983154297,989.8060913085938,0,13.0,1,1
12.64,0.03035748,-0.14932668,9.769003999999999,-8.222274482250214e-05,0.00031744170701131225,-0.00032520698732696474,1.9435868263244631,31.12053680419922,-37.931602478027344,-0.016755767166614532,0.2810858488082886,0.040183067321777344,989.8162231445312,0,13.0,1,1
12.68,0.011231929,-0.13979337,9.7548,-8.216104470193386e-05,-8.204211189877242e-05,-5.8864738093689084e-05,1.5717291831970217,31.50968933105469,-37.666114807128906,0.007264019921422005,0.25542378425598145,0.05914497375488281,989.8162841796876,0,13.0,1,1
12.72,0.013615519,-0.15409294,9.761901,0.0010136057389900088,-0.00027175302966497844,-0.0003772267373278737,1.7297778129577637,31.49969482421875,-37.766868591308594,-0.0022060703486204147,0.259507417678833,0.05441856384277344,989.7986450195312,0,13.0,1,1
12.76,0.018830776,-0.13980386,9.771409,-5.159672582522034e-05,-0.00013860496983397752,-0.0005103585426695645,2.1828570365905757,30.448673248291016,-37.31327819824219,0.006186049431562425,0.2477472722530365,0.04489898681640625,989.8087768554688,0,13.0,1,1
12.8,0.019292831,-0.13743195,9.778553,0.0002126671024598181,0.0005275178118608892,0.00015455184620805082,2.0122294425964355,30.92108917236328,-37.39161682128906,0.001839352771639824,0.2377513945102692,0.02596378326416016,989.8087768554688,0,13.0,1,1
12.84,0.019322038,-0.1398159,9.771455,0.00021020203712396324,-0.0017359573394060135,0.00014937325613573194,2.3584885597229004,30.718730926513672,-37.741065979003906,0.0020659901201725006,0.2600129842758179,0.040183067321777344,989.8037719726562,0,13.0,1,1
12.88,0.0145713985,-0.12313372,9.757254,-5.639498704113066e-05,-0.00013801628665532914,-0.0002502209972590208,1.989675045013428,31.110824584960934,-37.63019561767578,0.011454315856099129,0.2397012710571289,0.05913352966308594,989.8087768554688,0,13.0,1,1
12.92,0.021770297999999997,-0.13981739,9.766725,0.0008754292502999307,-0.00013797063729725778,1.5974335838109255e-05,2.259247303009033,30.36250305175781,-37.85890197753906,-0.002750584855675697,0.2480086088180542,0.02600383758544922,989.8088989257812,0,13.0,1,1
12.96,0.014629781000000001,-0.14696800000000002,9.771462,-5.695750587619841e-05,0.0006610226701013744,0.00014901172835379842,2.615342617034912,30.3269157409668,-37.44978332519531,0.0016757119446992874,0.2653111219406128,0.04496002197265625,989.814208984375,0,13.0,1,1
13.0,0.019438743999999997,-0.1350523,9.773831,-5.751990829594433e-05,-0.0004041495849378407,1.5612778952345252e-05,1.6930880546569824,30.93812561035156,-37.035499572753906,0.0065576937049627295,0.2441157102584839,0.03551197052001953,989.7964477539062,0,13.0,1,1
13.04,0.026637554,-0.14220288,9.764366,-5.751990829594433e-05,-0.0004041495849378407,1.5612778952345252e-05,1.6930880546569824,30.93812561035156,-37.035499572753906,0.006394712254405022,0.2432098686695099,0.06392669677734375,989.7964477539062,0,13.0,1,1
13.08,0.014717281,-0.15412,9.78094,-0.000457274989457801,0.000394843693356961,0.0006812819046899676,1.8077960014343264,30.30865478515625,-38.01713562011719,-0.0030255671590566635,0.2610020637512207,0.04026603698730469,989.8268432617188,0,13.0,1,1
13.12,0.019526243000000002,-0.13505444,9.769105999999999,0.00047454956802539533,-4.584496309689712e-06,0.0004148455918766558,1.890431880950928,30.754600524902344,-37.74802780151367,0.0064145512878894815,0.2351926863193512,0.04501914978027344,989.7916870117188,0,13.0,1,1
13.16,0.0076059103,-0.12790534,9.773843,0.00020795254386030138,-0.00027085462352260947,1.525122206658125e-05,1.957690715789795,30.65958404541016,-37.82981872558594,0.020545413717627525,0.2436021566390991,0.0450286865234375,989.8117065429688,0,13.0,1,1
13.2,0.0052452087,-0.15888867,9.764377,0.0004739870491903275,0.00026182265719398856,-0.00011802726658061148,2.3415865898132324,30.176307678222656,-38.01466369628906,0.015545746311545372,0.2706447243690491,0.03557395935058594,989.8167114257812,0,13.0,1,1
13.24,0.017223895,-0.14697298,9.78095,-0.00019208379671908915,0.0002618683793116361,0.00014816812472417948,2.1375880241394043,30.30193328857422,-38.91439056396485,0.006366467103362083,0.2498859018087387,0.007182121276855469,989.8045654296876,0,13.0,1,1
13.28,0.014863163,-0.14935699,9.778584500000001,-0.00019208379671908915,0.0002618683793116361,0.00014816812472417948,2.1375880241394043,30.30193328857422,-38.91439056396485,0.0017538294196128845,0.24922916293144226,0.02138996124267578,989.8045654296876,0,13.0,1,1
13.32,0.007722616,-0.15889081,9.778588000000001,-0.0007249967893585563,-0.0010696654208004477,0.001080153277143836,1.962256908416748,30.66400909423828,-38.06172943115234,0.011381907388567923,0.26237696409225464,0.0308685302734375,989.7968139648438,0,13.0,1,1
13.36,0.019701332,-0.15889153,9.76202,0.000206546246772632,0.00012884738680440933,-0.0005179831641726196,2.233106136322021,30.91758728027344,-38.04132080078125,0.011838087812066078,0.26515024900436396,0.040352821350097656,989.79443359375,0,13.0,1,1
13.4,0.014950693000000001,-0.13267615,9.773858,0.000206546246772632,0.00012884738680440933,-0.0005179831641726196,2.233106136322021,30.91758728027344,-38.04132080078125,0.007052898406982422,0.2264765501022339,0.03088855743408203,989.79443359375,0,13.0,1,1
13.44,0.012589931499999998,-0.13506013,9.766760000000001,0.0003394230443518609,-0.001202686340548098,-0.00038494571344926953,1.7052645683288574,30.94990539550781,-37.65393447875977,0.0025404319167137146,0.2250533401966095,0.05457115173339844,989.7994995117188,0,13.0,1,1
13.48,0.0054494143,-0.13744414,9.773864,7.282613660208881e-05,-0.0002705351216718554,0.0006801972631365062,1.955625057220459,31.026405334472656,-37.85095977783203,0.02162799797952175,0.2332382500171661,0.045113563537597656,989.8068237304688,0,13.0,1,1
13.52,0.0174281,-0.15174451,9.759664,-6.0613179812207825e-05,-0.0006699632504023613,1.4287070371210575e-05,1.833690166473389,30.75399780273437,-37.50829315185547,0.002759210765361786,0.25049930810928345,0.04986095428466797,989.8147583007812,0,13.0,1,1
13.56,0.012677491,-0.15412852,9.757299,-0.00046036826097406447,-0.00040360179264098406,-0.00011899141827598213,1.8790755271911619,30.58635711669922,-38.429290771484375,0.01234188862144947,0.2444519400596619,0.040401458740234375,989.80712890625,0,13.0,1,1
13.6,0.0007571578,-0.13744625,9.778605,-0.0007272463990375401,0.0002622792380861938,-0.00038554827915504575,1.8086371421813965,30.57250213623047,-37.493812561035156,0.021745828911662102,0.21860037744045255,0.030948638916015625,989.8095703125,0,13.0,1,1
13.64,0.012735844,-0.13506368,9.766772,0.0002045778965111822,-0.00027030688943341374,0.0008127526380121707,1.354576587677002,31.253761291503906,-37.771644592285156,0.016929686069488525,0.2179231345653534,0.04042243957519531,989.8020629882812,0,13.0,1,1
13.68,0.007985234,-0.15174738,9.766776,-0.0003283351252321154,0.0003955284773837775,-0.0003857892588712275,2.3986258506774902,30.809043884277344,-37.82952117919922,0.002443132922053337,0.2448928952217102,0.04990291595458984,989.8020629882812,0,13.0,1,1
13.72,0.01996392,-0.14698151,9.769146000000001,0.002334542572498321,-0.0014686371432617307,-0.0003859098651446402,2.3600096702575684,30.72020721435547,-37.81837463378906,0.002810657024383545,0.2357090413570404,0.0309600830078125,989.799560546875,0,13.0,1,1
13.76,0.016682565,-0.14219314,9.771432,-0.0005952132632955909,0.0010614093625918029,0.00014660140732303262,1.9790205955505369,31.100513458251953,-37.08905792236328,0.0034238584339618683,0.237413302063942,0.03580188751220703,989.8706665039062,0,13.0,1,1
13.8,0.021454751,-0.14219289999999998,9.766696000000001,-0.0008562926668673754,-0.0004041779902763665,0.00041516157216392463,2.028289318084717,31.19966125488281,-37.64134216308594,0.0035520419478416447,0.2272298485040665,0.040541648864746094,989.8553466796876,0,13.0,1,1
13.84,0.01188755,-0.14219281,9.766696000000001,-0.00045350080472417176,0.00012791517656296492,0.00041658349800854916,2.2937331199646,31.18497467041016,-37.9123420715332,0.017538296058773994,0.23533427715301514,0.06422805786132812,989.7592163085938,0,13.0,1,1
13.88,0.016659707,-0.13265947,9.76196,0.004872890189290047,-0.002668413333594799,-0.0007818065932951868,2.1265521049499507,31.18613052368164,-37.347755432128906,0.0039290934801101685,0.20689967274665835,0.045289039611816406,989.7871704101562,0,13.0,1,1
13.92,0.0070925057,-0.15887532,9.773796,-0.003649144899100065,0.002657892182469368,0.0006829622434452176,2.1467432975769043,30.73107147216797,-37.55519485473633,0.012804763391613959,0.23777376115322116,0.035841941833496094,989.9216918945312,0,13.0,1,1
13.96,0.016644508,-0.13980892,9.766694000000001,-0.000985912629403174,-0.0001384364877594635,0.0009493096149526538,2.252479076385498,30.61898422241211,-36.94905853271485,0.003093123435974121,0.22203952074050906,0.050057411193847656,989.7973022460938,0,13.0,1,1
14.0,0.021416723999999998,-0.14457521,9.776162,-0.00018689167336560783,0.0005273413262329996,0.00028355125687085087,2.2163634300231934,30.901382446289066,-37.19096755981445,0.0030196886509656906,0.2254337966442108,0.031133651733398438,989.7416381835938,0,13.0,1,1
14.04,0.011849463000000001,-0.14695838,9.761958,-0.0008526080055162312,-0.00027161819161847234,0.0002835827472154051,1.7275748252868652,31.76059341430664,-37.08893585205078,0.012983670458197594,0.23329658806324005,0.054818153381347656,989.792236328125,0,13.0,1,1
14.08,0.0070620775,-0.15172473,9.771426,-0.00045306075480766594,-0.001336893648840487,1.7298298189416528e-05,1.8645596504211424,30.72955322265625,-36.433841705322266,0.022887924686074257,0.2131662666797638,0.04062366485595703,989.8330078125,0,13.0,1,1
14.12,0.01661408,-0.14457476,9.771425,0.00034596023033373063,-0.00027164196944795554,-0.0006484599434770644,1.7492871284484863,31.3070068359375,-37.373680114746094,-0.0056301020085811615,0.22105813026428225,0.02643299102783203,989.8228759765624,0,13.0,1,1
14.16,0.035725683,-0.15172437,9.778526,-0.0005860719829797745,-0.00013849601964466274,-0.000914744392503053,2.170276165008545,30.911094665527344,-37.49237060546875,-0.010687485337257384,0.215215265750885,0.02644252777099609,989.8228759765624,0,13.0,1,1
14.2,0.030938208,-0.1350412,9.764322,0.0006124228239059447,0.000527281838003546,0.00015055056428536773,2.036305904388428,30.732818603515625,-37.23033905029297,-0.001279415562748909,0.19964173436164856,0.050124168395996094,989.8128662109376,0,13.0,1,1
14.24,0.018981129,-0.13980761,9.743016,-0.0007173994090408088,-0.0001974912447622046,-0.0005560684949159622,2.3524012565612797,30.71283721923828,-37.43184661865234,-0.005993770435452461,0.20293352007865906,0.05487060546875,989.7852172851562,1,1.0,2,2
14.28,0.016583622,-0.13980737,9.761953,-0.0007173994090408088,-0.0001974912447622046,-0.0005560684949159622,2.3524012565612797,30.71283721923828,-37.43184661865234,0.0034949854016304016,0.21175168454647064,0.05487537384033203,989.7852172851562,1,1.0,2,2
14.32,0.009406328,-0.14219055,9.761952,-0.0005840946687385441,0.0016666961601004007,-0.00015653172158636153,2.509768009185791,30.965221405029297,-36.931976318359375,0.021748563274741173,0.2054473459720612,0.054889678955078125,989.7930908203124,1,1.0,2,2
14.36,0.01895833,-0.13265717,9.766686,-0.0005840946687385441,0.0016666961601004007,-0.00015653172158636153,2.509768009185791,30.965221405029297,-36.931976318359375,0.007379896938800813,0.19535231590271,0.04069042205810547,989.7930908203124,1,1.0,2,2
14.4,0.03329009,-0.14219019,9.7714205,-0.00018454750534147024,0.00020194688113406298,0.0002429734740871936,1.981086254119873,30.73369598388672,-37.06791687011719,-0.006900859996676445,0.22277909517288208,0.04543399810791016,989.7877197265624,1,1.0,2,2
14.44,0.026112795,-0.14218995,9.769052,-0.00018454750534147024,0.00020194688113406298,0.0002429734740871936,1.7827935218811035,31.75971984863281,-37.251365661621094,0.0079744067043066,0.20257468521595,0.040706634521484375,989.7877197265624,1,1.0,2,2
14.48,0.028495073,-0.14218977,9.761950500000001,-0.00018440070562064648,-0.0015291300369426608,0.0007756680715829134,2.150491237640381,30.891948699951172,-36.487403869628906,-0.0205665472894907,0.2108946144580841,0.05018329620361328,989.8007202148438,1,1.0,2,2
14.52,0.03326729,-0.16840568,9.785621,-0.00018440070562064648,-0.0015291300369426608,0.0007756680715829134,2.108426570892334,31.27436828613281,-37.11917114257813,-0.039264194667339325,0.2333294749259949,0.012317657470703123,989.8007202148438,1,1.0,2,2
14.56,0.1097365,-0.33761820000000003,10.069685,0.0006146200466901064,-0.0001975626655621454,-0.0010885116644203665,2.275468349456787,31.16729736328125,-36.98468017578125,0.05099868774414063,0.2203086018562317,0.036040306091308594,989.8057250976562,1,1.0,2,2
14.6,0.19337547,-0.4281827,10.083888,-0.004178992006927729,0.004063479602336884,-0.06673534959554672,1.7105345726013184,31.11225891113281,-36.6634521484375,-0.4264295101165772,0.44196417927742,-0.8870248794555664,989.8158569335938,1,1.0,2,2
14.64,-0.15316793,-0.032558187999999995,8.860044,-0.10444684326648712,-0.035750757902860635,-0.14423322677612305,1.782357692718506,31.02166748046875,-36.97715759277344,0.12254466116428375,0.05618240684270859,1.2800893783569336,989.7523803710938,1,1.0,2,2
14.68,0.04757625,0.46793047,11.153861000000001,-0.1437283754348755,0.33283042907714844,0.2316716760396957,3.113860607147217,30.74081420898437,-37.1659049987793,0.008568599820137024,-1.3439408540725708,-2.086456298828125,989.7119750976562,1,1.0,2,2
14.72,0.6546036999999999,-0.5378128000000001,9.757211,-0.42056366801261896,-0.17703135311603546,0.3132975101470947,2.5084376335144043,32.702232360839844,-36.80245971679688,-0.6463257670402527,-0.6261543035507202,-0.06104183197021485,989.732177734375,1,1.0,2,2
14.76,-0.32287377,-1.7127689,9.629382000000001,-0.8144447803497314,-0.17343609035015106,-0.007879409939050673,1.8227086067199707,33.27075958251953,-35.19036865234375,0.15065956115722656,0.10334968566894533,0.046573638916015625,989.75244140625,1,1.0,2,2
14.8,-0.016973972,-2.09171,10.663849,-1.2619885206222534,0.035222377628088,-0.3329178988933563,1.221437931060791,34.91884613037109,-32.96160888671875,-0.026372762396931648,0.830623984336853,-0.2584371566772461,989.795654296875,1,1.0,2,2
14.84,0.22678846,-3.076004,7.2361383,-1.2771685123443604,0.050136055797338486,-0.2604799568653107,1.0368671417236328,36.37843322753906,-32.017776489257805,-0.8302394151687622,0.8214707374572754,1.2142171859741209,989.782958984375,1,1.0,2,2
14.88,-0.02415888,-2.4396684,9.690927,-1.0535961389541626,0.3687829673290253,-0.002819314831867814,1.2375760078430176,37.25028991699219,-30.63701629638672,-0.5827690362930298,0.8351986408233643,3.8543620109558105,989.805908203125,1,1.0,2,2
14.92,-1.3888004999999999,-3.3810629999999997,9.662519999999999,-1.2484062910079956,-1.6309829950332642,0.8063815236091614,1.1351218223571775,39.94441223144531,-27.699501037597656,2.247365951538086,-0.4433596134185791,-1.870586395263672,989.8692626953124,1,1.0,2,2
14.96,0.24349493,-3.2047002,9.655417,-0.6519916653633118,0.1329602599143982,0.07068396359682083,1.0009055137634275,40.766563415527344,-27.11104965209961,0.06682996451854706,0.253629207611084,-0.028276443481445312,989.9252319335938,1,1.0,2,2
15.0,0.40122086,-3.9387498,8.706168,-0.6397410035133362,0.0999370738863945,-0.3025577068328857,0.5713267326354979,40.78535461425781,-26.43007850646973,-0.5830947160720825,0.4928481578826904,0.3202362060546875,989.9149780273438,1,1.0,2,2
15.04,-0.35160586,-3.4597108,9.293234,-0.9514636397361756,-0.04214246943593025,0.12021876871585845,0.6213216781616211,41.46273422241211,-23.93693542480469,0.26841562986373896,-0.24041318893432614,0.08242988586425781,989.8719482421876,1,1.0,2,2
15.08,-0.35400343,-4.1603947,9.17014,-0.7583846449851991,-0.07157038897275925,0.17015303671360016,0.7255892753601074,42.98173904418945,-22.502201080322266,0.35685938596725464,0.008102893829345703,-0.6961088180541992,989.8591918945312,1,1.0,2,2
15.12,-0.13652994,-4.382039,8.045717999999999,-1.2868883609771729,0.12896546721458435,-0.2616781294345856,0.29562807083129883,43.89503479003906,-20.795730590820312,0.4550098776817322,-0.3740301132202149,0.703425407409668,989.8566284179688,1,1.0,2,2
15.16,0.5732633,-4.9373426,7.929723299999999,-1.0349535942077637,0.26718339323997503,-0.5000308752059937,0.04749345779418945,43.97793960571289,-19.453611373901367,-0.6055347323417664,0.2902412414550781,0.4238138198852539,989.8087158203124,1,1.0,2,2
15.2,0.542187,-4.949259,7.9912696,-0.4968622326850891,-0.10126464068889618,0.17854207754135132,0.1967072486877441,44.59124755859375,-18.66566467285156,-0.3700710535049439,0.2199234962463379,0.4386329650878906,989.8211669921876,1,1.0,2,2
15.24,0.08570811,-3.5788736000000005,8.897908000000001,0.19729021191596985,-0.4647858738899231,0.7920007109642029,1.1859731674194336,44.88545608520508,-18.835323333740234,0.3392896950244904,-0.9865739345550536,-0.2530040740966797,989.7908935546876,1,1.0,2,2
15.28,0.38682818,-5.883504,8.706164,0.57186359167099,-0.4517363607883453,0.8078465461730957,2.090238094329834,44.46840286254883,-19.72010612487793,-0.4541752934455872,0.9459280967712402,-0.11455154418945312,989.85693359375,1,1.0,2,2
15.32,0.02116555,-4.5512505,7.195887,0.6733300089836121,-0.08435361832380295,0.5272827744483948,2.7896876335144043,44.33343505859375,-20.204912185668945,-0.4519436359405518,0.8373541831970215,1.6459813117980957,989.9175415039062,1,1.0,2,2
15.36,0.04266706,-3.3596117,11.362164,0.5665374398231506,-0.13854891061782834,0.4914633333683014,3.1162772178649902,43.79753875732422,-22.07150650024414,0.5422298312187195,-0.7740068435668945,-1.106220245361328,989.8668212890624,1,1.0,2,2
15.4,0.047439218,-4.1723094,10.862683,0.5962316989898682,-1.1842381954193115,0.3545770049095154,3.075435161590576,43.54930114746094,-23.20545196533203,-0.10230419039726256,0.6699273586273193,-3.0590744018554688,989.8645629882812,1,1.0,2,2
15.44,-0.38514066,-2.0178256,8.999694,0.981191337108612,-0.015910487622022632,-0.25741681456565857,2.082561016082764,43.20013046264648,-24.802661895751953,1.1511162519454956,-1.2712817192077637,0.5702581405639648,990.044677734375,1,1.0,2,2
15.48,0.9890454,-2.649394,9.376078999999999,0.7425724267959595,-0.1393478959798813,0.04178910329937935,2.127890110015869,41.39992141723633,-26.47494697570801,-0.3713667988777161,-0.15693211555480954,-0.7984523773193359,989.96826171875,1,1.0,2,2
15.52,1.0607347,-1.6793995,11.849805,1.3867905139923096,-1.0416260957717896,-0.06140827015042305,-0.02281427383422852,40.86213684082031,-27.95968818664551,0.380959153175354,-0.8077731132507324,-1.4702396392822266,989.9632568359376,1,1.0,2,2
15.56,0.99858975,-1.5721519,10.666203,0.9831889867782592,-1.177979826927185,-0.15381984412670135,-2.303088665008545,39.62428283691406,-30.53826141357422,-0.29599833488464355,-0.6663364171981812,-1.3773279190063477,989.897216796875,1,1.0,2,2
15.6,0.11909824599999999,-2.4944801,10.479192999999999,0.481183648109436,0.3883569836616516,-0.1450313925743103,-3.178053855895996,39.17481231689453,-32.14777374267578,1.0636714696884155,0.6545178890228271,-1.1084966659545898,989.8768920898438,1,1.0,2,2
15.64,1.3355507,-0.8857671999999999,10.545474,0.9349859356880188,-0.11511319875717164,-0.12039713561534883,-3.738337993621826,37.5975341796875,-33.508827209472656,0.24142539501190186,-0.7052040100097656,-0.933218002319336,989.884521484375,1,1.0,2,2
15.68,1.5941507,-1.6794109,12.330389,1.12806499004364,-0.5091275572776794,-0.0367739237844944,-4.4138946533203125,36.59771728515625,-35.809722900390625,-0.1076369285583496,0.4898961782455444,-2.320075035095215,989.9454956054688,1,1.0,2,2
15.72,1.7738991999999998,-0.7332618000000001,10.768083,1.116612195968628,-0.0634477436542511,-0.3317192494869232,-5.6818037033081055,35.096046447753906,-38.220924377441406,-0.4090230464935303,0.5095396637916565,-1.5914573669433594,989.8845825195312,1,1.0,2,2
15.76,1.2481337,-1.0478549000000001,10.846202,1.239112377166748,0.5257754921913147,-0.315745621919632,-5.806750774383545,31.66148376464844,-39.92530822753906,-0.31047964096069336,0.6895238161087036,-0.5676040649414062,989.882080078125,1,1.0,2,2
15.8,0.51444656,-1.0407054,11.601339,1.239112377166748,0.5257754921913147,-0.315745621919632,-6.387279510498048,28.90670394897461,-41.830223083496094,0.42397284507751465,2.0314924716949463,-2.0147047042846684,989.882080078125,1,1.0,2,2
15.84,-0.24552935,-0.0373455,10.820165,1.477864384651184,-0.0679757222533226,-0.6425152420997621,-6.732094764709473,27.05767059326172,-44.13238906860352,0.6472519636154175,0.878447413444519,-1.727712631225586,989.7753295898438,1,1.0,2,2
15.88,-0.22878718,0.15093319,9.913527499999999,0.8172678351402283,1.0553447008132937,-0.6142858266830444,-4.641846179962158,24.27476501464844,-45.6773681640625,0.4423651695251465,0.7795539498329163,0.3745098114013672,989.8743286132812,1,1.0,2,2
15.92,-0.4677645,0.44407615,9.892223,0.9138071537017822,1.1518841981887815,-0.3371842205524445,-3.1886534690856934,20.89527130126953,-47.01228332519531,0.4925444424152374,1.6384466886520386,-0.9928226470947266,989.821044921875,1,1.0,2,2
15.96,-0.6254852,1.156676,8.043439,1.215542912483215,0.21192234754562375,-0.3988363742828369,-2.7847273349761963,19.43071746826172,-48.52851867675781,0.5281083583831787,0.7874933481216431,1.8421282768249512,989.7880249023438,1,1.0,2,2
16.0,0.11061746,1.5475335,10.91249,0.7514874339103699,0.9127326011657716,-0.21174952387809756,-1.7926077842712402,17.989391326904297,-48.90499877929688,0.34959691762924194,0.7505269050598145,-0.9597082138061525,989.7651977539062,1,1.0,2,2
16.04,0.26597393,2.0361052,9.927735,1.0221973657608032,-0.27450358867645264,-0.1024269089102745,-3.246970891952514,14.889168739318848,-48.57646942138672,0.29844212532043457,0.9091978073120116,-1.0689096450805664,989.6485595703124,1,1.0,2,2
16.08,0.3329041,2.3054154,8.540555,1.311549425125122,-1.3874375820159912,-0.05395747348666191,-4.587170124053955,11.5277681350708,-49.32802200317383,0.1710498332977295,0.929560661315918,0.6036596298217773,989.72216796875,1,1.0,2,2
16.12,0.12260556,1.5117833999999999,11.246267999999999,1.0291212797164917,-0.28342512249946594,-0.02719278074800968,-4.850845336914063,10.543501853942873,-49.46075057983398,0.4040353894233704,1.3948670625686646,-1.2081480026245115,989.7930908203124,1,1.0,2,2
16.16,0.007903159,2.2410662,9.089748,0.593561589717865,-0.03868081793189049,-0.03957652300596237,-5.328767776489258,9.200337409973145,-49.154541015625,1.2263940572738647,1.8469959497451784,-1.066059112548828,989.6867065429688,1,1.0,2,2
16.2,-0.21912472,2.8845509999999996,7.7593820000000004,1.397302746772766,-0.13269028067588806,0.08119762688875197,-5.651793479919434,4.579115867614746,-50.29705810546875,1.1059441566467283,1.0714364051818848,1.0280165672302246,989.9044189453124,1,1.0,2,2
16.24,-0.66841346,3.230126,8.635249,1.397302746772766,-0.13269028067588806,0.08119762688875197,-5.651793479919434,4.579115867614746,-50.29705810546875,1.261997938156128,1.1057584285736084,-0.3175754547119141,989.9044189453124,1,1.0,2,2
16.28,-0.584754,3.3492897000000004,6.994777,0.4695911407470703,0.6694531440734863,0.22607341408729556,-4.998461723327637,3.241593360900879,-50.01153564453125,1.7213194370269775,1.6048707962036133,1.6649084091186523,989.764892578125,1,1.0,2,2
16.32,0.47398543,4.347883,7.5818449999999995,1.1835838556289673,-0.5944819450378418,0.4512433707714081,-6.409131050109862,-1.345919132232666,-48.7558822631836,0.8583325147628784,0.7375259399414062,0.8556537628173828,989.70361328125,1,1.0,2,2
16.36,0.67714,3.9117427000000005,8.942988,0.9462962150573729,-1.011798858642578,0.4397917687892914,-8.325109481811522,-2.1396837234497066,-47.567359924316406,1.1367509365081787,1.3984317779541016,-0.6438264846801758,989.7418212890624,1,1.0,2,2
16.4,1.6163841,4.517094999999999,8.502689,1.0743939876556396,-1.1915621757507324,0.42660906910896296,-10.738245010375977,-3.872094631195069,-47.863975524902344,0.37614285945892334,1.0106534957885742,-0.5197510719299316,989.6763916015624,1,1.0,2,2
16.44,2.1039371,5.1176805,6.521342,1.0526891946792605,-0.6337634921073914,0.5781428217887878,-11.943035125732422,-5.527100563049316,-47.50450134277344,0.3513293266296387,0.9012165069580078,0.7906970977783203,989.7702026367188,1,1.0,2,2
16.48,2.2664633,4.8173876,7.110776400000001,0.9347110986709596,-0.6948829889297485,0.518887460231781,-13.146440505981445,-7.2865562438964835,-46.52324676513672,0.4720916748046875,1.1982488632202148,-0.06798219680786133,989.7572631835938,1,1.0,2,2
16.52,2.5150259999999998,4.8865023,6.5166097,0.7616056203842163,-0.6783713698387146,0.4845325946807861,-14.547052383422852,-8.756561279296875,-45.52854919433594,0.693291425704956,1.460303783416748,0.24796247482299805,989.7467651367188,1,1.0,2,2
16.56,2.6895017999999995,5.6348515,5.5602612,0.5643986463546753,-0.3906170129776001,0.6806742548942566,-15.294111251831055,-8.613347053527832,-45.26783752441406,0.5133512020111084,0.5555205345153809,1.1708660125732422,989.7088012695312,1,1.0,2,2
16.6,2.3573183999999996,5.444189,5.269097,0.424049973487854,-0.2211069762706757,0.782539963722229,-15.76784896850586,-9.05757999420166,-44.16804504394531,1.1712627410888672,0.7695684432983398,1.0651006698608398,989.6934814453124,1,1.0,2,2
16.64,2.209157,4.869818700000001,4.996869599999999,0.4144624769687653,-0.2457411587238312,0.9159641861915588,-16.65012550354004,-8.882284164428711,-44.966156005859375,2.127172470092773,1.385206699371338,1.4767861366271973,989.74658203125,1,1.0,2,2
16.68,3.5144625,4.8817244,5.2573,0.029236458241939545,-0.3128527402877808,1.376557469367981,-17.697357177734375,-8.546425819396973,-44.05459213256836,0.7961754798889159,0.7527222633361816,0.9129695892333984,989.7213134765624,1,1.0,2,2
16.72,3.8227887000000003,4.0976253,3.997951,0.7184598445892334,-1.3951600790023804,1.5231634378433228,-20.163976669311523,-8.117700576782228,-42.39085388183594,1.7111692428588867,1.7103767395019531,1.7325949668884275,989.746826171875,1,1.0,2,2
16.76,5.5913453,4.166739499999999,4.2417755,0.7281824350357056,-1.3707945346832275,1.7391424179077148,-23.29531288146973,-7.73196268081665,-40.622154235839844,1.0793519020080566,1.6625759601593018,1.4330077171325684,989.6806640625,1,1.0,2,2
16.8,6.7552566999999994,3.7758812999999996,5.0679317,0.5311083793640137,-1.271458625793457,1.904124975204468,-25.754430770874023,-6.189531803131104,-39.71759796142578,-0.1921548843383789,1.0289273262023926,-0.08560514450073242,989.67041015625,1,1.0,2,2
16.84,7.0110054,3.1538447999999994,4.305695500000001,0.6815765500068665,-1.2441611289978027,1.6857458353042605,-27.953105926513672,-5.404259204864502,-38.57791137695313,0.5946178436279297,1.9836218357086184,-0.3041505813598633,989.7059326171876,1,1.0,2,2
16.88,7.728005400000001,3.04183,3.2002144,0.9948969483375548,-1.1325746774673462,1.7588493824005127,-29.78875541687012,-4.384842872619629,-36.81501007080078,-0.0481719970703125,1.13901948928833,0.5100908279418945,989.6904296875,1,1.0,2,2
16.92,8.318339,2.6914873,2.1184056,0.9924997687339784,-0.8054057955741882,1.7438023090362549,-31.774301528930664,-3.716354370117188,-35.23942565917969,-0.02295970916748047,1.460804462432861,1.38930344581604,989.7110595703124,1,1.0,2,2
16.96,7.876237,1.9216876,1.5834208,0.8505531549453735,-0.3715771436691284,1.7917391061782837,-32.99186325073242,-2.2759485244750977,-33.9813232421875,0.494009017944336,1.3026201725006104,1.437355875968933,989.7284545898438,1,1.0,2,2
17.0,9.532469,1.7286415000000002,1.9811131999999998,0.9181970953941344,-0.3846265971660614,1.726891040802002,-33.34986114501953,-1.3473234176635742,-33.287635803222656,-0.10854434967041016,1.5639587640762331,1.4335074424743652,989.7437133789062,1,1.0,2,2
17.04,9.403443,1.087539,2.3930092,0.5458871722221375,0.1859552562236786,1.849795699119568,-33.555030822753906,1.0415258407592771,-32.93389129638672,-1.1172351837158203,0.9942305088043212,0.924384832382202,989.774169921875,1,1.0,2,2
17.08,9.276807000000002,0.63948184,1.6710151000000002,-0.010446918196976185,1.0209888219833374,1.6702988147735596,-31.7652530670166,2.1906042098999023,-33.122955322265625,0.2540321350097656,1.3901352882385254,2.017333507537842,989.761474609375,1,1.0,2,2
17.12,9.532557,0.31535527,1.9124724999999998,0.12484126538038255,0.6996787190437317,1.694133996963501,-30.88345718383789,4.808110237121582,-34.56676483154297,-1.0751285552978516,0.6086856126785278,2.0739002227783203,989.7713623046876,1,1.0,2,2
17.16,10.610432000000001,-0.068353266,3.4487894,0.12484126538038255,0.6996787190437317,1.694133996963501,-28.92150115966797,6.698508262634277,-35.8265380859375,-0.938690185546875,0.9198756217956544,1.5629229545593262,989.7713623046876,1,1.0,2,2
17.2,10.916367999999999,-0.23995,5.333085,-0.280625194311142,0.274105966091156,1.4034500122070312,-25.538715362548828,10.02415943145752,-36.46542739868164,-1.7515487670898438,0.4933914542198181,-0.6876120567321777,989.7816772460938,1,1.0,2,2
17.24,10.180308,-0.95493424,3.4132867,-0.280625194311142,0.274105966091156,1.4034500122070312,-25.538715362548828,10.02415943145752,-36.46542739868164,-1.4976282119750977,0.7103922367095947,0.7865262031555176,989.7816772460938,1,1.0,2,2
17.28,9.85292,-1.305277,4.2323413,-0.7057988047599792,1.1983553171157837,1.1163612604141235,-23.11448860168457,12.504931449890135,-36.984153747558594,-1.820037841796875,0.14655178785324094,1.3750107288360596,989.776611328125,1,1.0,2,2
17.32,9.895967500000001,-1.6317866,5.2407727,-0.509257972240448,1.154280185699463,0.9573705792427064,-22.53938865661621,14.571141242980955,-37.19367218017578,-0.5144624710083008,1.0338451862335205,-0.6787014007568359,989.8018188476562,1,1.0,2,2
17.36,11.038369,-0.61412764,5.588753700000001,-0.2686418294906616,-0.6935526728630066,0.8005103468894958,-23.047422409057614,15.042912483215332,-35.98822784423828,-2.9341211318969727,-1.007393479347229,-1.2260146141052246,989.79931640625,1,1.0,2,2
17.4,8.882707,-1.8486667,4.1637006,-0.5306972265243529,0.3444136083126068,0.6220784187316895,-21.577571868896484,17.577743530273438,-35.593204498291016,-0.23560142517089844,0.306766152381897,1.229320764541626,989.7813110351562,1,1.0,2,2
17.44,7.632817299999999,-2.2848072,3.3399167000000003,-0.5306972265243529,0.3444136083126068,0.6220784187316895,-21.577571868896484,17.577743530273438,-35.593204498291016,0.2629413604736328,0.27771711349487305,1.7899792194366455,989.7813110351562,1,1.0,2,2
17.48,7.444044,-2.63515,3.6145150000000004,-0.6662523746490479,1.2269845008850098,0.2673456072807312,-19.901033401489254,17.72519302368164,-35.62923049926758,1.0924887657165527,0.5862305164337158,1.6755411624908447,989.814208984375,1,1.0,2,2
17.52,9.198262,-1.9511497,5.2975984,-0.5971435904502869,0.7123290896415709,0.2693428695201874,-18.65045547485352,18.738353729248047,-36.11217498779297,-0.9133853912353516,-0.3791759014129639,0.10498809814453124,989.7964477539062,1,1.0,2,2
17.56,8.889994999999999,-2.4158897,5.633744,-0.42297324538230896,-0.10938850790262222,0.5309981107711792,-18.001605987548828,20.24123764038086,-35.91517639160156,-1.2539420127868652,-0.6347391605377197,-0.8423252105712891,989.7966918945312,1,1.0,2,2
17.6,8.120475,-2.8281977000000005,4.4525122999999995,-0.9963518977165222,0.826711893081665,0.3666809499263763,-16.001934051513672,23.90357208251953,-34.43602752685547,-0.4413108825683594,-0.22496414184570312,0.4892992973327637,989.8012084960938,1,1.0,2,2
17.64,7.2888174,-3.4526176,4.154247799999999,-0.6516063213348389,0.649878203868866,0.1993013173341751,-14.341156005859375,24.40458679199219,-33.79745483398437,0.10158491134643556,-0.02701997756958008,1.2224082946777344,989.7962036132812,1,1.0,2,2
17.68,7.8467693,-3.2237911,5.264348,-0.7967488169670105,0.4946160912513733,0.16920748353004456,-13.440861701965332,25.24739074707031,-33.60057830810547,0.08313751220703125,-0.2220005989074707,0.4930853843688965,989.7885131835938,1,1.0,2,2
17.72,8.272149,-3.7576447,6.620753,-1.0618587732315063,0.43269798159599293,0.3046354949474335,-12.018077850341795,27.42217254638672,-33.33119964599609,-1.1684627532958984,-0.36525893211364746,-1.2642569541931152,989.8136596679688,1,1.0,2,2
17.76,7.4523896999999995,-4.491693499999999,6.204123,-1.2028712034225464,0.5986124277114868,0.13392777740955353,-11.418634414672852,28.719989776611328,-31.88284683227539,-0.3416571617126465,0.4270486831665039,-1.1185445785522459,989.8264770507812,1,1.0,2,2
17.8,7.297022999999999,-4.308180999999999,5.330623,-0.6133809685707092,0.3376228809356689,0.08718942105770111,-10.511845588684082,29.09447860717773,-31.197662353515625,-0.3194293975830078,0.012805461883544922,-0.23938798904418945,989.8289794921876,1,1.0,2,2
17.84,6.7138643,-4.5655746,4.918728400000001,-0.6593201756477356,0.6208498477935791,0.160160094499588,-9.38814926147461,30.72531890869141,-30.08053207397461,0.09840583801269533,0.02730131149291992,0.5149450302124023,989.8136596679688,1,1.0,2,2
17.88,6.128315,-4.9778814,5.4182057,-0.8571926951408386,0.7480156421661377,0.1488417536020279,-8.233905792236326,31.279281616210934,-30.1368408203125,0.5416164398193359,0.22055339813232425,0.12845325469970706,989.8009643554688,1,1.0,2,2
17.92,6.2692966,-5.251958,5.5270953,-0.7808929085731506,0.5927534103393555,0.1400534212589264,-7.024580955505371,31.72644424438477,-29.65650177001953,0.3369994163513184,0.3749852180480957,0.030889511108398438,989.806396484375,1,1.0,2,2
17.96,5.798463,-5.42117,4.8666434,-0.5907431840896606,0.459062784910202,0.18812352418899536,-6.071268081665039,32.829269409179695,-28.944122314453125,0.596743106842041,0.4006080627441406,0.4232311248779297,989.8264770507812,1,1.0,2,2
18.0,5.5570602,-5.6642637,5.018142,-0.4771592319011688,0.31565168499946594,0.2049015313386917,-5.493997097015381,33.42232131958008,-28.75984191894531,0.7308659553527832,0.4387640953063965,0.3327903747558594,989.8361206054688,1,1.0,2,2
18.04,5.4160330000000005,-5.673796,4.1044,-0.4935374557971954,0.28302791714668274,0.28146740794181824,-4.65087890625,33.526473999023445,-28.049030303955078,0.784733772277832,0.1759510040283203,0.9792199134826659,989.8238525390624,1,1.0,2,2
18.08,5.1387815,-6.2624655,3.3634633999999997,-0.5071193575859071,0.3924837112426758,0.31302595138549805,-3.371933460235596,34.143951416015625,-27.2044620513916,0.8645358085632324,0.6810908317565918,1.957950592041016,989.828857421875,1,1.0,2,2
18.12,4.916498000000001,-7.137128,3.9789343,-0.7962050437927246,0.2663831114768982,0.3023734390735626,-2.25364351272583,35.506526947021484,-26.37873458862305,1.167921543121338,1.2142395973205566,0.6113314628601074,989.7908325195312,1,1.0,2,2
18.16,4.9164753,-7.8735610000000005,4.7364364000000005,-1.1393526792526243,-0.14880336821079254,0.3957172334194183,-1.2470698356628418,35.86895751953125,-25.47727203369141,1.1001338958740234,1.437767505645752,0.06618547439575195,989.8158569335938,1,1.0,2,2
18.2,5.0622362999999995,-8.312083,5.257219,-1.117914080619812,-0.6613283157348633,0.6151615381240845,-0.23563194274902344,36.86793518066406,-24.382850646972656,0.7377324104309082,1.6161365509033203,-1.2427735328674316,989.7852172851562,1,1.0,2,2
18.24,4.8590717,-8.714856,3.7090669000000003,-0.8860859274864197,-0.9388294816017152,0.8537807464599609,0.672457218170166,38.66462707519531,-21.625526428222656,0.9277896881103516,1.685659885406494,-0.44671082496643066,989.8257446289062,1,1.0,2,2
18.28,5.7624319999999996,-8.204835000000001,3.2474601,-0.5973992943763733,-0.9601348042488098,1.1693650484085083,1.6498456001281738,39.579193115234375,-20.751873016357425,0.05619096755981445,1.075185775756836,0.3645596504211426,989.7953491210938,1,1.0,2,2
18.32,6.2403892999999995,-7.706728999999999,4.5470524,-0.5794227123260498,-1.449357271194458,1.5238316059112549,3.7348170280456543,40.21345520019531,-19.26264953613281,-1.0491499900817869,-0.08841896057128906,-1.4445829391479492,989.80810546875,1,1.0,2,2
18.36,6.577342999999999,-7.277738,5.3282266,-0.314171701669693,-1.745633602142334,1.455921292304993,6.7113566398620605,41.207481384277344,-16.315193176269528,-2.0975961685180664,-1.345254898071289,-3.5748953819274902,989.8385620117188,1,1.0,2,2
18.4,7.277561,-6.9083295,6.111769000000001,0.2638671100139618,-1.3508203029632568,0.8962585330009459,7.801494121551514,40.75304412841797,-16.071666717529293,-2.681715965270996,-1.37870454788208,-3.9211771488189697,989.8382568359376,1,1.0,2,2
18.44,7.1030755,-7.237221000000001,5.0110173,0.2638671100139618,-1.3508203029632568,0.8962585330009459,7.801494121551514,40.75304412841797,-16.071666717529293,-2.653313159942627,-1.1442852020263672,-3.3157200813293457,989.8382568359376,1,1.0,2,2
18.48,6.369353,-7.530364,3.706687,0.2638671100139618,-1.3508203029632568,0.8962585330009459,8.060007095336914,40.46862030029297,-16.556766510009766,-2.1277284622192383,-1.16563081741333,-1.7666246891021729,989.8382568359376,1,1.0,2,2
18.52,5.320163,-8.295396,3.3468704,0.3550805151462555,-0.1425452083349228,0.2863953113555908,8.696626663208008,40.32716369628906,-16.492622375488278,-0.96022367477417,-0.16265010833740234,-0.9815101623535156,989.8382568359376,1,1.0,2,2
18.56,4.564931400000001,-8.848315,2.560957,0.13031014800071716,0.8205861449241638,-0.2843195199966431,7.905684947967528,40.21918487548828,-17.211250305175778,-0.057559013366699226,0.5387096405029297,-0.19246792793273929,989.8206176757812,1,1.0,2,2
18.6,4.4239044000000005,-8.595689,2.269789,0.04721981659531593,1.0337719917297363,-0.5423795580863953,7.481790065765381,40.71807098388672,-17.637025833129886,0.3944377899169922,0.565190315246582,0.641754150390625,989.8204956054688,1,1.0,2,2
18.64,4.667525,-8.652883000000001,2.5206988,0.27239012718200684,0.7508113384246826,-0.5197426080703735,7.106587886810303,40.47213745117188,-17.641803741455078,0.14911937713623047,0.7204065322875977,0.5263273715972899,989.8154907226562,1,1.0,2,2
18.68,5.1883669999999995,-7.4707726999999995,2.1040568,0.3493556380271912,0.1717073619365692,-0.3343866169452667,6.5528502464294425,40.05911254882813,-17.763259887695312,-0.135955810546875,-0.008005142211914062,0.5125923156738281,989.7979125976562,1,1.0,2,2
18.72,4.815509,-8.133322999999999,2.8757617000000004,0.21326903998851776,0.09527457505464554,-0.247567281126976,6.3493971824646,39.816444396972656,-18.564537048339844,0.07344532012939453,0.18122100830078125,0.5311417579650879,989.7748413085938,1,1.0,2,2
18.76,5.0472965,-7.8902282999999995,4.492558,-0.24759294092655185,-0.05985180661082268,-0.2885763347148895,5.461872577667236,40.249698638916016,-18.530107498168945,0.014246463775634766,-0.09561920166015624,-1.7634439468383791,989.904052734375,1,1.0,2,2
18.8,4.275325,-8.078505499999999,3.5267362999999996,-0.24759294092655185,-0.05985180661082268,-0.2885763347148895,5.461872577667236,40.249698638916016,-18.530107498168945,0.8569908142089844,0.09097003936767578,-0.7072117328643799,989.904052734375,1,1.0,2,2
18.84,5.1284876,-7.6137667,3.5575069999999998,-0.13400889933109286,-0.027228163555264476,-0.11680245399475098,5.259664058685303,39.796669006347656,-18.01053237915039,0.007801055908203125,-0.15892744064331055,-0.6353898048400879,989.911376953125,1,1.0,2,2
18.88,5.2742379999999995,-7.802045,2.681639,0.3090078830718994,-0.043473482131958015,-0.02545596100389957,4.7651686668396,39.7554817199707,-18.62478256225586,-0.19060754776000974,0.018583297729492188,0.4020884037017822,989.7188110351562,1,1.0,2,2
