Timestamp,Ax,Ay,Az,Gx,Gy,Gz,Mx,My,Mz,LiAx,LiAy,LiAz,P,Value,Type,GroupType
0.0,0.02477333,-0.13989112,9.769366999999999,0.00011680126772262156,0.004889313597232103,-0.0004604125570040196,-6.68187427520752,28.1718692779541,-36.837547302246094,0.0002474617213010788,0.0010692179203033447,0.058606147766113274,990.0169067382812,0,0.0,0
0.04,0.00086420774,-0.13750759,9.769366,-0.0002608063514344394,0.0015940655721351506,2.188433427363634e-05,7.909543037414551,27.55651664733887,-34.35398101806641,0.01856249198317528,-0.008646458387374878,0.04913616180419922,989.8631591796876,0,0.0,0
0.08,0.022363156000000002,-0.1446571,9.781201,-0.0002608063514344394,0.0015940655721351506,2.188433427363634e-05,7.909543037414551,27.55651664733887,-34.35398101806641,-0.019371828064322468,0.005584925413131714,0.01599407196044922,989.8631591796876,0,0.0,0
0.12,0.017573178000000002,-0.13274041,9.771730999999999,0.00013876536104362458,-0.0006696352502331138,-0.0005107054603286088,7.591382026672362,27.943315505981445,-34.173622131347656,-0.005246475338935852,-0.00866779685020447,0.030200958251953125,989.8785400390624,0,0.0,0
0.16,0.024732768999999998,-0.13035691,9.778832000000001,-0.00039367092540487647,0.00026243858155794436,-0.0009100954048335552,7.594287872314452,27.84034538269043,-33.629154205322266,-0.019715430215001103,-0.004184484481811523,0.01599407196044922,989.8836669921876,0,0.0,0
0.2,0.0056034327,-0.13512322,9.771728999999999,-0.0002604150795377791,0.0005287386011332273,0.00015520991291850803,7.445073127746582,27.22704124450684,-34.417098999023445,-0.000704597681760788,0.0010142922401428225,0.03020477294921875,989.9039306640624,0,0.0,0
0.24,0.007983148,-0.13512298,9.781198,0.0005386302364058793,-3.909079168806784e-06,-0.0001110640005208552,7.694754600524902,27.56590843200684,-34.01349639892578,0.00828981027007103,0.0009171068668365481,0.03020477294921875,989.8760375976562,0,0.0,0
0.28,0.015142738999999999,-0.14227259,9.771728,0.0005386302364058793,-3.909079168806784e-06,-0.0001110640005208552,7.694754600524902,27.56590843200684,-34.01349639892578,-0.001341918483376503,0.005402490496635437,0.025468826293945312,989.8760375976562,0,0.0,0
0.32,0.017522454,-0.14227238,9.776461999999999,6.194037268869579e-06,0.0006618489278480412,-0.0005104540614411235,7.556215286254883,27.38321876525879,-33.519554138183594,-0.0015065483748912813,0.00996263325214386,0.03966999053955078,989.8963623046876,0,0.0,0
0.36,0.015122413999999999,-0.14703867,9.776461,6.194037268869579e-06,0.0006618489278480412,-0.0005104540614411235,7.556215286254883,27.38321876525879,-33.519554138183594,0.007852071896195412,-0.004218831658363342,0.03493785858154297,989.8963623046876,0,0.0,0
0.4,0.012722373,-0.13988861,9.766991,-0.00039318198105320334,0.0003955170977860689,-0.0010430439142510297,7.676872253417969,26.65373039245605,-34.11133575439453,0.012571671977639198,0.005333662033081055,0.05387783050537109,989.8961181640624,0,0.0,0
0.44,0.02466172,-0.12320545,9.771724,0.0004058634513057768,-3.972569174948149e-06,0.0004217353707645088,7.3511314392089835,28.245420455932614,-34.616180419921875,-0.015921182930469513,-0.00904799997806549,0.04440784454345703,989.891357421875,0,0.0,0
0.48,0.022261708999999998,-0.14227137,9.783559,-0.0005260464386083187,-0.0005366361001506448,0.00015550333773717284,7.870192527770996,26.097492218017575,-34.49349975585937,-0.01569962315261364,0.014531314373016356,0.025467872619628903,989.9064331054688,0,0.0,0
0.52,0.021544874,-0.13033745,9.76929,-0.00012600036279764026,-0.0002693870337679982,2.621667226776481e-05,7.167593002319336,27.33585929870605,-34.22673797607422,-0.009978268295526505,0.00012168288230895996,0.030264854431152344,989.8885498046876,0,0.0,0
0.56,0.021506786,-0.14225286,9.785857,-0.00012600036279764026,-0.0002693870337679982,2.621667226776481e-05,7.167593002319336,27.33585929870605,-34.22673797607422,-0.00037037581205368037,0.005285948514938354,0.035007476806640625,989.8885498046876,0,0.0,0
0.6,0.026248515,-0.14225191,9.766916,0.0005434356862679124,-0.00026997894747182727,-0.0011706420918926597,7.559939384460449,27.12379264831543,-34.274791717529304,-0.02384467981755733,0.009901955723762512,0.0444793701171875,989.88623046875,0,0.0,0
0.64,0.014260948,-0.1374844,9.764545,-0.00038830284029245377,-0.00027003855211660266,0.0013595160562545061,7.503199577331543,27.12318992614746,-34.03505706787109,0.009472336620092392,0.00987359881401062,0.03974723815917969,989.8887329101562,0,0.0,0
0.68,0.021392614,-0.1446333,9.778746,0.00041101162787526846,-0.0002700980403460562,0.0009601993951946496,7.486051559448242,27.58119773864746,-33.98223114013672,-0.009408261626958849,0.005231127142906189,0.02081394195556641,989.89111328125,0,0.0,0
0.72,0.021354556,-0.13509926,9.778742,0.00042940911953337485,-0.0002741989155765623,0.0002946405438706279,7.184632301330566,27.98420524597168,-34.6522216796875,-0.00939485803246498,-0.01392132043838501,0.02555084228515625,989.8809814453124,0,0.0,0
0.76,0.15993077,-0.25902882,9.762167999999999,-0.0005023296689614654,0.00025837330031208694,2.8481852496042854e-05,7.394719123840332,27.86446952819824,-34.06171417236328,-0.004439536482095718,0.000306054949760437,0.05395984649658203,989.9013061523438,0,0.0,0
0.8,-0.17947333,0.11753008,9.792938000000001,3.066894714720547e-05,-8.002158210729249e-06,-0.0034334673546254635,6.860629081726074,27.36468315124512,-34.489059448242195,0.09120520204305647,-0.1919136494398117,0.020792007446289062,989.8887329101562,0,0.0,0
0.84,-0.110204265,0.2938936,9.7882,-0.006760019343346357,0.007315624970942736,-1.5150423049926758,5.500185966491699,27.19724464416504,-34.654544830322266,0.2064387947320938,-0.4437604248523712,0.006588935852050781,989.8861694335938,0,0.0,0
0.88,-0.0074765086,0.1747306,9.800033,-0.007691758219152689,0.008114513009786606,-1.6667091846466064,3.835982322692871,27.58779335021973,-34.11301422119141,0.024242755025625232,-0.13225795328617096,0.01607227325439453,989.9038696289062,0,0.0,0
0.92,0.12870985,-0.48305318,9.776357,-0.0023650734219700102,0.005983926821500063,-1.257514476776123,2.675543785095215,28.13429069519043,-34.120140075683594,0.01728380098938942,-0.0640360563993454,0.001867294311523437,989.8935546875,0,0.0,0
0.96,0.41068017,-0.6975473000000001,9.766885,-0.009954708628356457,0.009579131379723549,-2.095743417739868,0.7446203231811523,27.53762626647949,-33.556724548339844,-0.407159835100174,0.6612681746482849,0.05384635925292969,989.883544921875,0,0.0,0
1.0,0.04737705,-0.058827788,9.785819,-0.010353815741837023,0.012375388294458391,-2.462327480316162,-1.1734237670898438,27.11067771911621,-32.38935089111328,-0.053435087203979485,0.003553107380867005,0.0064544677734375,989.90869140625,0,0.0,0
1.04,0.16205429999999998,-0.39963564,9.762143,-0.008089764043688774,0.009712169878184795,-2.2572638988494877,-3.696263551712036,26.75021171569824,-32.21045684814453,-0.09106127917766572,0.3522095084190369,0.05851554870605469,989.9064331054688,0,0.0,0
1.08,0.04013124,-0.15892366,9.795281,-0.00515992334112525,0.010377900674939156,-2.4986791610717773,-6.222147464752197,26.386796951293945,-31.87694549560547,0.16519716382026672,-0.053843244910240166,0.03957176208496094,989.901123046875,0,0.0,0
1.12,-0.074622124,-0.004009679,9.790544,-0.008222187869250773,0.010777314193546772,-2.416653633117676,-7.821785926818848,24.572620391845703,-31.216350555419922,0.1151278167963028,-0.11293479800224306,0.006451606750488281,989.8960571289062,0,0.0,0
1.16,0.08785319,-0.16368839,9.759767,-0.003028662176802755,0.00664935912936926,-1.5339492559432983,-9.317180633544922,23.85714912414551,-30.944049835205078,0.000558905303478241,0.04923298954963684,0.06326675415039062,989.8934936523438,0,0.0,0
1.2,0.06869584,-0.14700446,9.76213,-0.0006314524216577411,-0.0001417556923115626,-0.1592266857624054,-8.801514625549316,23.81304168701172,-30.71299743652344,0.0005529150366783142,0.016070157289505,0.04433727264404297,989.9136352539062,0,0.0,0
1.24,0.07104772,-0.15891989999999998,9.762126,0.00016786207561381159,0.0005239744205027819,-0.02273963950574398,-8.656620979309082,23.4215030670166,-30.019554138183594,0.00034680217504501343,0.034765958786010735,0.03960132598876953,989.8909301757812,0,0.0,0
1.28,0.09729856,-0.16845211,9.771592,0.00016822890029288828,0.0009233886958099903,-0.02606843039393425,-8.827112197875977,23.999834060668945,-30.79696655273437,-0.023816175758838654,0.034914061427116394,0.025406837463378903,989.8907470703124,0,0.0,0
1.32,0.09487063,-0.15415147,9.759751,0.00016859572497196496,0.0009233292075805367,-0.03432406485080719,-8.954590797424316,23.35324478149414,-30.046630859375,-0.0045106709003448495,0.030269742012023926,0.058551788330078125,989.8958129882812,0,0.0,0
1.36,0.08527294,-0.14223412,9.7692175,0.0009679103968665004,0.0003906379279214889,-0.01994284987449646,-9.259895324707033,23.48945426940918,-31.08533477783203,0.014844708144664763,0.020576611161231998,0.039612770080566406,989.8856811523438,0,0.0,0
1.4,0.08284497,-0.15414968,9.759746,-0.0006296181818470359,-0.0005415271152742207,-0.002365845255553723,-8.965948104858398,23.18500328063965,-30.72789001464844,-0.008990630507469177,0.02017498016357422,0.06328201293945312,989.8930053710938,0,0.0,0
1.44,0.07563725,-0.15891531,9.776313,-0.00036293533048592513,0.000257360894465819,0.0010964181274175644,-9.093534469604492,23.64476203918457,-30.35021209716797,0.00026201456785202026,0.034287288784980774,0.01594257354736328,989.9110107421876,0,0.0,0
1.48,0.09052455400000001,-0.15892872,9.766894,-9.625274105928838e-05,0.0007899330812506378,0.0004307855851948261,-9.009673118591307,23.46003723144531,-30.58327865600586,-0.01896119862794876,0.019855454564094543,0.034882545471191406,989.9080200195312,0,0.0,0
1.52,0.081548095,-0.15655970000000002,9.771682,-0.0011729594552889464,0.000259989668847993,-0.00010311187361367048,-9.166742324829102,23.83979415893555,-30.65827941894531,-0.010496392846107485,0.028870806097984317,0.039504051208496094,989.9029541015624,0,0.0,0
1.56,0.083946854,-0.15655997,9.769314999999999,-0.0011729594552889464,0.000259989668847993,-0.00010311187361367048,-9.166742324829102,23.83979415893555,-30.65827941894531,0.00872783362865448,0.03343793749809265,0.0442352294921875,989.9029541015624,0,0.0,0
1.6,0.083955735,-0.14702705,9.759847,-0.00010917216422967613,-0.001071350066922605,0.00029572914354503155,-8.913772583007812,23.181182861328125,-30.735706329345703,-0.0005396828055381775,0.023403778672218326,0.05369281768798828,989.905517578125,0,0.0,0
1.64,0.09113431,-0.15656042,9.771684,-0.0006418894045054913,0.0002602432214189321,0.00016253464855253696,-9.363405227661133,23.76094627380371,-30.54637908935547,-0.010496973991394043,0.027843981981277462,0.025284767150878903,989.9181518554688,0,0.0,0
1.68,0.08875328,-0.16132715,9.76695,-0.00024250123533420265,0.00039341504452750087,0.00029565588920377195,-9.003286361694336,24.09806632995605,-30.467628479003906,-0.0201483890414238,0.028007015585899356,0.030022621154785163,989.8928833007812,0,0.0,0
1.72,0.09354198,-0.16847720000000002,9.762216,0.0005563609302043915,0.0003934288979507983,0.0004287771298550069,-8.950132369995117,24.46401023864746,-30.65119934082031,0.0032870471477508545,0.02307167649269104,0.04895973205566406,989.9005126953124,0,0.0,0
1.76,0.076821506,-0.16609415,9.774054,-0.0007753896061331034,-6.0171278164489195e-06,-0.00010392794501967728,-9.284652709960938,23.940095901489254,-30.645980834960934,0.0030814185738563533,0.02736833691596985,0.020546913146972656,989.8928833007812,0,0.0,0
1.8,0.08639005,-0.15656126,9.771686,-0.0007753896061331034,-6.0171278164489195e-06,-0.00010392794501967728,-9.284652709960938,23.940095901489254,-30.645980834960934,-0.01125478744506836,0.0320984423160553,0.044219970703125,989.8928833007812,0,0.0,0
1.84,0.08639887,-0.16371134,9.762217999999999,0.0001565449929330498,0.0009261162485927343,0.0008281043265014888,-8.972143173217773,24.28545570373535,-30.79132843017578,-0.011559173464775084,0.03664486110210419,0.03474903106689453,989.92041015625,0,0.0,0
1.88,0.08640778,-0.14226207,9.774056,0.0002896172518376261,-0.00027229139232076705,2.912001218646765e-05,-9.246877670288086,23.76508712768555,-31.180450439453125,-0.01153835654258728,0.02240823209285736,0.01581096649169922,989.9281005859376,0,0.0,0
1.92,0.08402675400000001,-0.16371176,9.774056,0.0002896172518376261,-0.00027229139232076705,2.912001218646765e-05,-9.229433059692383,23.939218521118164,-30.80840301513672,0.002780549228191376,0.026881411671638492,0.053680419921875,989.9281005859376,0,0.0,0
1.96,0.07686591,-0.15656209,9.776424,-0.00037625801633112127,-0.0002722774224821478,0.00016224128194153312,-8.77385139465332,23.259431838989254,-30.607879638671875,0.01284598559141159,0.02663977444171905,0.04893970489501953,989.9102172851562,0,0.0,0
2.0,0.0792647,-0.15656233,9.771691,-0.0005095014348626137,-0.0013375270646065474,-0.00037042718031443655,-9.05880355834961,23.46680450439453,-30.73007202148437,0.00823306292295456,0.026424720883369446,0.05366706848144531,989.9000244140624,0,0.0,0
2.04,0.09122306,-0.15417928,9.766957000000001,0.000821992289274931,-0.000405407598009333,-0.0009030954679474237,-9.45473861694336,24.044219970703125,-30.62586212158203,-0.025024428963661197,0.030839771032333374,0.03472423553466797,989.930419921875,0,0.0,0
2.08,0.07928246,-0.15417951,9.771692,-0.000642830622382462,-5.919935574638657e-06,0.0005616050912067294,-9.336828231811523,23.94391441345215,-30.63816070556641,0.013026542961597444,0.021130353212356567,0.044190406799316406,989.9049072265624,0,0.0,0
2.12,0.088850975,-0.15179649,9.776427,0.00015603160136379302,-0.0004053798038512468,0.00016209459863603115,-9.191361427307127,24.39634895324707,-30.918006896972656,-0.0010190382599830627,0.011567339301109314,0.04892158508300781,989.93017578125,0,0.0,0
2.16,0.08169007,-0.15179667,9.764592,-0.000643001520074904,0.00026042372337542474,0.0004283738671801984,-9.13962173461914,23.65447425842285,-30.651615142822266,0.008697427809238434,0.030251771211624142,0.058382987976074226,989.8999633789062,0,0.0,0
2.2,0.08647877,-0.15418011,9.769328,-0.0005099292611703278,-0.000671667861752212,0.00016202128608711064,-9.070842742919922,23.56093788146973,-30.81070709228516,-0.010488830506801605,0.034943372011184685,0.044178009033203125,989.9021606445312,0,0.0,0
2.24,0.09843719,-0.16848001,9.771696,0.00028893272974528367,0.00012729356240015477,0.0006946163484826684,-8.897712707519531,23.459760665893555,-30.985435485839844,-0.005617782473564148,0.03941908478736877,0.04890632629394531,989.8947143554688,0,0.0,0
2.28,0.09127632,-0.15656388,9.781165,-0.00011062654084526001,-5.850450179423205e-06,0.0006945796776562929,-8.973122596740723,23.91569328308105,-30.61557006835937,-0.005208812654018402,0.02498127520084381,0.02996349334716797,989.8941650390624,0,0.0,0
2.32,0.08172560000000001,-0.15894738,9.776432000000002,0.00015560377505607903,-0.0004053103912156075,0.0002950692432932556,-9.090489387512207,23.64770317077637,-30.50482177734375,-0.009795926511287691,0.043895438313484185,0.01101970672607422,989.899658203125,0,0.0,0
2.36,0.086514294,-0.15656433,9.766964,0.00015551820979453623,-0.0009379283292219043,0.000561348395422101,-8.939509391784668,23.262060165405273,-30.12059783935547,-0.014566510915756226,0.02500869333744049,0.029959678649902344,989.9047241210938,0,0.0,0
2.4,0.09608275,-0.1684809,9.759863000000001,2.2274820366874334e-05,-0.00013896673044655472,0.00029499590164050465,-8.985160827636719,24.009824752807614,-30.69621276855469,-0.01921309530735016,0.03914538025856018,0.048892974853515625,989.9046630859376,0,0.0,0
2.44,0.09609166,-0.16133127,9.774067,0.00028850490343756974,-0.00013895284791942686,-0.00023767261882312599,-8.969237327575684,24.18248748779297,-30.24686050415039,-0.02434021234512329,0.019927546381950382,0.02995586395263672,989.899658203125,0,0.0,0
2.48,0.08622241,-0.16847357,9.785874,-0.00024316387134604161,0.0002603647008072585,2.9055954655632373e-05,-9.013259887695312,23.825380325317386,-30.527118682861328,0.004429742693901062,0.033909976482391364,0.029982566833496094,989.88134765625,0,0.0,0
2.52,0.08382875,-0.15179047,9.766936,0.0005576721159741282,0.00012690018047578633,0.00016302321455441415,-9.27413558959961,23.8444881439209,-30.488037109375,-0.009424209594726562,0.01018163561820984,0.011042594909667969,989.8793334960938,0,0.0,0
2.56,0.081435025,-0.13987395,9.781138,0.0005576721159741282,0.00012690018047578633,0.00016302321455441415,-9.27413558959961,23.8444881439209,-30.488037109375,0.004981890320777893,0.010154545307159424,0.029979705810546875,989.8793334960938,0,0.0,0
2.6,0.08143121,-0.15417358,9.766936,-0.00050751818343997,0.0005263620987534523,-0.0003695771156344563,-8.96649169921875,23.55329704284668,-30.82633972167969,1.389533281326294e-05,0.028984233736991882,0.03471183776855469,989.9068603515624,0,0.0,0
2.64,0.08620721,-0.15894005,9.776404,-0.00050751818343997,0.0005263620987534523,-0.0003695771156344563,-8.96649169921875,23.55329704284668,-30.82633972167969,-0.014308519661426544,0.02874591946601868,0.02050495147705078,989.9068603515624,0,0.0,0
2.68,0.09098321,-0.1565567,9.771668,0.0001583451230544597,-0.00013943956582807004,-0.0005027035949751736,-9.251443862915039,23.76066780090332,-30.94853210449219,-0.014203742146492003,0.0335271954536438,0.044178009033203125,989.9267578125,0,0.0,0
2.72,0.08858949,-0.16370642,9.783505,0.0001583451230544597,-0.00013943956582807004,-0.0005027035949751736,-9.251443862915039,23.76066780090332,-30.94853210449219,0.004719018936157226,0.02429845929145813,0.03944873809814453,989.9267578125,0,0.0,0
2.76,0.08141598,-0.15417323,9.774036,0.0008241713512688875,0.0002600283187348396,0.0008288915269076824,-9.539579391479492,23.859174728393555,-30.217041015625,0.009515300393104551,0.024176597595214844,0.034712791442871094,989.8838500976562,0,0.0,0
2.8,0.09336167599999999,-0.1541731,9.764567,0.00015841846470721066,0.00026002241065725684,0.0004294334212318063,-9.371420860290527,24.2277889251709,-30.95738220214844,-0.014422178268432615,0.02876095473766327,0.03944587707519531,989.9015502929688,0,0.0,0
2.84,0.09096795,-0.14702323,9.774036,2.5297194952145222e-05,-6.299449523794465e-06,-0.0006358143873512745,-8.937849044799805,23.369447708129886,-30.8969841003418,-0.019122950732707974,0.018927201628685,0.03470611572265625,989.9063720703124,0,0.0,0
2.88,0.0909642,-0.15417293,9.771668,2.537065302021801e-05,-0.0009384170407429338,0.0010952703887596726,-9.33171844482422,23.58004570007324,-30.771625518798828,-0.01890379935503006,0.02350008487701416,0.039437294006347656,989.891357421875,0,0.0,0
2.92,0.088570476,-0.15893939,9.771666999999999,2.537065302021801e-05,-0.0009384170407429338,0.0010952703887596726,-9.33171844482422,23.58004570007324,-30.771625518798828,0.00480155646800995,0.02348986268043518,0.0441741943359375,989.891357421875,0,0.0,0
2.96,0.07661715,-0.14463964,9.762198,-0.00010771417873911558,-0.00013948125706519932,0.0005626699421554804,-9.372941970825195,24.22631454467773,-30.88007354736328,0.005050316452980042,0.0090007483959198,0.04417037963867188,989.8983154296876,0,0.0,0
3.0,0.079003245,-0.16370574,9.771666999999999,-0.00010771417873911558,-0.00013948125706519932,0.0005626699421554804,-9.372941970825195,24.22631454467773,-30.88007354736328,-0.004043169319629668,0.03263765573501587,0.020490646362304688,989.8983154296876,0,0.0,0
3.04,0.08616918,-0.15178931,9.762198,2.548089832998812e-05,-0.001471066614612937,-0.0002362618979532272,-8.953612327575684,23.72300910949707,-30.222381591796875,-0.018577426671981808,0.01842218637466431,0.029964447021484375,989.88818359375,0,0.0,0
3.08,0.08855522,-0.15893903,9.771666999999999,0.0002918698883149773,0.0001268167688976973,3.0085444450378418e-05,-9.212285995483398,23.48121833801269,-30.86123275756836,-0.004311583936214447,0.018534794449806213,0.03943443298339844,989.8856201171876,0,0.0,0
3.12,0.08138174,-0.15417233,9.769299,0.0002918698883149773,0.0001268167688976973,3.0085444450378418e-05,-9.212285995483398,23.48121833801269,-30.86123275756836,0.014681018888950346,0.02330690622329712,0.05363941192626953,989.8856201171876,0,0.0,0
3.16,0.08854765,-0.16132215,9.781135,0.0002918698883149773,0.0001268167688976973,3.0085444450378418e-05,-9.460145950317383,23.77595329284668,-30.917266845703125,0.0003516674041748047,0.037543952465057366,0.02523231506347656,989.8856201171876,0,0.0,0
3.2,0.08854383,-0.15655544,9.771664999999999,0.0007733599049970508,0.00042952754301950336,-0.0005538939731195568,-9.143208503723145,24.019819259643555,-30.59545516967773,0.0051177963614463815,0.018554240465164185,0.048905372619628906,989.9362182617188,0,0.0,0
3.24,0.08137029400000001,-0.14463899,9.774033,0.0006402387516573071,0.0001632057101232931,0.0002450694446451962,-8.882331848144531,24.00071144104004,-30.634536743164066,0.0003151819109916687,0.01360289752483368,0.048903465270996094,989.9284057617188,0,0.0,0
3.28,0.08375639,-0.15655527,9.764562,0.0006402387516573071,0.0001632057101232931,0.0002450694446451962,-9.273999214172363,23.95040512084961,-31.187114715576172,0.005155377089977264,0.018255993723869324,0.044167518615722656,989.9284057617188,0,0.0,0
3.32,0.09570211,-0.15178856,9.776399000000001,-0.0009576198644936084,-0.0006357478559948504,0.0005114010418765247,-9.379327774047852,23.58828544616699,-30.9957275390625,0.00027451664209365845,0.027774915099143985,0.04417037963867188,989.9234619140624,0,0.0,0
3.36,0.086138666,-0.15178853,9.771664999999999,0.0005071540363132954,0.0005626676720567048,-0.0002875308564398438,-9.57859992980957,24.24454689025879,-31.00341796875,0.0001772269606590271,0.022958382964134216,0.03943538665771485,989.898193359375,0,0.0,0
3.4,0.08613491,-0.15417174,9.759828,-0.00015859876293689013,0.0005626617348752916,-2.1199259208515286e-05,-9.207720756530762,23.485633850097656,-31.09314727783203,-0.018774054944515232,0.017929807305336002,0.04416465759277344,989.9130859375,0,0.0,0
3.44,0.09292379,-0.16369548,9.773995,0.00010775379632832481,-0.0006357657839544117,-2.1183514036238197e-05,-9.149456977844238,23.487703323364254,-31.410186767578125,-0.008385270833969116,0.03693106770515442,0.04423332214355469,989.898193359375,0,0.0,0
3.48,0.09252018,-0.15653577,9.771592,0.0005072641652077436,3.0017983590369116e-05,0.0006446219049394131,-8.959860801696777,23.19089698791504,-31.037109375,-0.01309281587600708,0.027097567915916443,0.03476238250732422,989.90283203125,0,0.0,0
3.52,0.07814652,-0.16368476,9.766853999999999,-0.00028938340255990624,-0.0003685752744786441,-0.0002829751465469599,-9.171606063842773,23.203237533569336,-30.85123443603516,-0.008321188390254973,0.027129247784614563,0.034766197204589844,989.9002685546876,0,0.0,0
3.56,0.08528197,-0.14938423,9.76685,0.00024537259014323354,-0.00023576208332087842,-0.0005483806598931551,-8.881650924682617,23.73833656311035,-31.235164642333984,0.005679391324520111,0.017391562461853027,0.04423999786376953,989.8826293945312,0,0.0,0
3.6,0.09002751,-0.15414992,9.764481,-0.0004200870753265917,0.001362079638056457,-0.00028192339232191443,-9.384735107421877,23.32002067565918,-31.287132263183594,-0.00897084176540375,0.007679641246795654,0.053711891174316406,989.9000244140624,0,0.0,0
3.64,0.082823545,-0.14938253,9.778681,-0.0004197569214738906,0.001228868030011654,-1.5466081094928086e-05,-9.101847648620604,23.47946357727051,-31.18608856201172,0.005499303340911865,0.02146342396736145,0.044239044189453125,989.9178466796876,0,0.0,0
3.68,0.089959025,-0.15891483,9.769208,-0.00015311098832171408,-0.00023592285288032144,-0.00041479832725599414,-9.201333999633787,24.1236629486084,-30.977497100830078,-0.009097985923290251,0.025974959135055545,0.034770965576171875,989.9027099609376,0,0.0,0
3.72,0.08036515,-0.15414742,9.776307000000001,-0.00068541249493137,0.00029665528563782573,-1.5183075447566806e-05,-9.070405960083008,24.29899024963379,-31.08491516113281,-0.008877597749233246,0.02114272117614746,0.01583385467529297,989.900146484375,0,0.0,0
3.76,0.085110694,-0.1684463,9.769202,-0.0004187665763311088,0.0010955494362860918,-1.504163083154708e-05,-9.057825088500977,23.83656883239746,-30.90582656860352,0.0009307488799095154,0.040063470602035516,0.04423999786376953,989.887451171875,0,0.0,0
3.8,0.07790673,-0.15176252,9.781035000000001,-1.8962702597491447e-05,-0.001168189221061766,-0.0009470058139413595,-9.302640914916992,24.13425254821777,-31.116477966308594,-0.004012458026409149,0.025631800293922424,0.02056980133056641,989.9097290039062,0,0.0,0
3.84,0.09460181,-0.14699504,9.7691965,0.0006474872934632003,3.0125054763630036e-05,-0.000147775121149607,-9.291038513183594,23.30206680297852,-30.761627197265625,0.0009615197777748108,0.011340036988258362,0.06318187713623047,989.9097290039062,0,0.0,0
3.88,0.08500793599999999,-0.1493775,9.773927,0.00011518558312673123,-0.00023624445020686835,-0.0012128971284255385,-9.345279693603516,23.672704696655273,-30.774959564208984,-0.008668661117553711,0.016177281737327576,0.03004741668701172,989.9146728515624,0,0.0,0
3.92,0.08019388,-0.1589098,9.766824,0.00011518558312673123,-0.00023624445020686835,-0.0012128971284255385,-9.345279693603516,23.672704696655273,-30.774959564208984,0.02015124261379242,0.016124933958053592,0.058452606201171875,989.9146728515624,0,0.0,0
3.96,0.07537985,-0.16844207,9.771554,-0.0005502740968950093,0.00016317579138558358,-0.0002806500997394324,-9.096982955932617,24.11602020263672,-30.99312973022461,-0.0035696700215339656,0.0444454699754715,0.03951454162597656,989.9247436523438,0,0.0,0
4.0,0.08490518,-0.16129139,9.77155,0.00011584589083213359,-0.0003695095656439662,0.0002521231072023511,-9.05575942993164,23.46975135803223,-30.88468170166016,-0.012967504560947418,0.03933718800544739,0.030042648315429688,989.9122314453124,0,0.0,0
4.04,0.08726089999999999,-0.16367379,9.788117999999999,-0.00041645584860816603,-0.0003695631748996675,0.0003854225506074727,-9.469278335571287,23.76711463928223,-30.45343780517578,-0.008013211190700531,0.029519468545913693,0.011101722717285156,989.9044189453124,0,0.0,0
4.08,0.092006445,-0.14937326,9.766810000000001,-0.0005492836353369057,-0.00036961672594770784,-0.00041338359005749226,-9.153181076049805,23.747133255004886,-30.65494537353516,-0.012892290949821472,0.0007323622703552246,0.04424571990966797,989.9046020507812,0,0.0,0
4.12,0.08241257,-0.1565223,9.766807,-0.0002826377167366445,0.00029611936770379543,-0.0002800841466523707,-8.872114181518555,23.272968292236328,-30.901466369628906,0.010642930865287779,0.010157570242881777,0.053719520568847656,989.884033203125,0,0.0,0
4.16,0.08715808400000001,-0.16128802,9.764438,-1.599155075382441e-05,0.0010950133437290788,-0.0008125745225697756,-8.915838241577148,23.54800224304199,-30.756851196289066,0.0011804625391960144,0.02899205684661865,0.04898262023925781,989.9119262695312,0,0.0,0
4.2,0.072784424,-0.15413734,9.769167999999999,-0.00028197740903124213,2.969632623717189e-05,0.00025283056311309343,-8.738142013549805,23.45124244689941,-31.16349792480469,-0.0037032663822174072,0.023982450366020203,0.03004741668701172,989.9169921875,0,0.0,0
4.24,0.08469969,-0.1565198,9.766797,-1.533124304842204e-05,0.0008285903022624552,0.0007856038282625378,-9.04662799835205,23.47859001159668,-31.3485107421875,-0.003950722515583038,0.02398091554641724,0.04899024963378906,989.884033203125,0,0.0,0
4.28,0.07988566,-0.15413567,9.773896,0.0003844723687507212,-0.00023672675888519731,0.00011995552631560713,-8.975486755371094,23.650375366210934,-31.06159210205078,0.015200369060039519,0.014461562037467957,0.04426002502441406,989.8967895507812,0,0.0,0
4.32,0.08702111,-0.15413481,9.780994999999999,-0.00014782899233978242,-0.00010362239845562726,-0.0004125346895307303,-9.249080657958984,24.02598571777344,-30.50251770019531,0.0009095817804336547,0.00960521399974823,0.03479290008544922,989.9017944335938,0,0.0,0
4.36,0.070257515,-0.16128382,9.77389,-1.4341130736283956e-05,0.00016263991710729894,-0.0004123932449147105,-9.282587051391602,23.573278427124023,-30.62483215332031,0.015732891857624054,0.028672799468040463,0.030057907104492188,989.9063110351562,0,0.0,0
4.4,0.08217278,-0.15174988,9.762052,0.000784937001299113,-0.0011689930688589813,-0.0005454096244648099,-9.069022178649902,24.19454765319824,-30.46314239501953,-0.007885374128818512,0.019126400351524356,0.02532291412353516,989.9139404296876,0,0.0,0
4.44,0.09016162,-0.15891981,9.781062,0.00038579286774620414,-0.0006364149739965795,-1.2636490282602608e-05,-8.810508728027344,23.91012382507324,-30.9482421875,-0.008290149271488191,0.02407132089138031,0.0299835205078125,989.908935546875,0,0.0,0
4.48,0.087771714,-0.14462012,9.759758,0.0003851054352708161,-0.0010357771534472704,0.00012022671580780298,-8.695940017700195,23.17473602294922,-31.23080444335937,0.01063452661037445,0.005080312490463257,0.058392524719238274,989.9442138671876,0,0.0,0
4.52,0.08060202,-0.15415326,9.771594,-0.000953454349655658,0.00016377767315134406,0.000516708823852241,-9.460689544677734,24.144245147705078,-31.01572036743164,0.010536625981330872,0.018912076950073242,0.05365180969238281,989.9215087890624,0,0.0,0
4.56,0.08299193,-0.16845295,9.757392,-0.000953454349655658,0.00016377767315134406,0.000516708823852241,-9.460689544677734,24.144245147705078,-31.01572036743164,0.000920027494430542,0.03781688213348389,0.05364990234375,989.9215087890624,0,0.0,0
4.6,0.0829919,-0.16130307,9.778694999999999,0.0002449671155773103,0.00029693549731746316,-1.592295302543789e-05,-9.268049240112305,23.85038185119629,-30.79725646972656,0.01106908917427063,0.013820797204971312,0.0441741943359375,989.8986206054688,0,0.0,0
4.64,0.08299193,-0.16130307,9.783431,0.00011180918954778464,-0.0006351700285449624,-0.0005485547007992864,-9.139484405517578,23.76038932800293,-31.35069274902344,0.006318919360637665,0.027762070298194885,0.0157623291015625,989.9111328125,0,0.0,0
4.68,0.087771714,-0.15653652,9.778694999999999,0.00011180918954778464,-0.0009014859679155053,0.0002503929426893592,-9.15622615814209,23.74418640136719,-30.50033569335937,-0.013004861772060394,0.017852574586868286,0.015758514404296875,989.88330078125,0,0.0,0
4.72,0.085381836,-0.15653655,9.762126,-0.000953454349655658,-0.00023569625045638531,-0.00014908089360687882,-9.000679016113281,23.36295890808105,-30.34803009033203,-0.0032374635338783264,0.012876346707344057,0.04416084289550781,989.89599609375,0,0.0,0
4.76,0.075822204,-0.15891981,9.781062,-0.0011952572967857122,0.00043351249769330025,0.0004648661997634918,-8.527375221252441,23.06913948059082,-31.17361831665039,0.011200517416000366,0.012868985533714294,0.044159889221191406,989.8980712890624,0,0.0,0
4.8,0.09016162,-0.15415326,9.773961,3.164182999171317e-06,-0.0010312249651178718,-0.000733555294573307,-9.056846618652344,24.20633125305176,-31.081584930419922,0.00580800324678421,0.00806795060634613,0.039429664611816406,989.9210815429688,0,0.0,0
4.84,0.08299193,-0.15653655,9.771594,0.0010684276930987835,0.0018982498440891504,0.0001985503186006099,-9.063668251037598,22.830249786376953,-30.92302703857422,0.0007992982864379883,0.026767030358314514,0.04416179656982422,989.8731689453124,0,0.0,0
4.88,0.08299196,-0.14938667,9.773961,-0.00026315171271562576,0.0001671966165304184,-0.00020092350314371288,-8.95086669921875,23.09381866455078,-30.80186462402344,0.015221714973449709,0.012641996145248413,0.04416370391845703,989.8832397460938,0,0.0,0
4.92,0.08060202,-0.14223686,9.766860000000001,-0.0001299937575822696,0.00043351255590096116,-0.00046723938430659473,-9.302640914916992,24.13425254821777,-31.116477966308594,0.00991317629814148,0.0077252984046936035,0.03943061828613281,989.89306640625,0,0.0,0
4.96,0.08060202,-0.15653655,9.766860000000001,-0.0001299937575822696,0.0017650916706770656,-0.0006003973539918661,-8.754202842712402,23.172664642333984,-30.91376495361328,-0.0046849772334098825,0.02224321663379669,0.04417133331298828,989.8829345703124,0,0.0,0
5.0,0.08060205,-0.14938667,9.781064,0.0006689538713544607,-9.911931556416675e-05,0.0001985503186006099,-9.262939453125,23.48650932312012,-30.93072509765625,0.018442273139953613,0.008197635412216188,0.03471088409423828,989.8853759765624,0,0.0,0
5.04,0.085381836,-0.15653655,9.762126,0.00026948004961013794,0.002031407551839948,0.0008643399924039841,-9.285492897033693,23.67624855041504,-31.16930389404297,-0.0005124062299728394,0.0268944650888443,0.03943920135498047,989.8978881835938,0,0.0,0
5.08,0.10211116,-0.14462012,9.762126,0.0010684276930987835,-9.911933011608198e-05,0.0004648661997634918,-9.307642936706543,23.391780853271484,-30.6103515625,-0.014894820749759676,0.007962241768836975,0.05837917327880859,989.92822265625,0,0.0,0
5.12,0.08299193,-0.16368636,9.785797,-0.0009289414156228305,0.00016719655832275748,-6.776556256227195e-05,-9.12606143951416,23.56181526184082,-30.64828491210937,0.0043226033449172965,0.02688811719417572,0.02997112274169922,989.9029541015624,0,0.0,0
5.16,0.06865251,-0.15176997,9.762126,3.164182999171317e-06,3.4038668673019856e-05,6.539237801916897e-05,-9.178236961364746,23.565635681152344,-30.640464782714844,0.009345799684524536,0.012224867939949036,0.04416656494140625,989.9156494140624,0,0.0,0
5.2,0.07821214,-0.15891981,9.773961,-0.0005294675938785076,-0.0006317509687505662,-0.00020092350314371288,-9.097419738769533,23.377967834472656,-30.71892547607422,-0.009923368692398071,0.026354521512985233,0.02522754669189453,989.8851928710938,0,0.0,0
5.24,0.07821211,-0.15176997,9.773962,0.00013632212358061224,0.0003003544989041984,0.0008643399924039841,-9.06421184539795,23.19854164123535,-31.02147674560547,0.003705210983753204,0.012091144919395449,0.03470134735107422,989.933349609375,0,0.0,0
5.28,0.085381866,-0.15891981,9.773961,0.00026948004961013794,0.001498775789514184,-0.0003340814437251538,-9.307641983032227,23.39177894592285,-30.6103515625,0.013735242187976835,0.01672162115573883,0.03943061828613281,989.8878784179688,0,0.0,0
5.32,0.085381836,-0.15653652,9.773962,-0.0005294675938785076,-0.00103122484870255,-0.00020092350314371288,-8.88012981414795,23.73981094360352,-31.31247329711914,-0.005694523453712463,0.01650466024875641,0.03469562530517578,989.9130249023438,0,0.0,0
5.36,0.085381836,-0.16368636,9.773962,-0.0001299937575822696,0.000699828437063843,0.0001985503186006099,-8.948908805847168,23.83334350585937,-31.153377532958984,-0.0011364519596099856,0.021054178476333615,0.02049160003662109,989.8799438476562,0,0.0,0
5.4,0.087771714,-0.15415326,9.771594,3.164182999171317e-06,0.001232459908351302,6.539237801916897e-05,-8.885674476623535,23.36562919616699,-30.904800415039066,0.017728358507156372,0.01623702049255371,0.04416561126708984,989.9076538085938,0,0.0,0
5.44,0.09139538,-0.15412483,9.77859,3.164182999171317e-06,0.001232459908351302,6.539237801916897e-05,-8.885674476623535,23.36562919616699,-30.904800415039066,0.004326753318309785,0.01162022352218628,0.030071258544921875,989.9076538085938,0,0.0,0
5.48,0.08179015,-0.15650705,9.785687,0.0005412711761891842,0.00016630768368486315,6.773899076506495e-05,-9.1339693069458,22.922311782836914,-30.68663024902344,0.00905868411064148,0.0019674748182296753,0.03954219818115234,989.8546752929688,0,0.0,0
5.52,0.07218486,-0.1588892,9.77148,-0.00012323661940172317,-0.000231535013881512,0.0002069267793558538,-8.752681732177733,23.17413902282715,-30.99107360839844,0.00492452085018158,0.025546550750732425,0.034804344177246094,989.8848876953124,0,0.0,0
5.56,0.07691899,-0.16603792,9.776211,-0.0003886720514856279,0.0007004276849329473,0.00047361996257677674,-8.85496711730957,22.814964294433594,-30.95429229736328,0.014118008315563204,0.02049483358860016,0.034809112548828125,989.8695678710938,0,0.0,0
5.6,0.08404302599999999,-0.16127023,9.773839,-0.0003886720514856279,0.0007004276849329473,0.00047361996257677674,-8.85496711730957,22.814964294433594,-30.95429229736328,-0.0002860724925994873,0.0202762633562088,0.030076026916503906,989.8695678710938,0,0.0,0
5.64,0.09116709,-0.16841897,9.783303,1.1241936590522528e-05,0.0007003562641330062,0.0003406506730243564,-9.224462509155273,23.469430923461914,-30.24279022216797,-0.009666748344898224,0.010865256190299988,0.03007984161376953,989.8896484375,0,0.0,0
5.68,0.081561774,-0.15411815,9.766728,0.0005443136324174702,-0.00036497876862995327,0.0006071551470085979,-8.909207344055176,23.18560218811035,-30.96762084960937,0.009538687765598295,0.01567249000072479,0.04902172088623047,989.8641967773438,0,0.0,0
5.72,0.07673630000000001,-0.16126686,9.771460000000001,0.00027843815041705966,-0.0006313660996966064,-5.844587576575577e-05,-9.309707641601562,23.75859642028809,-30.631500244140625,0.0101374089717865,0.0202840268611908,0.049019813537597656,989.8896484375,0,0.0,0
5.76,0.08386037,-0.16603234,9.75962,-0.0003869115025736392,-0.0011640693992376328,-0.00045773101737722754,-9.34734344482422,24.03951835632324,-30.796104431152344,-0.004107140004634857,0.029727861285209656,0.025348663330078125,989.9022827148438,0,0.0,0
5.8,0.08620459,-0.15411475,9.778552000000001,0.0008119501289911567,-0.0002320351923117414,0.000474563188618049,-9.251443862915039,23.76066780090332,-30.94853210449219,-0.02297183871269226,0.020236000418663025,0.02535247802734375,989.8870849609376,0,0.0,0
5.84,0.07659930000000001,-0.14934716,9.771447,0.0004129167064093053,-0.0004984225379303098,0.0008742256904952228,-9.490310668945312,23.95832633972168,-30.769325256347656,0.010830536484718323,0.00575670599937439,0.034820556640625,989.90478515625,0,0.0,0
5.88,0.08372334,-0.15649584,9.766707,-0.0007850647089071572,3.413778540561907e-05,0.0003417825500946492,-9.198725700378418,23.3885555267334,-30.857898712158203,-0.008838362991809845,0.005431443452835083,0.03956222534179688,989.89208984375,0,0.0,0
5.92,0.06933826,-0.15172818,9.766705,-0.0007846245425753295,0.0009661719086579976,-0.0001906605320982635,-9.24147129058838,24.03334999084473,-30.88904571533203,0.005621016025543213,0.0006076693534851074,0.034829139709472656,989.8591918945312,0,0.0,0
5.96,0.09080171599999999,-0.15411031,9.780904,0.00014792144065722826,0.0001671527570579201,-0.0004567877040244639,-9.232338905334473,24.04218864440918,-31.35287475585937,-0.008951641619205475,0.010125473141670229,0.04903888702392578,989.8895874023438,0,0.0,0
6.0,0.09075599999999999,-0.16364232,9.783267,1.5203549992293121e-05,0.0008328711264766753,0.0003423485322855413,-9.324353218078613,24.58783531188965,-30.83173370361328,-0.01348741352558136,0.014822751283645632,0.03483772277832031,989.9097900390624,0,0.0,0
6.04,0.08115071,-0.15172479,9.773793,0.0005482757114805281,-0.0007650957559235394,-5.693652201443911e-05,-9.111522674560547,23.83891868591309,-30.82070541381836,0.0004600659012794495,0.005023345351219177,0.030109405517578125,989.8743286132812,0,0.0,0
6.08,0.08110505,-0.17555642,9.769053999999999,0.0001492421724833548,0.00083272805204615,-0.0007225375738926233,-8.848037719726562,23.084701538085934,-30.740192413330078,-0.013794392347335815,0.04752103984355927,0.025371551513671875,989.9071655273438,0,0.0,0
6.12,0.08105939599999999,-0.14457273,9.773785,-0.0011818970087915661,-0.00023260696616489437,0.0003429146017879248,-9.148615837097168,23.75155067443848,-30.88686370849609,0.0007322952151298523,0.009324997663497923,0.039577484130859375,989.8966064453124,0,0.0,0
6.16,0.08101368,-0.1612545,9.77378,-0.0006488250219263136,0.00016679543477948755,-5.637053982354701e-05,-9.193074226379396,22.65639686584473,-30.89291381835937,0.015206433832645416,0.009220942854881288,0.03957939147949219,989.8812866210938,0,0.0,0
6.2,0.08335793,-0.15887019,9.776143,0.0002837207284756005,-0.0007653815555386245,-5.6181888794526465e-05,-9.061710357666016,23.56977653503418,-31.27454376220703,0.005948975682258606,0.028155863285064694,0.03957843780517578,989.8818359375,0,0.0,0
6.24,0.08331227,-0.14695260000000002,9.780873,0.00041731883538886905,0.00029981043189764023,7.716470281593502e-05,-8.962904930114746,23.187952041625977,-30.88249969482422,-0.013164915144443512,-0.00018456578254699707,0.020648956298828125,989.8768310546876,0,0.0,0
6.28,0.07848680000000001,-0.15886793,9.764299000000001,0.0007278702687472105,-0.0004172398475930095,-2.77539948001504e-06,-9.264461517333984,23.485036849975586,-30.85341644287109,0.015605151653289797,0.028503075242042538,0.05379295349121094,989.894287109375,0,0.0,0
6.32,0.08322093,-0.14695039999999998,9.771397,6.252074672374874e-05,-0.0005504691507667303,-0.0005352184525690973,-9.176714897155762,23.567108154296875,-30.7177734375,-0.008610583841800691,-0.0002662390470504761,0.034862518310546875,989.8840942382812,0,0.0,0
6.36,0.07122576,-0.15886566,9.769025,-0.0006028288044035435,0.0005147228948771954,0.0010628653690218923,-9.390525817871094,23.94626617431641,-30.55303955078125,-0.003847852349281311,0.009090706706047058,0.03486156463623047,989.886474609375,0,0.0,0
6.4,0.08608961,-0.14934543,9.78091,0.0004628750029951334,0.0010472831781953573,0.0005304223159328103,-8.852603912353516,23.080286026000977,-30.50827789306641,-0.013074956834316255,-0.00043775141239166265,0.025394439697265625,989.8790893554688,0,0.0,0
6.44,0.07947859,-0.15650901,9.776227,-0.0003356324741616845,-0.0009501574095338584,0.0009300847887061537,-9.02005100250244,23.66156005859375,-31.44029998779297,0.000146523118019104,0.008920595049858093,0.04896259307861328,989.8788452148438,0,0.0,0
6.48,0.08425838,-0.16127560000000002,9.764389999999999,-0.00021350450697354967,-0.0001491742004873231,-0.0008036061190068723,-9.174214363098145,23.938343048095703,-30.97083282470703,0.009776487946510315,0.02285292744636536,0.0584259033203125,989.8660888671876,0,0.0,0
6.52,0.07469880599999999,-0.15650901,9.754921000000001,-0.001013805391266942,-1.5796598745509982e-05,-5.238456651568413e-06,-9.445606231689453,24.053056716918945,-31.08969116210937,0.0001726001501083374,0.013124346733093262,0.058423042297363274,989.8914794921876,0,0.0,0
6.56,0.07947862,-0.15650901,9.771491000000001,-0.000214857718674466,-0.00028211247990839183,0.00026107742451131344,-9.466777801513672,24.13835334777832,-30.70649719238281,0.014716193079948425,0.003163054585456848,0.04894542694091797,989.8887939453124,0,0.0,0
6.6,0.08903819,-0.17080870000000004,9.771491000000001,-8.169977809302509e-05,0.00011736140004359187,0.0001279194839298725,-9.190817832946776,24.02805519104004,-30.81955718994141,-0.014023579657077791,0.022227570414543152,0.03947734832763672,989.8533325195312,0,0.0,0
6.64,0.08425838,-0.1588923,9.769124,-0.000214857718674466,-1.5796555089764294e-05,0.00026107742451131344,-9.260981559753418,24.226037979125977,-31.282230377197266,0.00508677214384079,0.007831171154975891,0.04421043395996094,989.8635864257812,0,0.0,0
6.68,0.06991899,-0.15412572,9.757289,-8.169977809302509e-05,-0.00028211247990839183,-0.00013839639723300934,-9.560611724853516,24.050390243530273,-30.53292465209961,0.024330109357833862,0.017214640974998474,0.06314468383789062,989.8634643554688,0,0.0,0
6.72,0.06513917400000001,-0.14935917,9.778592999999999,-8.169977809302509e-05,-0.0005484283901751041,0.0001279194839298725,-9.026575088500977,22.917613983154297,-30.85687255859375,0.010337360203266144,0.0076149553060531625,0.02053165435791016,989.893798828125,0,0.0,0
6.76,0.07708871,-0.16365886,9.769124,5.145816248841584e-05,-0.0006815862143412232,0.0001279194839298725,-9.427916526794434,23.226762771606445,-31.04407119750977,-0.0037851780652999882,0.01288565993309021,0.03473949432373047,989.8737182617188,0,0.0,0
6.8,0.0818685,-0.15412572,9.778592999999999,0.0013830375391989946,-0.000814744271337986,-0.0005378702189773321,-9.328675270080566,23.582990646362305,-30.926239013671875,0.006252653896808624,0.007824420928955078,0.03946685791015625,989.8683471679688,0,0.0,0
6.84,0.07947859,-0.1469759,9.766757,-0.0008806474506855012,-0.0005484283901751041,0.0006605512462556362,-9.108478546142578,23.84186172485352,-30.97531890869141,0.006539784371852875,0.012018948793411257,0.0252532958984375,989.8456420898438,0,0.0,0
6.88,0.0723089,-0.16127560000000002,9.766757,-0.0008806474506855012,-0.0005484283901751041,0.0006605512462556362,-9.108478546142578,23.84186172485352,-30.97531890869141,0.020957648754119877,0.02146182954311371,0.04892158508300781,989.8456420898438,0,0.0,0
6.92,0.0818685,-0.14459261,9.766757,-0.00034801565925590694,-0.0004152703913860023,-0.0004047122783958912,-9.303183555603027,24.50254249572754,-31.21492004394531,-0.0029808878898620605,0.002637818455696106,0.03472328186035156,989.883544921875,0,0.0,0
6.96,0.074698776,-0.14697587,9.776225,0.0003177740436512977,-0.0017468497389927506,0.0003942353650927544,-9.158153533935547,24.21692085266113,-31.22056579589844,0.012089021503925323,0.0029167979955673213,0.039455413818359375,989.8528442382812,0,0.0,0
7.0,0.07947859,-0.1588923,9.759656,0.0005840898957103491,-0.0005484283901751041,-0.00013839639723300934,-9.1962251663208,23.75979232788086,-31.1109619140625,-0.0021640211343765263,0.017094209790229797,0.04418659210205078,989.8807983398438,0,0.0,0
7.04,0.077088684,-0.15650901,9.773858,-0.000481173599837348,0.00011736134183593093,0.0006605512462556362,-9.38237190246582,23.58534049987793,-30.84111785888672,0.002632841467857361,0.012273550033569336,0.02524852752685547,989.8658447265624,0,0.0,0
7.08,0.08425844,-0.15412572,9.762023,-0.000481173599837348,0.00011736134183593093,0.0006605512462556362,-9.38237190246582,23.58534049987793,-30.84111785888672,0.017033740878105164,-0.002012193202972412,0.048919677734375,989.8658447265624,0,0.0,0
7.12,0.07469880599999999,-0.15650901,9.766757,-0.00034801565925590694,-0.0005484282737597823,-0.00013839639723300934,-9.489767074584961,23.590036392211914,-30.67087554931641,-0.002023428678512573,0.01653723418712616,0.03470802307128906,989.8782348632812,0,0.0,0
7.16,0.08425838,-0.16365886,9.771491000000001,-0.0008806474506855012,0.00011736140004359187,-0.00013839639723300934,-9.07388687133789,23.557992935180664,-30.65609741210937,-0.011552564799785614,0.006821051239967346,0.034705162048339844,989.8832397460938,0,0.0,0
7.2,0.09381801,-0.1588923,9.766757,0.0003177740436512977,-0.00014895446656737477,-0.00027155433781445026,-8.99956226348877,23.83864021301269,-31.22286605834961,-0.0019580274820327763,0.01616087555885315,0.04417133331298828,989.88818359375,0,0.0,0
7.24,0.08903819,-0.15650901,9.769124,0.0003177740436512977,-0.00014895446656737477,-0.00027155433781445026,-9.176279067993164,24.30516242980957,-30.991981506347656,-0.015997901558876038,0.016378134489059448,0.03943824768066406,989.88818359375,0,0.0,0
7.28,0.07230887,-0.1588923,9.752554,-0.000214857718674466,-0.0013473759172484279,-0.000671028159558773,-8.82961368560791,23.62860107421875,-30.543903350830078,0.012882873415946959,0.011653944849967957,0.04417037963867188,989.8779907226562,0,0.0,0
7.32,0.0818685,-0.16127560000000002,9.762023,0.00045093198423273867,-0.0005484283901751041,-0.00027155433781445026,-8.957061767578125,24.19426918029785,-30.86530303955078,0.008624576032161713,0.011684119701385498,0.05837154388427735,989.8655395507812,0,0.0,0
7.36,0.086648285,-0.15174246,9.773858,0.00045093198423273867,-0.0004152704204898328,-0.0005378702189773321,-9.168126106262207,23.94423675537109,-31.28005599975586,0.008737325668334961,0.021244466304779053,0.039432525634765625,989.870849609375,0,0.0,0
7.4,0.08374873,-0.16126299,9.776178999999999,0.0003177740436512977,-0.0008147441549226643,0.0003942353650927544,-8.787817001342772,23.8262996673584,-31.40874481201172,0.004626832902431488,0.016178354620933533,0.03473854064941406,989.9035034179688,0,0.0,0
7.44,0.090898156,-0.14934614,9.764339999999999,-7.9884979641065e-05,-0.0004155650094617158,0.0006613289006054401,-8.853009223937988,23.55449104309082,-31.30580902099609,-0.009757593274116516,0.00685235857963562,0.03001117706298828,989.8906860351562,0,0.0,0
7.48,0.07892832,-0.15411222,9.752502999999999,-0.00020988387404941022,0.00024971191305667157,-0.00040258071385324,-8.933826446533203,23.74215888977051,-31.22734832763672,0.009457223117351532,-0.0026637911796569824,0.06315135955810547,989.8804321289062,0,0.0,0
7.52,0.07890802599999999,-0.15172842,9.77144,0.00045610152301378554,-0.0005492675118148327,-0.0005356548936106265,-8.774256706237793,23.73364067077637,-31.40541076660156,0.004310488700866699,0.016366973519325256,0.02054595947265625,989.8831176757812,0,0.0,0
7.56,0.08844736,-0.15649441,9.766703,0.00018998121959157288,0.0009154381696134807,-0.00040241307578980917,-8.72580623626709,23.98924827575684,-30.657989501953125,-0.009890720248222351,0.006734102964401245,0.044219017028808594,989.885498046875,0,0.0,0
7.6,0.09320688,-0.15411067,9.757233,-0.00034245496499352157,-1.669922494329512e-05,0.0002634604170452804,-9.182367324829102,24.29926872253418,-30.68276214599609,-0.005343526601791382,0.020787373185157776,0.05368804931640625,989.8728637695312,0,0.0,0
7.64,0.08123705,-0.1541102,9.778535,-0.00034225915442220867,0.000249584874836728,-0.0001359295565634966,-9.169648170471193,23.94276237487793,-31.202747344970703,0.0143202543258667,0.011354207992553713,0.02527904510498047,989.8927612304688,0,0.0,0
7.68,0.08360666,-0.14934316,9.764329,0.00019056818564422429,-0.0010820262832567096,0.0005299439653754233,-8.961381912231445,23.18942451477051,-30.95980834960937,0.00955844670534134,0.011375367641448976,0.058423042297363274,989.8779907226562,0,0.0,0
7.72,0.07402676,-0.15887573,9.778531,0.00032392170396633446,-0.0002831103629432618,-0.0006683936808258295,-8.63987922668457,23.437707901000977,-30.869911193847656,-0.004442378878593446,0.0066663920879364005,0.020546913146972656,989.8699951171876,0,0.0,0
7.76,0.09790546,-0.14934209,9.771428,0.00045727522228844464,-0.0006826159078627825,0.00039695369196124375,-9.028203964233398,24.02248573303223,-31.15222549438477,-0.01869305968284607,-0.002749562263488769,0.0394887924194336,989.8547973632812,0,0.0,0
7.8,0.09071547,-0.15649146,9.783263,0.00029930734308436513,-0.00010304251918569207,-2.0264662452973425e-05,-9.437454223632812,23.69212913513184,-31.377769470214844,-0.004300437867641449,0.020842432975769043,0.015813827514648438,989.8953857421876,0,0.0,0
7.84,0.08591539,-0.15887424,9.776159,-9.99709009192884e-05,-0.00010307430056855084,-0.0006859704735688865,-9.04176425933838,24.115144729614254,-31.155555725097656,0.005088143050670625,0.01613897085189819,0.03948974609375,989.8602294921876,0,0.0,0
7.88,0.07633546,-0.16364035,9.759587,-0.00023293326376006007,0.000562683679163456,0.0006456926930695772,-8.693033218383789,23.07176399230957,-30.68633270263672,0.014207012951374054,0.020558804273605347,0.05369377136230469,989.8927612304688,0,0.0,0
7.92,0.07870507,-0.1541067,9.757217,-0.0003657000488601625,0.00016314633830916137,0.00024638656759634614,-8.797245979309082,23.18532371520996,-31.369781494140625,0.009496890008449554,0.006019532680511475,0.0584268569946289,989.8927612304688,0,0.0,0
7.96,0.08346459,-0.14933959,9.769052499999999,-0.0003657000488601625,0.00016314633830916137,0.00024638656759634614,-8.797245979309082,23.18532371520996,-31.369781494140625,-0.009748563170433044,-0.0035511851310729976,0.030022621154785163,989.8927612304688,0,0.0,0
8.0,0.085834205,-0.14933911,9.783254,0.00016712752403691408,0.00016311460058204832,-1.9845509086735547e-05,-8.815916061401367,23.6418571472168,-31.23964691162109,0.008679375052452087,0.006155282258987428,0.03950214385986328,989.897705078125,0,0.0,0
8.04,0.08342403,-0.14933863,9.783252000000001,3.4165161196142435e-05,0.001494662370532751,0.00011339625052642076,-8.972579956054688,23.54740333557129,-30.517120361328125,0.013243891298770905,0.0012843012809753418,0.039504051208496094,989.8851928710938,0,0.0,0
8.08,0.07145423,-0.15887132,9.764312,-0.00023195514222607017,0.000562524888664484,0.0006461118464358151,-9.329217910766602,23.95128059387207,-31.024688720703125,0.01774442195892334,0.010778948664665222,0.02530479431152344,989.8799438476562,0,0.0,0
8.12,0.0809935,-0.16125405,9.769044000000001,0.0004340302548371256,0.0005624931654892862,0.0003798798425123096,-9.263483047485352,23.854799270629886,-31.0291748046875,-0.005938783288002014,0.015782088041305542,0.025308609008789062,989.882568359375,0,0.0,0
8.16,0.07619342,-0.15648696,9.771410000000001,0.0007005417137406766,-0.00023648625938221807,0.00024680572096258396,-8.871134757995605,23.64272880554199,-31.07722473144531,0.003146730363368988,0.020385295152664185,0.03478050231933594,989.900146484375,0,0.0,0
8.2,0.08573273,-0.16125304,9.769041,0.0001681055291555822,0.0014945351285859942,0.00011373161396477373,-8.92733383178711,23.27384376525879,-30.73904037475586,0.003017604351043701,0.011106491088867188,0.04899120330810547,989.8577270507812,0,0.0,0
8.24,0.08571243,-0.1469529,9.764304,-0.0004972930182702839,-0.00036973948590457434,0.00011389928113203496,-9.000242233276367,24.10101127624512,-30.62223815917969,-0.011065855622291563,-0.003509268164634705,0.039519309997558594,989.8545532226562,0,0.0,0
8.28,0.07374263,-0.14933571,9.759568,-0.0004972930182702839,-0.00036973948590457434,0.00011389928113203496,-9.000242233276367,24.10101127624512,-30.62223815917969,0.017569400370121002,0.005853414535522461,0.04898548126220703,989.8545532226562,0,0.0,0
8.32,0.09762135,-0.1517185,9.757199,-0.00036393949994817376,-0.00010345526970922948,-0.0009512804099358617,-9.292123794555664,24.03864479064941,-30.958534240722656,-0.02061851322650909,0.005670398473739624,0.034781455993652344,989.86962890625,0,0.0,0
8.36,0.08107591,-0.15648952,9.778522,0.00016908353427425027,0.00016279709234368056,0.0002473086933605373,-8.980051040649414,23.645954132080078,-30.829673767089844,0.017242223024368286,0.020251259207725525,0.039485931396484375,989.8924560546876,0,0.0,0
8.4,0.08366203,-0.16602743,9.764336,0.0006989370449446143,-0.001035173423588276,-0.0002865137648768723,-9.196906089782717,24.02216720581055,-30.510334014892575,-0.015802018344402313,0.025228157639503482,0.020547866821289062,989.8722534179688,0,0.0,0
8.44,0.086048126,-0.15887752,9.76907,0.0006989370449446143,-0.001035173423588276,-0.0002865137648768723,-9.196906089782717,24.02216720581055,-30.510334014892575,0.003148004412651062,0.006256520748138428,0.03475379943847656,989.8722534179688,0,0.0,0
8.48,0.08126449599999999,-0.1612607,9.754866999999999,-0.0006335405050776899,-0.00023607994080521166,-2.0582767319865525e-05,-9.054238319396973,23.471227645874023,-30.96199035644531,0.0078134685754776,0.02036730945110321,0.04895591735839844,989.8873291015624,0,0.0,0
8.52,0.09082031,-0.15649408,9.771436,0.0012307073920965195,3.022997407242656e-05,0.0002457488444633782,-9.224324226379396,23.575347900390625,-30.94187164306641,0.012671925127506256,0.010779023170471191,0.05842399597167969,989.8798217773438,0,0.0,0
8.56,0.09320640599999999,-0.14696082,9.773804,0.0012307073920965195,3.022997407242656e-05,0.0002457488444633782,-9.318564414978027,23.96159172058105,-31.56581878662109,-0.006403855979442597,0.010358169674873352,0.034745216369628906,989.8798217773438,0,0.0,0
8.6,0.08603293,-0.16602698,9.769067999999999,-0.0008997828117571771,0.0002965398889500648,0.0006452383822761476,-9.059240341186523,22.72875213623047,-30.45586395263672,-0.011234201490879059,0.01009446382522583,0.03474235534667969,989.8949584960938,0,0.0,0
8.64,0.07646948,-0.15172723,9.761966000000001,-0.00010076205944642425,0.00016337003035005182,-0.0002868357696570456,-8.987959861755371,23.006452560424805,-30.868019104003906,-0.0017242506146430971,0.0003815442323684693,0.034740447998046875,989.8594360351562,0,0.0,0
8.68,0.08124548,-0.14934382,9.766702,-0.0005001990939490497,3.0206181691028174e-05,-0.00028682005358859897,-9.445201873779297,23.57884979248047,-30.29216766357422,0.007814139127731323,-0.0042840391397476205,0.04894542694091797,989.9026489257812,0,0.0,0
8.72,0.08602148,-0.14934376,9.776167999999998,-0.0005001990939490497,3.0206181691028174e-05,-0.00028682005358859897,-9.24755859375,24.0274600982666,-30.579822540283203,-0.006727457046508789,0.005352020263671875,0.03474617004394531,989.9026489257812,0,0.0,0
8.76,0.08601767,-0.15887675,9.778536,0.0006982590421102941,0.00042967399349436164,-0.0009525941568426787,-9.182229042053224,24.405187606811523,-31.3818359375,-0.0018911063671112058,0.010096028447151184,0.020542144775390625,989.8721313476562,0,0.0,0
8.8,0.095573455,-0.14696029,9.769067,3.2505777198821306e-05,3.0194263672456145e-05,-0.0005531045026145875,-9.139078140258787,23.28618431091309,-30.553165435791016,0.002668216824531555,-0.0042247474193573,0.04421710968017578,989.8822631835938,0,0.0,0
8.84,0.07645044,-0.16602641,9.7738,3.2542797271162265e-05,0.0006959780002944171,-2.0457009668461982e-05,-9.261417388916016,23.48798179626465,-31.008026123046875,0.007443942129611969,0.02424803376197815,0.03948116302490234,989.8771362304688,0,0.0,0
8.88,0.08839619,-0.15649325,9.754863,-0.00023373652948066592,-0.0002361335209570825,-0.00041991512989625335,-9.259597778320312,24.121591567993164,-30.66046142578125,-0.011351801455020905,0.009623676538467407,0.044208526611328125,989.8822631835938,0,0.0,0
8.92,0.08839235,-0.15410984,9.771432,-0.0005000159726478159,-0.0002361395163461566,-0.00015358351811300963,-8.897711753845215,23.459760665893555,-30.985435485839844,0.0029420629143714905,0.004642665386199951,0.0584096908569336,989.8873291015624,0,0.0,0
8.96,0.09077847,-0.15410972,9.771432,0.0002989688073284924,-0.0003693033941090107,0.00011274813732597976,-8.936327934265137,23.37092399597168,-30.97428894042969,-0.011261202394962309,0.004505470395088196,0.03946876525878906,989.8770751953124,0,0.0,0
9.0,0.078825146,-0.15410966,9.771432,-0.0003667845739983022,-0.0003693093312904239,-0.00015355208597611636,-9.227367401123047,23.57240104675293,-30.787261962890625,0.003121063113212585,-0.0001491159200668335,0.04893779754638672,989.8544311523438,0,0.0,0
9.04,0.07165164,-0.15172628,9.759595,-0.00010043202200904489,0.0004296323750168085,-2.03784293262288e-05,-9.12247371673584,23.196468353271484,-30.70444107055664,0.027071215212345123,0.0046263188123703,0.044205665588378906,989.879638671875,0,0.0,0
9.08,0.07881755,-0.15649274,9.771432,3.276282222941518e-05,-0.0006356372032314539,0.00011279522732365876,-8.84705924987793,23.45446586608887,-30.91594696044922,0.017638511955738068,2.0101666450500488e-05,0.04894065856933594,989.85693359375,0,0.0,0
9.12,0.08359352,-0.14457625,9.769064,0.0005654311389662325,0.0002964625018648803,-0.0002866628346964717,-8.824504852294922,23.264726638793945,-30.6773681640625,-0.006246238946914673,-0.014128625392913818,0.04420948028564453,989.8770751953124,0,0.0,0
9.16,0.09792912,-0.14934269,9.769063000000001,0.0006986257503740491,-0.00010301737347617744,-0.000419805001001805,-9.027117729187012,23.28590583801269,-30.955322265625,-0.011241719126701357,0.014460936188697815,0.03474140167236328,989.8771362304688,0,0.0,0
9.2,0.09075561,-0.15649247,9.77143,-0.00023344304645434025,0.0004296085389796645,0.0009117900044657289,-8.914316177368164,23.549474716186523,-30.83415985107422,-0.011273585259914398,0.014298215508461,0.04894351959228516,989.8771362304688,0,0.0,0
9.24,0.07641244,-0.1755586,9.764329,-0.0004997223732061684,-0.00010302918963134289,-0.00015345776046160609,-9.233318328857422,23.672426223754886,-31.177120208740234,0.02239657938480377,0.023601174354553226,0.053671836853027344,989.8695068359376,0,0.0,0
9.28,0.08118844,-0.15410903,9.769062,-0.0003665278782136738,-0.0006356668891385198,-0.0002866000286303461,-9.444520950317383,23.31647682189941,-30.892791748046875,-0.0060539916157722464,0.008976727724075317,0.03946399688720703,989.88916015625,0,0.0,0
9.32,0.10030383,-0.17079183,9.778531,-0.0003673564933706075,5.499857797985897e-05,0.0004265478346496821,-9.094374656677246,23.38091087341309,-30.87353515625,-0.02547720074653625,0.008999034762382506,0.015793800354003906,989.8917846679688,0,0.0,0
9.36,0.08844527599999999,-0.15172786,9.769071,0.0005647857906296848,0.0005876244395039977,0.00042656352161429817,-8.9498872756958,23.463581085205078,-30.977622985839844,-0.0064267292618751535,0.003968089818954468,0.03945350646972656,989.8644409179688,0,0.0,0
9.4,0.08366549,-0.16126099,9.773805,-0.0007668699836358428,0.00032132089836522937,-0.00037241671816445887,-9.319681167602539,23.48591041564941,-30.69098663330078,0.012217387557029724,0.013353437185287477,0.053658485412597656,989.8818359375,0,0.0,0
9.44,0.07649577,-0.15411115,9.76197,-0.00010185528662987052,0.0007209205650724472,0.00029304061899892986,-9.212531089782717,24.48164176940918,-30.53481292724609,0.02681317925453186,0.008587479591369629,0.05365657806396485,989.8765869140624,0,0.0,0
9.48,0.08127558,-0.15649444,9.759602000000001,0.00016446059453301132,-0.001010132604278624,-0.0009053809335455297,-9.108478546142578,23.84186172485352,-30.97531890869141,-0.006296023726463318,0.008719444274902344,0.03945255279541016,989.8742065429688,0,0.0,0
9.52,0.0860554,-0.15649441,9.773805,0.0005639344453811647,-0.0003443429595790804,0.0001598826784174889,-8.835563659667969,23.72862434387207,-30.93376159667969,-0.011207737028598784,0.003977775573730469,0.01104736328125,989.8917846679688,0,0.0,0
9.56,0.08366549,-0.1588777,9.773806,0.00029761853511445224,0.0004546046839095652,0.00029304061899892986,-8.532920837402344,22.694955825805664,-30.76594543457031,0.007849864661693573,0.01354818046092987,0.04892253875732422,989.8992919921876,0,0.0,0
9.6,0.08366549,-0.16126099,9.766703999999999,-0.00010185528662987052,5.513085488928481e-05,-0.0005059071118012072,-8.891624450683594,23.465654373168945,-31.294658660888672,0.007557943463325501,0.018297910690307617,0.04419231414794922,989.8815307617188,0,0.0,0
9.64,0.08127555,-0.14219472,9.769071,0.00016446059453301132,0.0005877626244910061,-0.00010643320274539292,-9.002062797546387,23.4674015045166,-30.96980285644531,0.0025654584169387817,-0.010281175374984741,0.039459228515625,989.8865356445312,0,0.0,0
9.68,0.08127558,-0.15172789,9.769071,-0.0003681711677927524,5.513085488928481e-05,0.00029304061899892986,-9.183643341064453,23.2973690032959,-30.93187713623047,0.021859899163246155,-0.0008155256509780884,0.04419231414794922,989.8966674804688,0,0.0,0
9.72,0.090835184,-0.16364428,9.773806,0.00016446059453301132,-0.0002111849607899785,0.0004261985595803708,-9.089266777038574,23.01704216003418,-31.00699615478516,-0.0022324398159980774,0.01790483295917511,0.04892158508300781,989.8637084960938,0,0.0,0
9.76,0.090835154,-0.15411115,9.773806,-0.0005013290792703629,0.0003214468015357852,0.00029304061899892986,-8.971057891845703,23.54887580871582,-30.59442901611328,-0.01649937033653259,0.017720773816108704,0.03471565246582031,989.8789672851562,0,0.0,0
9.8,0.08605537,-0.16841081,9.771438,-0.0005013290792703629,0.0003214468015357852,0.00029304061899892986,-8.971057891845703,23.54887580871582,-30.59442901611328,-0.002349697053432465,0.022585183382034302,0.048920631408691406,989.8789672851562,0,0.0,0
9.84,0.08127558,-0.16126099,9.773806,0.0005639344453811647,0.00032144674332812434,2.672473783604801e-05,-8.914316177368164,23.549474716186523,-30.83415985107422,-0.007351987063884734,0.0035664886236190796,0.034720420837402344,989.8966064453124,0,0.0,0
9.88,0.07410586,-0.16602755,9.766703999999999,0.0004307764756958932,5.513085488928481e-05,0.0004261985595803708,-8.755725860595701,23.17119407653809,-30.83646011352539,0.011743612587451937,0.012951835989952087,0.03945350646972656,989.8811645507812,0,0.0,0
9.92,0.0860554,-0.14457801,9.766703999999999,-0.0005013290792703629,0.00032144674332812434,-0.0005059069953858851,-8.891219139099121,22.99144554138184,-30.49713134765625,0.006697259843349457,-0.0015806108713150024,0.058390617370605476,989.884033203125,0,0.0,0
9.96,0.07410586,-0.16602755,9.76197,-0.0005013290792703629,0.00032144674332812434,-0.0005059069953858851,-8.884695053100586,23.73539161682129,-31.080554962158203,0.006746090948581696,0.012791320681571959,0.05365657806396485,989.884033203125,0,0.0,0
10.0,0.078885674,-0.16126099,9.773805,-0.00023501322721131143,0.0005877626244910061,2.672473783604801e-05,-9.311527252197266,23.12498664855957,-30.97906494140625,0.020705260336399082,0.00799858570098877,0.044190406799316406,989.8687744140624,0,0.0,0
10.04,0.078885674,-0.1588777,9.764337,3.130265395157039e-05,0.00032144674332812434,0.0006925144698470831,-9.288537979125977,23.673303604125977,-31.01469421386719,0.0018601715564727785,0.01717519760131836,0.039447784423828125,989.8637084960938,0,0.0,0
10.08,0.08366549,-0.15411115,9.769071,-0.0006344870198518037,-0.00034434287226758903,0.0001598826784174889,-9.278158187866213,23.47178077697754,-30.15766906738281,0.011029444634914398,0.007456675171852113,0.04891681671142578,989.8837280273438,0,0.0,0
10.12,0.08127558,-0.16126099,9.771438,-0.00010185528662987052,0.0008540786220692098,0.0005593565292656422,-8.949344635009766,23.09528923034668,-30.879165649414066,-0.008210882544517517,0.012192174792289734,0.029981613159179688,989.88134765625,0,0.0,0
10.16,0.07649577,-0.14934460000000002,9.77854,-0.00010185528662987052,0.0005877626244910061,0.00029304061899892986,-8.570556640625,22.97588157653809,-30.93054962158203,0.005530185997486114,0.00273112952709198,0.034720420837402344,989.8837280273438,0,0.0,0
10.2,0.08366549,-0.15411115,9.769071,0.00016446059453301132,0.0005877626244910061,-0.00010643320274539292,-8.570557594299316,22.97588539123535,-30.93054962158203,-0.008973248302936554,0.0070689618587493905,0.020511627197265625,989.8712158203124,0,0.0,0
10.24,0.08366549,-0.16602758,9.769071,-0.0006344870198518037,0.0004546047421172262,-0.0007722228765487671,-9.030704498291016,23.65124702453613,-30.89916229248047,0.009924814105033876,0.02590736746788025,0.04418277740478516,989.8992919921876,0,0.0,0
10.28,0.08366549,-0.16364428,9.780907000000001,-0.0006344870198518037,0.001120394328609109,-0.0005059069953858851,-8.89618968963623,23.46123313903809,-31.062744140625,0.010182328522205351,0.00680696964263916,0.03944587707519531,989.8636474609376,0,0.0,0
10.32,0.0860554,-0.1588777,9.764336,0.0005639344453811647,5.513085488928481e-05,0.00029304061899892986,-9.026138305664062,23.65566825866699,-31.13108062744141,0.005615890026092529,0.0111054927110672,0.04417228698730469,989.8661499023438,0,0.0,0
10.36,0.07388109,-0.15648893,9.771417,-0.0009008029010146855,-0.001143290544860065,0.0001598826784174889,-9.095897674560547,23.37944030761719,-30.796226501464844,0.015110433101654053,0.0016756653785705564,0.03946113586425781,989.8837280273438,0,0.0,0
10.4,0.09538138,-0.1517221,9.783252000000001,3.2366806408390396e-05,0.0003212739829905331,-0.0006386088207364082,-8.858552932739258,23.180307388305664,-30.89813232421875,0.0011825934052467346,0.0018102377653121948,0.029993057250976562,989.88623046875,0,0.0,0
10.44,0.07147348,-0.15172186,9.764314,3.349510370753705e-05,-0.0006110147223807871,-0.0006381251150742173,-9.076249122619627,23.292673110961914,-31.10211944580078,0.010728940367698671,0.0019698888063430786,0.05366802215576172,989.8733520507812,0,0.0,0
10.48,0.08341408,-0.15410492,9.761944999999999,0.0004330544907134025,-7.839693716960028e-05,-0.0005049305036664009,-9.177556037902832,23.30326271057129,-31.24109649658203,-0.008251376450061798,0.011420562863349916,0.02526092529296875,989.8912963867188,0,0.0,0
10.52,0.085795105,-0.16840449,9.766679,0.00016682440764270726,-0.00021156878210604188,0.00042721175123006105,-9.035270690917967,23.64682960510254,-30.6672477722168,-0.007997572422027588,0.025765687227249142,0.02999401092529297,989.8788452148438,0,0.0,0
10.56,0.08100647,-0.15887111,9.766679,0.0006996272131800653,-0.0004779124283231795,2.781124203465879e-05,-8.928854942321777,23.272371292114254,-30.66173553466797,-0.017243385314941406,0.016266852617263794,0.03472709655761719,989.8885498046876,0,0.0,0
10.6,0.08577734,-0.14695448,9.766678,0.0006996272131800653,-0.0004779124283231795,2.781124203465879e-05,-8.928854942321777,23.272371292114254,-30.66173553466797,0.011423781514167786,-0.0028398483991622925,0.04892921447753906,989.8885498046876,0,0.0,0
10.64,0.07381898,-0.14695424,9.759576,-0.0006318665109574795,-7.845251093385741e-05,0.00016100591165013609,-8.596698760986326,23.53096580505371,-31.112972259521484,0.001999072730541229,-0.003026917576789856,0.029989242553710938,989.8809204101562,0,0.0,0
10.68,0.078589916,-0.15410385,9.776145,0.00043356788228265936,0.0005873094196431339,-0.00010523665696382524,-8.97562313079834,23.54445838928223,-30.362510681152344,0.006721124053001404,0.011272206902503969,0.04419422149658203,989.8809814453124,0,0.0,0
10.72,0.08575073,-0.1541036,9.773777,0.00043356788228265936,0.0005873094196431339,-0.00010523665696382524,-8.97562313079834,23.54445838928223,-30.362510681152344,-0.0122871994972229,-0.003118664026260376,0.03472328186035156,989.8809814453124,0,0.0,0
10.76,0.080962,-0.14933687,9.783244999999999,-0.0002321359061170369,-0.0010105997789651155,-0.00010519992792978884,-8.93165397644043,22.26899528503418,-30.83354568481445,0.0163261815905571,-0.00332757830619812,0.03472232818603516,989.8785400390624,0,0.0,0
10.8,0.08095318,-0.16840294,9.761939,-0.001164156012237072,5.464987043524161e-05,-0.00023832116858102384,-8.785207748413086,23.0911922454834,-31.289146423339844,0.0065720826387405396,0.02026087045669556,0.05365943908691406,989.8858032226562,0,0.0,0
10.84,0.073774576,-0.15171972,9.766672999999999,-0.0009354188805446028,-0.00015947599604260176,-6.88181899022311e-06,-8.618304252624513,22.87820625305176,-30.45557403564453,0.011496298015117644,-0.003898769617080689,0.039450645446777344,989.8631591796876,0,0.0,0
10.88,0.08810508,-0.15171948,9.773774000000001,0.000396246206946671,-0.00015948984946589917,0.00012631282152142376,-8.815074920654297,23.905702590942386,-30.716327667236328,0.0021445676684379573,-0.00406743586063385,0.04891681671142578,989.885986328125,0,0.0,0
10.92,0.08809626,-0.15648583,9.766671,0.00026317359879612917,-2.63457877736073e-05,-0.00013996638881508258,-8.509930610656737,23.24327278137207,-30.801570892333984,0.0022463127970695496,0.0006618201732635497,0.05364990234375,989.8886108398438,0,0.0,0
10.96,0.07852772,-0.16601872,9.78324,-0.000269372365437448,-2.635968485265039e-05,-0.0005394035833887756,-8.55145263671875,23.25740623474121,-31.33489227294922,0.002351529896259308,0.014927133917808531,0.011038780212402344,989.8809814453124,0,0.0,0
11.0,0.07851884,-0.15410212,9.778505000000001,0.00013018702156841755,-0.0006921633030287921,-0.00013989304716233164,-8.73371410369873,23.349742889404297,-30.69633483886719,-0.00238143652677536,-0.004001796245574951,0.02051067352294922,989.8707275390624,0,0.0,0
11.04,0.08328977,-0.15171868,9.773769999999999,0.0067881690338253975,-0.004420599434524775,-0.0004061721847392618,-8.819938659667969,23.269145965576172,-30.909282684326172,0.003580443561077118,0.0028688162565231323,0.03473663330078125,989.9468383789062,0,0.0,0
11.08,0.08089101,-0.15648499,9.759565,0.0067881690338253975,-0.004420599434524775,-0.0004061721847392618,-8.819938659667969,23.269145965576172,-30.909282684326172,-0.006719328463077545,0.0019853562116622925,0.02526283264160156,989.9468383789062,0,0.0,0
11.12,0.088051796,-0.13741854,9.773767999999999,-0.003997537773102522,0.00423465296626091,0.0003928120713680983,-8.449304580688478,23.51066398620605,-30.672592163085934,-0.016876332461833954,-0.0226680189371109,0.04419231414794922,989.9468383789062,0,0.0,0
11.16,0.066533804,-0.15886779999999998,9.787971,0.00013052928261458874,0.00010672875214368104,0.0002597275306470692,-8.715725898742676,23.15558815002441,-30.22583770751953,0.011111035943031313,0.01062937080860138,0.011057853698730469,989.85791015625,0,0.0,0
11.2,0.08803409,-0.15171772,9.759563,0.004524827003479004,-0.002290128031745553,-0.0005391834420152009,-8.647626876831055,23.324426651000977,-29.78430938720703,-0.01630016416311264,-0.016134142875671387,0.03948307037353516,989.8809814453124,0,0.0,0
11.24,0.08085549,-0.14933428,9.773766499999999,-0.003198247868567705,0.002503543626517057,0.0007924326346255839,-8.8231201171875,23.1602840423584,-30.05559539794922,0.01604706048965454,0.010921582579612732,0.03946971893310547,989.9591674804688,0,0.0,0
11.28,0.083236486,-0.15171736,9.773766,-0.003198247868567705,0.002503543626517057,0.0007924326346255839,-8.800129890441895,23.708600997924805,-30.09122467041016,-0.012663163244724274,0.0012515634298324585,0.020529747009277344,989.9591674804688,0,0.0,0
11.32,0.08299017,-0.1683943,9.776110000000001,-0.0010676353704184294,0.0007724767201580107,-6.478323484770954e-06,-8.948503494262695,23.359140396118164,-30.35585021972656,0.002298213541507721,0.020200073719024655,0.03946208953857422,989.8198852539062,0,0.0,0
11.36,0.085119426,-0.14455506,9.783187,-0.000401760102249682,-0.0017575379461050036,-0.00027275754837319255,-8.838607788085938,23.72567749023437,-30.779151916503906,0.007939577102661133,-0.008432090282440186,0.030035972595214844,989.8832397460938,0,0.0,0
11.4,0.07792184,-0.14693764,9.773716,-0.0002667693770490587,-0.0005584372556768359,-0.0006684900727123022,-8.677654266357424,23.61271858215332,-30.335437774658203,0.008290551602840424,0.005869388580322266,0.025302886962890625,989.860595703125,0,0.0,0
11.44,0.08028382,-0.16361989999999998,9.773713,-0.0006654107128269969,-0.00029225659091025585,0.00026397232431918377,-8.435200691223145,23.04971122741699,-30.57080841064453,0.008255429565906525,0.010293200612068176,0.04423809051513672,989.8831176757812,0,0.0,0
11.48,0.08742562,-0.16123596,9.773711,-0.00013250991469249132,-0.0006917741266079247,-0.0001353863044641912,-8.253757476806639,23.113828659057614,-29.90966033935547,-0.010733306407928469,0.005429744720458984,0.03476715087890625,989.880615234375,0,0.0,0
11.52,0.09217751,-0.15885201,9.776076,0.00040039099985733634,-0.0001591859763721004,0.000530518707819283,-8.467865943908691,22.860849380493164,-30.16980361938477,0.003676988184452057,0.0008797198534011842,0.02530384063720703,989.8985595703124,0,0.0,0
11.56,0.092149615,-0.16123459,9.776074000000001,0.0004006598028354347,-0.00015922961756587029,-0.0001351557148154825,-8.757789611816406,23.53800964355469,-30.85760498046875,-0.02507001161575317,0.01488989591598511,0.01583576202392578,989.8856811523438,0,0.0,0
11.6,0.08256212,-0.15885061,9.7666025,-0.00013170304009690878,0.0006396743701770903,-0.0005345141980797051,-8.657462120056152,23.157655715942386,-30.542877197265625,-0.0015073642134666445,-0.004065200686454773,0.04898357391357422,989.8909301757812,1,1.0,1
11.64,0.07536447,-0.15646663,9.768966,1.7239362932741642e-06,0.0003733147750608623,-0.00040124106453731656,-8.730807304382324,23.246774673461914,-30.1518669128418,0.012613296508789062,0.01496647298336029,0.05845737457275391,989.887939453125,1,1.0,1
11.68,0.087286115,-0.1469329,9.773698,-0.00013116485206410292,0.0003732711193151772,0.00013150603626854718,-8.314085960388184,23.478574752807614,-29.61376953125,-0.0016097500920295715,-0.008739665150642395,0.04425811767578125,989.8931884765624,1,1.0,1
11.72,0.08486828,-0.15884858,9.764228,0.0005348938866518439,0.000772701227106154,0.00066425307886675,-9.006467819213867,23.98920440673828,-29.613941192626953,-0.0066549405455589294,0.01944112777709961,0.039521217346191406,989.8831176757812,1,1.0,1
11.76,0.08962017,-0.15408131,9.773693,-0.00039694289444014435,0.000373183807823807,-0.0006672111339867115,-8.522648811340332,23.59977722167969,-30.28158569335937,-0.011940747499465942,-0.004358813166618347,0.02532577514648437,989.8804321289062,1,1.0,1
11.8,0.08003265,-0.13978091,9.773691,-0.00039667385863140236,0.0007726139738224447,-1.3060634955763815e-06,-8.468952178955076,23.59742927551269,-30.36670684814453,0.007262498140335083,-0.0044778287410736075,0.0489959716796875,989.8977661132812,1,1.0,1
11.84,0.08717441599999999,-0.16361305,9.766586,-0.0003964048228226602,0.0009057281422428787,-0.0006669804570265113,-8.378597259521483,22.944395065307614,-30.11146545410156,-0.016701564192771908,0.014756157994270325,0.03953361511230469,989.9030151367188,1,1.0,1
11.88,0.08953643,-0.16122913,9.761849,0.00040281197289004916,-0.00029273692052811384,0.00026524040731601417,-8.150791168212889,23.21063041687012,-30.54706573486328,-0.01647922396659851,0.023763447999954224,0.03479194641113281,989.885498046875,1,1.0,1
11.92,0.08950853,-0.16122842,9.787887,-0.0007953408057801424,0.00023985122970771044,0.0006648294511251153,-8.38066291809082,23.31121253967285,-30.132606506347656,0.002348460257053375,0.009605839848518372,0.03953456878662109,989.8876342773438,1,1.0,1
11.96,0.07992107,-0.16122773,9.768946000000001,0.00040334969526156783,0.00023980748665053397,-8.44942405819893e-07,-8.823663711547852,23.528573989868164,-30.15404510498047,0.002540506422519684,0.005118563771247864,0.039539337158203125,989.9231567382812,1,1.0,1
12.0,0.08706283599999999,-0.17076012,9.771312,0.0005367767880670726,-0.00029286794597283006,-0.0015986249782145026,-8.32696533203125,23.30886268615723,-30.21772766113281,0.002900354564189911,0.02434326708316803,0.05847835540771485,989.9055786132812,1,1.0,1
12.04,0.07986522,-0.15407655,9.780778,0.0008033617050386965,-0.0008255433640442789,-0.002663773018866777,-8.59034252166748,22.95673179626465,-29.92559051513672,-0.007263436913490295,-0.0137147456407547,0.015878677368164062,989.9129638671876,1,1.0,1
12.08,-0.03726788,-0.56161654,9.797345,0.0002709989785216749,0.0018375717336311934,-0.006924711633473636,-8.698280334472656,23.32971954345703,-29.853797912597656,-0.013438783586025238,0.012663111090660095,0.03952980041503906,989.8926391601562,1,1.0,1
12.12,-0.12811208,0.22963268,10.268416,-0.1010616570711136,0.009294329211115835,0.041545014828443534,-8.631428718566895,23.70891761779785,-30.733112335205078,-0.07808732986450195,-1.053309679031372,-0.5057163238525391,989.806396484375,1,1.0,1
12.16,-0.49140507,-0.042060375,10.140584,-0.1010616570711136,0.009294329211115835,0.041545014828443534,-8.631428718566895,23.70891761779785,-30.733112335205078,0.16857735812664032,0.19444334506988525,-0.7286367416381836,989.806396484375,1,1.0,1
12.2,-0.24288320000000002,1.3021091999999999,10.41281,-0.3471370041370392,0.4686891436576843,-0.676042914390564,-8.635993957519531,23.704500198364254,-30.50119781494141,-0.22205930948257446,-1.3335567712783811,-0.7133235931396484,989.8265991210938,1,1.0,1
12.24,-0.16643426,-1.2432315,9.411481,-0.6388857364654541,0.6342043876647949,-1.10161554813385,-8.797521591186523,22.973491668701172,-29.97162628173828,-0.4766847491264343,0.7292011380195618,0.5313816070556641,989.8291625976562,1,1.0,1
12.28,-0.24293901,-1.2765965,9.383073,-0.6388857364654541,0.6342043876647949,-1.10161554813385,-8.797521591186523,22.973491668701172,-29.97162628173828,-0.38446390628814703,0.5826068520545961,1.8156933784484863,989.8291625976562,1,1.0,1
12.32,-0.090013176,-1.2622962,10.384397,-0.9672527909278871,0.15989573299884796,-0.5464798808097839,-10.455720901489258,24.89657974243164,-28.28894424438477,-0.8490399122238159,-0.0084761381149292,0.35325050354003906,989.8849487304688,1,1.0,1
12.36,-0.4867648,-1.9796624,8.810203999999999,-0.9672527909278871,0.15989573299884796,-0.5464798808097839,-10.455720901489258,24.89657974243164,-28.28894424438477,-0.5683364272117615,0.2998402118682861,0.8856849670410156,989.8849487304688,1,1.0,1
12.4,-0.17371556,-1.4315076,10.351251,-0.8190476298332214,0.6389980316162109,-0.668718695640564,-10.730701446533203,25.376638412475586,-28.351646423339844,-0.7598394155502319,-0.672514796257019,-0.384674072265625,989.9227294921876,1,1.0,1
12.44,-0.97436064,-2.6159963999999998,8.00535,-0.9527379870414734,0.09118615090847017,-0.2038642764091492,-10.926225662231444,26.19377136230469,-27.29154968261719,0.4357622861862183,-0.5753999948501587,-0.3170995712280273,989.9227294921876,1,1.0,1
12.48,-1.2133788,-3.3643449999999997,8.142645,-0.61451655626297,0.6899973154067993,-0.2059946954250336,-10.944894790649414,26.650304794311523,-27.161418914794922,0.17848706245422366,1.1961686611175537,2.37641716003418,989.9253540039062,1,1.0,1
12.52,-0.64461,-2.985403,9.697894,-0.8981424570083618,-1.0979143381118774,0.1355556845664978,-11.998427391052244,29.19295310974121,-26.68594741821289,0.6263443827629089,0.10834741592407228,-1.467569351196289,989.9024047851562,1,1.0,1
12.56,-0.47495484,-3.1450822,9.065849,-0.7933468222618103,-0.9126917719841005,-0.09760376811027527,-12.65689754486084,29.68208122253418,-25.76627349853516,0.07234624028205873,-0.4075427055358887,1.2676687240600586,989.9351806640624,1,1.0,1
12.6,0.10098359,-3.5955209999999997,9.896734,-0.7933468222618103,-0.9126917719841005,-0.09760376811027527,-13.771387100219727,30.112951278686523,-24.772918701171875,0.030810505151748657,0.4382896423339844,-1.9103021621704104,989.9351806640624,1,1.0,1
12.64,0.21806097,-3.8147821000000004,9.08715,-0.3508627116680145,-0.37393471598625183,-0.3916163742542267,-14.299227714538574,30.1452693939209,-24.38553237915039,0.05450274050235748,-0.031627893447875984,-0.05905342102050781,989.9277954101562,1,1.0,1
12.68,0.06507927,-3.7051504,8.999559,-0.39973142743110657,0.16974908113479614,-0.42796844244003296,-14.637877464294435,30.35499382019043,-24.42260360717773,-0.03682945668697357,-0.03428840637207031,0.17461585998535156,989.8897094726562,1,1.0,1
12.72,-0.09507206,-3.9005785000000004,9.314395,-0.4547253847122192,0.12594006955623627,-0.2998703122138977,-15.47002124786377,31.31359672546387,-23.426652908325195,0.17792001366615295,-0.13466835021972656,-0.4060955047607422,989.882080078125,1,1.0,1
12.76,0.017225385,-4.079324,8.765201,-0.5119830369949341,0.15803109109401706,-0.3675144612789154,-16.01338005065918,30.69904518127441,-22.691089630126953,0.08763371407985687,-0.19716644287109372,-0.0388174057006836,989.91748046875,1,1.0,1
12.8,0.39241213,-4.870571,8.469298,-0.8697782158851624,0.24764633178710935,-0.5368912220001221,-15.95688533782959,31.70007133483887,-22.604400634765625,-0.2088831067085266,-0.06636285781860353,0.1161336898803711,989.9553833007812,1,1.0,1
12.84,0.18685263,-5.085066,8.455092,-0.8123868107795715,0.2505757808685303,-0.4898863434791565,-16.683048248291016,31.54615592956543,-21.328731536865234,-0.0532846674323082,0.4517145156860352,0.02234077453613281,989.9273681640624,1,1.0,1
12.88,0.45210385,-5.173246400000001,7.8041089999999995,-0.8616549968719482,0.21808521449565887,-0.4024014472961426,-17.243659973144528,32.49595260620117,-20.912996292114254,-0.4337490200996399,0.03236055374145508,0.4672369956970215,989.9248657226562,1,1.0,1
12.92,0.4162274,-5.3043260000000005,8.234939,-0.954732060432434,0.16229195892810822,-0.2691102623939514,-16.937814712524414,31.9914608001709,-19.775840759277344,-0.2574110627174377,-0.4261775016784668,-0.11207103729248047,989.9169311523438,1,1.0,1
12.96,-0.47045416,-4.3271812999999995,8.128411,-0.5981348752975464,-0.1350497454404831,0.2115899920463562,-16.714275360107422,32.88541030883789,-19.55466079711914,0.3394046127796173,-1.163074970245361,-0.36171722412109375,989.90966796875,1,1.0,1
13.0,0.07202572,-4.434428,8.530833,-0.5037257075309753,-0.21241454780101776,0.39002177119255066,-16.672317504882812,33.609329223632805,-19.29554748535156,0.5491603016853333,-1.3082270622253418,-0.4855670928955078,989.9320678710938,1,1.0,1
13.04,0.5523680999999999,-5.49022,9.205483000000001,0.1476832926273346,-0.12972351908683774,0.12383914738893508,-16.603103637695312,34.253849029541016,-19.72884750366211,-0.4689540565013886,-0.5243334770202637,-0.33437633514404297,989.9191284179688,1,1.0,1
13.08,0.41611576,-6.107488,7.7378144,0.632644772529602,-0.11760620027780533,0.2197129726409912,-16.914493560791016,34.384166717529304,-20.458332061767575,-0.5705865025520325,1.4081196784973145,-0.6179571151733398,989.9220581054688,1,1.0,1
13.12,-0.41081825,-4.6441545,9.697856,0.8423687815666199,0.9331430792808532,0.27430787682533264,-15.636712074279785,33.685359954833984,-22.38498306274414,-0.3675945997238159,0.008724689483642578,-0.2815589904785156,989.944580078125,1,1.0,1
13.16,-1.8726214,-5.7643156,12.024891,0.7157358527183533,0.2252754122018814,-0.008652658201754093,-15.645323753356935,32.887928009033196,-23.64572906494141,1.2911943197250366,1.2046499252319336,-2.894098281860352,989.929443359375,1,1.0,1
13.2,-2.8883395,-3.84101,10.812882,1.2318532466888428,-0.17819269001483914,-0.21065443754196167,-15.68936824798584,32.110523223876946,-25.74901390075684,2.1574785709381104,0.9989478588104248,-2.6596174240112305,989.96240234375,1,1.0,1
13.24,-2.5418130000000003,-2.1274322999999997,9.719233500000001,1.8703408241271973,0.7420625686645508,0.3530010282993317,-14.66599178314209,30.54220390319824,-28.971302032470703,2.1658105850219727,-0.9926116466522216,-0.2759952545166016,990.1145629882812,1,1.0,1
13.28,-2.097301,-2.5611887,10.909936,2.098573446273804,-0.016538161784410477,0.6452828049659729,-14.525060653686525,27.83099937438965,-31.220890045166016,1.5062925815582275,0.2749669551849365,-1.055746078491211,990.0486450195312,1,1.0,1
13.32,-1.3444915000000002,-2.265662,11.695846000000001,1.3658055067062378,-0.2763293385505676,0.8930898308753967,-14.53614330291748,23.503122329711914,-34.43023681640625,0.5845841765403748,0.6036398410797119,-2.394354820251465,989.994873046875,1,1.0,1
13.36,-0.63948,-0.9834578000000002,10.914667999999999,1.3658055067062378,-0.2763293385505676,0.8930898308753967,-14.53614330291748,23.503122329711914,-34.43023681640625,0.3793850541114807,0.3189021348953247,-1.8015089035034182,989.994873046875,1,1.0,1
13.4,0.3164711,0.07233477,10.666111,1.6873821020126345,-0.199097752571106,0.978710412979126,-14.521137237548828,21.359071731567386,-37.07852554321289,-0.8782588839530945,-0.4965783059597016,-0.5188531875610352,989.9847412109376,1,1.0,1
13.44,-1.1126996999999998,-0.42338696,10.486203,1.7957726716995241,-0.190975159406662,0.1472722589969635,-14.863725662231445,15.297964096069336,-39.36552429199219,1.1300203800201416,0.6999471783638,-0.7855215072631836,989.85498046875,1,1.0,1
13.48,-0.8641595,0.08901818,11.558545,1.7957726716995241,-0.190975159406662,0.1472722589969635,-14.863725662231445,15.297964096069336,-39.36552429199219,0.8192168474197388,0.9235522150993348,-1.3459014892578125,989.85498046875,1,1.0,1
13.52,-1.6528368000000002,0.46557638,10.026964,1.5792582035064695,0.2761429250240326,0.14540810883045194,-15.84926700592041,10.372854232788086,-41.081031799316406,1.659425139427185,1.3425612449645996,0.21821975708007807,989.9459838867188,1,1.0,1
13.56,-1.9993821,0.6324061,9.423327,0.7615354061126709,1.1672358512878418,0.4050661325454712,-14.042694091796875,8.799226760864258,-42.49908828735352,1.0739989280700684,1.4163258075714111,-0.08872222900390625,989.84228515625,1,1.0,1
13.6,-1.9468138,0.81353545,10.176097,0.4142595827579498,1.0503231287002563,0.6768415570259094,-12.058265686035154,7.655059337615968,-43.19983673095703,0.8854328393936157,1.6991943120956419,-0.6965932846069336,989.849365234375,1,1.0,1
13.64,-2.02808,0.49179316,9.309699,0.4142595827579498,1.0503231287002563,0.6768415570259094,-12.058265686035154,7.655059337615968,-43.19983673095703,1.0067015886306765,2.299941301345825,-0.2828178405761719,989.849365234375,1,1.0,1
13.68,-1.8679663,1.3378572,9.960678999999999,0.9122703671455384,0.3059702217578888,0.6579331755638123,-10.914591789245604,6.672059535980225,-44.165382385253906,0.8707045316696167,1.5781561136245728,-0.5247802734375,989.7909545898438,1,1.0,1
13.72,-1.9444526000000002,1.9694261999999998,9.082446000000001,0.66472989320755,0.642859697341919,1.075916051864624,-9.644885063171387,4.01556921005249,-44.35956573486328,0.935185432434082,1.2159566879272459,-0.034104347229003906,989.8060913085938,1,1.0,1
13.76,-1.7006923999999999,2.2649529999999998,11.248435,0.66472989320755,0.642859697341919,1.075916051864624,-9.644885063171387,4.01556921005249,-44.35956573486328,0.4726005792617798,1.558026909828186,-2.5860300064086914,989.8060913085938,1,1.0,1
13.8,-2.4439616,5.2678843,10.737119,0.9016180634498596,1.3989304304122925,0.9511470794677734,-5.712822437286378,2.2720093727111816,-45.40234756469727,0.793441891670227,-1.964974403381348,-2.9514474868774414,989.8212890625,1,1.0,1
13.84,-2.3890033,4.419437,12.446238000000001,0.9016180634498596,1.3989304304122925,0.9511470794677734,-5.712822437286378,2.2720093727111816,-45.40234756469727,0.17948484420776367,-0.8936910629272461,-4.7051658630371085,989.8212890625,1,1.0,1
13.88,-4.291375,3.9975972,8.043241,0.7530139088630676,1.5174411535263062,0.14301159977912906,-2.9850587844848637,1.2440528869628906,-45.60857009887695,0.5137183666229248,0.5843384265899658,-0.4220476150512695,989.9451904296876,1,1.0,1
13.92,-4.9462175,5.472846,7.915410499999999,0.5012122988700867,2.608004570007324,-0.1969405859708786,4.619193077087402,-1.4338970184326172,-46.00778198242188,1.1350061893463137,-0.9309763908386229,-0.4971532821655274,989.6177978515624,1,1.0,1
13.96,-3.6198316,5.1916199999999995,8.081114,0.8607388138771057,1.0868082046508791,0.3490070104598999,4.630602836608887,-4.004561424255371,-45.70515441894531,0.4225583076477051,0.6305856704711914,0.07680130004882812,989.5059814453124,1,1.0,1
14.0,-2.7833753,6.295078299999999,7.266795,1.9020339250564573,-0.4932438433170319,0.5976129770278931,3.4034738540649414,-7.682518005371094,-44.83894348144531,-0.1245722770690918,-0.3965482711791992,0.34953975677490234,989.6631469726562,1,1.0,1
14.04,-3.9305382000000004,4.5862680000000005,6.9637923,1.892713189125061,-0.477531224489212,0.4439487159252167,2.9268827438354488,-10.762687683105467,-44.662254333496094,0.7775194644927979,1.5183696746826172,-0.6117801666259766,989.7315063476562,1,1.0,1
14.08,-3.7704244,4.4647207,4.9919114,1.4638115167617798,0.3163563907146454,0.14647389948368073,3.709588050842285,-13.138612747192385,-43.335105895996094,0.4095711708068848,1.9170794486999512,0.8270244598388672,989.7138061523438,1,1.0,1
14.12,-3.2063292999999997,3.0061526,5.0416303,1.5479674339294434,1.0082449913024902,0.7143925428390503,4.579337120056152,-15.590396881103516,-43.0947151184082,1.2215590476989746,4.3799400329589835,0.8109316825866699,989.7462768554688,1,1.0,1
14.16,-0.91433036,4.5814977,2.1938934,1.464877009391785,0.8306123614311218,1.1803121566772459,4.519735336303711,-19.01888465881348,-40.8833236694336,-1.543140888214111,3.532122135162353,2.195308923721313,989.7158203125,1,1.0,1
14.2,-2.4653792,3.2778443999999998,1.2375436000000002,2.265154838562012,0.3913244605064392,1.7563530206680298,3.6209011077880864,-22.28474235534668,-39.01403045654297,-0.02634429931640625,5.082677841186523,3.592939853668213,989.7489013671876,1,1.0,1
14.24,-4.264978,3.6615523999999997,2.3524957000000004,1.108145236968994,0.5087698101997375,1.334108829498291,2.742722511291504,-24.055330276489254,-38.6981201171875,1.9050519466400144,5.331223487854004,1.945465087890625,989.7032470703124,1,1.0,1
14.28,-1.7747025,3.3541095000000003,1.4955682,0.3591318428516388,-0.08032090961933136,2.283125400543213,-0.4990768432617188,-24.0881404876709,-38.4276008605957,3.0680811405181885,4.50473690032959,3.36869478225708,989.7615966796876,1,1.0,1
14.32,-0.27384675,2.8035722,4.80255,0.6370324492454529,-0.39297574758529663,3.384474754333496,-5.072410106658936,-25.0523624420166,-36.8966064453125,1.0104174613952637,5.876202583312987,-1.2650980949401855,989.7716064453124,1,1.0,1
14.36,0.05356729,2.1886864,1.6399669999999997,0.425577700138092,-1.0049697160720823,3.501520872116089,-10.13759994506836,-25.58061790466309,-36.93199157714844,3.1725499629974365,6.733866691589356,2.140981674194336,989.7666015625,1,1.0,1
14.4,2.436297,2.2315855,0.71439064,0.9447605013847352,-0.37859469652175903,3.564903974533081,-14.877646446228027,-24.59337043762207,-36.182350158691406,1.8086748123168943,5.8109798431396475,2.168358325958252,989.827392578125,1,1.0,1
14.44,4.3506055,1.0256466999999998,-0.050215937,0.7950910329818726,-0.30495837330818176,4.189148902893066,-20.125587463378906,-23.028425216674805,-34.926342010498054,1.9444804191589355,6.232078552246094,3.223534345626831,989.77880859375,1,1.0,1
14.48,6.350951,-1.2337011999999998,-1.3166693,0.4427551329135895,-0.2732667922973633,4.503401279449463,-25.130313873291016,-19.444040298461914,-34.826778411865234,0.9240069389343262,6.437856674194336,3.646536111831665,989.7302856445312,1,1.0,1
14.52,10.726859,-3.0497593999999997,-1.7948446,-0.05964974313974381,-0.4904473721981049,4.791022300720215,-29.77983856201172,-13.420177459716795,-34.462783813476555,-0.8110103607177734,8.053150177001951,5.581114768981934,989.778564453125,1,1.0,1
14.56,13.704675,-2.9496617,4.918541,-0.8679184317588806,-1.33173930644989,5.034035682678223,-34.561107635498054,-7.415191173553468,-32.691665649414055,-5.327581405639648,5.604254722595215,-0.24616074562072754,989.781005859375,1,1.0,1
14.6,13.061788,-1.5530604,7.4419785,-1.975526213645935,-2.519108772277832,4.348804950714111,-38.25587844848633,1.2396197319030762,-30.242225646972656,-3.374922752380371,3.2633190155029297,-5.443625926971436,989.7754516601562,1,1.0,1
14.64,12.746317999999999,-3.4668326,6.6537,-1.7000222206115725,0.024873830378055573,1.112667441368103,-38.88926315307617,11.86545181274414,-28.14891815185547,-3.2043237686157227,4.635808944702148,-4.34384822845459,989.8090209960938,1,1.0,1
14.68,10.535657,-4.155600499999999,4.222583,-1.7000222206115725,0.024873830378055573,1.112667441368103,-38.88926315307617,11.86545181274414,-28.14891815185547,-1.822071075439453,4.604772090911865,-2.637613534927368,989.8090209960938,1,1.0,1
14.72,10.717286,-3.631279,2.482689,-0.8723126053810121,2.1833639144897456,0.2701771557331085,-34.44750213623047,14.92093276977539,-32.938365936279304,-2.190826416015625,3.5741474628448486,1.0698122978210451,989.8186645507812,1,1.0,1
14.76,9.864089,-3.7814254999999997,2.3998365,-0.8723126053810121,2.1833639144897456,0.2701771557331085,-34.44750213623047,14.92093276977539,-32.938365936279304,-1.4771432876586914,3.522995948791504,1.0649025440216064,989.8186645507812,1,1.0,1
14.8,11.266959,-3.2880867,2.5371342,-0.663520872592926,1.4647105932235718,0.5669862627983093,-32.37800979614258,16.912544250488278,-35.067459106445305,-1.6115808486938477,3.0946044921875,3.008872985839844,989.8134765625,1,1.0,1
14.84,12.438008,-2.8090477000000003,5.9979835,-1.4506171941757202,0.6424603462219238,1.5327806472778318,-27.392513275146484,23.26757431030273,-37.59328079223633,-3.3539352416992188,1.798175811767578,-1.1430182456970217,989.8385620117188,1,1.0,1
14.88,10.038544,-4.501175,4.4924425999999995,-1.4506171941757202,0.6424603462219238,1.5327806472778318,-27.392513275146484,23.26757431030273,-37.59328079223633,-1.8438367843627932,2.911637783050537,0.3169713020324707,989.8385620117188,1,1.0,1
14.92,11.276511,-2.8161976,5.3588385999999995,-1.3451563119888306,1.42449688911438,1.1161296367645264,-23.707733154296875,27.034189224243164,-38.53546142578125,-2.799884796142578,0.3985269069671631,-0.22165632247924805,989.8917846679688,1,1.0,1
14.96,10.741171000000001,-4.448743,4.7125926,-0.7966787815093994,0.544855535030365,1.5347779989242554,-20.536151885986328,30.003889083862305,-38.89002227783203,-3.4196553230285645,1.2703361511230469,0.3636384010314941,989.8614501953124,1,1.0,1
15.0,9.751749,-3.4310832,4.764671,-0.9242439270019532,0.9445956945419312,1.2986891269683838,-16.654850006103516,33.74343490600586,-39.245025634765625,-3.078941345214844,-0.4318451881408691,0.9676275253295898,989.8433227539062,1,1.0,1
15.04,8.819684,-4.253314,5.28072,-1.3560750484466553,0.6860029101371765,0.7785742878913879,-9.43158721923828,40.1887321472168,-36.65507507324219,-2.234368324279785,-0.2919187545776367,0.25417375564575195,989.8810424804688,1,1.0,1
15.08,9.326341000000001,-4.1984987,5.1055470000000005,-1.3560750484466553,0.6860029101371765,0.7785742878913879,-9.43158721923828,40.1887321472168,-36.65507507324219,-2.5884151458740234,-0.8289771080017091,0.6075868606567383,989.8810424804688,1,1.0,1
15.12,7.5112,-5.223279,5.105437,-0.8514065146446228,0.16868434846401215,0.6760427355766296,-6.656245231628418,42.31174850463867,-34.435535430908196,-1.520148754119873,0.21099090576171875,-0.3502383232116699,989.908935546875,1,1.0,1
15.16,6.3711660000000006,-4.6226910000000005,4.9823375,-0.8496683239936829,0.20477102696895602,0.5411627888679504,-4.2982521057128915,46.097900390625,-31.40217590332031,0.2360324859619141,-0.4939050674438477,0.4862227439880371,989.8784790039062,1,1.0,1
15.2,6.351996400000001,-5.0087814,6.137528,-1.1633880138397217,0.17800618708133698,0.6804462075233461,-2.0312414169311523,48.0605583190918,-28.402061462402344,0.06488466262817383,-0.7252845764160156,-1.153407096862793,989.8758544921876,1,1.0,1
15.24,7.047407000000001,-5.5879164,6.897395599999999,-1.1633880138397217,0.17800618708133698,0.6804462075233461,-2.0312414169311523,48.0605583190918,-28.402061462402344,-0.6446213722229004,-0.7394585609436035,-1.9837942123413088,989.8758544921876,1,1.0,1
15.28,6.901572,-6.276683,7.6904035,-0.7286267876625061,-0.3184066712856293,0.6887021660804749,1.239842414855957,50.01440048217773,-24.24742126464844,-0.6789450645446777,0.21634483337402344,-3.435405731201172,989.8729248046876,1,1.0,1
15.32,6.8226547,-6.257615599999999,6.1209435,-0.19519561529159546,-0.5494357943534851,0.5592728853225708,2.515009880065918,49.25873947143555,-23.398906707763672,-0.9503512382507324,-0.1829380989074707,-2.1150560379028316,989.9158935546876,1,1.0,1
15.36,6.1271424,-6.279063,5.6332955,-0.36310729384422297,0.34724974632263184,0.5783147215843201,3.7187900543212886,49.33172225952149,-22.510894775390625,-0.34714603424072266,-0.2916111946105957,-1.1031498908996582,989.89306640625,1,1.0,1
15.4,6.184449,-7.0512447,5.874745,-0.4031873345375061,0.4445881247520447,0.5001512169837952,4.530085563659668,49.51086044311523,-20.875755310058594,-0.576502799987793,0.3053684234619141,-1.4286375045776367,989.8751831054688,1,1.0,1
15.44,5.763776,-6.4864063,5.3302836,-0.10983990877866744,0.21395842730998996,0.4836398363113403,6.096291542053223,48.5537223815918,-20.21427154541016,-0.3890013694763184,-0.4099483489990233,-0.6041555404663086,989.862548828125,1,1.0,1
15.48,6.189128,-6.1813455,5.574101000000001,0.15434594452381134,0.2657567858695984,0.6153332591056824,6.722258567810059,48.40195083618164,-19.60898971557617,-0.7014536857604979,-0.515437126159668,-0.8472523689270021,989.8929443359376,1,1.0,1
15.52,6.581021300000001,-5.869135,5.6687837,0.11093694716691972,0.15070824325084686,0.6877713799476624,7.467360496520996,47.51920700073242,-19.518184661865234,-1.6576571464538574,-1.2167224884033203,-1.1669178009033203,989.8723754882812,1,1.0,1
15.56,5.995444,-6.047879,5.3870830000000005,0.32252538204193115,-0.21654143929481506,0.5274494290351868,8.128192901611326,47.2953987121582,-19.99184226989746,-0.9929471015930176,-1.026057243347168,-0.7130303382873535,989.8723754882812,1,1.0,1
15.6,5.751623,-6.400603299999999,5.5078053,0.23770427703857425,-0.22013677656650546,0.21133266389369965,8.447877883911133,46.910072326660156,-20.24951171875,-0.8104028701782227,-0.5804591178894043,-0.8741264343261719,989.8572998046876,1,1.0,1
15.64,6.5498,-5.859598,5.616692,0.12904790043830872,-0.10442258417606354,0.16645866632461548,7.970827102661133,47.04301834106445,-20.49171638488769,-1.7772321701049805,-1.1321859359741209,-0.08784914016723633,989.8419189453124,1,1.0,1
15.68,5.2759314,-6.188489,4.2839527,0.07844837009906769,0.31076377630233765,0.09069199860095978,8.27833366394043,46.64590454101562,-20.130943298339844,-0.4979023933410645,-0.3252162933349609,-0.4227185249328613,989.8162841796876,1,1.0,1
15.72,5.739522,-6.4196663,5.5267290000000004,0.3719289302825928,0.38346797227859497,-0.2299521267414093,7.965558052062987,46.88066864013672,-21.482200622558594,-0.5765423774719238,-0.28067445755004883,-0.5362720489501953,989.8388061523438,1,1.0,1
15.76,5.0846376,-6.984502,5.001205400000001,0.07365566492080687,-0.09017492830753326,-0.2047850638628006,7.741881370544434,45.88079452514648,-21.004302978515625,-0.11394786834716795,0.1981792449951172,0.15722942352294922,989.9583129882812,1,1.0,1
15.8,5.005719999999999,-6.7604723,5.524352599999999,0.2868419885635376,-0.2963034808635712,-0.28973960876464844,6.4276628494262695,45.80956268310547,-21.567462921142575,0.2550258636474609,0.3262438774108887,-0.2719388008117676,989.8515014648438,1,1.0,1
15.84,4.9602613,-6.4005957,4.070885700000001,0.3250588178634644,-0.17939090728759766,-0.1971946358680725,6.355134963989258,45.74222183227539,-22.476158142089844,0.31796932220458984,-0.2668719291687012,1.3991551399230957,989.8283081054688,1,1.0,1
15.88,4.795307,-6.2289987,3.8317937999999994,0.4219982624053955,0.1911875456571579,-0.09772544354200363,6.450491905212402,45.83166122436523,-22.727039337158203,0.4963526725769043,-0.1855316162109375,1.306056022644043,989.9042358398438,1,1.0,1
15.92,5.156132,-6.269513,4.646106700000001,0.08178073167800902,-0.2812569737434387,-0.09066764265298843,6.08067512512207,45.43368148803711,-24.26343536376953,0.02893352508544922,-0.011006355285644531,0.12512826919555664,989.8661499023438,1,1.0,1
15.96,5.3807325,-6.5006905,5.455685,0.08178073167800902,-0.2812569737434387,-0.09066764265298843,6.08067512512207,45.43368148803711,-24.26343536376953,-0.006278514862060547,0.2548999786376953,-0.5408105850219727,989.8661499023438,1,1.0,1
16.0,5.1273518,-6.2051620000000005,4.1347814,0.1398380696773529,-0.2656775712966919,-0.13274535536766052,5.328889846801758,45.04626083374024,-24.894760131835934,0.3265476226806641,0.020937442779541016,0.8272576332092285,989.8711547851562,1,1.0,1
16.04,5.4379883,-6.209927599999999,4.2839108,0.048759035766124725,-0.1947045475244522,-0.044993847608566284,5.01613712310791,45.70132446289063,-24.422992706298828,-0.04205465316772461,-0.015346050262451172,0.6099634170532227,989.8809814453124,1,1.0,1
16.08,5.882615,-6.4053583,5.592983,0.048759035766124725,-0.1947045475244522,-0.044993847608566284,5.01613712310791,45.70132446289063,-24.422992706298828,-0.3952426910400391,0.04357099533081055,-0.29422569274902344,989.8809814453124,1,1.0,1
16.12,5.464497,-6.5054593,5.0438027000000005,-0.06496128439903259,-0.0915055125951767,-0.1967921108007431,4.542237281799316,44.730873107910156,-24.44714736938477,0.2023906707763672,0.20865440368652344,0.21654939651489255,989.8882446289062,1,1.0,1
16.16,5.636532,-6.238531,5.015393,-0.06496128439903259,-0.0915055125951767,-0.1967921108007431,4.542237281799316,44.730873107910156,-24.44714736938477,0.0572042465209961,-0.035462379455566406,0.14041900634765625,989.8882446289062,1,1.0,1
16.2,5.760769,-6.567423,5.8036675,-0.14285942912101746,-0.172199085354805,-0.11490029841661452,4.055512428283691,45.22327041625977,-24.323974609375,-0.002562999725341797,0.2739086151123047,-0.8775401115417479,989.8703002929688,1,1.0,1
16.24,5.5336905,-6.3624597000000005,4.9041276,-0.0014449594309553506,-0.21108132600784305,0.06632797420024872,2.9999675750732417,45.39383316040039,-24.24828338623047,0.3092541694641113,-0.03160715103149414,0.2565217018127441,989.8676147460938,0,0.0,0
16.28,5.634028,-6.1574965,4.167924,-0.0014449594309553506,-0.21108132600784305,0.06632797420024872,2.9999675750732417,45.39383316040039,-24.24828338623047,0.3218569755554199,-0.19345378875732425,0.7294206619262695,989.8676147460938,0,0.0,0
16.32,6.2266855,-6.4053574,5.121903,-0.07787688821554184,-0.3872494101524353,0.21852782368659973,3.2376089096069336,45.82683181762695,-23.925315856933594,-0.41251087188720703,0.03379344940185547,-0.6217145919799805,989.8546752929688,0,0.0,0
16.36,5.939858999999999,-6.269508999999999,4.198691,-0.07787688821554184,-0.3872494101524353,0.21852782368659973,3.2376089096069336,45.82683181762695,-23.925315856933594,-0.12639713287353516,0.03344297409057617,0.019175052642822262,989.8546752929688,0,0.0,0
16.4,6.0593166,-6.0764627,3.3393927000000003,0.1409023553133011,-0.499501645565033,0.21360130608081815,3.2833986282348637,45.18498611450195,-24.048786163330078,-0.20119857788085935,-0.2819795608520508,1.1208810806274414,989.8798217773438,0,0.0,0
16.44,6.381915,-6.441104,3.8601737000000003,0.1409023553133011,-0.499501645565033,0.21360130608081815,3.2833986282348637,45.18498611450195,-24.048786163330078,-0.3724799156188965,-0.11652708053588867,0.7195370197296143,989.8798217773438,0,0.0,0
16.48,6.1094284000000005,-6.538817400000001,3.8767410000000004,-0.06282857060432434,-0.9527714252471924,0.1998863518238068,1.8651275634765625,45.7535285949707,-24.17144012451172,0.12485980987548828,0.030044078826904293,0.4119880199432373,989.8545532226562,0,0.0,0
16.52,6.35555,-6.612697,3.2636317999999997,0.12106291204690932,-1.1897925138473509,0.29189860820770264,1.330357551574707,45.51611328125,-23.998157501220703,-0.2444729804992676,0.033204078674316406,0.3459782600402832,989.8847045898438,0,0.0,0
16.56,6.298154,-6.8343419999999995,3.3038707,0.2050859481096268,-1.4775469303131104,0.3207940757274628,0.393404483795166,45.32400131225586,-24.53539276123047,-0.08672761917114258,0.1185307502746582,0.032401084899902344,989.8538818359376,0,0.0,0
16.6,6.3028955,-6.927288000000001,2.6481524,0.2050859481096268,-1.4775469303131104,0.3207940757274628,-0.386479377746582,44.75212860107422,-24.99762916564941,0.12468385696411133,0.20399045944213867,0.5592520236968994,989.8538818359376,0,0.0,0
16.64,6.470151,-6.9010715,2.2291540000000003,0.4227995574474335,-1.7333433628082275,0.4535526931285858,-1.7049660682678225,45.30861282348633,-24.904001235961914,0.02493381500244141,0.03818941116333008,0.3720104694366455,989.8690795898438,0,0.0,0
16.68,6.350618,-7.129865,2.0823839,0.3323856592178345,-1.7602413892745972,0.6056192517280579,-2.63651180267334,45.384765625,-25.149829864501953,0.16241455078125,0.15631484985351562,0.20956897735595706,989.851318359375,0,0.0,0
16.72,6.924156,-6.8581705,2.0965835999999998,0.1522233486175537,-1.6838088035583496,0.6940362453460693,-2.390174865722656,45.08855819702149,-25.016490936279297,-0.7583894729614258,-0.5309004783630371,-0.3755711317062378,989.8787841796876,0,0.0,0
16.76,7.194177000000001,-6.736623,2.4540277,-0.10370586067438126,-1.3505144119262695,0.8057559132575989,-2.3642783164978027,45.53390121459961,-24.507648468017575,-0.9863443374633788,-0.6788935661315918,-0.742949366569519,989.8638916015624,0,0.0,0
16.8,6.603833,-7.027382000000001,1.8882627,-0.16868656873703006,-1.0289381742477417,0.5712649822235107,-2.9979915618896484,45.57239151000977,-24.027324676513672,-0.4601163864135742,-0.4426579475402832,-0.6166552305221558,989.8866577148438,0,0.0,0
16.84,6.4795203,-7.244259,1.3769436000000002,0.1584828644990921,-0.8831302523612976,0.17365548014640808,-3.3655829429626465,45.33382034301758,-24.418628692626953,-0.18556737899780276,-0.07541751861572266,-0.07185220718383789,989.8789672851562,0,0.0,0
16.88,6.448414,-7.3753386,1.71545,0.2564874887466431,-0.7395860552787781,0.029046114534139637,-3.7738530635833736,45.37322616577149,-24.819927215576172,-0.11013507843017578,-0.07754898071289062,-0.5944691896438599,989.858642578125,0,0.0,0
16.92,6.484224,-7.241873700000001,1.9734716,-0.0053006685338914394,-0.4295944571495056,-0.0011805826798081398,-4.101986885070802,45.487342834472656,-24.699054718017575,-0.08537149429321289,-0.1347804069519043,-0.7606203556060791,989.870849609375,0,0.0,0
16.96,6.154380000000001,-7.2800055,1.6941383999999997,-0.10583454370498656,-0.14184021949768064,-0.042193073779344566,-4.488682746887207,44.96725463867188,-24.686019897460934,0.3111376762390137,-0.055495262145996094,-0.3946511745452881,989.87841796875,0,0.0,0
17.0,5.898621599999999,-7.1084085,1.3769296,0.034647442400455475,-0.024661291390657425,-0.13979768753051758,-4.7099647521972665,45.4449577331543,-24.83384132385254,0.5606527328491211,-0.3158178329467773,-0.034117341041564934,989.8781127929688,0,0.0,0
17.04,6.0419784000000005,-6.9105954,1.2656677,0.07179887592792511,0.08985447883605957,-0.1191580444574356,-5.437620162963867,46.5018310546875,-24.552600860595703,0.29526424407958984,-0.3387742042541504,0.040645837783813484,989.885498046875,0,0.0,0
17.08,6.104236,-7.320522,1.4952973999999999,0.02785712294280529,0.1114260032773018,-0.051913127303123474,-5.033096790313722,46.30154418945313,-25.219091415405273,0.4569272994995117,0.10716724395751953,-0.2409094572067261,989.895751953125,0,0.0,0
17.12,5.999210400000001,-7.52787,1.7059903000000003,0.03704538568854332,0.006763806566596031,-0.09039561450481416,-5.221607685089111,45.861778259277344,-25.395263671875,0.4916296005249024,0.4093327522277832,-0.4805121421813965,989.8902587890624,0,0.0,0
17.16,5.7601949999999995,-7.689933,1.7722696,0.07019901275634766,-0.02199787087738514,-0.11409888416528703,-5.670451641082764,45.07281875610352,-25.43390274047852,0.7271442413330078,0.4378223419189453,-0.4968905448913574,989.9031982421876,0,0.0,0
17.2,5.913123000000001,-7.4492216,1.4455934,0.08511295169591904,0.04471421614289284,-0.06762666255235672,-5.760262966156006,45.3575668334961,-25.5906925201416,0.6549534797668457,0.36075305938720703,-0.10949432849884032,989.88525390625,0,0.0,0
17.24,6.1019,-7.2728577,1.2775198,0.15741796791553495,0.060559973120689385,0.08657034486532211,-5.486124515533447,44.61366271972656,-26.051311492919922,0.2397990226745605,-0.01455831527709961,0.15515565872192386,989.8878784179688,0,0.0,0
17.28,6.042127,-7.4110875,1.03843,0.2554227113723755,-0.045833304524421685,0.16979427635669708,-5.108721733093262,44.59869766235352,-26.724468231201172,0.2473273277282715,0.1337871551513672,0.5515890121459961,989.9029541015624,0,0.0,0
17.32,6.2452435,-7.449219,1.1946629,0.2554227113723755,-0.045833304524421685,0.16979427635669708,-5.108721733093262,44.59869766235352,-26.724468231201172,0.1259908676147461,0.055336952209472656,0.494787335395813,989.9029541015624,0,0.0,0
17.36,6.2356586,-7.527867,1.5402722,0.20895083248615265,-0.17433075606822968,0.2101412415504456,-4.274895191192627,44.16779327392578,-26.67377471923828,0.005903720855712891,0.2272624969482422,0.06473982334136963,989.8922119140624,0,0.0,0
17.4,6.433995200000001,-7.3586529999999994,1.5213323,0.108416810631752,-0.1583518385887146,0.2171986997127533,-4.3946266174316415,43.63448715209961,-27.00904083251953,-0.2134847640991211,-0.1030569076538086,0.0044695138931274405,989.8922119140624,0,0.0,0
17.44,6.309695,-7.4611339999999995,1.3414226,0.07632599771022798,-0.056219741702079766,0.24915671348571775,-4.124212741851807,43.15000534057617,-26.71442413330078,-0.18652915954589844,-0.09102010726928712,0.22472882270812988,989.8998413085938,0,0.0,0
17.48,6.2451419999999995,-7.627962599999999,1.3485216999999998,0.15528914332389832,-0.15715353190898895,0.17272426187992096,-3.336611270904541,42.622901916503906,-26.26605796813965,-0.1722402572631836,0.08479738235473633,0.2319660186767578,989.8943481445312,0,0.0,0
17.52,6.4888864,-7.580296499999999,1.4455748,0.15528914332389832,-0.15715353190898895,0.17272426187992096,-3.336611270904541,42.622901916503906,-26.26605796813965,-0.40384864807128906,-0.004358768463134766,0.1587212085723877,989.8943481445312,0,0.0,0
17.56,6.5605583,-7.773341,1.6041751,0.07339725643396378,-0.13504935801029205,0.1985570043325424,-3.6866188049316406,42.66437911987305,-26.984394073486328,-0.56103515625,0.18945789337158206,0.016494154930114746,989.9016723632812,0,0.0,0
17.6,6.505565,-7.5612288,1.7296343999999997,0.03677906095981598,-0.14756624400615692,0.14822341501712802,-3.259786367416382,43.27478408813477,-27.08588409423828,-0.5024652481079102,0.004435539245605469,-0.2023448944091797,989.8889770507812,0,0.0,0
17.64,6.648933400000001,-7.4229984,1.5307871000000002,0.14783328771591187,-0.2052236944437027,0.04183042049407959,-3.7365911006927486,42.40729904174805,-27.65450859069824,-0.6653890609741211,-0.1940145492553711,0.08792006969451904,989.8837890625,0,0.0,0
17.68,6.558092,-7.3371997,1.3319398999999998,0.09430403262376784,-0.08804477006196976,-0.0953221470117569,-3.7025423049926762,42.49171829223633,-27.43374252319336,-0.5008673667907715,-0.24392223358154294,0.22144293785095212,989.9066772460938,0,0.0,0
17.72,6.304737,-7.430146700000001,1.386383,-0.0531015694141388,0.08905525505542755,-0.2501847147941589,-4.3095412254333505,42.819095611572266,-27.74428558349609,-0.06850194931030272,-0.03169679641723633,0.15455114841461182,989.89111328125,0,0.0,0
17.76,6.0322629999999995,-7.6112757,1.1828014999999998,-0.0531015694141388,0.08905525505542755,-0.2501847147941589,-4.3095412254333505,42.819095611572266,-27.74428558349609,0.09534406661987303,0.0872049331665039,0.2788169384002685,989.89111328125,0,0.0,0
17.8,5.766958,-7.8782015,0.8371875,-0.10809554904699326,0.2094299793243408,-0.3597736060619354,-4.725857734680176,42.11309051513672,-27.484851837158203,0.4637899398803711,0.4577264785766602,0.6840822100639343,989.9064331054688,0,0.0,0
17.84,5.652218,-7.9925985,0.72119236,-0.2909208834171295,0.3154236674308777,-0.2913302481174469,-5.563706874847412,42.17128372192383,-27.205177307128906,0.7537770271301271,0.7348065376281738,0.8271962404251099,989.8931884765624,0,0.0,0
17.88,5.5828857,-8.128445,0.90109736,-0.2909208834171295,0.3154236674308777,-0.2913302481174469,-4.998474597930908,42.85846328735352,-27.10153579711914,0.8339147567749023,0.7971215248107909,0.7087852954864502,989.8931884765624,0,0.0,0
17.92,5.8576984,-7.966382,1.7627567,-0.462428092956543,0.307567298412323,-0.14938373863697052,-5.263618469238281,43.50529098510742,-26.40566635131836,0.4451675415039063,0.4689450263977051,-0.6625524759292603,989.898193359375,0,0.0,0
17.96,5.797926,-7.475425200000001,1.8574424999999999,-0.5929226875305176,0.21102772653102875,0.006677461788058281,-4.76700496673584,44.81222915649414,-25.01898193359375,0.5170164108276367,0.13943910598754886,-0.6784154176712036,989.8901977539062,0,0.0,0
18.0,6.0321110000000004,-7.539772999999999,1.5331333999999999,-0.6134287118911743,0.2949172258377075,0.08976811170578003,-4.567136764526367,45.42023849487305,-24.16154479980469,0.34182262420654297,0.0986795425415039,-0.3350721597671509,989.8976440429688,0,0.0,0
18.04,6.335603,-7.1417656,1.6609599999999998,-0.682670533657074,0.4761451482772827,0.14289826154708862,-2.9825043678283687,45.00699996948242,-23.303770065307614,-0.21302175521850586,-0.4856877326965332,-0.6810649633407593,989.9080810546876,0,0.0,0
18.08,6.419703,-7.103643400000001,1.9024561999999998,-0.7014456391334534,0.431004524230957,0.1767204850912094,-2.470510482788086,46.85487747192383,-21.566184997558594,-0.3094372749328613,-0.4862051010131836,-0.9073569178581238,989.9227294921876,0,0.0,0
18.12,6.541581,-7.353887599999999,1.6302273,-0.6424581408500671,0.3054368495941162,0.07738402485847473,-2.7622318267822266,47.3187370300293,-20.77853012084961,-0.4066305160522461,-0.08234596252441406,-0.7736260294914246,989.8947143554688,0,0.0,0
18.16,6.4483690000000005,-8.114154,1.9711039000000001,-0.6335413455963135,0.3939885199069977,-0.03060641884803772,-2.5323381423950195,47.63845825195313,-19.369962692260746,-0.16722869873046875,0.5798707008361816,-1.308980941772461,989.8897094726562,0,0.0,0
18.2,6.2356615,-7.8805914,2.349856,-0.7391355633735657,0.4682906866073608,-0.17854486405849454,-2.525002956390381,47.43399429321289,-18.358333587646484,-0.0560460090637207,0.4204044342041016,-1.5280599594116209,989.909912109375,0,0.0,0
18.24,6.0110044,-7.005928999999999,2.0350173,-0.6805459856987,0.4848022758960724,-0.2140980064868927,-2.3191852569580083,47.94198226928711,-17.111040115356445,0.27613067626953125,-0.20998477935791016,-1.598731279373169,989.89208984375,0,0.0,0
18.28,6.371873,-6.340994,0.87745464,-0.5135658979415894,0.7110376358032227,-0.13100741803646088,-2.1538019180297847,47.72751998901367,-16.200164794921875,-0.10048055648803712,-1.1831378936767578,-0.25900697708129883,989.9172973632812,0,0.0,0
18.32,6.563059,-6.5864716,0.25961423,-0.2684220373630524,0.8906676173210144,-0.02701104804873466,-1.7469158172607422,47.79255294799805,-16.420637130737305,-0.35878849029541016,-0.8862357139587402,0.9322901964187622,989.8995971679688,0,0.0,0
18.36,6.453117400000001,-6.712785,0.20043361,-0.09771349281072617,0.7760186791419983,-0.08666578680276871,-1.5549564361572266,47.76106643676758,-15.601547241210938,-0.10730314254760742,-0.6480469703674316,0.8527523875236511,989.89697265625,0,0.0,0
18.4,6.2212906,-6.965412,1.0762979,-0.17308083176612854,0.6999854445457458,-0.1963879019021988,-1.3917989730834959,47.38720321655274,-15.835765838623047,0.09914636611938477,-0.35941362380981445,-0.03777575492858887,989.8939819335938,0,0.0,0
18.44,6.2547426,-7.339587,0.83484274,-0.36030083894729614,0.6657638549804688,-0.31862688064575195,-2.0463852882385254,48.14312744140625,-14.547378540039062,0.2965211868286133,0.19526195526123047,0.7865612506866455,989.8739013671876,0,0.0,0
18.48,5.7934847000000005,-7.8925076,0.6123251000000001,-0.16402597725391388,0.6770823001861572,-0.3350052535533905,-2.157665252685547,47.88103103637695,-14.745849609375,0.6693525314331055,0.7398138046264648,0.8532556891441345,989.8938598632812,0,0.0,0
18.52,5.965551400000001,-7.911572500000001,1.144945,-0.23446644842624664,0.899056613445282,-0.3282141983509064,-2.6437091827392583,48.11105728149414,-15.22330093383789,0.3312969207763672,0.5301685333251953,0.4222913980484009,989.92431640625,0,0.0,0
18.56,6.3359804,-7.530248599999999,1.9355900000000001,-0.3907938301563263,1.0382064580917358,-0.1302082985639572,-1.5547962188720703,48.28728485107422,-14.47760009765625,0.11406469345092772,0.3441152572631836,0.11774122714996338,989.8964233398438,0,0.0,0
18.6,6.2116985,-6.986861,1.9332220000000002,-0.2645600736141205,0.9443301558494568,0.058609690517187125,-1.1254935264587402,48.05666732788086,-13.760414123535154,-0.014981269836425781,-0.18244314193725586,-0.057688236236572266,989.9287719726562,0,0.0,0
18.64,6.811558,-6.910596000000001,2.3971934,-0.08200042694807053,1.0062485933303833,0.13863763213157654,-0.1192169189453125,47.78695297241211,-13.283821105957033,-0.5608196258544922,-0.5079660415649414,0.1186666488647461,989.8807983398438,0,0.0,0
18.68,6.7900424,-6.982094,2.2030819999999998,-0.0919872149825096,1.079219102859497,0.18431083858013156,1.0603265762329102,47.52198028564453,-13.681034088134766,-1.0046977996826172,-0.421602725982666,-0.032295942306518555,989.9180908203124,0,0.0,0
18.72,6.304886,-7.3133698,1.5023897,0.19763144850730896,0.8388690948486328,-0.184802919626236,1.775836944580078,47.66558456420898,-14.415569305419922,-0.34136009216308594,0.17821121215820312,1.2257717847824097,989.9332275390624,0,0.0,0
18.76,6.1136875,-7.842458000000001,3.0245001,0.19763144850730896,0.8388690948486328,-0.184802919626236,1.775836944580078,47.66558456420898,-14.415569305419922,-0.371884822845459,0.4671564102172852,0.2620987892150879,989.9332275390624,0,0.0,0
18.8,5.716957,-7.7161436000000005,3.2304463,-0.11915118247270585,0.8568454384803772,-0.14805126190185547,2.1391048431396484,46.89931106567383,-14.118772506713867,0.08491086959838867,0.4123344421386719,0.165114164352417,989.8900756835938,0,0.0,0
18.84,5.549658,-7.494498299999999,2.7428021,-0.11915118247270585,0.8568454384803772,-0.14805126190185547,2.1391048431396484,46.89931106567383,-14.118772506713867,0.12076711654663085,0.3091216087341309,0.5461893081665039,989.8900756835938,0,0.0,0
18.88,5.563991000000001,-7.077424499999999,2.6646836,0.16447535157203674,0.5623000264167786,0.1917678415775299,3.2806081771850586,47.38946914672852,-15.478118896484375,-0.12359237670898438,-0.30143022537231445,0.8555381298065186,989.8690185546876,0,0.0,0
18.92,6.1495104000000005,-6.9034452,3.2754214,0.21094752848148346,0.12168034911155699,0.2335794568061829,3.8643722534179688,47.51420211791992,-14.805530548095705,-0.7118549346923828,-0.3377275466918945,0.2252817153930664,989.8922119140624,0,0.0,0
18.96,6.0204496,-7.039292,3.2280765,0.21094752848148346,0.12168034911155699,0.2335794568061829,3.8643722534179688,47.51420211791992,-14.805530548095705,-0.5680298805236816,-0.2596545219421387,0.4507336616516113,989.8922119140624,0,0.0,0
19.0,5.736045,-7.301452,3.3488032999999997,0.2988317906856537,-0.09683184325695038,0.08390995860099792,4.1923437118530265,46.87386703491211,-16.050350189208984,-0.3543257713317871,-0.03295278549194336,0.33684134483337397,989.8967895507812,0,0.0,0
19.04,5.560726,-7.3467139999999995,3.5854454,0.11227761954069138,-0.05981394648551941,-0.005572148598730564,4.262646675109863,46.78181076049805,-16.286750793457028,0.026835918426513672,0.13669919967651367,0.2475404739379883,989.866455078125,0,0.0,0
19.08,6.0186806,-7.306175,3.9712162,-0.08879080414772034,0.04258450865745544,0.0038820912595838313,4.0263872146606445,46.24435806274414,-15.98794174194336,-0.4921116828918457,0.10111522674560547,-0.3584537506103516,989.85400390625,0,0.0,0
