Timestamp,Ax,Ay,Az,Gx,Gy,Gz,Mx,My,Mz,LiAx,LiAy,LiAz,P,Value,Type,GroupType,Activities
0.0,0.060941756,-0.15169802,9.771326,0.00022790927323512736,0.0017119657713919878,-0.0009797695092856882,15.789215087890625,-17.728660583496094,-33.97922515869141,0.015986613929271698,-0.0022375136613845825,0.039539337158203125,989.973876953125,0,13.0,1,1
0.04,0.05151704,-0.14931807,9.771338,0.00022790927323512736,0.0017119657713919878,-0.0009797695092856882,-9.480813980102539,25.45740509033203,-32.30426025390625,0.0155746191740036,-0.0021005868911743164,0.04425239562988281,989.973876953125,0,13.0,1,1
0.08,0.056306987999999995,-0.1612347,9.76187,0.0006388243054971099,0.0009594493312761188,0.0004761239979416132,-9.817941665649414,25.668598175048828,-32.41863250732422,0.01496412605047226,0.007441595196723937,0.04425621032714844,989.8252563476562,0,13.0,1,1
0.12,0.051537335,-0.14693525,9.780808,-0.0005596948321908712,0.0004268335178494453,-0.00032286549685522914,-9.936832427978516,25.39913749694824,-32.230575561523445,0.010450489819049835,-0.016179054975509644,0.03005218505859375,989.8204956054688,0,13.0,1,1
0.16,0.07066669999999999,-0.15885189,9.776075,-0.0005596948321908712,0.0004268335178494453,-0.00032286549685522914,-9.936832427978516,25.39913749694824,-32.230575561523445,0.0006704851984977722,0.0028731822967529297,0.03952217102050781,989.8204956054688,0,13.0,1,1
0.2,0.06350714,-0.14693573,9.768975,0.0005053731147199869,-0.00023892456374596802,-0.00045610737288370734,-9.70016860961914,25.46237945556641,-31.73185539245605,0.0009646043181419373,-0.011219009757041931,0.04425716400146485,989.8103637695312,0,13.0,1,1
0.24,0.06351727,-0.15646923,9.768975,0.0005053731147199869,-0.00023892456374596802,-0.00045610737288370734,-9.70016860961914,25.46237945556641,-31.73185539245605,0.010378621518611908,-0.0015822350978851318,0.03952503204345703,989.8103637695312,0,13.0,1,1
0.28,0.06591734,-0.16123602,9.771343,-0.00016051469719968736,-0.0005052244523540139,0.00020964042050763965,-9.20887851715088,24.974401473999023,-32.086952209472656,-0.009043946862220764,-0.0017469525337219238,0.03005504608154297,989.8510131835938,0,13.0,1,1
0.32,0.06114769,-0.13978672,9.776079,-0.00029386821552179754,0.0006932287360541523,-0.0003230752190575004,-9.56163215637207,25.64507102966309,-32.225799560546875,0.010045617818832396,-0.011110037565231323,0.025321006774902344,989.8382568359376,0,13.0,1,1
0.36,0.07788715,-0.1612365,9.773713,0.0003718239313457161,-0.00023886100098025054,-0.00045627501094713807,-9.391002655029297,25.17265892028809,-32.14746856689453,-0.013666234910488129,-0.0014212429523468018,0.0347900390625,989.87353515625,0,13.0,1,1
0.4,0.05638819999999999,-0.15170363,9.764244999999999,0.000105410028481856,-0.0011709507089108227,0.00020947275334037843,-9.4613037109375,25.26471900939941,-31.91106605529785,0.01502901315689087,-0.010907113552093506,0.04426002502441406,989.8506469726562,0,13.0,1,1
0.44,0.061178147999999995,-0.16123697,9.771348,-2.784546813927591e-05,0.0005601184093393384,-0.0003232008893974125,-9.21787166595459,25.07147789001465,-32.32219696044922,0.0005466118454933167,0.012613356113433838,0.039520263671875,989.8329467773438,0,13.0,1,1
0.48,0.05162868,-0.1517041,9.771349,0.00010521445074118674,-0.00037197128403931856,-0.0003232429153285921,-9.331355094909668,25.07028579711914,-31.84273338317871,0.02036810666322708,-0.010921165347099304,0.05372142791748047,989.8534545898438,0,13.0,1,1
0.52,0.07792777,-0.15647087,9.757147,0.00010511666187085213,-0.0010377451544627547,7.618911331519485e-05,-9.482090950012207,24.45550346374512,-32.55336761474609,-0.01320841908454895,0.00299990177154541,0.039511680603027344,989.840576171875,0,13.0,1,1
0.56,0.06598839,-0.16123769,9.787921,-0.0008270867401733994,-0.00010562366514932364,0.0002093050570692867,-9.366926193237305,24.98439216613769,-31.986188888549805,-0.008668117225170134,-0.0017978250980377195,0.00637054443359375,989.8555908203124,0,13.0,1,1
0.6,0.051659107,-0.16123793,9.759514999999999,-0.0004277106781955808,0.0004270239733159542,0.0003424211172387004,-9.51057243347168,25.165571212768555,-31.35878562927246,0.020153991878032684,0.007757306098937987,0.053714752197265625,989.845458984375,0,13.0,1,1
0.64,0.058838993,-0.17077139,9.766619,0.0005042969714850186,-0.00010559188376646488,0.00020922120893374085,-9.579351425170898,25.25910377502441,-31.199689865112305,0.0010809600353240967,0.01259063184261322,0.04897785186767578,989.8560791015624,0,13.0,1,1
0.68,0.06601882,-0.15885523,9.771353999999999,0.00023788344697095454,-0.0006382077699527143,0.0008749690605327487,-9.59611701965332,24.822599411010746,-32.17236328125,-0.008360058069229126,0.007847249507904053,0.02530670166015625,989.8428344726562,0,13.0,1,1
0.72,0.063639104,-0.16123876,9.780823,0.00010462760110385716,-0.0009045078186318277,0.0006086111534386872,-9.672911643981934,25.38297462463379,-32.424270629882805,0.020561866462230682,0.007823586463928223,0.04424095153808594,989.8380126953124,0,13.0,1,1
0.76,0.066039145,-0.15647241,9.759521000000001,9.361869888380171e-05,0.0006692917086184026,0.0009516360005363822,-9.755388259887695,25.46325492858887,-31.569433212280273,-0.003779768943786621,0.003456711769104004,0.04898262023925781,989.858154296875,0,13.0,1,1
0.8,0.037370473,-0.15408939,9.792661,0.0007593106129206718,0.0006693076575174928,0.0002858041843865067,-8.900094985961914,25.579191207885746,-31.4770565032959,0.03427774459123612,-0.010866507887840273,0.006373405456542969,989.8506469726562,0,13.0,1,1
0.84,0.0636695,-0.15647289,9.759521000000001,0.0004928969428874552,-0.00012962418259121478,0.0004189202736597508,-8.993791580200195,25.59714508056641,-32.0025634765625,-0.004134118556976318,0.00825349986553192,0.04425048828125,989.8378295898438,0,13.0,1,1
0.88,0.07801914,-0.15170658,9.7713585,0.0006259570945985615,0.0006693393806926906,-0.0002469114551786333,-8.903543472290039,26.05045318603516,-32.119979858398445,-0.02343655377626419,-0.001000627875328064,0.03478527069091797,989.853271484375,0,13.0,1,1
0.92,0.058910012000000005,-0.17077306,9.790297500000001,0.00035954330815002317,3.5655684769153595e-06,-0.00011379530769772828,-9.003328323364258,26.06251335144043,-32.336257934570305,0.00547211617231369,0.01793988049030304,0.020577430725097656,989.8834228515624,0,13.0,1,1
0.96,0.058920205,-0.15409032,9.771360000000001,-0.000705817888956517,-0.0005290503031574191,0.00028563651721924543,-8.758511543273926,25.76482963562012,-32.1256103515625,0.014905385673046112,-0.0010264068841934204,0.03951740264892578,989.8606567382812,0,13.0,1,1
1.0,0.05166459,-0.15408823,9.780822,-0.0005727578536607325,0.000269913172814995,-0.0001138791849371046,-8.91876220703125,26.035722732543945,-31.346925735473636,0.014892153441905975,-0.0012919604778289795,0.034786224365234375,989.86572265625,0,13.0,1,1
1.04,0.06362045,-0.14932188,9.776088,-0.0004388492670841515,0.0006692651659250258,0.0004190742911305279,-8.635737419128418,26.301082611083984,-31.94495964050293,-2.053380012512207e-05,-0.0109468549489975,0.02531909942626953,989.8378295898438,0,13.0,1,1
1.08,0.051677227,-0.15647182,9.783189,-0.0004389102687127888,0.001068748882971704,0.0005522060673683882,-8.52018928527832,25.935461044311523,-32.403274536132805,0.02803855389356613,0.0031837522983551025,0.030055999755859375,989.8276977539062,0,13.0,1,1
1.12,0.061243205999999994,-0.15170544,9.764253,-0.0004389102687127888,0.001068748882971704,0.0005522060673683882,-8.52018928527832,25.935461044311523,-32.403274536132805,0.008705608546733856,-0.010881438851356506,0.03479194641113281,989.8276977539062,0,13.0,1,1
1.16,0.06602934,-0.15408891,9.76662,0.00035991513868793845,0.0008024528506211936,0.0005521536804735662,-8.319098472595215,25.91281318664551,-32.048019409179695,-0.006036631762981415,-0.010940447449684143,0.02532482147216797,989.8527221679688,0,13.0,1,1
1.2,0.06603569,-0.1564723,9.747683,0.00035991513868793845,0.0008024528506211936,0.0005521536804735662,-8.319098472595215,25.91281318664551,-32.048019409179695,-0.0013852939009666445,-0.0014129430055618286,0.0632009506225586,989.8527221679688,0,13.0,1,1
1.24,0.058872342,-0.16600558,9.771355999999999,-0.0005723126814700662,0.0009356306400150061,-0.00011368838022463025,-8.60503101348877,25.750423431396484,-31.99445152282715,0.002908296883106232,0.0173184871673584,0.04426097869873047,989.8327026367188,0,13.0,1,1
1.28,0.051708937,-0.15885594,9.780825,-0.0005723126814700662,0.0009356306400150061,-0.00011368838022463025,-8.60503101348877,25.750423431396484,-31.99445152282715,0.002604648470878601,0.002895891666412353,0.011118888854980469,989.8327026367188,0,13.0,1,1
1.32,0.061274916,-0.15170622,9.761888,9.3416019808501e-05,0.0009356404771097004,0.00041891713044606155,-8.788677215576174,25.947206497192386,-31.9776668548584,-0.002498961985111237,-0.0064653903245925895,0.063201904296875,989.84033203125,0,13.0,1,1
1.36,0.07084083599999999,-0.16838935,9.778459,9.3416019808501e-05,0.0009356404771097004,0.00041891713044606155,-8.788677215576174,25.947206497192386,-31.9776668548584,-0.0024152323603630066,0.002996727824211121,0.03479290008544922,989.84033203125,0,13.0,1,1
1.4,0.05411786,-0.16362298,9.754787,9.335478534922004e-05,0.000269860727712512,-0.00011374070891179143,-8.430378913879395,25.65071678161621,-32.24648284912109,0.01663120836019516,0.017124488949775696,0.05846309661865234,989.8453369140624,0,13.0,1,1
1.44,0.06368381,-0.15408996,9.773725500000001,0.00035954854683950543,3.564695362001658e-06,-0.0005132668884471059,-8.113441467285156,25.89458274841309,-31.924673080444336,0.012132570147514343,-0.006321728229522705,0.04426288604736328,989.8402099609376,0,13.0,1,1
1.48,0.056520462,-0.15409008,9.7760935,0.00035954854683950543,3.564695362001658e-06,-0.0005132668884471059,-8.113441467285156,25.89458274841309,-31.924673080444336,0.007408350706100464,-0.006313443183898926,0.04426288604736328,989.8402099609376,0,13.0,1,1
1.52,0.07086623,-0.14694044,9.778461,9.311054600402713e-05,-0.00012957339640706778,-0.0002470034232828766,-8.616524696350098,25.476261138916016,-31.97663688659668,-0.006998978555202484,-0.01554091274738312,0.02059364318847656,989.850341796875,0,13.0,1,1
1.56,0.061312973,-0.15885702,9.768991999999999,9.311054600402713e-05,-0.00012957339640706778,-0.0002470034232828766,-8.616524696350098,25.476261138916016,-31.97663688659668,0.012054674327373505,0.003557503223419189,0.04900169372558594,989.850341796875,0,13.0,1,1
1.6,0.058929443,-0.16839024,9.764258,0.0003593036090023816,-0.0002627114299684763,0.00028557571931742126,-8.626498222351074,25.20357894897461,-32.0361328125,0.012115225195884705,0.0034168213605880733,0.03952980041503906,989.8602905273438,0,13.0,1,1
1.64,0.06371558,-0.17077371,9.76426,0.0003593036090023816,-0.0002627114299684763,0.00028557571931742126,-8.626498222351074,25.20357894897461,-32.0361328125,0.0025206431746482853,0.01258660852909088,0.03478813171386719,989.8602905273438,0,13.0,1,1
1.68,0.05894208,-0.17315719,9.757159,-0.0008392399759031832,3.6243000067770485e-06,1.9207451259717345e-05,-8.865470886230469,26.50758171081543,-32.229576110839844,0.017009221017360687,0.007665008306503295,0.05372142791748047,989.86279296875,0,13.0,1,1
1.72,0.073287845,-0.13979134,9.76426,-4.035356687381864e-05,-0.0002626816858537495,0.0006849709898233414,-9.013140678405762,26.316051483154297,-31.27180290222168,0.002527937293052673,-0.016131013631820682,0.044254302978515625,989.812255859375,0,13.0,1,1
1.76,0.049395144,-0.15409121,9.750058000000001,-0.0003067304496653378,0.00026996002998203045,-0.000513476668857038,-8.827291488647461,25.85836601257324,-31.96652030944824,0.016497448086738586,-0.0019352734088897703,0.04898834228515625,989.86767578125,0,13.0,1,1
1.8,0.049401492000000005,-0.16839108,9.768996000000001,-0.0005731074488721787,0.0006694437470287085,-0.0005135028623044491,-8.952132225036621,25.68893051147461,-32.168319702148445,0.0066424235701560965,0.0029150545597076416,0.04899024963378906,989.8399658203124,0,13.0,1,1
1.84,0.06374726,-0.16600789999999999,9.773731,0.0006252528983168304,0.00026997984969057143,-0.00024721320369280875,-9.102272033691406,26.338422775268555,-32.029220581054695,-0.0078068599104881295,0.016998767852783203,0.030050277709960938,989.8499145507812,0,13.0,1,1
1.88,0.061363697,-0.15647498,9.780833,0.0002257180749438703,0.0012020952999591827,-0.001179344835691154,-8.402278900146483,25.835161209106445,-32.415573120117195,0.0010383762419223783,-0.011473819613456726,0.02532291412353516,989.8544921875,0,13.0,1,1
1.92,0.061370045,-0.17077485,9.768998,-0.0003069749218411744,0.0008026314317248763,0.00028536617173813283,-8.442416191101074,25.74484825134277,-32.327117919921875,-0.013086594641208649,0.007310405373573303,0.03478431701660156,989.8373413085938,0,13.0,1,1
1.96,0.063924074,-0.16362897,9.759544,-0.0007065097452141345,3.693712642416358e-06,0.0002853400947060436,-8.575546264648438,25.830421447753906,-31.54176902770996,-0.008783195167779922,-0.0019488632678985602,0.03949451446533203,989.8346557617188,0,13.0,1,1
2.0,0.06409776,-0.15410009,9.76903,0.0007577899959869683,0.0006695544579997659,0.0008177842246368527,-8.620953559875487,25.57776069641113,-32.443801879882805,-0.003907397389411925,-0.006604492664337158,0.04422760009765625,989.844970703125,0,13.0,1,1
2.04,0.061726928,-0.16363370000000002,9.764297000000001,0.00035697911516763264,-0.000265025271801278,0.0001481650397181511,-8.693319320678711,26.036640167236328,-32.228546142578125,0.00542125105857849,0.01204247772693634,0.05368995666503906,989.8246459960938,0,13.0,1,1
2.08,0.05218631,-0.16601747,9.759564,-0.0005753104342147707,0.0002676363510545343,-0.0007840194739401339,-8.921669006347656,26.138694763183594,-31.891393661499023,-0.0044264160096645355,0.002333611249923706,0.03474998474121094,989.8444213867188,0,13.0,1,1
2.12,0.06654477,-0.15648481,9.790339,-0.0005754936719313264,0.0008002979448065162,0.0002811656158883125,-8.525734901428223,25.561279296875,-31.99560356140137,-0.00516192987561226,-0.002378702163696289,0.02054882049560547,989.86474609375,0,13.0,1,1
2.16,0.057004154,-0.15648529,9.764302,-0.00017620305879972875,0.0011998014524579046,0.0002810870937537402,-8.479211807250978,26.28962135314941,-31.96840476989746,-0.00031338632106781006,0.002421736717224121,0.058423042297363274,989.8494873046876,0,13.0,1,1
2.2,0.06419289,-0.15171918,9.771405,-0.00017638641293160615,-0.00026490617892704904,0.0006804823060519992,-8.495134353637695,26.116958618164066,-32.417755126953125,-3.818050026893616e-05,-0.002549126744270325,0.04421424865722656,989.8494873046876,0,13.0,1,1
2.24,0.05704224,-0.15171969,9.778508,0.00011306258966214956,-0.001945697353221476,-0.0005243560881353915,-8.625083923339844,26.3113956451416,-32.48609161376953,0.009984448552131651,-0.006996870040893555,0.039478302001953125,989.8595581054688,0,13.0,1,1
2.28,0.07618046,-0.15887001,9.797448,0.00011306258966214956,-0.001945697353221476,-0.0005243560881353915,-8.625083923339844,26.3113956451416,-32.48609161376953,-0.02379385381937027,-0.002280622720718384,0.02527618408203125,989.8595581054688,0,13.0,1,1
2.32,0.061860085,-0.14695406,9.769043,-0.0004199364630039781,0.0005843631224706769,-0.0001250396016985178,-8.313010215759277,25.9187068939209,-32.35723114013672,-0.004720013588666916,-0.007317736744880676,0.03000354766845703,989.8516845703124,0,13.0,1,1
2.36,0.05948919,-0.15648767,9.776147,-0.0004199364630039781,0.0005843631224706769,-0.0001250396016985178,-8.313010215759277,25.9187068939209,-32.35723114013672,-0.009232744574546814,-0.01207907497882843,0.029999732971191406,989.8516845703124,0,13.0,1,1
2.4,0.07145774,-0.15648803,9.776149,0.00037864458863623435,-0.00021452500368468463,0.00040743502904661,-8.554920196533201,26.11341667175293,-32.02341461181641,-0.013788327574729921,-0.0024372637271881104,0.029997825622558594,989.84912109375,0,13.0,1,1
2.44,0.073866606,-0.16602162,9.766682000000001,0.00037864458863623435,-0.00021452500368468463,0.00040743502904661,-8.554920196533201,26.11341667175293,-32.02341461181641,-0.01847986876964569,0.002052873373031616,0.03472709655761719,989.84912109375,0,13.0,1,1
2.48,0.07627556,-0.15648898,9.769051,0.00011214546975679694,-8.133720984915271e-05,-0.00039159116568043833,-8.393284797668457,25.738080978393555,-32.180328369140625,-0.02798411995172501,0.007176741957664491,0.04893302917480469,989.84912109375,0,13.0,1,1
2.52,0.06434512,-0.14933959,9.776154,-0.0001543536491226405,-0.0008802551310509443,-0.0001253538648597896,-8.520870208740233,26.19783592224121,-31.802644729614254,0.0009691342711448668,-0.016955778002738953,0.04419136047363281,989.8389282226562,0,13.0,1,1
2.56,0.064364135,-0.15172336,9.7666855,0.0007773847319185734,0.0012503316393122075,0.0005402785027399659,-8.055177688598633,25.89665031433105,-32.24170684814453,0.0006633847951889037,0.0024601370096206665,0.03946113586425781,989.8541870117188,0,13.0,1,1
2.6,0.07155287,-0.14934054,9.773789,-2.1746120182797316e-05,-0.0014127976028248668,0.0002738840703386813,-8.563370704650879,25.84220695495605,-32.16020965576172,-0.0036280602216720577,-0.016615644097328186,0.04419136047363281,989.84130859375,0,13.0,1,1
2.64,0.06918198,-0.1541076,9.780892999999999,-0.0005545612657442689,0.00018512754468247292,-0.0006583000649698079,-8.535271644592285,26.026649475097656,-32.329307556152344,-0.0034697353839874268,-0.0073294490575790405,0.0347137451171875,989.8661499023438,0,13.0,1,1
2.68,0.06920099,-0.1469582,9.769059,-0.0008210603846237062,-0.001412738231010735,0.00014056902728043497,-8.340129852294924,26.10402107238769,-32.36389923095703,0.006612129509449004,-0.007590144872665404,0.04890727996826172,989.8536987304688,0,13.0,1,1
2.72,0.06922001,-0.17079148,9.790365,0.00024401981499977407,0.0008509766194038093,7.332564564421773e-06,-8.03857421875,25.80693817138672,-32.39298248291016,-0.01293943077325821,0.0020259320735931396,0.006300926208496094,989.8563232421876,0,13.0,1,1
2.76,0.07162899,-0.16602543,9.769063000000001,0.00024401981499977407,0.0008509766194038093,7.332564564421773e-06,-8.378746032714844,26.01518440246582,-32.352752685546875,-0.01729144155979156,0.002132609486579895,0.03470420837402344,989.8563232421876,0,13.0,1,1
2.8,0.06447834,-0.15887603,9.773798,0.00011067828745581208,-0.001013204688206315,0.0005398856010288,-8.487119674682617,25.65011978149414,-32.00675201416016,0.0022691115736961365,-0.007146388292312622,0.0441741943359375,989.8410034179688,0,13.0,1,1
2.84,0.07883671,-0.16840965,9.776167999999998,0.0010426003718748687,-0.0008800170035101472,0.00014033314073458314,-8.529321670532228,25.926626205444336,-31.93944358825684,-0.01212988793849945,0.016304194927215576,0.04889869689941406,989.846435546875,0,13.0,1,1
2.88,0.07168603,-0.16126028,9.773800999999999,0.0010426003718748687,-0.0008800170035101472,0.00014033314073458314,-8.529321670532228,25.926626205444336,-31.93944358825684,-0.012112841010093687,-0.0024424195289611816,0.04417037963867188,989.846435546875,0,13.0,1,1
2.92,0.06692523,-0.15887746,9.766702,0.0010422337800264359,-0.0010131153976544738,-0.00039245578227564687,-8.935527801513672,25.59921455383301,-32.319595336914055,-0.006945468485355377,-0.00666499137878418,0.029970169067382806,989.8461303710938,0,13.0,1,1
2.96,0.07947397,-0.15645018,9.785476,0.0010422337800264359,-0.0010131153976544738,-0.00039245578227564687,-8.935527801513672,25.59921455383301,-32.319595336914055,-0.010083816945552826,-0.0021536052227020264,0.02539539337158203,989.8461303710938,0,13.0,1,1
3.0,0.06747120599999999,-0.15883216,9.768901,0.0001184174616355449,0.0004502763040363789,-0.0001225872547365725,-8.538315773010254,26.02370262145996,-32.17469024658203,-0.005145326256752014,-0.006794989109039307,0.02540111541748047,989.8331909179688,0,13.0,1,1
3.04,0.06980783,-0.15644756,9.783099,0.0002590658550616354,5.038494418840856e-05,-0.0010477626929059623,-8.546222686767576,25.38419914245605,-32.21303558349609,-0.024049587547779083,0.0027555525302886963,0.02067089080810547,989.8480834960938,0,13.0,1,1
3.08,0.06975457,-0.13499674,9.78546,-0.00013989457511343062,-0.0006154880975373089,0.00015087888459675014,-8.51826286315918,25.46272850036621,-31.68305015563965,-0.00956551730632782,-0.020457163453102112,0.039626121520996094,989.8206176757812,0,13.0,1,1
3.12,0.060141683,-0.15167841,9.792558,-0.00013989457511343062,-0.0006154880975373089,0.00015087888459675014,-8.51826286315918,25.46272850036621,-31.68305015563965,0.014200352132320402,-0.0014432072639465332,0.006487846374511719,989.8206176757812,0,13.0,1,1
3.16,0.072037935,-0.14929381,9.754678,-0.0006714991759508848,0.0004496086621657014,0.0006839508423581718,-8.854166030883789,25.043256759643555,-32.299606323242195,-0.014172166585922241,-0.015671372413635254,0.053836822509765625,989.8505859375,0,13.0,1,1
3.2,0.055255353,-0.15882567,9.764142,0.000660593737848103,-0.001281527802348137,-0.0003810925700236112,-8.554132461547853,24.74469947814941,-32.25138092041016,0.019758298993110657,-0.0014377236366271973,0.04910564422607422,989.8304443359376,0,13.0,1,1
3.24,0.06237179,-0.15644106,9.76887,-0.0005373142194002867,-0.00048266357043758035,-0.00038087248685769737,-8.810688018798828,25.768651962280273,-32.1177978515625,0.0049007683992385856,-0.001544460654258728,0.03964424133300781,989.8506469726562,0,13.0,1,1
3.28,0.07426801,-0.15882304,9.773601,-0.0002704849757719785,0.0012483063619583845,0.0005514530930668117,-9.028084754943848,26.51315498352051,-31.89690971374512,-0.009444192051887512,-0.0012243092060089113,0.039650917053222656,989.8709716796876,0,13.0,1,1
3.32,0.055095494,-0.16120502,9.766494,0.0007952923187986016,0.00018295929476153103,-0.0006467483472079039,-8.784110069274902,25.951622009277344,-32.209579467773445,0.01961617916822433,0.008482277393341064,0.05386066436767578,989.8277587890624,0,13.0,1,1
3.36,0.06699169,-0.16597027,9.771224,0.0003963318595197052,-0.0012818612158298492,-0.0002470544131938368,-8.779001235961914,25.587751388549805,-32.343048095703125,-0.0036017522215843205,0.008139118552207947,0.02544879913330078,989.8557739257812,0,13.0,1,1
3.4,0.06693846,-0.15643582,9.775953,-0.0006684181280434133,-0.0011487867450341582,-0.00024683427182026213,-9.02283763885498,26.25519752502441,-32.729446411132805,-0.00329308956861496,0.003229185938835144,0.025449752807617188,989.8609008789062,0,13.0,1,1
3.44,0.06688517,-0.15166798,9.780683,0.00013104299432598054,-0.0008825542172417045,-0.0007792460964992642,-8.852346420288086,25.67686653137207,-31.952035903930664,-0.003252938389778137,-0.01076081395149231,0.020725250244140625,989.8328857421876,0,13.0,1,1
3.48,0.0716117,-0.16358307,9.773577000000001,0.0006641881773248316,0.00018262593948747963,0.00015307962894439695,-9.168985366821287,26.065141677856445,-31.84897804260254,-0.01751147210597992,-0.0009072870016098024,0.02073383331298828,989.84521484375,0,13.0,1,1
3.52,0.061998814000000006,-0.15404865,9.768837,-1.0879302863031626e-06,0.00031570048304274684,0.0002864576817955822,-9.083059310913086,25.513601303100586,-32.060897827148445,-0.007786378264427184,0.0038825720548629756,0.016007423400878906,989.8477172851562,0,13.0,1,1
3.56,0.064335436,-0.15643063,9.7783,0.0005320574855431914,-0.00035017257323488593,0.0005529936170205474,-8.770549774169924,25.858964920043945,-32.206253051757805,0.006891608238220215,0.004041314125061035,0.04442119598388672,989.8578491210938,0,13.0,1,1
3.6,0.06428218,-0.15642932,9.787765,0.00013309702626429498,-0.0006165718077681959,0.0002868978481274098,-9.091212272644043,25.874526977539066,-31.77282524108887,0.01217103749513626,-0.000723227858543396,0.044422149658203125,989.8578491210938,0,13.0,1,1
3.64,0.061839014000000005,-0.13974503,9.775924,0.0003999264154117554,-0.0012824449222534895,-0.000378671771613881,-8.871176719665527,25.607179641723636,-32.94585418701172,0.0025993436574935913,-0.010360568761825563,0.034954071044921875,989.8375244140624,0,13.0,1,1
3.68,0.0713453,-0.1540434,9.783021000000002,-0.0009311394533142447,0.0009811567142605784,-0.00037845174665562814,-9.049415588378906,26.072227478027344,-32.637664794921875,0.007236659526824951,-0.0054846107959747314,0.034961700439453125,989.8626098632812,0,13.0,1,1
3.72,0.06173241,-0.15165883,9.759343,0.0005341112846508622,-0.000616821926087141,0.00015440009883604944,-9.173956871032717,26.53492927551269,-32.414596557617195,-0.006657607853412628,-0.005562245845794678,0.03970050811767578,989.8396606445312,0,13.0,1,1
3.76,0.059289247,-0.14927426,9.778276,-0.0006071719108149409,0.0008940558764152229,-0.00016183903790079055,-9.441762924194336,26.2842960357666,-32.58960723876953,0.002520434558391571,-0.01523773372173309,0.03970623016357422,989.8396606445312,0,13.0,1,1
3.8,0.061625868,-0.16118935,9.79721,-0.0006071719108149409,0.0008940558764152229,-0.00016183903790079055,-9.441762924194336,26.2842960357666,-32.58960723876953,0.002684220671653748,-0.005808055400848389,0.006565093994140625,989.8396606445312,0,13.0,1,1
3.84,0.06396249,-0.16118804,9.778266,-0.0002071844355668873,-3.813306102529168e-05,-0.00069425068795681,-9.191402435302734,26.36079216003418,-32.786636352539055,-0.007074601948261261,0.0034839212894439697,0.034974098205566406,989.8421630859376,0,13.0,1,1
3.88,0.061519325,-0.16357002,9.759324000000001,-0.0006061447784304619,0.0006275732885114849,-2.824093098752201e-05,-9.534618377685547,26.566097259521484,-32.591796875,-0.007227681577205658,-0.006021514534950256,0.05391883850097656,989.8650512695312,0,13.0,1,1
3.92,0.069480956,-0.14452317,9.775967999999999,0.0005933038191869855,0.0007605645223520696,-0.0001609587634447962,-9.321351051330566,26.55523109436035,-32.85497283935547,-0.013702288269996643,-0.020147725939750668,0.02063274383544922,989.8265380859376,0,13.0,1,1
3.96,0.07032424,-0.15884355,9.77131,-0.00021960350568406284,0.0007628306047990918,0.0011646380880847573,-9.109743118286133,26.436973571777344,-32.34177398681641,-0.004600308835506439,0.003743305802345276,0.03957176208496094,989.8546752929688,0,13.0,1,1
4.0,0.06077987,-0.16361046,9.761842,0.0004440131888259202,0.00036370957968756557,-0.00016787266940809786,-9.349992752075195,26.73907852172852,-32.784332275390625,0.01433265209197998,-0.0010978132486343384,0.05377483367919922,989.8417358398438,0,13.0,1,1
4.04,0.06796485,-0.15646103,9.776048,0.0004440131888259202,0.00036370957968756557,-0.00016787266940809786,-9.349992752075195,26.73907852172852,-32.784332275390625,0.004733093082904816,0.013410046696662905,0.0301055908203125,989.8417358398438,0,13.0,1,1
4.08,0.06559008,-0.1516948,9.776049,0.0008433402981609106,9.741752000991256e-05,-3.477759310044348e-05,-8.979114532470703,25.980165481567386,-32.874061584472656,0.014489881694316862,-0.014666080474853516,0.04904937744140625,989.8517456054688,0,13.0,1,1
4.12,0.06799525,-0.15884504,9.7642145,0.000576877617277205,-0.00043519039172679197,0.00023147539468482134,-8.645435333251951,26.24023246765137,-33.402603149414055,-0.0039738863706588745,-0.009929567575454712,0.039572715759277344,989.8517456054688,0,13.0,1,1
4.16,0.072790265,-0.15646216,9.766582000000001,-8.905885624699295e-05,-0.0016335882246494293,0.0007640442345291376,-8.98835277557373,27.07766914367676,-32.78289031982422,-0.0039422065019607535,-0.005095615983009338,0.039572715759277344,989.8443603515624,0,13.0,1,1
4.2,0.072805494,-0.15646252,9.7855215,0.0003102685150224716,9.748895536176859e-05,0.0004976654890924691,-9.320808410644533,26.18693733215332,-32.75652313232422,-0.013489551842212677,-0.0001880377531051636,0.025369644165039062,989.8467407226562,0,13.0,1,1
4.24,0.0847702,-0.15169632,9.773686,0.0004432795394677669,-0.0003019610303454101,0.00036444468423724174,-9.100069046020508,26.07752227783203,-32.7071533203125,-0.02254978567361832,-0.005194097757339478,0.030096054077148438,989.8341674804688,0,13.0,1,1
4.28,0.070446014,-0.14216354,9.766587,0.0004432795394677669,-0.0003019610303454101,0.00036444468423724174,-9.100069046020508,26.07752227783203,-32.7071533203125,0.0058218538761138925,-0.019140198826789856,0.05850791931152344,989.8341674804688,0,13.0,1,1
4.32,0.06568146,-0.14931381,9.785525,0.00030982823227532213,0.00023071836039889604,0.0004974768962711097,-8.90438461303711,25.78660774230957,-32.64330291748047,0.010869614779949188,0.004826098680496216,0.030101776123046875,989.8492431640624,0,13.0,1,1
4.36,0.06330678,-0.15646401,9.776058,0.0011086291633546352,-0.00016873161075636744,0.00023109812173061076,-9.153329849243164,26.81792449951172,-32.896240234375,0.0013284683227539062,0.009898260235786438,0.025369644165039062,989.871826171875,0,13.0,1,1
4.4,0.056152284000000004,-0.15408108,9.768958,0.0004426926898304373,0.00036392395850270987,-3.528068191371858e-05,-9.409235000610352,26.36724281311035,-32.291542053222656,0.02002381533384323,-0.004635319113731384,0.058506965637207024,989.8212890625,0,13.0,1,1
4.44,0.06333721,-0.15646479,9.76896,0.0004426926898304373,0.00036392395850270987,-3.528068191371858e-05,-9.409235000610352,26.36724281311035,-32.291542053222656,0.010408185422420502,0.004864096641540527,0.04430389404296875,989.8212890625,0,13.0,1,1
4.48,0.06813228,-0.17076483,9.785531,-0.0002233903796877712,0.0002308136608917266,-0.00016856429283507168,-9.423636436462402,26.196054458618164,-32.818191528320305,0.00546429306268692,0.009577944874763487,0.030099868774414062,989.84619140625,0,13.0,1,1
4.52,0.06575757,-0.15408221,9.759492999999999,0.00030909458291716874,0.0006303112604655325,0.000630320399068296,-9.183792114257812,26.36816215515137,-33.17316436767578,-0.004059270024299622,0.004809230566024779,0.05850410461425781,989.8206787109376,0,13.0,1,1
4.56,0.06816268,-0.14216617,9.766596,4.263201844878495e-05,-0.0007012442802079022,-3.553213900886476e-05,-8.875848770141602,26.70910453796387,-33.086593627929695,-0.013119801878929138,-0.014175370335578918,0.025360107421875,989.8184204101562,0,13.0,1,1
4.6,0.06817794,-0.14693314,9.771333,0.0003088012163061649,-0.0013670101761817932,9.756290819495915e-05,-8.547715187072754,26.594989776611328,-33.20746612548828,-0.0031038075685501103,-0.014451548457145691,0.030084609985351562,989.8410034179688,0,13.0,1,1
4.64,0.061023474,-0.15170005,9.771334,-0.0012892407830804586,-0.0011006705462932589,0.00036381595418788487,-8.44532299041748,25.84781837463379,-32.87158966064453,0.006322622299194336,-0.00984305143356323,0.03481578826904297,989.8258056640624,0,13.0,1,1
4.68,0.06342855,-0.15885022,9.764234,-0.0010230715852230787,0.0010298803681507707,0.0004969110013917089,-8.437414169311522,26.48732185363769,-32.83324432373047,0.020691052079200745,-0.0005060881376266481,0.04901313781738281,989.843505859375,0,13.0,1,1
4.72,0.061053842000000004,-0.14931753,9.7595,-0.0003574286529328674,-0.0009674649336375297,-0.0003020995354745537,-8.473964691162111,26.031665802001953,-32.800949096679695,0.0161081925034523,0.004016414284706116,0.053742408752441406,989.8285522460938,0,13.0,1,1
4.76,0.07540852,-0.1469346,9.773705,-0.00035757533623836935,-0.00030165136558935046,-3.58465185854584e-05,-8.106917381286621,26.638526916503906,-32.508102416992195,0.0019592344760894775,-0.0007262080907821655,0.04427146911621094,989.843505859375,0,13.0,1,1
4.8,0.05630451400000001,-0.15885136,9.776073,0.00017490974278189242,-0.0005679434980265796,0.0004967223503626883,-7.74503231048584,25.97669219970703,-32.83306884765625,0.02584652602672577,0.0037804991006851205,0.044264793395996094,989.85107421875,0,13.0,1,1
4.84,0.06826925,-0.17553475,9.776074000000001,-0.0006241847295314075,9.78700554696843e-05,-3.597224713303149e-05,-7.8874549865722665,25.52720832824707,-32.707839965820305,0.0019660964608192444,0.008607655763626099,0.03952980041503906,989.8511352539062,0,13.0,1,1
4.88,0.06350464,-0.166002,9.776076,0.00030777420033700764,-0.0008342117653228343,0.00036343865212984383,-8.097678184509277,25.541019439697266,-32.599273681640625,-0.002693414688110352,0.01358744502067566,0.03953170776367188,989.81787109375,0,13.0,1,1
4.92,0.053371757,-0.15645479999999998,9.776024000000001,0.00017446957645006478,0.00036423356505110865,-3.60980920959264e-05,-8.000800132751465,25.63192939758301,-32.927459716796875,0.016610249876976013,0.008587166666984558,0.030055999755859375,989.8281860351562,0,13.0,1,1
4.96,0.06710267,-0.14929003,9.7617655,0.000310281669953838,-0.000967776693869382,9.819742990657689e-05,-8.162434577941895,26.007265090942386,-32.770545959472656,0.01319848746061325,-0.005826175212860107,0.04910087585449219,989.8533325195312,0,13.0,1,1
5.0,0.05751139,-0.1564391,9.787801,-0.000482518516946584,-0.00029968781745992595,-0.00042651887633837765,-8.716853141784668,25.85661506652832,-32.29137420654297,0.008231386542320251,0.0036252588033676147,0.02069664001464844,989.8558959960938,0,13.0,1,1
5.04,0.06942910000000001,-0.15882155,9.773595,-0.00048221304314211016,9.97364113572985e-05,0.0003725596761796624,-8.420267105102539,26.02931785583496,-32.886070251464844,0.003609299659729004,-0.0059098899364471436,0.030167579650878906,989.8455200195312,0,13.0,1,1
5.08,0.06700754,-0.14928773,9.759389,-0.00048190687084570527,-0.0009655767353251576,-0.0006925726775079966,-8.780928611755371,26.060487747192386,-33.063270568847656,-0.005363002419471741,-0.01091746985912323,0.03963184356689453,989.8224487304688,0,13.0,1,1
5.12,0.0669758,-0.15643671,9.771222,5.133607191964984e-05,0.000632219307590276,-0.00042599494918249553,-8.729869842529299,25.580984115600586,-32.196258544921875,0.004130706191062927,-0.006230756640434265,0.03489971160888672,989.8123168945312,0,13.0,1,1
5.16,0.052604675,-0.16120258,9.76175,-0.0007473060977645217,9.953787957783788e-05,0.0005062418058514595,-8.63796329498291,26.14168357849121,-33.090049743652344,0.023203641176223755,0.007853671908378601,0.06330680847167969,989.8250732421876,0,13.0,1,1
5.2,0.06930229,-0.1659683,9.764114999999999,-0.0007473060977645217,9.953787957783788e-05,0.0005062418058514595,-8.63796329498291,26.14168357849121,-33.090049743652344,-0.005571678280830382,0.007863700389862059,0.04910564422607422,989.8250732421876,0,13.0,1,1
5.24,0.06688064,-0.14928457,9.768846,-0.0003475268022157252,-0.000166827579960227,-2.625907654874027e-05,-8.650137901306152,26.12989997863769,-32.47161102294922,0.004012472927570343,-0.016140267252922058,0.0443716049194336,989.8199462890624,0,13.0,1,1
5.28,0.062069148,-0.15166709,9.783047,-0.0002140633878298104,-0.00030003514257259667,0.00024018777185119689,-8.957101821899414,26.15871620178223,-32.733932495117195,0.008740916848182678,-0.006925106048583984,0.03490161895751953,989.8326416015624,0,13.0,1,1
5.32,0.05964753,-0.15166631,9.778310000000001,0.0005404046969488263,-4.681592690758407e-05,-0.00039614256820641463,-8.538613319396973,25.39156150817871,-32.599563598632805,-0.0009571462869644164,0.017232373356819153,0.034911155700683594,989.8428344726562,0,13.0,1,1
5.36,0.07156533,-0.16834852,9.780675,0.0005404046969488263,-4.681592690758407e-05,-0.00039614256820641463,-8.538613319396973,25.39156150817871,-32.599563598632805,-0.024759970605373386,0.021989047527313232,0.02070903778076172,989.8428344726562,0,13.0,1,1
5.4,0.066753775,-0.15643129,9.778303999999999,0.0005404046969488263,-4.681592690758407e-05,-0.00039614256820641463,-8.471356391906737,25.29655647277832,-32.681350708007805,0.01317381113767624,0.003024756908416748,0.02071571350097656,989.8428344726562,0,13.0,1,1
5.44,0.05955237,-0.15881386,9.773566,0.0006738681113347411,0.00021945039043203002,0.00026977804373018444,-8.90134048461914,25.78955078125,-32.79791259765625,0.008398495614528656,0.0029800236225128174,0.044391632080078125,989.8326416015624,0,13.0,1,1
5.48,0.07386008,-0.16119629,9.778296000000001,0.00014154278323985636,8.624276961199939e-05,0.000136751274112612,-8.89484691619873,25.32123565673828,-32.309600830078125,0.003950528800487518,0.017129376530647278,0.03018665313720703,989.8251342773438,0,13.0,1,1
5.52,0.054709136,-0.15642896,9.761724000000001,-0.0011897311778739095,8.619311847724019e-05,0.0001368821831420064,-8.688913345336914,25.51483726501465,-33.58441162109375,0.012979097664356232,-0.011302456259727478,0.044399261474609375,989.8174438476562,0,13.0,1,1
5.56,0.06184712,-0.17072788,9.768823,0.0002756171452347189,0.0010181994875892997,0.001069249818101525,-9.02381706237793,25.88543510437012,-32.55368804931641,0.013195835053920746,0.0032699257135391235,0.04913997650146485,989.8424072265624,0,13.0,1,1
5.6,0.07137501,-0.16596055,9.764085000000001,0.0002756171452347189,0.0010181994875892997,0.001069249818101525,-9.02381706237793,25.88543510437012,-32.55368804931641,0.003702618181705475,0.008118033409118652,0.04440975189208984,989.8424072265624,0,13.0,1,1
5.64,0.078513,-0.15642664,9.773551,0.000941712292842567,-0.0007129033328965306,-0.00012904070899821818,-8.563233375549316,25.94812202453613,-32.85929107666016,-0.0013033971190452574,0.008284911513328552,0.039681434631347656,989.8072509765624,0,13.0,1,1
5.68,0.06414187,-0.14927605,9.778283,-0.00025640366948209703,0.0003523105988278985,4.2481988202780485e-06,-8.98908805847168,25.707483291625977,-32.933555603027344,0.008394755423069,-0.010825231671333313,0.03968334197998047,989.8650512695312,0,13.0,1,1
5.72,0.06411016,-0.14927527,9.783014,0.00027683997177518904,-0.0004467363760340959,0.0009366158628836273,-8.997782707214355,26.436697006225586,-32.743927001953125,0.008743569254875183,0.003484323620796204,0.011277198791503906,989.8299560546876,0,13.0,1,1
5.76,0.080807745,-0.16595739,9.775910000000001,0.00027683997177518904,-0.0004467363760340959,0.0009366158628836273,-8.997782707214355,26.436697006225586,-32.743927001953125,-0.015271298587322237,0.008337840437889099,0.020750999450683597,989.8299560546876,0,13.0,1,1
5.8,0.056877047,-0.16119012,9.780642,1.1135853128507733e-05,0.0006184279918670653,0.0004042461223434657,-8.765846252441406,25.969301223754886,-33.137245178222656,0.008406154811382294,0.018037989735603333,0.030229568481445312,989.81982421875,0,13.0,1,1
5.84,0.080744386,-0.15165618,9.778272,0.00041091526509262616,0.0003520624595694244,-0.0002614125551190227,-8.960009574890137,26.261688232421875,-33.278404235839844,-0.020304106175899502,-0.0012052655220031738,0.020761489868164062,989.8350219726562,0,13.0,1,1
5.88,0.0663732,-0.15642196,9.787738000000001,-0.0006540428148582577,8.569695637561381e-05,5.034205969423056e-06,-8.454209327697754,24.83855438232422,-32.734176635742195,-0.0007325261831283568,-0.0009896010160446167,0.030231475830078125,989.8324584960938,0,13.0,1,1
5.92,0.08148104,-0.14929095,9.754666,1.2052390957251193e-05,-0.0008464581333100796,5.165289621800184e-06,-8.483394622802733,25.39069175720215,-32.761985778808594,-0.0061965808272361755,-0.01068265736103058,0.04909706115722656,989.8097534179688,0,13.0,1,1
5.96,0.074311316,-0.15644082,9.7901745,-0.00039373256731778383,-0.00017724436474964023,0.0006704599363729358,-8.693181991577147,26.14255523681641,-32.927627563476555,-0.0058360397815704354,-0.0012888908386230467,0.006483078002929688,989.8096313476562,0,13.0,1,1
6.0,0.06953150000000001,-0.15882412,9.761768,0.0006696651689708233,-0.0005764152156189084,-0.00012928739306516943,-8.653182983398438,26.12694931030273,-32.317001342773445,-0.0009101703763008118,0.003734618425369263,0.03489208221435547,989.7966918945312,0,13.0,1,1
6.04,0.076701224,-0.16120738,9.773603999999999,3.87546606361866e-06,-0.0004432572750374675,-0.0006619191262871027,-8.35246753692627,25.56601905822754,-32.869407653808594,-0.010527215898036957,0.0036173313856124882,0.03489112854003906,989.786865234375,0,13.0,1,1
6.08,0.06714159,-0.16597393,9.780705000000001,-0.0006619142368435861,-0.00017694151028990748,0.0006696602795273067,-8.422087669372559,25.395708084106445,-33.23363494873047,0.008920781314373016,-0.0014218389987945554,0.03961849212646485,989.8369750976562,0,13.0,1,1
6.12,0.062361807000000005,-0.14929095,9.780705000000001,-0.0003955983556807041,-4.3783511500805616e-05,-0.00012928739306516943,-8.357576370239258,25.929887771606445,-32.735939025878906,0.01819485425949097,-0.006222844123840332,0.0301513671875,989.8217163085938,0,13.0,1,1
6.16,0.076701224,-0.16120738,9.761768,0.0005365072283893825,-0.00017694151028990748,0.0002701864286791533,-8.792424201965332,25.78633117675781,-33.045455932617195,-0.015078827738761904,-0.005910933017730713,0.0443572998046875,989.8092651367188,0,13.0,1,1
6.2,0.08148101,-0.15167424,9.771237,0.00040334928780794144,-0.00017694151028990748,0.0001370284880977124,-9.067403793334961,26.26638603210449,-33.10816192626953,-0.010143622756004332,-0.010526537895202637,0.03962516784667969,989.8369140625,0,13.0,1,1
6.24,0.074311316,-0.14690769,9.76887,0.0002701913472265005,8.93743708729744e-05,3.870547516271472e-06,-8.71617317199707,25.594240188598636,-32.891998291015625,-0.01991705596446991,-0.015075922012329103,0.034895896911621094,989.8318481445312,0,13.0,1,1
6.28,0.06953150000000001,-0.14929098,9.78544,0.00013703340664505959,0.00035569025203585625,-0.00012928739306516943,-8.257791519165039,25.917827606201172,-32.51966094970703,0.008582018315792084,-0.000961601734161377,0.03489398956298828,989.8168334960938,0,13.0,1,1
6.32,0.074311316,-0.15882409,9.76887,-0.0007950721774250269,0.0012877958361059427,0.0002701864286791533,-8.626605987548826,26.30992317199707,-32.408790588378906,-0.005395889282226562,0.008421868085861206,0.049091339111328125,989.8369140625,0,13.0,1,1
6.36,0.05758199,-0.16120738,9.76887,0.00013703340664505959,-0.001242204918526113,-0.00012928739306516943,-8.636578559875487,26.0372371673584,-32.468276977539055,-0.0006578788161277771,-0.0011885911226272585,0.025419235229492188,989.8090209960938,0,13.0,1,1
6.4,0.07192141,-0.16597393,9.78544,-0.0006619142368435861,-0.0003100994508713484,0.0005365023389458656,-8.672149658203125,25.951345443725586,-32.611740112304695,-0.005526028573513031,0.008215412497520447,0.02068328857421875,989.8115234375,0,13.0,1,1
6.44,0.08148101,-0.15644082,9.771237,-0.0001292824745178223,0.0002225323114544153,-0.0010613929480314257,-8.492090225219728,26.11990547180176,-32.572364807128906,-0.015079274773597716,0.003487259149551392,0.03488731384277344,989.8343505859376,0,13.0,1,1
6.48,0.07192141,-0.16120738,9.773603999999999,-0.0001292824745178223,0.0002225323114544153,-0.0010613929480314257,-8.492090225219728,26.11990547180176,-32.572364807128906,0.0037743300199508663,0.008229911327362059,0.034888267517089844,989.8343505859376,0,13.0,1,1
6.52,0.062361807000000005,-0.16359064,9.773603999999999,0.0002701913472265005,0.0004888481926172972,-0.0006619191262871027,-8.45445442199707,25.83898162841797,-32.407760620117195,0.013292498886585236,0.017819792032241818,0.03962421417236328,989.8343505859376,0,13.0,1,1
6.56,0.07909113,-0.15167424,9.761768,-0.0003955983556807041,0.000622006191406399,-0.0003956032742280513,-8.253225326538086,25.9222469329834,-32.75157928466797,-0.006104476749897003,0.003302961587905884,0.0632944107055664,989.8262329101562,0,13.0,1,1
6.6,0.07192141,-0.14690769,9.792542,-0.0003955983556807041,0.000622006191406399,-0.0003956032742280513,-8.253225326538086,25.9222469329834,-32.75157928466797,-0.015613488852977753,-0.0062132179737091064,0.006482124328613281,989.8262329101562,0,13.0,1,1
6.64,0.08148104,-0.16120738,9.76887,-0.000528756296262145,0.0004888481926172972,0.0002701864286791533,-8.387740135192871,26.112260818481445,-32.587997436523445,-0.006514906883239746,-0.0011861175298690796,0.04436397552490234,989.8338012695312,0,13.0,1,1
6.68,0.05997193,-0.16359064,9.773603999999999,0.0006696651689708233,0.0006220061331987381,0.0006696602795273067,-8.36146068572998,25.66309928894043,-33.10465240478516,0.012432403862476349,0.003754705190658569,0.049101829528808594,989.8134765625,0,13.0,1,1
6.72,0.07909113,-0.1731238,9.766502000000001,0.00040334928780794144,0.00035569025203585625,-0.0002624453336466104,-8.737885475158691,26.04782676696777,-32.607261657714844,-0.01624058187007904,0.013277903199195862,0.039633750915527344,989.8312377929688,0,13.0,1,1
6.76,0.06714159,-0.14929095,9.773603999999999,0.0009359810501337052,0.0004888481926172972,-0.00012928739306516943,-8.597963333129883,26.126073837280273,-32.47942352294922,0.003066174685955048,-0.010366633534431458,0.015962600708007812,989.8160400390624,0,13.0,1,1
6.8,0.09343052,-0.15644082,9.778338,-0.0002624404150992632,-0.0008427310967817903,0.0001370284880977124,-8.70576286315918,26.60498046875,-33.106712341308594,-0.01585816591978073,-0.0008360743522644043,0.044368743896484375,989.8262329101562,0,13.0,1,1
6.84,0.06714159,-0.17789033,9.771237,-7.070103310979904e-05,0.000280287436908111,-0.00016967355622909963,-8.618154525756836,26.581132888793945,-32.271995544433594,0.007577940821647644,0.008641943335533142,0.02069854736328125,989.8262329101562,0,13.0,1,1
6.88,0.05228150000000001,-0.16596118,9.771189999999999,-7.070103310979904e-05,0.000280287436908111,-0.00016967355622909963,-8.618154525756836,26.581132888793945,-32.271995544433594,0.0311470627784729,0.013195618987083437,0.03963565826416016,989.8262329101562,0,13.0,1,1
6.92,0.09713757,-0.18501379999999998,9.764037,0.00032877278863452375,0.001079235109500587,-0.00030283149681054056,-8.721281051635742,25.958112716674805,-32.75853729248047,-0.03407502919435501,0.017741873860359192,0.03499031066894531,989.821044921875,0,13.0,1,1
6.96,0.054077506,-0.15164691,9.780603999999999,-0.00033577499561943114,0.00014692789409309626,-0.0005686151562258601,-8.609457969665527,25.85191535949707,-32.46161651611328,0.008920058608055116,-0.01085500419139862,0.02552509307861328,989.8287963867188,0,13.0,1,1
7.0,0.06598514,-0.15641245,9.787702000000001,0.0002034147328231484,-0.0013151615858078005,-0.0009612973080947996,-8.092813491821289,26.17757606506348,-32.40631866455078,0.017928682267665863,-0.005907490849494934,0.02553653717041016,989.8234252929688,0,13.0,1,1
7.04,0.0755029,-0.1707111,9.766394,-0.00032841015490703285,0.0008152344962581992,0.00023747008526697755,-8.371977806091309,25.75870513916016,-33.26259613037109,-0.02012801170349121,0.012844443321228027,0.035004615783691406,989.8236694335938,0,13.0,1,1
7.08,0.06590143,-0.1540271,9.771125,-0.000461164367152378,-0.00025009454111568635,-0.0006944625638425349,-8.652502059936522,25.86457824707031,-32.91762542724609,-0.00090751051902771,0.00782860815525055,0.03973674774169922,989.8387451171876,0,13.0,1,1
7.12,0.058689892,-0.15879264,9.780588999999999,-0.0001944452233146876,1.6155769117176533e-05,-0.00016165783745236698,-8.734405517578125,26.7888240814209,-33.03607177734375,0.0088905468583107,-0.001543194055557251,0.03974342346191406,989.82568359375,0,13.0,1,1
7.16,0.06342780599999999,-0.16117486,9.773483,0.0002054319775197655,-0.0002502255665604025,-0.0008272746345028281,-8.618017196655272,26.68705177307129,-32.9710693359375,0.018357470631599426,0.012709081172943115,0.044483184814453125,989.8533935546876,0,13.0,1,1
7.2,0.084895074,-0.15402403,9.766377,-6.0480408137664206e-05,0.00014918275701347739,0.00023816162138246,-8.338470458984375,26.21141242980957,-33.14028167724609,-0.01516953855752945,-0.01564627885818481,0.03975391387939453,989.8359985351562,0,13.0,1,1
7.24,0.0752936,-0.1468732,9.782945,0.00047255484969355166,0.0005485910223796964,-0.0005606131162494421,-8.353446006774902,25.196252822875977,-32.693649291992195,-0.010475605726242064,-0.0011818408966064453,0.030294418334960938,989.82568359375,0,13.0,1,1
7.28,0.06569213,-0.15640524,9.778207,0.0006061161402612925,0.0005485255969688296,-0.0008267560042440891,-8.532526016235353,25.39745903015137,-32.90878295898437,0.008147284388542175,0.022618100047111508,0.0350341796875,989.8206787109376,0,13.0,1,1
7.32,0.06804019,-0.16832063,9.785304,7.388801896013321e-05,0.0010810919338837266,0.00023868042626418173,-8.312872886657715,26.024621963500977,-33.05631256103516,-0.006016351282596588,0.012986168265342712,0.011363983154296877,989.8027954101562,0,13.0,1,1
7.36,0.072778165,-0.16593635,9.782933,-0.0003251825401093811,-0.00025055304286070173,-0.00042693634168244904,-8.581901550292969,26.404651641845703,-32.729156494140625,-0.015504650771617891,0.008303791284561155,0.025571823120117188,989.8106689453124,0,13.0,1,1
7.4,0.070346355,-0.15878543,9.766358,7.469477714039385e-05,1.569735468365252e-05,0.0010379739105701447,-8.571386337280272,26.30904769897461,-32.571212768554695,-0.006177246570587158,-0.0060703307390213,0.03504753112792969,989.8231811523438,0,13.0,1,1
7.44,0.079864085,-0.15878442,9.775824,-5.805966793559492e-05,0.00068142160307616,0.000106041319668293,-8.220016479492188,25.74281883239746,-33.05413055419922,-0.006170473992824554,-0.0009440332651138307,0.030321121215820312,989.8358764648438,0,13.0,1,1
7.48,0.077432334,-0.16593328,9.773452,0.0008744492661207914,0.0005481981206685305,0.0007720035500824451,-8.508152008056639,25.84132957458496,-32.32263946533203,-0.011015564203262327,0.013624101877212523,0.030332565307617188,989.81298828125,0,13.0,1,1
7.52,0.07739049,-0.16116562,9.768714,0.0006085368804633617,0.00014865878620184958,0.0007721766596660018,-8.604892730712889,25.85633659362793,-32.693527221679695,-0.025130569934844967,0.008608102798461914,0.020859718322753903,989.8257446289062,0,13.0,1,1
7.56,0.072568834,-0.15401479999999998,9.756875,-0.00019000735483132305,-0.00025088051916100085,-0.00042607184150256217,-8.644050598144531,26.13578987121582,-32.78083038330078,-0.010676786303520204,0.003911644220352173,0.049269676208496094,989.80517578125,0,13.0,1,1
7.6,0.06535727,-0.1611636,9.766339,7.671202183701098e-05,-0.0002509460609871894,-0.00029274102416820824,-8.74383544921875,26.14785003662109,-32.997116088867195,-0.0014932677149772644,-0.0007968246936798097,0.04927825927734375,989.82275390625,0,13.0,1,1
7.64,0.077264905,-0.13732973,9.7710705,-0.0005886740982532501,0.0017463575350120664,-2.6252208044752482e-05,-8.60695743560791,26.223154067993164,-32.714675903320305,-0.016436673700809482,-0.024315670132637024,0.039824485778808594,989.83544921875,0,13.0,1,1
7.68,0.05810386,-0.15401170000000003,9.756864,0.0011427823919802904,0.001080502406693995,-0.0002923950960393995,-8.880553245544434,26.59876823425293,-32.155601501464844,0.007563598453998566,-0.005207404494285584,0.04929733276367188,989.8380126953124,0,13.0,1,1
7.72,0.0700115,-0.15639398,9.771061999999999,-5.52355486433953e-05,-0.00011798451305367051,-2.5906279915943745e-05,-8.424833297729492,26.0248966217041,-32.654151916503906,-0.006922438740730286,-0.00045274198055267323,0.04456615447998047,989.8125610351562,0,13.0,1,1
7.76,0.060410023,-0.16592601,9.763957000000001,0.0006109576206654309,0.00028142373776063323,-0.0004252072249073535,-8.478530883789062,26.02724647521973,-32.56903076171875,0.002409517765045166,0.009347468614578249,0.0398406982421875,989.81787109375,0,13.0,1,1
7.8,0.08187729,-0.1420922,9.761586,0.00047820320469327266,0.0010803058976307511,0.00037391320802271366,-8.798213958740234,26.41257286071777,-32.311363220214844,-0.016643740236759186,-0.01909199357032776,0.05405044555664063,989.8153686523438,0,13.0,1,1
7.84,0.074665725,-0.16354075,9.778153,7.913276203908026e-05,-0.00038449690327979613,-0.0008243352640420197,-8.561412811279299,26.581727981567386,-32.51172637939453,-0.002476625144481659,0.009640663862228394,0.03512096405029297,989.8151245117188,0,13.0,1,1
7.88,0.06897783,-0.15404394,9.766453,0.0006121678743511437,0.0005475431680679321,0.00024110113736242056,-8.657609939575195,26.22844886779785,-32.784164428710945,-0.013369418680667877,-0.0047547370195388785,0.03498363494873047,989.843017578125,0,13.0,1,1
7.92,0.07616657,-0.15404436,9.768821,-0.00019366396008990702,0.0005486607551574707,0.0005044665886089206,-8.434507369995117,26.38434791564941,-32.288780212402344,-0.013320989906787872,-0.004772871732711792,0.03498077392578125,989.8151245117188,0,13.0,1,1
7.96,0.06901592,-0.15404484,9.792494999999999,-0.00020009779836982489,-0.0003840878489427269,0.0002335838216822594,-9.007756233215332,26.164011001586914,-32.803421020507805,0.0010544732213020325,0.00012156367301940918,0.006572723388671875,989.8174438476562,0,13.0,1,1
8.0,0.06425515,-0.14927876,9.764091,6.603437941521406e-05,0.0004148895968683064,-3.281087265349925e-05,-8.518529891967772,26.0428524017334,-33.179656982421875,-0.00391358882188797,0.0002365708351135254,0.03024768829345703,989.8178100585938,0,13.0,1,1
8.04,0.06905395,-0.15404579,9.773561500000001,-0.0007330967346206307,0.0002817614586092532,-0.00029920530505478377,-8.231512069702147,25.468660354614254,-33.03632354736328,-0.0039640888571739205,-0.004809558391571045,0.03497505187988281,989.8226318359376,0,13.0,1,1
8.08,0.06668311,-0.17072925,9.768828,-0.0007330967346206307,0.0002817614586092532,-0.00029920530505478377,-8.186809539794924,25.56339263916016,-33.356689453125,0.0004383772611618042,6.051361560821533e-05,0.039711952209472656,989.8226318359376,0,13.0,1,1
8.12,0.069091976,-0.1468969,9.771196,0.0005981161957606673,0.00028182094683870673,-3.3046555472537875e-05,-8.812614440917969,26.24138832092285,-32.83802032470703,0.0051656216382980355,-0.013897597789764404,0.04445075988769531,989.8101196289062,0,13.0,1,1
8.16,0.06911105,-0.15166393,9.766465,0.0005981161957606673,0.00028182094683870673,-3.3046555472537875e-05,-8.812614440917969,26.24138832092285,-32.83802032470703,0.005164451897144318,-0.009120792150497437,0.049182891845703125,989.8101196289062,0,13.0,1,1
8.2,0.07629973,-0.14928111,9.768834,0.00033161696046590805,-0.00011762313079088926,0.00023319080355577168,-8.713510513305664,26.49169731140137,-32.02111053466797,0.0005033090710639954,0.0006433427333831787,0.04445075988769531,989.7947998046876,0,13.0,1,1
8.24,0.071538985,-0.17311439,9.771202,0.00033161696046590805,-0.00011762313079088926,0.00023319080355577168,-8.335564613342285,26.108442306518555,-32.59581756591797,-0.004278264939785004,0.015119478106498718,0.030248641967773438,989.7947998046876,0,13.0,1,1
8.28,0.076337814,-0.15643191,9.764102000000001,0.0004645916633307934,1.5564553905278444e-05,0.0006325860740616918,-9.11971664428711,26.164289474487305,-32.40126800537109,-0.018774598836898804,0.0009408891201019287,0.044452667236328125,989.8174438476562,0,13.0,1,1
8.32,0.078746736,-0.14928254,9.778307,0.0008636981947347523,0.00014878209913149476,-0.00029967690352350473,-8.586467742919924,26.40023231506348,-32.497238159179695,-0.009195141494274141,-0.003755539655685425,0.03024768829345703,989.8123779296876,0,13.0,1,1
8.36,0.08115566,-0.16119942,9.771207,-9.407196193933487e-05,0.00012954096018802375,-0.00046948579256422823,-8.777586936950684,26.69556999206543,-32.793006896972656,-0.013862356543540956,0.006138041615486145,0.044455528259277344,989.8223266601562,0,13.0,1,1
8.4,0.08117467,-0.15881660000000003,9.768842,0.0001720606815069914,-0.0002699031902011484,-0.00060272216796875,-8.571822166442871,25.570993423461914,-32.29700469970703,-0.018496766686439514,0.005694970488548279,0.03497505187988281,989.8173217773438,0,13.0,1,1
8.44,0.069244206,-0.15881708,9.773578,-0.00036075443495064974,0.0003959161986131221,0.0005956206587143242,-8.824109077453613,25.967227935791016,-32.820205688476555,-0.01334218680858612,-0.003980070352554321,0.039703369140625,989.8096313476562,0,13.0,1,1
8.48,0.07643291,-0.15166774,9.775948,-0.0006272535538300872,-0.0012019493151456118,0.0003292262263130397,-8.703292846679688,25.76395606994629,-32.288040161132805,-0.008405923843383789,-0.01842361688613892,0.03969764709472656,989.81201171875,0,13.0,1,1
8.52,0.08123177,-0.15643466,9.780683999999999,-0.0006272535538300872,-0.0012019493151456118,0.0003292262263130397,-8.703292846679688,25.76395606994629,-32.288040161132805,-0.027744248509407043,-0.0042102038860321045,0.01602458953857422,989.81201171875,0,13.0,1,1
8.56,0.071691215,-0.1445187,9.771216,3.816920798271895e-05,0.0003960056055802852,-0.0008693524869158863,-8.59339714050293,26.1304931640625,-32.71134185791016,0.0009277015924453736,-0.013495028018951416,0.03969764709472656,989.8223266601562,0,13.0,1,1
8.6,0.06932032,-0.14451918,9.787787,-0.00036148808430880314,0.00026287746732123196,-0.0003367993340361864,-8.071101188659668,25.723989486694336,-32.691055297851555,0.00571855902671814,-0.0089806467294693,0.03022480010986328,989.8397827148438,0,13.0,1,1
8.64,0.08367875,-0.15643609,9.759383,-0.0008943030843511225,-3.408603333809879e-06,-0.0006031937664374709,-8.956560134887695,25.79042625427246,-32.635482788085945,-0.0278499573469162,0.00039212405681610113,0.04442405700683594,989.8145141601562,0,13.0,1,1
8.68,0.07174823,-0.15643653,9.771222,0.00017077708616852758,0.0006624108646064997,0.000195675267605111,-8.464970588684082,25.934585571289066,-32.565696716308594,-0.008857175707817078,0.00024153292179107666,0.03968524932861328,989.8248291015624,0,13.0,1,1
8.72,0.08610672,-0.16597012,9.773591,3.743590787053108e-05,0.0005292827263474463,0.00032875468605197966,-8.333499908447267,25.74162483215332,-32.574668884277344,-0.023011498153209686,0.01905727386474609,0.04441261291503906,989.8119506835938,0,13.0,1,1
8.76,0.08373582,-0.16835389,9.787796,-0.000628537149168551,-0.0005359509377740325,6.236022454686463e-05,-8.294341087341309,25.46217155456543,-32.48736572265625,-0.013157464563846588,0.00443592667579651,0.01599597930908203,989.8222045898438,0,13.0,1,1
8.8,0.06941545,-0.15405467,9.76886,-0.0006287203868851067,-0.00013644750288221985,0.0008612293750047684,-8.137815475463867,25.450706481933594,-32.510818481445305,0.0012293234467506409,-0.00018090009689331052,0.04913806915283203,989.8193969726562,0,13.0,1,1
8.84,0.06654385,-0.14689305,9.778285,-9.627209510654211e-05,-0.00026957571390084917,-0.00033727081608958537,-8.582743644714355,26.140804290771484,-33.252479553222656,-0.003617316484451294,-0.010066911578178406,0.025458335876464844,989.8193969726562,0,13.0,1,1
8.88,0.07320142,-0.16356343,9.759299,-0.00022961373906582597,0.00012992792471777648,-0.0002041915722656995,-8.970120429992676,25.883087158203125,-32.63881683349609,-0.017167486250400543,-0.0004604458808898926,0.03975772857666016,989.81689453125,0,13.0,1,1
8.92,0.080349505,-0.16832945,9.782969,0.00044456718023866415,0.0003948815574403852,-0.000600069179199636,-8.52559757232666,25.66719627380371,-32.694679260253906,-0.01238461583852768,0.013880088925361632,0.020822525024414062,989.8346557617188,0,13.0,1,1
8.96,0.07793802,-0.15164599,9.79007,-0.00021981413010507825,0.0007941268268041313,0.0003326400474179536,-8.79753303527832,26.15019798278809,-32.91199493408203,-0.0031133368611335754,-0.014635175466537476,0.030297279357910163,989.7893676757812,0,13.0,1,1
9.0,0.06835687,-0.16117856,9.761661,0.00017986749298870564,0.0005277771269902587,-0.0005993765080347657,-8.336108207702638,26.47673225402832,-32.69426727294922,0.006301984190940857,0.0046850740909576425,0.04450702667236328,989.822021484375,0,13.0,1,1
9.04,0.077894956,-0.15641147,9.780597,0.0007127071730792522,0.0002614275726955384,0.0008654500124976039,-8.470377922058105,25.666322708129886,-32.85710906982422,-0.027128241956233982,0.0044592320919036865,0.02556705474853516,989.81689453125,0,13.0,1,1
9.08,0.05397433,-0.15164438,9.773494,-0.00048550649080425495,-4.922118932881858e-06,-0.0001997244835365564,-8.417223930358888,26.032262802124023,-33.040679931640625,0.006385497748851776,-0.00994090735912323,0.02556800842285156,989.8321533203124,0,13.0,1,1
9.12,0.075461894,-0.15879372,9.780593,-0.000618248712271452,-0.00027130552916787565,-0.00019954636809416115,-8.637121200561522,26.405527114868164,-32.566734313964844,-0.00808832049369812,-0.0008177012205123901,0.030300140380859375,989.802001953125,0,13.0,1,1
9.16,0.06827062,-0.1540266,9.768754,-0.000618248712271452,-0.00027130552916787565,-0.00019954636809416115,-8.637121200561522,26.405527114868164,-32.566734313964844,-0.012296028435230257,-0.0151909738779068,0.04450130462646485,989.802001953125,0,13.0,1,1
9.2,0.06824902,-0.14210972,9.773486,-0.0006180409109219909,-0.0008039709064178169,0.00020001656957902012,-8.629511833190918,26.41289329528809,-32.95325469970703,-0.0028031542897224426,-0.019749999046325684,0.02556896209716797,989.8193969726562,0,13.0,1,1
9.24,0.07061741,-0.17070848,9.761649,0.0003142725909128785,-0.0002713729627430439,0.00020010559819638732,-9.041943550109863,25.973674774169922,-32.32511138916016,-0.002638734877109528,0.013342604041099548,0.044503211975097656,989.8120727539062,0,13.0,1,1
9.28,0.065816045,-0.15402505,9.768748,-0.00021815137006342408,-5.090833838039544e-06,-0.0004655949596781284,-8.805143356323242,26.142831802368164,-32.525466918945305,-0.0023786798119544983,-0.010557353496551514,0.030298233032226562,989.8142700195312,0,13.0,1,1
9.32,0.07774395,-0.17070739999999998,9.773480000000001,-0.00035110162571072584,-5.1244778660475285e-06,-0.00046550590195693076,-9.060611724853516,26.43020820617676,-32.194976806640625,-0.016762904822826385,0.008697852492332458,0.030304908752441406,989.7965087890624,0,13.0,1,1
9.36,0.06577289,-0.15402398,9.768744,0.0001819459721446037,-0.00013834997662343085,-0.00046532778651453565,-9.14020538330078,25.98720932006836,-32.618698120117195,-0.002071462571620941,-0.0006336420774459839,0.03030872344970703,989.8041381835938,0,13.0,1,1
9.4,0.07053113,-0.15640673,9.7616415,0.0001819459721446037,-0.00013834997662343085,-0.00046532778651453565,-9.14020538330078,25.98720932006836,-32.618698120117195,0.002636738121509552,0.008829131722450256,0.05397987365722656,989.8041381835938,0,13.0,1,1
9.44,0.0657298,-0.13972321,9.759273,0.00031531171407550573,0.00039424802525900304,-0.000332080788211897,-8.800577163696289,26.147254943847656,-32.75738525390625,0.00231800228357315,-0.029122471809387207,0.04451847076416016,989.8118286132812,0,13.0,1,1
9.48,0.08004761,-0.15640566,9.771106,0.00031551963184028864,0.0006605303497053683,-0.00033199173049069936,-9.268632888793944,26.183120727539066,-32.76434326171875,-0.02625361829996109,0.008961424231529236,0.03031635284423828,989.8168334960938,0,13.0,1,1
9.52,0.07046643,-0.15640512,9.761636,-0.00021690432913601398,-5.293236426950898e-06,0.00020072917686775327,-8.763782501220701,25.602481842041016,-33.11609649658203,-0.00713767111301422,-0.004909664392471314,0.03979301452636719,989.8244018554688,0,13.0,1,1
9.56,0.07761454599999999,-0.15878788,9.778203999999999,-0.00021690432913601398,-5.293236426950898e-06,0.00020072917686775327,-8.621358871459961,26.05196952819824,-33.2413330078125,-0.002635598182678223,0.004612088203430176,0.04926490783691406,989.8244018554688,0,13.0,1,1
9.6,0.07520309,-0.1635539,9.775834,0.00044909317512065167,0.000394146831240505,0.0006002921145409347,-8.367549896240233,25.65720558166504,-32.795433044433594,-0.007729403674602509,0.0046171098947525024,0.03506755828857422,989.8320922851562,0,13.0,1,1
9.64,0.053672433,-0.15878686,9.763995,4.982727114111185e-05,0.0009267448331229387,-0.00046488249790854747,-8.970663070678711,26.251375198364254,-32.737266540527344,0.006600238382816315,0.009240150451660156,0.04453754425048828,989.8168334960938,0,13.0,1,1
9.68,0.07515997,-0.14686987,9.780564,0.00031635095365345483,0.0013261849526315928,-6.531938561238348e-05,-8.192055702209473,25.821348190307614,-32.52414703369141,-0.01732877641916275,-0.014363929629325868,0.01140117645263672,989.82958984375,0,13.0,1,1
9.72,0.07274854,-0.15163594,9.794766000000001,0.0003165589878335595,0.00012772968329954892,0.000334243435645476,-8.822725296020508,25.86278533935547,-32.19843292236328,0.0018219277262687683,-0.014237135648727415,0.0019359588623046875,989.8218383789062,0,13.0,1,1
9.76,0.06794715,-0.1564019,9.775826,-0.00034881522879004484,0.0001276622642762959,-0.0004645259177777916,-8.538614273071289,25.39156723022461,-32.599563598632805,-0.007924795150756836,0.00499938428401947,0.011412620544433594,989.844482421875,0,13.0,1,1
9.8,0.06792557,-0.16116801,9.761622000000001,-0.00034881522879004484,0.0001276622642762959,-0.0004645259177777916,-8.538614273071289,25.39156723022461,-32.599563598632805,0.0016704350709915161,0.00974602997303009,0.04928779602050781,989.844482421875,0,13.0,1,1
9.84,0.075375855,-0.15640825,9.768749,0.0008500220719724894,-0.00013872109411749992,-0.00033118991996161634,-8.771093368530272,26.227252960205078,-32.304702758789055,-0.003517486155033112,0.0051987916231155396,0.044503211975097656,989.8218994140624,0,13.0,1,1
9.88,0.061335087,-0.16118222,9.775878,0.0008500220719724894,-0.00013872109411749992,-0.00033118991996161634,-8.771093368530272,26.227252960205078,-32.304702758789055,0.001043066382408142,0.00499098002910614,0.03503227233886719,989.8218994140624,0,13.0,1,1
9.92,0.066117436,-0.14688256,9.771144,-0.0008353253360837697,0.00029604090377688413,0.0003717665967997164,-8.627447128295897,26.04607582092285,-32.932113647460945,0.0010547265410423279,-0.004563719034194946,0.030297279357910163,989.8212890625,0,13.0,1,1
9.96,0.0756796,-0.16833219,9.764043,0.00036307144910097117,0.0005623608012683691,0.0006380719132721424,-8.877264976501465,25.60128593444824,-32.63663482666016,-0.0038741976022720337,0.005029633641242981,0.04923629760742188,989.7989501953124,0,13.0,1,1
10.0,0.07090229,-0.16356564,9.768777,-0.0005690584657713772,0.000695522699970752,0.0003717455838341266,-8.764462471008299,25.86485481262207,-32.51547241210937,0.0006225332617759705,0.01898765563964844,0.04449939727783203,989.8193969726562,0,13.0,1,1
10.04,0.06373513,-0.15879920000000003,9.76641,9.670692088548094e-05,-0.00010342095629312098,0.0005048930761404335,-8.200507164001465,25.55013465881348,-32.66094207763672,0.0057869330048561105,-0.009823918342590332,0.04922676086425781,989.80908203125,0,13.0,1,1
10.08,0.07329726,-0.16356575,9.780614,-0.0005691074766218662,-0.0009023647289723158,-2.7749163564294573e-05,-8.678642272949219,26.419660568237305,-33.10004425048828,-0.013141065835952759,0.0043225884437561035,0.02555084228515625,989.80615234375,0,13.0,1,1
10.12,0.063740194,-0.15403274,9.778246000000001,-0.0007022897480055691,-0.00023657095152884722,-0.0002940755221061408,-8.666604995727539,26.325529098510746,-33.01941680908203,0.0013452768325805664,0.004315808415412903,0.030284881591796875,989.8262939453124,0,13.0,1,1
10.16,0.066132665,-0.15641603,9.771144999999999,9.663357923272996e-05,-0.00010340911103412509,-0.00029408599948510533,-8.285453796386719,26.471437454223636,-32.624778747558594,0.015738420188426968,0.004320502281188965,0.03975200653076172,989.8035888671876,0,13.0,1,1
10.2,0.061355382,-0.16594926,9.778247,-0.0003028649371117353,-0.0007691948558203876,-0.0005604123580269517,-8.761419296264647,25.86780166625977,-32.67008209228516,-0.0031230077147483826,0.004305779933929443,0.035015106201171875,989.8338623046876,0,13.0,1,1
10.24,0.06852764,-0.16356596,9.77588,0.00022974250896368173,-0.0005028749583289027,0.00037168269045650964,-8.549673080444336,25.8554630279541,-32.85595703125,0.001923166215419769,0.004183858633041382,0.030277252197265625,989.8212890625,0,13.0,1,1
10.28,0.07331002,-0.15641627,9.766411999999999,0.00022969349811319262,-0.0005028670420870185,-2.781202783808112e-05,-8.899382591247559,26.52907752990723,-33.14942169189453,0.002287872135639191,-0.000394776463508606,0.05868339538574219,989.8290405273438,0,13.0,1,1
10.32,0.07570239999999999,-0.15403304,9.77588,0.00022969349811319262,-0.0005028670420870185,-2.781202783808112e-05,-8.899382591247559,26.52907752990723,-33.14942169189453,-0.012012235820293428,0.00421026349067688,0.030275344848632806,989.8290405273438,0,13.0,1,1
10.36,0.06614536,-0.15641639,9.764045,-0.0005692783743143082,-0.0002365471882512793,0.0002384933177381754,-8.630491256713867,26.04312896728516,-32.777496337890625,0.007025010883808136,-0.0049742162227630615,0.05395221710205078,989.8368530273438,0,13.0,1,1
10.4,0.063758016,-0.16594955,9.773514,0.0004959604702889919,-0.00036970112705603236,-0.0001609909231774509,-8.514644622802733,26.30964469909668,-32.810943603515625,0.0024078711867332463,0.00446338951587677,0.035012245178222656,989.816162109375,0,13.0,1,1
10.44,0.068540335,-0.16356632,9.754576,-3.66957247024402e-05,-0.0005028551095165311,-2.7843459974974397e-05,-8.69264030456543,25.774267196655273,-32.829177856445305,0.002717427909374237,0.004226773977279663,0.053943634033203125,989.8211669921876,0,13.0,1,1
10.48,0.07093274599999999,-0.15165001,9.761678,9.643776866141708e-05,-0.00010337727144360542,-0.0008268016972579062,-8.410593032836914,25.66986656188965,-33.251449584960945,-0.0023666843771934514,-0.005348026752471924,0.049210548400878906,989.8085327148438,0,13.0,1,1
10.52,0.078105,-0.16356644,9.759312,-0.00030306051485240465,0.0006955742719583213,0.00010529349674470724,-8.561712265014647,25.949596405029297,-32.93659210205078,-0.011820934712886809,0.008840382099151611,0.035003662109375,989.7933959960938,0,13.0,1,1
10.56,0.068547934,-0.15641668,9.768781,-0.0004362429026514292,0.00016294654051307592,0.0003715988423209637,-8.181402206420897,25.8316593170166,-33.06527709960937,0.0024522170424461365,-0.0053739994764328,0.053943634033203125,989.8416137695312,0,13.0,1,1
10.6,0.06377071,-0.15641674,9.778249,-0.0004362673498690128,-0.00036968127824366087,-2.7885427698493004e-05,-8.531547546386719,25.767221450805664,-33.08454132080078,0.0028749555349349976,-0.0011103451251983645,0.03026103973388672,989.8438720703124,0,13.0,1,1
10.64,0.0781126,-0.17309979,9.764047,-0.00016997601778712124,-0.0009023090242408217,0.00010526206460781397,-8.466492652893066,25.933115005493164,-32.48839569091797,-0.01589537411928177,0.017785921692848206,0.03972339630126953,989.8009643554688,0,13.0,1,1
10.68,0.07333535,-0.16594997,9.775883,-0.00017000023217406124,-0.00023651540686842051,-0.0012263280805200338,-8.472878456115723,25.29508399963379,-32.604049682617195,-0.011023484170436859,-0.0010672807693481443,0.030257225036621094,989.8136596679688,0,13.0,1,1
10.72,0.06616819,-0.15403369,9.782985,-3.6866855225525796e-05,-0.00023651144874747843,-2.7916918043047193e-05,-8.580816268920897,25.668073654174805,-32.532257080078125,0.003403864800930023,-0.010743990540504456,0.025519371032714844,989.82861328125,0,13.0,1,1
10.76,0.07334041599999999,-0.16118354,9.780617999999999,-0.00043636525515466934,-0.00010334959370084108,-0.0004274012171663344,-8.331977844238281,25.74309730529785,-32.6519775390625,-0.006410367786884308,0.003412589430809021,0.034987449645996094,989.808349609375,0,13.0,1,1
10.8,0.08529252,-0.15403381,9.766414,-3.691574966069311e-05,-0.0005028193700127304,-0.0006937275757081808,-8.623018264770508,25.944580078125,-32.464950561523445,-0.02052418142557144,-0.006233915686607361,0.030249595642089844,989.7933349609376,0,13.0,1,1
10.84,0.06938785,-0.15399536,9.773373,-0.00017009825387503952,0.0012282378738746047,0.0005046834703534842,-8.447525024414062,26.10871696472168,-32.19365692138672,0.009880401194095613,-0.0015315264463424685,0.03986167907714844,989.8111572265624,0,13.0,1,1
10.88,0.0717181,-0.15161070000000001,9.775734,-0.00017009825387503952,0.0012282378738746047,0.0005046834703534842,-8.447525024414062,26.10871696472168,-32.19365692138672,-0.013952851295471191,-0.015607535839080809,0.025665283203125,989.8111572265624,0,13.0,1,1
10.92,0.06209892,-0.15875897,9.799401,0.0006387801840901375,2.773356391116977e-05,0.00011840596562251447,-8.409750938415527,25.9337100982666,-32.728126525878906,0.0051963403820991525,0.003396004438400269,-0.002734184265136719,989.8084106445312,0,13.0,1,1
10.96,0.06681907,-0.15637428,9.7780905,-0.00029275077395141125,0.00016079825581982732,-0.0002808217541314661,-8.57777214050293,25.67101860046387,-32.686866760253906,0.00014960765838623047,-0.006353780627250671,0.0304107666015625,989.8362426757812,0,13.0,1,1
11.0,0.069149375,-0.15875614,9.761516,-0.00029275077395141125,0.00016079825581982732,-0.0002808217541314661,-8.57777214050293,25.67101860046387,-32.686866760253906,0.00020018965005874636,0.0078021883964538566,0.03987884521484375,989.8362426757812,0,13.0,1,1
11.04,0.07147968,-0.16113788,9.778080000000001,-0.0005584919126704335,0.0002938628604169935,-0.0005468913004733622,-8.557283401489258,25.84809684753418,-32.46942901611328,-0.013958081603050232,0.002745985984802246,0.020941734313964844,989.821044921875,0,13.0,1,1
11.08,0.07380995,-0.15875319,9.77334,-0.000158443464897573,0.0006932433461770415,-0.00014717126032337546,-8.787015914916992,26.05459403991699,-32.75405120849609,-0.009350687265396118,0.0025402605533599854,0.02094554901123047,989.8207397460938,0,13.0,1,1
11.12,0.07136047,-0.16351831,9.775701,-0.0006899263244122268,-0.0003722066758200526,-0.00027983664767816663,-8.781608581542969,26.322858810424805,-32.462646484375,-0.008950397372245789,0.007677808403968811,0.030427932739257806,989.8133544921876,0,13.0,1,1
11.16,0.06652105,-0.15398362,9.759126,0.0007753856480121613,-0.00023914207122288642,0.0002530414203647524,-8.465513229370117,26.302875518798828,-32.664146423339844,-0.004071637988090515,-0.006507143378257752,0.03516674041748047,989.805908203125,0,13.0,1,1
11.2,0.07363111,-0.15398222,9.761486999999999,0.0003764865687116981,2.708061947487295e-05,-0.00014618615387007594,-8.740928649902344,26.04488182067871,-32.45264434814453,-0.00853731483221054,0.0028250962495803837,0.030431747436523438,989.8084106445312,0,13.0,1,1
11.24,0.06640175,-0.15159753,9.778052,-0.0006882023299112916,-0.0011714340653270485,0.0009193236473947763,-8.403120040893555,25.57131385803223,-32.93889617919922,-0.003264792263507843,0.002358987927436829,0.02569198608398437,989.8134765625,0,13.0,1,1
11.28,0.06873202,-0.14921269,9.773313,-0.0005544697633013129,-0.0005057377275079489,-1.2535660061985256e-05,-9.06547737121582,25.79365348815918,-32.38793182373047,-0.003176666796207428,-0.016574427485466003,0.025699615478515625,989.7933349609376,0,13.0,1,1
11.32,0.06867242,-0.15397784,9.766206,-0.0005538951372727752,2.6800757041200995e-05,0.0007866581436246634,-9.14020538330078,25.98720932006836,-32.618698120117195,0.011438645422458649,-0.002276510000228882,0.04937458038330078,989.7958374023438,0,13.0,1,1
11.36,0.066222936,-0.16112626,9.778037,0.00011246895883232356,-0.0010385559871792793,0.0003874306567013264,-8.748401641845701,26.14343452453613,-32.76519775390625,-0.0027308911085128784,-0.0022382140159606934,0.030445098876953125,989.8236694335938,0,13.0,1,1
11.4,0.06855321,-0.14682505,9.763827000000001,0.00011926444130949675,-7.378919690381736e-05,-0.0005785145331174135,-8.803621292114258,26.14430427551269,-32.602767944335945,-0.007126234471797944,-0.0021841078996658325,0.0399160385131836,989.8258056640624,0,13.0,1,1
11.44,0.07088351,-0.16112328,9.770924,0.0007856287993490696,-0.00034019828308373684,-0.00017879452207125726,-8.620517730712889,26.315813064575195,-32.71800994873047,-0.007406026124954224,0.002625033259391785,0.03518962860107422,989.8306884765624,0,13.0,1,1
11.48,0.07560372,-0.15635529,9.770918,-0.0004122179525438696,0.00019234024512115863,-4.539036308415234e-05,-8.555462837219237,26.48170661926269,-32.121864318847656,-0.012068189680576323,-0.0068005621433258065,0.044666290283203125,989.821044921875,0,13.0,1,1
11.52,0.06598449,-0.18018657,9.759076,-0.0006779591785743832,0.00019224690913688391,0.0002211717946920544,-8.270809173583983,25.64219856262207,-32.424545288085945,0.016762301325798038,0.01680588722229004,0.05413627624511719,989.8181762695312,0,13.0,1,1
11.56,0.063534975,-0.1587356,9.775642,0.0003878789430018514,-0.00034047814551740885,0.0011535236844792962,-9.034875869750977,26.349328994750977,-32.810089111328125,0.002457186579704285,-0.002509310841560364,0.02573394775390625,989.8181762695312,0,13.0,1,1
11.6,0.068255186,-0.15635091,9.766167999999999,-0.0002773363667074591,0.00045837624929845333,-4.465159145183861e-05,-8.880851745605469,25.966630935668945,-32.580474853515625,0.002551041543483734,0.002459064126014709,0.03994274139404297,989.8331909179688,0,13.0,1,1
11.64,0.075365186,-0.16111591,9.770896,0.0003890278458129615,5.8809131587622694e-05,-0.0005770369898527862,-8.984222412109375,26.344038009643555,-32.7406005859375,-0.011977098882198334,-0.0022903233766555786,0.030481338500976562,989.8080444335938,0,13.0,1,1
11.68,0.082475305,-0.15158138,9.777992,0.0007890764391049743,0.00045818969374522567,0.0007547885179519652,-8.189555168151855,26.19258689880371,-32.777206420898445,-0.006979763507843018,-0.011503323912620544,0.035228729248046875,989.8312377929688,0,13.0,1,1
11.72,0.08480561,-0.15396324,9.7779875,-9.296607458963989e-06,-7.453534635715187e-05,0.001021350733935833,-8.562690734863281,25.57983207702637,-32.760841369628906,-0.02606908231973648,-0.01598706841468811,0.011566162109375,989.8179321289062,0,13.0,1,1
11.76,0.06562674,-0.16587809,9.761411,0.0006570677505806087,0.00019168725702911613,-0.0007094563916325568,-8.610001564025879,26.2202091217041,-32.56006622314453,0.002488337457180023,0.003012344241142273,0.04944419860839844,989.822998046875,0,13.0,1,1
11.8,0.071735084,-0.15637758,9.7639,0.00039132646634243434,-0.00034103781217709184,-0.00017657820717431605,-8.426355361938478,26.02342414855957,-32.57685089111328,0.009576857089996338,-0.010786116123199465,0.04920387268066406,989.797607421875,0,13.0,1,1
11.84,0.07792711,-0.1683287,9.766396499999999,0.00036538063432089984,0.000861595559399575,0.0002117759722750634,-8.40257740020752,25.203022003173828,-32.84044647216797,-0.005154483020305634,0.01778820157051086,0.04920101165771485,989.8331909179688,0,13.0,1,1
11.88,0.06602964,-0.13734728,9.764033,0.00036538063432089984,0.000861595559399575,0.0002117759722750634,-8.40257740020752,25.203022003173828,-32.84044647216797,-0.00024993717670440674,-0.019874364137649536,0.04446792602539063,989.8331909179688,0,13.0,1,1
11.92,0.07325134,-0.16594788,9.778242,0.006356485188007355,-0.0037987697869539257,-0.0005876013310626148,-8.321163177490233,26.27962684631348,-32.06916046142578,-0.013260930776596071,0.001609697937965393,0.02555370330810547,989.9248657226562,0,13.0,1,1
11.96,0.068523526,-0.14449969,9.764044,-0.004562966525554657,0.002992366906255484,0.00034428943763487036,-8.600028038024902,26.49289321899414,-32.500572204589844,-0.0048956498503685,-0.014710932970046997,0.04919719696044922,989.8916015625,0,13.0,1,1
12.0,0.06857556,-0.1659505,9.764049,-0.004562966525554657,0.002992366906255484,0.00034428943763487036,-8.600028038024902,26.49289321899414,-32.500572204589844,-0.00976291298866272,0.004070669412612915,0.039722442626953125,989.8916015625,0,13.0,1,1
12.04,0.07579726,-0.16356847,9.773522,-0.001101361820474267,0.0005956051754765213,-5.539922858588398e-05,-8.440458297729492,26.484375,-32.678634643554695,-0.019267290830612186,0.00400128960609436,0.0255126953125,989.7112426757812,0,13.0,1,1
12.08,0.0782392,-0.15165332,9.792464,0.00036287421244196594,0.00019621280080173165,0.001409123302437365,-8.573886871337889,25.93781089782715,-32.318153381347656,-0.00394926220178604,-0.012368366122245787,0.02080917358398437,989.7874755859376,0,13.0,1,1
12.12,0.06634167,-0.16357103,9.76643,0.00595500599592924,-0.0033989702351391315,-0.0004553026810754091,-8.530406951904299,26.663204193115234,-32.13634490966797,0.009797364473342896,0.014775186777114868,0.04919147491455078,989.9599609375,0,13.0,1,1
12.16,0.07117349,-0.15165594,9.778271,-0.004831288009881972,0.0019274287624284625,-0.00018920170259661973,-8.659812927246094,26.48935127258301,-32.106231689453125,-0.004539892077445985,0.004151299595832825,0.034964561462402344,989.8480224609376,0,13.0,1,1
12.2,0.068835616,-0.15642372,9.78301,-0.0009702090173959732,-0.000868806557264179,7.689936319366097e-05,-8.300536155700684,26.56262397766113,-32.550804138183594,-0.004068896174430847,-0.005073145031929015,0.020758628845214844,989.7615966796876,0,13.0,1,1
12.24,0.076057315,-0.14689192,9.775912,0.0003608690749388188,-0.001001883065328002,-0.0008554211817681789,-8.829898834228516,26.59347152709961,-32.08611297607422,-0.004358358681201935,-0.014857694506645203,0.025485992431640625,989.7874755859376,0,13.0,1,1
12.28,0.08327904,-0.17072597,9.768816000000001,0.0003608690749388188,-0.001001883065328002,-0.0008554211817681789,-8.186349868774414,26.72175025939941,-31.8078670501709,-0.018374480307102203,0.009370312094688416,0.04442310333251953,989.7874755859376,0,13.0,1,1
12.32,0.076161325,-0.17072728,9.775924,-0.00043857985292561347,0.0009955673012882473,-0.00032300411839969456,-8.429536819458008,25.9145622253418,-31.72316169738769,0.0007444620132446289,0.018776297569274902,0.049149513244628906,989.8302001953124,0,13.0,1,1
12.36,0.07382345,-0.15166226,9.771192,0.0007593403570353985,-0.00020277273142710328,0.00020941277034580708,-8.259856224060059,26.28464317321777,-32.540809631347656,-0.008771747350692749,-0.009890347719192505,0.030205726623535163,989.8475952148438,0,13.0,1,1
12.4,0.0690957,-0.16357997,9.759362,0.00035886370460502803,-6.945198401808739e-05,7.582508260384202e-05,-8.266923904418945,25.90898895263672,-32.055831909179695,0.005416639149188995,0.009317129850387572,0.04913806915283203,989.81494140625,0,13.0,1,1
12.44,0.07392746,-0.16119796,9.77357,-4.111140151508153e-05,0.0004632611526176333,0.0004750840598717332,-8.651660919189451,26.1284236907959,-32.394302368164055,-0.004404127597808838,0.00450703501701355,0.05387020111083984,989.8251342773438,0,13.0,1,1
12.48,0.07158959,-0.15643269,9.754636,-4.161268589086831e-05,0.0001970265730051324,-0.00032407839898951346,-8.51728343963623,25.83249282836914,-31.85880851745605,-0.013816624879837036,0.013914927840232849,0.04912757873535156,989.8048095703124,1,1.0,2,2
12.52,0.071641594,-0.17073363,9.766477,-4.161268589086831e-05,0.0001970265730051324,-0.00032407839898951346,-8.51728343963623,25.83249282836914,-31.85880851745605,0.005437590181827545,0.028495654463768005,0.04439353942871094,989.8048095703124,1,1.0,2,2
12.56,0.062134027,-0.15405196,9.768849000000001,0.0015552801778540015,-6.912653043400496e-05,-0.0001913501473609358,-8.148033142089844,26.178449630737305,-32.24388885498047,0.010112933814525604,-0.0091751366853714,0.03965854644775391,989.8480224609376,1,1.0,2,2
12.6,0.07652542,-0.16358635,9.778323,0.0006226734258234501,-0.0007348348735831678,-5.8406993048265576e-05,-8.273990631103517,25.533334732055664,-31.57085609436035,0.0009958893060684204,0.004801139235496521,0.04438018798828125,989.8502197265624,1,1.0,2,2
12.64,0.08613706,-0.16120437,9.780696,-0.0004430916451383382,-0.0006015955004841089,-0.0008575693937018514,-8.295022010803223,25.72454643249512,-31.88673973083496,-0.0179782435297966,0.009848952293395996,0.015974044799804688,989.8123779296876,1,1.0,2,2
12.68,0.06467992,-0.16597214,9.783066999999999,8.903883281163871e-05,-0.0008678299491293727,-5.8836682001128786e-05,-8.480190277099611,25.91985511779785,-31.79264640808105,0.0006368309259414673,0.01458442211151123,0.030172348022460938,989.837646484375,1,1.0,2,2
12.72,0.052782416,-0.15167376,9.783072,0.00022169560543261468,0.0009964624186977744,-0.0005916834343224764,-8.251543045043945,26.44994163513184,-31.704931259155273,0.029167301952838894,0.00027443468570709234,0.025437355041503903,989.8099975585938,1,1.0,2,2
12.76,0.06717384,-0.16120815,9.799647,0.002884353045374155,-0.0008676672005094588,0.0006065233610570432,-8.067354202270508,25.88486671447754,-31.62326622009277,0.037087798118591316,0.02240636944770813,-0.01712799072265625,989.81982421875,1,1.0,2,2
12.8,0.12736374,-0.25887474,9.775798,0.01912911981344223,-0.0267002247273922,0.001671571983024478,-8.383992195129395,26.273141860961914,-31.52020835876465,-0.0367840901017189,-0.01934446394443512,0.120330810546875,989.8680419921876,1,1.0,2,2
12.84,0.019790292,-0.34943876,9.934396000000001,-0.03718762844800949,0.029091481119394306,0.02045072615146637,-8.53472900390625,25.65835952758789,-32.230850219726555,0.03718400746583938,0.5370311141014099,-0.05093955993652344,989.8322143554688,1,1.0,2,2
12.88,0.09862912,0.10815140599999999,10.291841499999999,-0.12692643702030182,-0.03642378747463226,0.12232068181037906,-8.566958427429201,26.20755195617676,-32.104049682617195,-0.10114313662052156,-0.4166182577610016,-0.52117919921875,989.7511596679688,1,1.0,2,2
12.92,-0.042402998,-0.5019672000000001,9.186357000000001,-0.20402459800243375,0.12016990035772325,0.020588129758834842,-8.525979995727539,26.561708450317386,-31.6691837310791,0.17516353726387024,-0.1676233410835266,0.3282346725463867,989.7662353515624,1,1.0,2,2
12.96,0.38297164,-0.6187471,10.315509,-0.3876491487026215,0.17529723048210144,-0.07981283962726593,-8.290946006774902,27.72982215881348,-31.46581077575684,-0.19739557802677155,-0.3297841548919678,-0.11928176879882812,989.7918701171876,1,1.0,2,2
13.0,-0.009000211999999999,-1.1049352,9.870472999999999,-0.9248080253601074,-0.29488345980644226,0.1392320841550827,-8.404672622680664,28.72905158996582,-30.65993309020996,-0.04454852640628815,-0.11422699689865112,0.20816421508789065,989.7916259765624,1,1.0,2,2
13.04,-0.056826144,-1.331346,9.894141000000001,-0.7050971388816833,-0.01937974989414215,0.3477575480937958,-8.498208999633789,29.27322196960449,-30.06148338317871,0.08813247084617615,0.0889207124710083,-0.7901544570922852,989.8168334960938,1,1.0,2,2
13.08,-0.054464175999999996,-1.5243906999999999,9.673989,-0.5467720627784729,0.4408140182495117,0.1734539121389389,-7.6761226654052725,29.568586349487305,-29.66655540466309,-0.04279671609401703,-0.3554615974426269,0.4787054061889648,989.8017578125,1,1.0,2,2
13.12,-0.19549629,-1.214564,9.344945,-0.5820586085319519,0.3318907916545868,0.1749187558889389,-7.222414493560791,30.99410057067871,-29.43496513366699,-0.05806592106819153,-0.473876953125,-0.2425374984741211,989.8193969726562,1,1.0,2,2
13.16,-0.35803753,-2.8876247000000004,8.639516,-0.6879189014434814,0.1282922625541687,0.4533521234989166,-6.667835235595702,31.67096519470215,-28.79018211364746,-0.0559188723564148,0.8568377494812012,2.168917179107666,989.8424072265624,1,1.0,2,2
13.2,0.2919879,-2.0582433,10.438588000000001,-0.9242737293243408,-0.5556069612503052,0.4361749589443207,-7.300356864929199,34.238006591796875,-26.61037826538086,-0.2199598103761673,-0.7375416755676271,-1.0887317657470703,989.8499145507812,1,1.0,2,2
13.24,-0.40828127,-2.6993446,9.292859,-0.8855245113372803,-0.0786353051662445,0.2733229398727417,-7.1076622009277335,35.57670593261719,-25.64062309265137,0.4359666109085083,-0.03434610366821289,0.21540164947509768,989.8472900390624,1,1.0,2,2
13.28,0.15570769,-3.1188006,9.3686075,-0.9100252985954284,-0.02151058241724968,0.06519719958305359,-7.671457767486572,36.41764831542969,-24.37120246887207,-0.15592879056930542,-0.16003060340881348,-0.1024150848388672,989.8826904296876,1,1.0,2,2
13.32,-0.09287003,-3.5001245,9.122416000000001,-0.9475756287574768,-0.03935379534959793,0.09369311481714247,-7.156717300415039,37.63634490966797,-23.213098526000977,0.14563171565532684,-0.14020824432373047,-0.22309017181396484,989.8316040039062,1,1.0,2,2
13.36,0.24407828,-3.9672464999999995,8.566121,-0.9475756287574768,-0.03935379534959793,0.09369311481714247,-7.156717300415039,37.63634490966797,-23.213098526000977,-0.1416407823562622,-0.02812671661376953,0.2380456924438477,989.8316040039062,1,1.0,2,2
13.4,0.06719756,-4.162675,8.911729,-0.950637936592102,-0.0093932980671525,0.03017688356339932,-7.664314270019531,38.84617614746094,-22.281858444213867,-0.06489291042089462,-0.013042449951171877,-0.013628005981445312,989.8140258789062,1,1.0,2,2
13.44,-0.21722868,-4.417684599999999,8.795733,-0.7441093921661377,-0.043348662555217736,0.08570398390293121,-7.246047019958496,39.49974822998047,-19.9980411529541,0.251106321811676,-0.032193660736083984,-0.08095073699951172,989.7960815429688,1,1.0,2,2
13.48,0.021733612000000003,-4.744193,8.400409,-0.7441093921661377,-0.043348662555217736,0.08570398390293121,-7.246047019958496,39.49974822998047,-19.9980411529541,0.11274608969688416,-0.017302513122558594,0.09421920776367188,989.7960815429688,1,1.0,2,2
13.52,0.22245749999999997,-4.9944367,8.277311,-0.6306583285331726,0.08248551189899445,-0.15025165677070618,-7.626173496246338,40.564208984375,-16.922380447387695,-0.2252495884895325,0.04753541946411133,0.21315670013427732,989.8644409179688,1,1.0,2,2
13.56,0.41123188,-5.1755652,7.801500999999999,-0.6306583285331726,0.08248551189899445,-0.15025165677070618,-7.626173496246338,40.564208984375,-16.922380447387695,-0.28296127915382385,0.09115982055664062,0.5512127876281738,989.8644409179688,1,1.0,2,2
13.6,0.58327687,-5.1493483,8.116337,-0.3683370053768158,-0.05759669095277786,0.0960906445980072,-8.035804748535156,41.12836456298828,-16.122425079345707,-0.5649988651275635,0.07044267654418945,0.3776230812072754,989.8314819335938,1,1.0,2,2
13.64,-0.057244777999999996,-4.992051,8.248897999999999,0.09518612176179886,-0.3582673966884613,0.59117192029953,-6.699162483215332,41.695899963378906,-17.51637077331543,0.364216148853302,-0.019388675689697262,0.2868537902832031,989.8492431640624,1,1.0,2,2
13.68,-0.41097814,-4.5058620000000005,8.459577000000001,0.09518612176179886,-0.3582673966884613,0.59117192029953,-6.699162483215332,41.695899963378906,-17.51637077331543,0.5836822986602783,-0.15242242813110352,0.18020343780517575,989.8492431640624,1,1.0,2,2
13.72,-0.035791487000000004,-4.465346,8.6110735,0.4753525853157044,-0.4304390549659729,0.7339175939559937,-4.589862823486328,41.93343353271485,-19.087053298950195,-0.13071340322494507,0.031339168548583984,0.42264461517333984,989.8411254882812,1,1.0,2,2
13.76,0.33222556,-5.087381,8.090287,0.4753525853157044,-0.4304390549659729,0.7339175939559937,-4.589862823486328,41.93343353271485,-19.087053298950195,-0.3621037006378174,1.1126317977905271,0.711756706237793,989.8411254882812,1,1.0,2,2
13.8,0.58074737,-3.4214683,9.060838,0.7910706400871277,-0.41832178831100464,0.4972960650920868,-4.654672622680664,40.7671127319336,-20.00961685180664,-0.05144047737121582,-0.6817367076873779,-0.3931617736816406,989.9375610351562,1,1.0,2,2
13.84,1.199704,-3.6288127999999995,12.625842,1.1456704139709473,-1.8973071575164795,0.7000957727432251,-4.960137367248535,40.377098083496094,-22.172269821166992,-0.5374850630760193,-0.17248749732971191,-5.622078895568848,989.91748046875,1,1.0,2,2
13.88,0.5520128000000001,-2.816114,9.349631,1.201863408088684,-0.6448234915733337,1.0546953678131104,-3.6364045143127437,39.562660217285156,-23.09844017028809,-0.9608243703842164,-0.8264000415802002,-0.9568653106689452,990.0010375976562,1,1.0,2,2
13.92,-0.49240226,-2.213144,7.38485,1.201863408088684,-0.6448234915733337,1.0546953678131104,-3.6364045143127437,39.562660217285156,-23.09844017028809,0.5790796875953674,-1.315783977508545,1.7620096206665041,990.0010375976562,1,1.0,2,2
13.96,-0.642994,-2.992475,10.033748,0.8457996249198914,0.3317567110061645,-0.5274869799613953,-4.0901360511779785,37.71685028076172,-25.153060913085934,1.2509386539459229,0.09666967391967772,0.3846845626831055,989.9501342773438,1,1.0,2,2
14.0,-0.40164185,-3.3952489999999997,10.814921,0.4645686447620392,-0.6938258409500122,-0.5068473219871521,-5.192747116088867,37.52735900878906,-25.20301628112793,0.8987417221069336,0.4912147521972656,-1.349919319152832,989.8587036132812,1,1.0,2,2
14.04,-0.09576225,-2.4872189,11.970114,-0.5423713326454163,0.642946720123291,0.04762242361903191,-4.510146617889403,38.48252868652344,-25.21012687683105,0.5077405571937561,-0.725757360458374,-3.391674041748047,989.8991088867188,1,1.0,2,2
14.08,-0.30132174,-2.7517624,10.388819999999999,0.2077075392007828,-0.010192988440394402,0.1902346909046173,-4.818387985229492,37.50945281982422,-25.7215633392334,0.3172392249107361,-0.01481032371520996,-0.9065055847167968,989.9323120117188,1,1.0,2,2
14.12,-0.19858389,-2.5539494,11.2055025,0.5354095697402954,0.15705333650112152,0.020857905969023705,-5.36451530456543,37.10379028320313,-26.22954368591309,0.6042113304138184,-0.6002750396728516,-1.5919876098632812,989.8992919921876,1,1.0,2,2
14.16,0.19572207,-1.6220868,12.800995,0.23101072013378146,-0.017250433564186096,0.034839604049921036,-5.566448211669922,36.86259460449219,-27.10812568664551,0.22496026754379272,-0.9790947437286376,-3.443985939025879,989.8226928710938,1,1.0,2,2
14.2,0.31040943,-3.1998162,11.385406,0.8213000893592834,-1.2287214994430542,-0.038929782807827,-7.989664077758789,35.963844299316406,-27.83689308166504,0.8916053771972656,1.3966327905654907,-1.6623611450195312,989.903564453125,1,1.0,2,2
14.24,0.35339975,-1.3384752,10.331998,1.7508759498596191,-0.6782465577125549,0.08211091160774231,-9.348363876342773,34.377151489257805,-30.2291316986084,0.7126561403274536,0.3515740633010864,-0.7708616256713867,989.9038696289062,1,1.0,2,2
14.28,0.35576177,-1.2979589,11.148679,1.626240372657776,-0.12470903992652893,0.42059850692749023,-9.598119735717773,31.98540306091309,-33.207046508789055,0.8634058237075806,0.8019018173217773,-1.1476116180419922,989.791748046875,1,1.0,2,2
14.32,0.6162331,-0.5948911,10.500064,1.848214864730835,-0.5715870857238771,0.1558806151151657,-10.372566223144533,28.52259635925293,-35.57953643798828,0.33061885833740234,0.728942334651947,-0.7968053817749023,989.8424072265624,1,1.0,2,2
14.36,0.26488966,0.060511199999999994,10.111839,1.6785721778869631,0.10512148588895798,0.2215276211500168,-10.421804428100586,25.26423454284668,-37.228919982910156,0.8035110235214233,0.7804149389266968,-0.7361431121826172,989.8040161132812,1,1.0,2,2
14.4,0.97227275,0.7874119,11.638682000000001,1.815591812133789,-0.1794370859861374,0.21979667246341705,-11.364081382751465,23.277204513549805,-39.50792694091797,0.6177549362182617,0.3582228422164917,-1.3155231475830078,989.8295288085938,1,1.0,2,2
14.44,-0.63854903,0.043829575,10.568706,1.911598801612854,-0.3346993029117584,0.1783846765756607,-11.587972640991213,20.11855125427246,-40.9052734375,1.9255039691925049,2.451660633087158,-0.3601293563842773,989.7987670898438,1,1.0,2,2
14.48,-0.9205853999999999,0.49665323,9.685736,1.590821623802185,1.3370985984802246,0.035239998251199715,-9.355055809020996,16.78470802307129,-42.90190887451172,1.3449792861938477,2.558267116546631,-0.22216796875,989.8013916015624,1,1.0,2,2
14.52,-1.1094155,1.721659,7.555250599999999,1.0206397771835327,1.7802481651306152,0.8192741274833679,-6.069884300231934,14.277788162231445,-44.49319458007813,1.434133768081665,1.5703927278518677,1.785712718963623,989.737548828125,1,1.0,2,2
14.56,-0.6051741999999999,2.3413122000000004,8.878514,1.4099936485290527,0.9006067514419556,0.9467063546180724,-3.590714931488037,12.174383163452148,-44.90612030029297,0.6119648814201355,1.2953274250030518,0.3715677261352539,989.7020263671876,1,1.0,2,2
14.6,-1.1524896999999998,1.9623716,6.4402932999999996,0.9858861565589904,0.6474734544754028,0.8725374937057495,-2.446796417236328,10.190954208374023,-46.19808197021485,0.9018704891204834,1.880057692527771,2.135519027709961,989.7604370117188,1,1.0,2,2
14.64,-0.46422577,2.9013836,8.028684,0.915845274925232,0.5619860887527466,0.8421775698661804,-0.7814006805419922,7.957481384277344,-46.17005920410156,0.6273186802864075,1.4676949977874756,2.0772438049316406,989.73486328125,1,1.0,2,2
14.68,-0.55745983,2.9847991,7.889016000000001,0.7045238614082336,-0.28090375661849976,0.9785314798355104,-0.5353612899780273,7.029134750366211,-46.461585998535156,0.5026148557662964,1.1686325073242188,0.5490837097167969,989.694091796875,1,1.0,2,2
14.72,-0.77257895,3.4257063999999997,7.6570272,0.06629838794469832,0.37596431374549866,0.9202085137367249,1.4954538345336914,6.507391929626465,-46.43606567382813,0.7624677419662476,0.7185847759246826,1.1809983253479004,989.6660766601562,1,1.0,2,2
14.76,-0.6339925000000001,4.219339,6.6912065,0.06629838794469832,0.37596431374549866,0.9202085137367249,1.4954538345336914,6.507391929626465,-46.43606567382813,1.0273765325546265,0.3513936996459961,2.048412322998047,989.6660766601562,1,1.0,2,2
14.8,0.34105957,4.0548934999999995,7.701999000000001,0.8089205026626587,-1.3074184656143188,0.8636164665222168,-0.2887783050537109,5.732492446899414,-46.6546630859375,1.0951378345489502,0.4442763328552246,0.9772367477416992,989.7066040039062,1,1.0,2,2
14.84,0.9815253,4.1287756,7.576534700000001,0.8138476014137268,-2.257899761199951,0.7807923555374146,-3.601613521575928,4.42155647277832,-46.29841613769531,1.2948472499847412,0.7981805801391602,0.7750525474548341,989.7752075195312,1,1.0,2,2
14.88,1.8206178,4.0143723,7.4605630000000005,0.5938709378242493,-1.9440467357635496,0.9890515208244324,-7.252853870391847,2.31990909576416,-46.30565643310547,1.3586037158966064,0.8306927680969238,0.48284912109375,989.7929077148438,1,1.0,2,2
14.92,2.7861152000000002,3.1706924,7.5528827000000005,0.7327492833137512,-1.77533221244812,1.5495184659957886,-15.288427352905273,2.0644359588623047,-44.128639221191406,1.184125900268555,1.9493017196655276,0.3405752182006836,989.7846069335938,1,1.0,2,2
14.96,4.1172676,3.6973974999999997,5.9739566,0.7327492833137512,-1.77533221244812,1.5495184659957886,-15.288427352905273,2.0644359588623047,-44.128639221191406,1.0314583778381348,1.5358316898345947,1.5196547508239746,989.7846069335938,1,1.0,2,2
15.0,4.671702,3.5043526,4.8542676,1.1539279222488403,-1.8630834817886357,1.8714945316314695,-17.948558807373047,1.3109130859375,-42.13494873046875,0.8112325668334961,0.9888906478881836,0.7311038970947266,989.7489624023438,1,1.0,2,2
15.04,5.171169,2.5915575,3.7842898000000003,1.1539279222488403,-1.8630834817886357,1.8714945316314695,-21.030384063720703,0.7953739166259766,-41.24495697021485,1.522296905517578,2.112066507339477,2.2732129096984863,989.7489624023438,1,1.0,2,2
15.08,6.769990400000001,2.8370357000000004,5.0389047,1.2194418907165527,-1.5235307216644287,1.8248893022537231,-23.54406929016113,0.8640499114990234,-39.70686340332031,0.31480884552001953,1.252377986907959,0.4991159439086914,989.7769165039062,1,1.0,2,2
15.12,6.251359,1.876575,3.760614,0.999997854232788,-1.4227300882339478,1.9963966608047483,-25.63798904418945,1.1674728393554688,-37.78528594970703,1.111046314239502,1.9151655435562132,0.6454539299011229,989.7338256835938,1,1.0,2,2
15.16,6.366051000000001,1.0424283,3.0267792,0.3525844514369965,-0.0425482988357544,2.231154441833496,-26.53013038635254,4.3352108001708975,-37.14030456542969,1.6992459297180176,2.1589066982269287,1.4028749465942385,989.7463989257812,1,1.0,2,2
15.2,6.571560000000001,0.31791216,3.1877467999999998,0.3525844514369965,-0.0425482988357544,2.231154441833496,-26.53013038635254,4.3352108001708975,-37.14030456542969,1.7461099624633791,1.851031184196472,1.208805799484253,989.7463989257812,1,1.0,2,2
15.24,6.2489004,-0.6759144,0.7897685999999999,0.21303516626358032,-0.5208516716957092,2.3065218925476074,-27.601110458374023,6.7037315368652335,-37.03687286376953,2.5412521362304688,2.223881721496582,2.660466194152832,989.7716674804688,1,1.0,2,2
15.28,7.4581669999999995,-0.71404624,1.2205972999999999,0.5808176398277283,-1.4925050735473633,2.4671106338500977,-29.08297348022461,9.054803848266602,-34.559585571289055,1.784883975982666,1.3522512912750244,3.0780277252197266,989.7846069335938,1,1.0,2,2
15.32,6.624069,-3.2307878,2.818457,0.07921209931373596,-1.0300476551055908,2.527963876724243,-30.49306869506836,14.054201126098633,-32.017356872558594,2.781667709350586,3.25281834602356,0.10248994827270508,989.745849609375,1,1.0,2,2
15.36,10.651031,-2.3704237999999997,3.7700699999999996,0.12062443047761914,-1.3799868822097778,2.5187761783599854,-30.93846321105957,17.165456771850586,-30.28315544128418,-0.15938377380371094,1.8016002178192136,-0.3265676498413086,989.8167724609376,1,1.0,2,2
15.4,10.342710499999999,-3.585895,4.8329415000000004,0.09505832195281982,-0.6970197558403015,2.843281984329224,-28.79598617553711,20.382770538330078,-29.95473289489746,-1.9850816726684568,0.5737359523773193,-2.255769968032837,989.7913818359376,1,1.0,2,2
15.44,9.159686,-5.4281690000000005,1.7508423,-0.5262564420700073,0.7862264513969421,2.215575695037842,-25.99710464477539,23.47776985168457,-30.56712913513184,-0.3944778442382813,2.527904272079468,0.7211771011352539,989.8291015625,1,1.0,2,2
15.48,8.428353,-6.233716,1.0880235,-0.24049922823905945,1.1019439697265625,2.06324315071106,-22.992321014404297,25.55411148071289,-31.382604598999023,-0.2147541046142578,2.217020034790039,2.427290916442871,989.8719482421876,1,1.0,2,2
15.52,8.485688,-7.1798773,0.97913015,-0.4443638026714325,0.2036604136228561,2.153923749923706,-20.62801742553711,27.9254207611084,-30.80790901184082,-0.5352544784545898,1.9901251792907717,1.6617270708084106,989.79833984375,1,1.0,2,2
15.56,8.913458,-8.450165,1.6632494999999998,-0.7185357809066772,-0.2891571819782257,2.198265552520752,-18.044336318969727,30.712068557739254,-28.98258781433105,-1.1827259063720703,2.8034820556640625,1.6466493606567385,989.8541870117188,1,1.0,2,2
15.6,9.03293,-9.496423,3.1498504,-1.5526368618011477,0.0903429239988327,2.0451338291168213,-15.094449043273926,33.841720581054695,-27.387739181518555,-2.0633130073547363,3.1335244178771973,-0.9740393161773682,989.8667602539062,1,1.0,2,2
15.64,8.906243,-9.763349,4.3642235000000005,-2.624558210372925,1.1887627840042114,1.6661663055419922,-11.052169799804688,37.88861846923828,-25.47600555419922,-2.766997814178467,2.489029884338379,-2.672881364822388,989.85888671875,1,1.0,2,2
15.68,9.539544,-8.86247,5.9289417,-3.3249683380126958,1.7560156583786009,1.125412106513977,-7.291667938232423,41.45977783203125,-21.645387649536133,-3.324291229248047,1.827629566192627,-3.838386058807373,989.8284301757812,1,1.0,2,2
15.72,9.501283,-7.456334599999999,6.056769,-2.6317484378814697,1.074646234512329,0.6449782848358154,-4.582038879394531,44.09957885742188,-17.598337173461914,-3.436712741851806,-0.34079742431640625,-4.232448101043701,989.846435546875,1,1.0,2,2
15.76,8.375615,-7.079776299999999,3.5688367,-1.0330538749694824,0.7534692883491516,0.2769298851490021,-3.375053882598877,44.70172882080078,-15.740987777709961,-2.089075088500977,-0.3522043228149414,-0.7542471885681152,989.8736572265624,1,1.0,2,2
15.8,7.438751,-7.9353724,1.3412973999999998,0.2841448187828064,1.3052760362625122,-0.1880575567483902,-2.793515682220459,44.66706085205078,-16.213493347167972,-0.6488547325134277,1.2220845222473145,1.5993237495422363,989.8432006835938,1,1.0,2,2
15.84,5.5290713,-7.4086647,0.18372189,0.8218367695808411,1.5652000904083252,-0.5104328393936157,-2.1941490173339844,43.912010192871094,-17.339452743530273,0.2396426200866699,-0.06403350830078125,3.050235748291016,989.8151245117188,1,1.0,2,2
15.88,5.822873599999999,-7.1584167,1.4762001,0.6303558349609375,1.3201895952224731,-0.2884584367275238,-1.0406627655029297,42.67546844482422,-19.369455337524414,-0.07506799697875978,-0.0454096794128418,1.134235143661499,989.8176879882812,1,1.0,2,2
15.92,6.131138,-7.072617500000001,3.7297735,-0.1868334412574768,0.8325660824775696,0.07586590945720673,-0.1547689437866211,43.34709167480469,-19.69923591613769,-0.3540163040161133,-0.18479681015014648,-0.21636557579040527,989.8075561523438,1,1.0,2,2
15.96,6.563677,-6.650776,3.8718025999999997,-0.1874985694885254,0.349202573299408,0.2515015006065369,0.9989538192749025,44.68964385986328,-18.030969619750977,-1.111337184906006,-0.9391460418701172,-0.4656076431274414,989.8506469726562,1,1.0,2,2
16.0,6.666410000000001,-6.481563599999999,3.3486480000000003,-0.1874985694885254,0.349202573299408,0.2515015006065369,0.9989538192749025,44.68964385986328,-18.030969619750977,-1.1649765968322754,-1.029368877410889,-0.16677379608154294,989.8506469726562,1,1.0,2,2
16.04,6.0067639999999995,-7.132197,3.5048804,-0.15274405479431152,0.4000689089298248,0.059221576899290085,1.8806886672973635,44.88262939453125,-17.331308364868164,-0.7317285537719727,-0.5558924674987793,-0.05497121810913086,989.8678588867188,1,1.0,2,2
16.08,5.633906,-7.370524400000001,4.316828,-0.41586384177207947,0.5466757416725159,-0.2334594279527664,2.0266981124877934,44.966773986816406,-17.512699127197266,0.04272222518920898,0.10509920120239258,-1.0075273513793943,989.8095092773438,1,1.0,2,2
16.12,6.3341145999999995,-6.891484299999999,3.803142,-0.3679266273975372,0.4770340919494629,-0.21548298001289368,1.559345245361328,45.16056823730469,-16.297256469726562,-0.98897123336792,-0.6058955192565918,-0.6574888229370117,989.85205078125,1,1.0,2,2
16.16,5.8919497000000005,-7.151261,3.6255987000000003,0.13501153886318207,0.2643807530403137,-0.2576937973499298,1.3992328643798828,45.537376403808594,-16.217647552490234,-0.31377744674682617,-0.13991308212280273,-0.1956632137298584,989.8497924804688,1,1.0,2,2
16.2,5.841728,-7.308556599999999,3.736854,0.13501153886318207,0.2643807530403137,-0.2576937973499298,1.3992328643798828,45.537376403808594,-16.217647552490234,-0.2332921028137207,0.028900623321533207,-0.19383525848388672,989.8497924804688,1,1.0,2,2
16.24,5.6146555000000005,-6.946297,3.6208582000000002,-0.20893511176109314,0.7931509017944336,-0.1017656996846199,1.753103256225586,45.34239196777344,-16.95362663269043,-0.3337087631225586,-0.4039249420166016,-0.03299450874328613,989.8218994140624,1,1.0,2,2
16.28,5.6672,-6.9820457,3.9451617999999993,-0.2056058496236801,0.6243064999580383,-0.0006986780790612103,2.3844757080078125,45.458885192871094,-16.056940078735348,-0.220797061920166,-0.35657501220703125,-0.2464983463287353,989.8115234375,1,1.0,2,2
16.32,5.810561,-6.929612599999999,4.1061287,0.19200438261032104,-0.1782364547252655,0.1124858409166336,2.8612289428710938,44.69379425048828,-16.239606857299805,-0.4592409133911133,-0.2785730361938477,-0.4520127773284912,989.7911376953124,1,1.0,2,2
16.36,5.810528,-7.1917729999999995,4.025641,0.19200438261032104,-0.1782364547252655,0.1124858409166336,2.8612289428710938,44.69379425048828,-16.239606857299805,-0.443659782409668,-0.16778564453125,-0.27470898628234863,989.7911376953124,1,1.0,2,2
16.4,5.423331,-6.908161,4.1558337,0.10412047803401947,0.1080530732870102,0.09424334019422533,2.5423641204833984,44.92266845703125,-17.28164291381836,0.0737147331237793,-0.5548548698425293,-0.3392517566680908,989.8186645507812,1,1.0,2,2
16.44,5.1102204,-6.493469999999999,3.8102193,0.10412047803401947,0.1080530732870102,0.09424334019422533,2.5423641204833984,44.92266845703125,-17.28164291381836,0.2333531379699707,-0.7061128616333008,-0.10001492500305176,989.8186645507812,1,1.0,2,2
16.48,5.155596,-6.6507664,3.3983230000000004,0.3219671845436096,0.02802510000765324,0.056959260255098336,2.8947124481201167,44.72620391845703,-17.940317153930664,0.04094552993774414,-0.7692327499389648,0.7434203624725342,989.8186645507812,1,1.0,2,2
16.52,4.849655,-7.3156996,4.006691,0.5721713304519653,-0.035224977880716324,0.07134044170379639,2.870880126953125,43.91404724121094,-18.42801094055176,0.3713755607604981,0.10473346710205078,0.3934051990509033,989.8007202148438,1,1.0,2,2
16.56,4.8998099999999996,-7.2537335999999994,4.1203136,0.32742762565612793,0.07955706119537354,0.03512176126241684,2.532750129699707,43.33516693115234,-20.189661026000977,0.21915817260742188,0.14040184020996094,0.40769839286804205,989.8055419921876,1,1.0,2,2
16.6,4.854369,-7.415795299999999,3.8599186000000003,0.32742762565612793,0.07955706119537354,0.03512176126241684,2.532750129699707,43.33516693115234,-20.189661026000977,0.22603702545166016,0.24252748489379886,0.6461071968078613,989.8055419921876,1,1.0,2,2
16.64,4.720502,-7.503976299999999,4.3475595,0.3749653100967407,0.09273965656757356,0.12353876978158952,3.55837631225586,42.3465576171875,-20.44382667541504,0.4484310150146485,0.5105838775634766,0.2387294769287109,989.8564453125,1,1.0,2,2
16.68,4.995307,-7.0440035000000005,4.1558127,0.3462035357952118,0.00924956612288952,0.11408469080924988,3.572615623474121,41.99152374267578,-21.041120529174805,0.05751895904541016,0.02707481384277344,0.3280062675476074,989.8157348632812,1,1.0,2,2
16.72,4.9450864999999995,-6.9272213,4.1676459999999995,0.2930741310119629,-0.061856877058744424,0.2548328936100006,3.82115650177002,41.43441009521485,-21.58571052551269,-0.03242826461791992,-0.20050954818725586,0.3870534896850586,989.8103637695312,1,1.0,2,2
16.76,4.9044256,-6.95582,4.387793,0.16910439729690552,0.04400363564491272,0.21754881739616394,4.433540344238281,40.954994201660156,-22.80678939819336,0.0459895133972168,-0.10715866088867188,0.4116344451904297,989.8223876953124,1,1.0,2,2
16.8,4.854204,-6.993952,4.399625299999999,0.0467325858771801,0.12070254981517793,0.16415263712406158,4.755585670471191,40.83499145507813,-22.61844062805176,-0.12953519821166992,-0.12520790100097656,0.07438802719116211,989.82470703125,1,1.0,2,2
16.84,4.9697094,-7.0750027,4.818692700000001,-0.047143444418907166,0.045068785548210144,0.16495169699192047,4.881511688232422,40.267845153808594,-22.2197380065918,-0.2149910926818848,-0.034165382385253906,-0.2671046257019043,989.8147583007812,1,1.0,2,2
16.88,5.1274424000000005,-6.9320059999999994,4.581972599999999,-0.04794503003358841,0.034150272607803345,0.16068953275680542,5.510415077209473,41.22535705566406,-22.141725540161133,-0.3128776550292969,-0.251187801361084,0.1998147964477539,989.7814331054688,1,1.0,2,2
16.92,4.979269,-7.2799644,4.9891315,-0.13090726733207705,0.17010529339313507,0.11474796384572986,5.4055213928222665,41.60128784179688,-22.22454261779785,-0.4208879470825195,-0.05428886413574219,-0.1318044662475586,989.7789306640624,1,1.0,2,2
16.96,5.1489515,-7.1893997,5.4649386,-0.06020038947463036,0.1493326723575592,-0.008423132821917534,5.170785903930664,41.06532287597656,-22.00303840637207,-0.4420099258422852,-0.21075963973999026,-0.03620576858520508,989.8240966796876,1,1.0,2,2
17.0,4.312485700000001,-6.829525,3.8007956,0.14326493442058566,0.4645175039768219,-0.09910369664430617,5.891265869140625,40.7391357421875,-22.17196083068848,0.4304866790771485,-0.4467849731445313,1.5214188098907468,989.8369750976562,1,1.0,2,2
17.04,5.070085,-7.055936,5.8863010000000004,0.3097123801708221,0.1432074010372162,-0.06328420341014862,6.1346988677978525,40.54589080810547,-22.583086013793945,-0.4511227607727051,-0.2841362953186035,-0.4964938163757324,990.0021362304688,1,1.0,2,2
17.08,4.776127,-6.748492999999999,4.705067,-0.393494725227356,0.5219085216522217,0.0977037400007248,6.469761848449707,40.701515197753906,-22.489856719970703,-0.4313349723815918,-0.26775074005126953,-0.3848848342895508,989.9081420898438,1,1.0,2,2
17.12,4.8167553,-6.6984444000000005,4.534628400000001,0.2684333920478821,0.07862581312656403,0.08705110847949983,7.290027618408202,40.36327362060547,-22.442495346069336,-0.386197566986084,-0.464517593383789,0.65362548828125,989.738037109375,1,1.0,2,2
17.16,4.46544,-6.9248557,4.8281617,0.2204965353012085,-0.1831627190113068,0.04231004044413567,6.630012512207031,40.430625915527344,-23.268543243408203,0.010869026184082031,-0.2571043968200684,0.15895843505859375,989.8339233398438,1,1.0,2,2
17.2,4.3698440000000005,-6.917706,4.877873,0.04179858788847923,-0.11471952497959136,0.04470688849687576,6.822652816772461,40.13676452636719,-23.05008125305176,-0.016728878021240234,-0.3102059364318848,0.14013004302978516,989.8441162109376,1,1.0,2,2
17.24,4.4009123,-7.010654,5.0980225,-0.16592779755592346,0.0424068458378315,0.08891532570123672,7.1387481689453125,40.116783142089844,-23.25158882141113,0.11216878890991212,-0.1800398826599121,0.00027179718017578125,989.8009643554688,1,1.0,2,2
17.28,4.668581,-7.0058869999999995,5.6353774,-0.14369043707847595,-0.09700950980186462,0.15070059895515442,7.2515506744384775,40.380348205566406,-23.13042640686035,-0.3176488876342773,-0.28330326080322266,-0.7217340469360352,989.7935791015624,1,1.0,2,2
17.32,4.451100299999999,-6.805691700000001,4.920482,-0.05354249849915505,-0.026702120900154117,0.15869009494781494,6.976133346557617,40.122352600097656,-22.91892051696777,-0.1105494499206543,-0.5164451599121094,0.2689614295959473,989.8362426757812,1,1.0,2,2
17.36,4.482169,-6.9224725000000005,4.839997299999999,0.1706954687833786,-0.04907265678048134,0.12979482114315033,7.0244245529174805,39.85173797607422,-23.295446395874023,-0.12219858169555665,-0.4301929473876953,0.2970709800720215,989.8056640625,1,1.0,2,2
17.4,4.46066,-7.0964518,5.524119000000001,0.01583279296755791,-0.0602579228579998,0.09464111179113388,7.3150291442871085,38.912208557128906,-23.20826911926269,-0.1924128532409668,-0.1410837173461914,-0.5724143981933594,989.7904663085938,1,1.0,2,2
17.44,4.410472,-6.908172599999999,4.9062790000000005,-0.00999985355883837,-0.024837909266352654,0.07999373227357864,6.975836753845215,39.49021911621094,-23.34379005432129,-0.10544729232788086,-0.3727211952209473,-0.14586400985717773,989.81298828125,1,1.0,2,2
17.48,4.2885876,-7.032103500000001,4.7216372,0.2192981094121933,-0.07969897985458374,0.053495313972234726,7.203343391418457,39.12432098388672,-24.204265594482425,-0.06479215621948242,-0.2570476531982422,0.39313364028930653,989.8053588867188,1,1.0,2,2
17.52,4.269468,-7.179867,5.0175376,0.10651333630084993,-0.07690266519784927,0.03804898634552956,7.219512939453125,38.296546936035156,-24.08133888244629,0.07348155975341797,-0.16605663299560547,0.12399053573608397,989.8097534179688,1,1.0,2,2
17.56,4.3650637,-7.115517999999999,5.2116485,-0.011464590206742287,-0.07170950621366501,0.09011374413967133,6.786186218261719,38.154457092285156,-24.46815490722656,-0.00800180435180664,-0.15977907180786133,-0.1467723846435547,989.8198852539062,0,0.0,0,1
17.6,4.3292155,-7.113135000000001,5.209281,0.12701965868473053,-0.0380205474793911,0.06414794921875,6.897573471069336,37.31021118164063,-23.89702796936035,-0.02136421203613281,-0.16191673278808594,-0.02913379669189453,989.8098754882812,0,0.0,0,1
17.64,4.2145,-7.1345844,4.8613024000000005,0.12701965868473053,-0.0380205474793911,0.06414794921875,6.326826095581055,37.46111297607422,-24.664735794067386,0.05573654174804688,-0.15363454818725586,0.23861980438232425,989.8098754882812,0,0.0,0,1
17.68,4.3626738,-7.160800500000001,5.0151706,0.12701965868473053,-0.0380205474793911,0.06414794921875,6.326826095581055,37.46111297607422,-24.664735794067386,-0.0821075439453125,-0.12427902221679688,0.13326025009155273,989.8098754882812,0,0.0,0,1
17.72,4.3244357,-7.203699,5.318172,0.15658071637153625,-0.08955266326665877,0.07866215705871582,6.536911010742188,37.34138488769531,-24.074228286743164,-0.11834001541137695,-0.1054706573486328,-0.2710366249084473,989.835205078125,0,0.0,0,1
17.76,4.2407894,-7.2489815,5.012803599999999,0.08294438570737839,-0.12683691084384918,0.09703796356916428,6.488024711608888,36.34772491455078,-24.547443389892575,0.00026702880859375,-0.020071983337402344,0.1530137062072754,989.852783203125,0,0.0,0,1
17.8,4.305316400000001,-7.234682,4.915748000000001,0.08294438570737839,-0.12683691084384918,0.09703796356916428,6.488024711608888,36.34772491455078,-24.547443389892575,-0.06769180297851562,-0.024017810821533203,0.16718482971191406,989.852783203125,0,0.0,0,1
17.84,4.1820817,-7.2537155,4.8138347,0.1694970577955246,-0.17357534170150754,0.10396216064691544,6.44538688659668,35.88617706298828,-24.205928802490234,0.04810285568237305,-0.017845630645751953,0.16687536239624026,989.8296508789062,0,0.0,0,1
17.88,3.9836663999999997,-7.4658256,4.619719,0.0692291259765625,-0.19607903063297272,0.13046060502529144,5.935129165649414,36.19854736328125,-24.14557838439941,0.23084306716918945,0.08135509490966797,0.2559037208557129,989.8218994140624,0,0.0,0,1
17.92,3.8210998,-7.7708835999999994,4.3403849999999995,0.04646597057580948,-0.3944835960865021,0.14658185839653015,5.430086135864258,35.04070281982422,-23.84603309631348,0.5803923606872559,0.3617210388183594,0.41964054107666016,989.826904296875,0,0.0,0,1
17.96,3.8879642,-7.9114960000000005,4.098925,0.012248042970895769,-0.6312389969825745,0.19571872055530548,4.572183609008789,35.659873962402344,-24.058000564575195,0.6285128593444824,0.5361580848693848,0.3690218925476074,989.82666015625,0,0.0,0,1
18.0,4.585761499999999,-7.825697,4.4350629999999995,-0.001199880731292069,-1.4247273206710815,0.6027829647064209,3.5742225646972656,36.09487915039063,-23.69872093200684,0.16194486618041992,0.18466901779174805,-0.12887048721313474,989.8240356445312,0,0.0,0,1
18.04,4.8701067,-7.8423777,4.011328,0.16325069963932035,-2.04444432258606,0.7905358076095581,2.103584289550781,34.92877197265625,-23.86577224731445,-0.15683794021606445,0.197054386138916,-0.2346329689025879,989.8186645507812,0,0.0,0,1
18.08,5.235708,-7.599282700000001,3.7248921000000004,0.3794997036457062,-2.266152620315552,0.8692324757575989,0.1986956596374512,34.88336944580078,-23.492595672607425,-0.3537325859069824,-0.1829090118408203,-0.1539783477783203,989.8338012695312,0,0.0,0,1
18.12,5.797282,-7.642180000000001,3.4337215,0.5226449966430664,-2.4515085220336914,0.8802847862243652,-1.0292987823486328,34.892730712890625,-23.84280204772949,-0.8463177680969238,-0.21503591537475586,-0.1295633316040039,989.8057250976562,0,0.0,0,1
18.16,5.981251,-7.565914,3.0573316000000004,0.6266418099403381,-2.546982526779175,0.7714949250221252,-2.7293710708618164,34.56524658203125,-23.86960411071777,-1.0199179649353027,-0.4250397682189941,-0.07839250564575195,989.8209228515624,0,0.0,0,1
18.2,5.809125,-7.644561,3.1188738,0.5512750148773193,-2.1633548736572266,0.6242225170135498,-4.112399101257323,33.375289916992195,-23.20193290710449,-0.6621832847595215,-0.12234783172607422,-0.4989314079284668,989.8413696289062,0,0.0,0,1
18.24,5.677626999999999,-7.7160587,2.9602666,0.3757733404636383,-1.7385811805725098,0.3714889585971832,-5.311751365661621,33.20081329345703,-23.62278175354004,-0.4849514961242676,-0.06269359588623047,-0.3766059875488281,989.8033447265624,0,0.0,0,1
18.28,5.742101,-7.7279729999999995,2.3400545,0.3456801474094391,-1.344566822052002,0.21130014955997467,-6.706489086151122,33.949386596679695,-23.68261528015137,-0.19993877410888672,-0.09011077880859376,0.5848100185394287,989.8284301757812,0,0.0,0,1
18.32,4.9079723,-8.087847,1.9139533,0.4925538897514343,-1.1726599931716921,0.014226632192730904,-7.532055854797362,32.91302490234375,-23.648723602294922,0.4719347953796386,0.2756876945495605,0.33155691623687744,989.8134765625,0,0.0,0,1
18.36,4.9150887,-7.966297999999999,2.1932783,0.12144319713115692,-0.801548957824707,-0.08550845086574554,-8.495425224304201,33.06415557861328,-22.9702262878418,0.4400830268859863,0.08177900314331055,-0.21437931060791016,989.8282470703124,0,0.0,0,1
18.4,4.960443,-8.164109,2.2548206000000004,-0.10346003621816637,-0.660801112651825,0.007169706281274556,-9.172863006591797,33.37767791748047,-22.34528923034668,0.13573551177978516,0.3433313369750977,-0.08032846450805664,989.8153686523438,0,0.0,0,1
18.44,4.6640415,-8.678896,1.942345,0.07736895978450775,-0.7829069495201111,-0.07924957573413849,-10.025251388549805,33.158775329589844,-21.8931941986084,0.7595863342285156,0.6906881332397461,-0.4384669065475464,989.784912109375,0,0.0,0,1
18.48,4.816942,-8.311869999999999,1.9944186000000002,0.19614635407924647,-0.649616003036499,-0.1243898943066597,-10.98753547668457,32.573326110839844,-21.017793655395508,0.8104872703552246,0.5340476036071777,0.005551576614379883,989.809814453125,0,0.0,0,1
18.52,4.592238,-8.459632000000001,2.1624851,0.06844840943813324,-0.5699875950813293,-0.08164598047733307,-11.347654342651367,32.2362060546875,-21.096540451049805,1.1518621444702148,0.6582932472229004,-0.4122415781021118,989.8096313476562,0,0.0,0,1
18.56,4.649543,-8.35715,2.0299168,0.10160524398088457,-0.5984835028648376,-0.13983578979969025,-12.2548246383667,32.7562255859375,-20.7562255859375,1.1386971473693848,0.5490999221801758,-0.4941353797912598,989.7871704101562,0,0.0,0,1
18.6,4.63276,-8.090221000000001,2.0346465,-0.07389640808105469,-0.2104613333940506,-0.10934240370988846,-12.349501609802244,32.4044189453125,-21.105972290039066,1.1975560188293457,0.3531150817871094,-0.3156694173812866,989.8375244140624,0,0.0,0,1
18.64,4.4032764,-8.428645,2.1885095000000003,-0.12649327516555786,0.038144450634717934,-0.09389586001634598,-12.332353591918945,31.94641304016113,-21.15880012512207,1.4081983566284182,0.5629105567932129,-0.7013149261474609,989.8218994140624,0,0.0,0,1
18.68,4.773658,-8.075919,1.7411033999999999,-0.0833490714430809,0.3677101731300354,0.11343150585889815,-12.493446350097654,31.953458786010746,-20.9034366607666,0.7895135879516602,0.13922786712646484,0.04484641551971436,989.8221435546876,0,0.0,0,1
18.72,5.091461,-7.847123,1.8949668000000002,-0.0833490714430809,0.3677101731300354,0.11343150585889815,-12.493446350097654,31.953458786010746,-20.9034366607666,0.7024621963500977,0.07520294189453125,0.0799630880355835,989.8221435546876,0,0.0,0,1
18.76,5.2419720000000005,-7.9948854,2.4630904,-0.23528127372264865,0.7123227715492249,-0.03850126639008522,-11.757882118225098,31.536088943481445,-21.146329879760746,0.41058874130249023,0.27887773513793945,-0.5508368015289307,989.8471069335938,0,0.0,0,1
18.8,5.999708,-7.961522,2.510447,-0.23528127372264865,0.7123227715492249,-0.03850126639008522,-11.757882118225098,31.536088943481445,-21.146329879760746,-0.09475946426391603,0.11992120742797853,-0.34330034255981445,989.8471069335938,0,0.0,0,1
18.84,6.026147,-8.352383999999999,4.162768,-0.3997316956520081,1.1313707828521729,-0.10081934928894044,-11.748452186584473,32.17706298828125,-21.18528938293457,-0.5134038925170898,0.5623579025268555,-2.0527801513671875,989.8521728515624,0,0.0,0,1
18.88,6.1456040000000005,-7.8328276,2.4370742,-0.4701765775680542,1.5368388891220093,-0.33650630712509155,-10.26332950592041,31.98771476745605,-21.941951751708984,-0.4588613510131836,0.4075822830200195,-0.5769326686859131,989.8446044921876,0,0.0,0,1
